'Start Wavelength	183.907
'End Wavelength	1046.922
'Gate Delay	5.000
'Gate Width (ms)	1.050
'Laser Output Level	0.000
'X Position	0.000
'Y Position	0.000
'Z Position	0.000
'Grid Point Number	1.000
'Shot Number	100.000
183.907	795.000
183.977	369.000
184.047	-467
184.116	631
184.186	684
184.256	401
184.325	-270
184.395	131
184.465	997
184.534	-222
184.604	-123
184.674	-53
184.743	-277
184.813	621
184.883	-26
184.952	497
185.022	1
185.092	-275
185.161	326
185.231	-7
185.301	223
185.370	276
185.440	166
185.509	-982
185.579	119
185.649	257
185.718	380
185.788	589
185.857	-214
185.927	124
185.996	-131
186.066	47
186.136	389
186.205	233
186.275	570
186.344	697
186.414	562
186.483	-307
186.553	835
186.622	174
186.692	192
186.761	187
186.831	695
186.900	39
186.970	538
187.039	486
187.109	1330
187.178	864
187.248	555
187.317	289
187.387	570
187.456	343
187.526	393
187.595	662
187.664	252
187.734	653
187.803	302
187.873	705
187.942	390
188.012	198
188.081	479
188.150	153
188.220	460
188.289	261
188.358	1250
188.428	830
188.497	122
188.567	684
188.636	458
188.705	-9
188.775	390
188.844	-256
188.913	411
188.983	909
189.052	297
189.121	541
189.191	482
189.260	535
189.329	1069
189.399	-106
189.468	274
189.537	657
189.606	191
189.676	58
189.745	365
189.814	1625
189.883	12
189.953	149
190.022	1270
190.091	2479
190.161	1769
190.230	676
190.299	177
190.368	545
190.437	125
190.507	784
190.576	728
190.645	1065
190.714	588
190.783	-9
190.853	505
190.922	1119
190.991	576
191.060	513
191.129	228
191.198	123
191.268	-1
191.337	917
191.406	985
191.475	815
191.544	312
191.613	246
191.682	623
191.752	219
191.821	-79
191.890	1035
191.959	510
192.028	1080
192.097	350
192.166	157
192.235	15
192.304	354
192.373	371
192.442	830
192.511	-382
192.580	321
192.650	342
192.719	644
192.788	469
192.857	1388
192.926	623
192.995	-177
193.064	926
193.133	1278
193.202	1043
193.271	1332
193.340	814
193.409	1439
193.478	1386
193.547	2056
193.615	2374
193.684	1746
193.753	2020
193.822	1533
193.891	341
193.960	1078
194.029	201
194.098	1339
194.167	689
194.236	1057
194.305	253
194.374	431
194.443	362
194.512	1343
194.580	1049
194.649	1018
194.718	1437
194.787	457
194.856	475
194.925	879
194.994	1475
195.062	549
195.131	1322
195.200	1891
195.269	1027
195.338	970
195.407	968
195.475	999
195.544	1111
195.613	1121
195.682	808
195.751	1531
195.819	1147
195.888	447
195.957	1872
196.026	1897
196.094	887
196.163	1619
196.232	949
196.301	1479
196.369	834
196.438	537
196.507	757
196.576	699
196.644	122
196.713	295
196.782	377
196.850	509
196.919	1116
196.988	183
197.056	748
197.125	512
197.194	788
197.262	477
197.331	209
197.400	1152
197.468	466
197.537	899
197.606	1023
197.674	1188
197.743	2035
197.812	1655
197.880	2276
197.949	1357
198.017	2503
198.086	996
198.155	1606
198.223	1253
198.292	3127
198.360	1860
198.429	1326
198.497	1173
198.566	2724
198.635	2299
198.703	1330
198.772	1808
198.840	3902
198.909	2827
198.977	1190
199.046	1447
199.114	1260
199.183	1029
199.251	1239
199.320	793
199.388	581
199.457	995
199.525	543
199.594	-163
199.662	1160
199.731	1107
199.799	762
199.867	1443
199.936	664
200.004	179
200.073	1233
200.141	420
200.210	232
200.278	275
200.346	1032
200.415	886
200.483	725
200.552	1092
200.620	1142
200.688	564
200.757	419
200.825	652
200.893	1461
200.962	1099
201.030	653
201.098	361
201.167	928
201.235	633
201.303	770
201.372	1564
201.440	848
201.508	1034
201.577	219
201.645	1455
201.713	1230
201.781	1103
201.850	1749
201.918	705
201.986	993
202.055	1587
202.123	17
202.191	1820
202.259	196
202.327	1203
202.396	740
202.464	587
202.532	2308
202.600	4907
202.669	1432
202.737	969
202.805	940
202.873	955
202.941	964
203.009	687
203.078	1574
203.146	960
203.214	753
203.282	551
203.350	1051
203.418	1320
203.487	225
203.555	235
203.623	661
203.691	1644
203.759	110
203.827	225
203.895	1085
203.963	976
204.031	406
204.099	1244
204.168	492
204.236	1104
204.304	1332
204.372	1318
204.440	856
204.508	1402
204.576	1028
204.644	305
204.712	911
204.780	640
204.848	952
204.916	782
204.984	1571
205.052	975
205.120	866
205.188	1540
205.256	1228
205.324	1557
205.392	244
205.460	1413
205.528	844
205.596	846
205.664	1445
205.732	1125
205.799	4477
205.867	3869
205.935	971
206.003	1501
206.071	1219
206.139	1264
206.207	846
206.275	1029
206.343	1624
206.411	1378
206.478	818
206.546	1256
206.614	749
206.682	1490
206.750	898
206.818	2428
206.885	1605
206.953	1132
207.021	1200
207.089	1499
207.157	1013
207.225	2206
207.292	790
207.360	1335
207.428	1187
207.496	1927
207.563	661
207.631	588
207.699	784
207.767	959
207.834	1189
207.902	1575
207.970	1456
208.038	947
208.105	1640
208.173	2403
208.241	1505
208.309	1810
208.376	2256
208.444	3643
208.512	1441
208.579	411
208.647	2202
208.715	1843
208.782	1366
208.850	1153
208.918	1418
208.985	1602
209.053	1529
209.120	1416
209.188	1002
209.256	815
209.323	1398
209.391	1816
209.459	2172
209.526	1067
209.594	2028
209.661	1670
209.729	2385
209.796	1189
209.864	952
209.932	1577
209.999	2248
210.067	2676
210.134	1416
210.202	2465
210.269	2974
210.337	2740
210.404	1850
210.472	1841
210.539	1537
210.607	1411
210.674	1531
210.742	1421
210.809	1361
210.877	2327
210.944	2814
211.012	1926
211.079	2199
211.146	1867
211.214	1681
211.281	2580
211.349	2155
211.416	2867
211.484	2536
211.551	1541
211.618	2712
211.686	1798
211.753	1697
211.821	2201
211.888	1730
211.955	1760
212.023	1790
212.090	2764
212.157	1957
212.225	2269
212.292	5079
212.359	8513
212.427	15184
212.494	5908
212.561	3351
212.629	3104
212.696	1634
212.763	2464
212.831	1975
212.898	2093
212.965	1281
213.032	2201
213.100	2328
213.167	2249
213.234	2815
213.301	2526
213.369	2023
213.436	2024
213.503	2582
213.570	2127
213.638	1912
213.705	2120
213.772	1486
213.839	2689
213.906	2488
213.973	3086
214.041	2411
214.108	2715
214.175	2243
214.242	2076
214.309	1824
214.376	3222
214.444	2500
214.511	2503
214.578	1416
214.645	2855
214.712	2921
214.779	2603
214.846	1829
214.913	3200
214.980	2919
215.048	3241
215.115	2769
215.182	3303
215.249	2910
215.316	2840
215.383	2461
215.450	2387
215.517	1839
215.584	2582
215.651	1630
215.718	1972
215.785	2598
215.852	2872
215.919	3347
215.986	2274
216.053	1643
216.120	2110
216.187	2593
216.254	2282
216.321	2605
216.388	2352
216.455	2459
216.522	3151
216.589	3606
216.656	5437
216.722	4500
216.789	3552
216.856	3931
216.923	3414
216.990	3190
217.057	3384
217.124	4040
217.191	4124
217.258	3831
217.324	4765
217.391	4366
217.458	3439
217.525	3066
217.592	2958
217.659	2484
217.725	3474
217.792	5498
217.859	4014
217.926	2630
217.993	2775
218.059	2149
218.126	2549
218.193	2578
218.260	2061
218.327	1211
218.393	1985
218.460	1343
218.527	2280
218.594	2021
218.660	4487
218.727	4378
218.794	1402
218.860	1793
218.927	1859
218.994	1796
219.061	1483
219.127	2908
219.194	3851
219.261	1581
219.327	1349
219.394	923
219.461	1842
219.527	1824
219.594	3276
219.661	1100
219.727	1209
219.794	2629
219.860	1684
219.927	2469
219.994	4582
220.060	5895
220.127	4179
220.193	3147
220.260	2982
220.326	4205
220.393	6502
220.460	8249
220.526	5407
220.593	2866
220.659	4292
220.726	4765
220.792	9318
220.859	8583
220.925	11382
220.992	12264
221.058	12142
221.125	11217
221.191	6890
221.258	3330
221.324	3553
221.391	3199
221.457	2618
221.524	3060
221.590	4597
221.657	11216
221.723	6130
221.789	7905
221.856	4942
221.922	2888
221.989	2433
222.055	2113
222.121	2292
222.188	3583
222.254	3207
222.321	2742
222.387	1018
222.453	1699
222.520	2172
222.586	1856
222.652	2527
222.719	1487
222.785	2697
222.851	1792
222.918	1861
222.984	2794
223.050	1369
223.116	1893
223.183	2001
223.249	1129
223.315	1327
223.382	1599
223.448	1845
223.514	1276
223.580	885
223.647	887
223.713	1721
223.779	1259
223.845	1662
223.911	1513
223.978	1747
224.044	1587
224.110	1369
224.176	1770
224.242	1482
224.309	674
224.375	2121
224.441	1938
224.507	992
224.573	1571
224.639	2190
224.705	1059
224.772	1825
224.838	1465
224.904	1741
224.970	1228
225.036	1825
225.102	2469
225.168	2212
225.234	2879
225.300	2742
225.366	2031
225.432	1519
225.499	1574
225.565	1821
225.631	2468
225.697	2454
225.763	3232
225.829	2474
225.895	2989
225.961	4611
226.027	3707
226.093	4367
226.159	5020
226.225	7975
226.291	16256
226.357	18867
226.423	10340
226.489	6685
226.554	4599
226.620	4795
226.686	5831
226.752	9262
226.818	15454
226.884	30227
226.950	18597
227.016	8571
227.082	5918
227.148	3949
227.214	4872
227.279	4383
227.345	3048
227.411	4304
227.477	3664
227.543	9981
227.609	8342
227.674	4881
227.740	4066
227.806	3480
227.872	1686
227.938	3470
228.003	4419
228.069	2564
228.135	1973
228.201	1944
228.267	2692
228.332	3089
228.398	4158
228.464	2448
228.530	1136
228.595	1453
228.661	1212
228.727	4024
228.792	2366
228.858	1953
228.924	1934
228.990	2992
229.055	2209
229.121	2570
229.187	1890
229.252	2295
229.318	1836
229.384	2331
229.449	2850
229.515	1527
229.581	18
229.646	3744
229.712	2755
229.777	6605
229.843	5047
229.909	5421
229.974	5088
230.040	4396
230.105	3945
230.171	3627
230.236	5382
230.302	6542
230.368	4243
230.433	3361
230.499	2193
230.564	4205
230.630	2285
230.695	2661
230.761	2521
230.826	2504
230.892	5086
230.957	2506
231.023	2296
231.088	3349
231.154	2685
231.219	3308
231.284	4450
231.350	4321
231.415	1906
231.481	2420
231.546	1921
231.612	2236
231.677	2131
231.742	1384
231.808	2669
231.873	1356
231.939	2136
232.004	5267
232.069	3991
232.135	3131
232.200	2219
232.265	1700
232.331	1894
232.396	1566
232.461	1829
232.527	1108
232.592	2110
232.657	2551
232.723	2610
232.788	2379
232.853	2653
232.918	2291
232.984	2335
233.049	2041
233.114	3412
233.179	3108
233.245	5730
233.310	4108
233.375	1695
233.440	2503
233.506	1546
233.571	2052
233.636	1437
233.701	1936
233.766	4402
233.832	3806
233.897	3170
233.962	2329
234.027	3383
234.092	2793
234.157	2819
234.222	3524
234.288	5095
234.353	10460
234.418	8295
234.483	6115
234.548	4528
234.613	3854
234.678	4430
234.743	5243
234.808	11366
234.873	4428
234.938	2953
235.004	2976
235.069	3135
235.134	2409
235.199	3725
235.264	2318
235.329	2025
235.394	3292
235.459	4220
235.524	3762
235.589	2525
235.654	3016
235.719	2157
235.784	2826
235.849	3432
235.913	5875
235.978	7323
236.043	5508
236.108	4052
236.173	3332
236.238	2485
236.303	2985
236.368	2875
236.433	6523
236.498	7362
236.563	6145
236.627	14862
236.692	38384
236.757	22777
236.822	10690
236.887	7835
236.952	6280
237.017	5592
237.081	6135
237.146	10194
237.211	19066
237.276	42857
237.341	50415
237.405	20428
237.470	9919
237.535	6648
237.600	5286
237.664	5094
237.729	3864
237.794	6878
237.859	9807
237.923	6270
237.988	4585
238.053	6214
238.118	5385
238.182	16199
238.247	9599
238.312	5722
238.376	4858
238.441	2675
238.506	4751
238.570	1841
238.635	3127
238.700	3351
238.764	2834
238.829	7815
238.893	6451
238.958	5476
239.023	4087
239.087	2870
239.152	4149
239.216	2145
239.281	2564
239.346	3003
239.410	2712
239.475	4362
239.539	16146
239.604	6567
239.668	4098
239.733	3122
239.797	7686
239.862	15471
239.926	12118
239.991	4940
240.055	3181
240.120	2855
240.184	3186
240.249	2341
240.313	2587
240.378	2821
240.442	10143
240.507	9674
240.571	4564
240.635	6839
240.700	7039
240.764	2887
240.829	3192
240.893	1523
240.957	2832
241.022	10084
241.086	11141
241.151	4941
241.215	2428
241.279	5072
241.344	6317
241.408	4489
241.472	3415
241.537	4236
241.601	3645
241.665	3037
241.730	2885
241.794	3912
241.858	3885
241.922	3722
241.987	3950
242.051	3405
242.115	2804
242.179	3292
242.244	2298
242.308	4055
242.372	4582
242.436	3963
242.501	4115
242.565	3174
242.629	3337
242.693	3410
242.757	3109
242.822	2960
242.886	3840
242.950	3150
243.014	3729
243.078	4571
243.142	3566
243.206	3456
243.271	4405
243.335	4498
243.399	7129
243.463	29815
243.527	45331
243.591	11715
243.655	6208
243.719	4270
243.783	5635
243.847	9292
243.911	9873
243.975	11843
244.040	6093
244.104	4698
244.168	4672
244.232	7724
244.296	8559
244.360	8984
244.424	4544
244.488	3482
244.552	4529
244.615	2162
244.679	3619
244.743	5361
244.807	3954
244.871	3073
244.935	2756
244.999	1981
245.063	3352
245.127	5446
245.191	8391
245.255	5741
245.319	6314
245.383	3765
245.446	4346
245.510	2044
245.574	4486
245.638	3606
245.702	4552
245.766	9561
245.829	4883
245.893	3992
245.957	3690
246.021	4367
246.085	4584
246.149	5361
246.212	15991
246.276	15267
246.340	7582
246.404	5140
246.467	7552
246.531	8267
246.595	5775
246.659	5992
246.722	5817
246.786	5649
246.850	8320
246.913	7045
246.977	3382
247.041	4099
247.104	4195
247.168	6314
247.232	15376
247.295	24511
247.359	9374
247.423	6935
247.486	10895
247.550	6066
247.614	5137
247.677	7132
247.741	5160
247.804	3870
247.868	5724
247.932	14848
247.995	21340
248.059	7105
248.122	4607
248.186	6907
248.249	15009
248.313	44727
248.376	34320
248.440	21774
248.503	7589
248.567	8507
248.630	13442
248.694	16367
248.757	24311
248.821	40646
248.884	21245
248.948	25575
249.011	32489
249.075	50354
249.138	31713
249.202	13922
249.265	9417
249.328	10061
249.392	8983
249.455	7380
249.519	6944
249.582	8616
249.645	14251
249.709	7595
249.772	6900
249.835	5938
249.899	6295
249.962	6908
250.025	6639
250.089	19849
250.152	17285
250.215	8919
250.279	7671
250.342	7481
250.405	7360
250.468	6520
250.532	10347
250.595	16962
250.658	67164
250.721	63213
250.785	23280
250.848	14806
250.911	8304
250.974	9016
251.038	16868
251.101	22126
251.164	11683
251.227	13986
251.290	12021
251.354	24071
251.417	82678
251.480	52875
251.543	58458
251.606	128911
251.669	69353
251.732	33031
251.795	37196
251.859	40224
251.922	80003
251.985	32707
252.048	17169
252.111	12789
252.174	14445
252.237	31479
252.300	47530
252.363	65415
252.426	90449
252.489	33919
252.552	19168
252.615	13675
252.678	18190
252.741	39893
252.804	61445
252.867	97907
252.930	51032
252.993	26886
253.056	19195
253.119	11990
253.182	11612
253.245	18716
253.308	12827
253.371	12800
253.434	10930
253.497	13251
253.559	23513
253.622	13901
253.685	20746
253.748	15471
253.811	9071
253.874	12596
253.937	9432
254.000	7799
254.062	20760
254.125	20652
254.188	24593
254.251	13846
254.314	9330
254.376	19280
254.439	16531
254.502	13169
254.565	20775
254.628	25474
254.690	14460
254.753	8553
254.816	7535
254.878	8747
254.941	20112
255.004	12234
255.067	8076
255.129	7221
255.192	4859
255.255	3827
255.317	6018
255.380	3505
255.443	3745
255.505	3025
255.568	3181
255.631	3547
255.693	5027
255.756	3472
255.819	4240
255.881	2788
255.944	3552
256.006	2974
256.069	2882
256.132	3315
256.194	5736
256.257	10718
256.319	8068
256.382	6546
256.444	6104
256.507	4636
256.569	3288
256.632	5456
256.694	8326
256.757	29689
256.819	51471
256.882	16748
256.944	9433
257.007	7575
257.069	7935
257.132	5844
257.194	5472
257.257	5650
257.319	5149
257.381	6843
257.444	20603
257.506	79496
257.569	56017
257.631	27717
257.693	14712
257.756	7703
257.818	7215
257.880	3927
257.943	5235
258.005	4173
258.067	4899
258.130	4818
258.192	7478
258.254	10211
258.317	5407
258.379	6101
258.441	17256
258.503	9328
258.566	18722
258.628	14166
258.690	4248
258.753	6974
258.815	11152
258.877	5778
258.939	4415
259.001	4867
259.064	4323
259.126	4445
259.188	7035
259.250	4884
259.312	7175
259.375	14471
259.437	6387
259.499	4764
259.561	3960
259.623	5521
259.685	3908
259.747	4472
259.809	18662
259.872	21392
259.934	45200
259.996	25845
260.058	8249
260.120	4823
260.182	3927
260.244	3833
260.306	3802
260.368	4308
260.430	4090
260.492	11099
260.554	16079
260.616	9138
260.678	26857
260.740	18535
260.802	6898
260.864	6466
260.926	4602
260.988	5593
261.050	6701
261.112	16375
261.174	30444
261.236	14587
261.298	6837
261.359	14334
261.421	12176
261.483	5002
261.545	5677
261.607	2793
261.669	4184
261.731	9694
261.793	17180
261.854	7270
261.916	6140
261.978	6073
262.040	5161
262.102	4113
262.164	7409
262.225	4724
262.287	5922
262.349	13640
262.411	7048
262.472	4760
262.534	10434
262.596	11123
262.658	5093
262.719	3563
262.781	7250
262.843	13596
262.904	6432
262.966	5866
263.028	8281
263.090	47640
263.151	63618
263.213	20819
263.275	11907
263.336	5860
263.398	4978
263.459	3792
263.521	4469
263.583	12756
263.644	7078
263.706	2938
263.767	2571
263.829	1985
263.891	2245
263.952	2670
264.014	2490
264.075	8508
264.137	12048
264.198	5640
264.260	2928
264.321	3331
264.383	14538
264.444	18699
264.506	5307
264.567	4627
264.629	13524
264.690	13961
264.752	5554
264.813	5398
264.875	2708
264.936	3363
264.998	3333
265.059	3276
265.120	3792
265.182	9242
265.243	36690
265.305	20184
265.366	6044
265.427	4206
265.489	4555
265.550	2345
265.611	4585
265.673	3460
265.734	3413
265.795	2996
265.857	3395
265.918	4008
265.979	13140
266.040	57265
266.102	25848
266.163	9531
266.224	8862
266.286	4862
266.347	3676
266.408	4733
266.469	4086
266.530	3806
266.592	2219
266.653	9463
266.714	10567
266.775	3311
266.836	3134
266.898	3134
266.959	6380
267.020	3176
267.081	3229
267.142	3344
267.203	2886
267.264	2194
267.326	4685
267.387	2811
267.448	2557
267.509	3552
267.570	2944
267.631	2947
267.692	1814
267.753	3718
267.814	2347
267.875	9785
267.936	14077
267.997	7656
268.058	5664
268.119	3043
268.180	3796
268.241	2574
268.302	3036
268.363	2349
268.424	2764
268.485	3125
268.546	2783
268.607	2266
268.668	2460
268.729	2136
268.790	3386
268.851	4240
268.912	12060
268.972	8951
269.033	5183
269.094	2999
269.155	2983
269.216	2592
269.277	3478
269.338	2496
269.398	3430
269.459	3859
269.520	5689
269.581	7085
269.642	7792
269.702	5154
269.763	3725
269.824	4344
269.885	5689
269.945	6223
270.006	4062
270.067	2110
270.128	2673
270.188	1891
270.249	2325
270.310	2342
270.370	4180
270.431	2996
270.492	1637
270.553	3976
270.613	9260
270.674	13810
270.734	4271
270.795	4000
270.856	6732
270.916	4062
270.977	3628
271.038	5774
271.098	3803
271.159	8605
271.219	5176
271.280	3731
271.340	3019
271.401	4344
271.462	7701
271.522	6068
271.583	4154
271.643	3576
271.704	3700
271.764	5746
271.825	15786
271.885	46845
271.946	37829
272.006	14048
272.066	30096
272.127	29349
272.187	10195
272.248	6374
272.308	9781
272.369	25811
272.429	10846
272.489	12746
272.550	9567
272.610	12337
272.671	6869
272.731	8737
272.791	9895
272.852	6770
272.912	5905
272.972	3912
273.033	4985
273.093	6833
273.153	6613
273.214	4402
273.274	6982
273.334	27583
273.394	30604
273.455	12483
273.515	20090
273.575	28779
273.635	10665
273.696	22351
273.756	29889
273.816	11370
273.876	8211
273.936	20522
273.997	18828
274.057	6571
274.117	6245
274.177	14522
274.237	51413
274.297	26136
274.358	21808
274.418	28765
274.478	16454
274.538	7524
274.598	7256
274.658	22477
274.718	20413
274.778	7502
274.838	6136
274.898	17264
274.958	30791
275.018	34210
275.078	16355
275.138	7902
275.198	4941
275.258	4784
275.318	5805
275.378	12093
275.438	10330
275.498	7985
275.558	22015
275.618	35026
275.678	18283
275.738	15353
275.798	10059
275.858	5033
275.918	4164
275.978	5448
276.038	4512
276.098	3725
276.157	13172
276.217	22844
276.277	10028
276.337	6843
276.397	5538
276.457	4994
276.517	3436
276.576	4090
276.636	3708
276.696	7455
276.756	16939
276.815	8609
276.875	5263
276.935	5635
276.995	5233
277.055	3365
277.114	3884
277.174	10385
277.234	19192
277.293	7014
277.353	5088
277.413	3806
277.472	5333
277.532	4345
277.592	6704
277.651	28304
277.711	26317
277.771	14225
277.830	47344
277.890	23337
277.950	34407
278.009	57384
278.069	18118
278.128	34094
278.188	27909
278.248	17399
278.307	42439
278.367	16177
278.426	7042
278.486	5597
278.545	4546
278.605	4199
278.664	4386
278.724	4917
278.783	21456
278.843	28342
278.902	8377
278.962	6956
279.021	7147
279.081	8136
279.140	8789
279.199	7771
279.259	8557
279.318	9097
279.378	12210
279.437	24484
279.496	75226
279.556	173048
279.615	83550
279.675	29383
279.734	20328
279.793	34547
279.853	37844
279.912	14768
279.971	10134
280.031	10418
280.090	25452
280.149	27685
280.208	32959
280.268	132679
280.327	72592
280.386	22446
280.445	23574
280.505	14055
280.564	9208
280.623	7487
280.682	15788
280.742	14988
280.801	5984
280.860	5151
280.919	4555
280.978	3322
281.037	4939
281.097	3202
281.156	5502
281.215	4499
281.274	6690
281.333	27539
281.392	11333
281.451	4408
281.510	4066
281.569	3226
281.628	2454
281.688	3032
281.747	4276
281.806	4436
281.865	2883
281.924	3206
281.983	3094
282.042	2533
282.101	2778
282.160	2734
282.219	3368
282.278	5783
282.337	14941
282.396	5864
282.454	4141
282.513	7739
282.572	21613
282.631	7656
282.690	4051
282.749	3387
282.808	4144
282.867	4664
282.926	3723
282.985	2827
283.043	2661
283.102	3145
283.161	3456
283.220	15555
283.279	18823
283.338	5211
283.396	4447
283.455	4335
283.514	5380
283.573	6460
283.631	4886
283.690	3759
283.749	4521
283.808	11591
283.866	7618
283.925	4040
283.984	4405
284.043	5885
284.101	5277
284.160	4610
284.219	6395
284.277	5844
284.336	11072
284.395	30523
284.453	15966
284.512	9407
284.570	12015
284.629	8582
284.688	10303
284.746	10327
284.805	13218
284.863	17214
284.922	20272
284.981	25612
285.039	38088
285.098	70366
285.156	153136
285.215	190734
285.273	182611
285.332	109496
285.390	61852
285.449	39442
285.507	26555
285.566	19830
285.624	16001
285.683	12545
285.741	10547
285.799	9044
285.858	8345
285.916	7313
285.975	5989
286.033	5259
286.091	5353
286.150	3330
286.208	4592
286.267	4479
286.325	5281
286.383	8623
286.442	5433
286.500	4025
286.558	3346
286.616	2755
286.675	5055
286.733	3764
286.791	4416
286.850	5411
286.908	7078
286.966	8665
287.024	4132
287.083	3626
287.141	2787
287.199	4487
287.257	5148
287.315	4067
287.374	6137
287.432	12036
287.490	5734
287.548	4151
287.606	3440
287.664	4284
287.723	6207
287.781	6005
287.839	5108
287.897	6289
287.955	7857
288.013	12419
288.071	30740
288.129	133529
288.187	201459
288.245	68940
288.303	29596
288.361	16187
288.419	12461
288.477	8844
288.535	6763
288.593	5509
288.651	5041
288.709	3565
288.767	4306
288.825	2519
288.883	3221
288.941	3167
288.999	3163
289.057	2308
289.115	3235
289.173	2135
289.231	3183
289.289	1766
289.346	2370
289.404	4217
289.462	6021
289.520	5127
289.578	3082
289.636	2333
289.694	2422
289.751	2035
289.809	2573
289.867	2855
289.925	3546
289.983	3473
290.040	2492
290.098	2593
290.156	3385
290.214	2820
290.271	2135
290.329	2610
290.387	1707
290.444	1797
290.502	910
290.560	972
290.617	2442
290.675	2567
290.733	2406
290.790	2092
290.848	2992
290.906	2253
290.963	1676
291.021	2112
291.078	2161
291.136	3136
291.194	15752
291.251	16325
291.309	4100
291.366	2934
291.424	3623
291.481	2433
291.539	2501
291.596	3308
291.654	1650
291.711	2105
291.769	3977
291.826	6264
291.884	4266
291.941	1224
291.999	2549
292.056	3125
292.114	2324
292.171	3082
292.228	3121
292.286	3365
292.343	7193
292.401	7041
292.458	3781
292.515	3537
292.573	4193
292.630	3795
292.687	3011
292.745	3054
292.802	5658
292.859	13404
292.917	21306
292.974	7583
293.031	3812
293.089	3157
293.146	2250
293.203	2194
293.260	2128
293.318	4106
293.375	4651
293.432	2458
293.489	2727
293.546	2480
293.604	6108
293.661	20563
293.718	30301
293.775	12289
293.832	8497
293.889	7153
293.947	6535
294.004	3658
294.061	5174
294.118	14580
294.175	23721
294.232	21098
294.289	7515
294.346	5556
294.403	5202
294.460	3967
294.517	3498
294.574	2413
294.631	3074
294.688	5195
294.745	16406
294.802	43840
294.859	30323
294.916	12391
294.973	8322
295.030	6780
295.087	4959
295.144	3841
295.201	3963
295.258	3022
295.315	5594
295.372	20556
295.429	21854
295.486	9909
295.542	8366
295.599	24306
295.656	23549
295.713	21769
295.770	21963
295.827	7856
295.883	5886
295.940	6088
295.997	8654
296.054	5133
296.111	3759
296.167	2634
296.224	2183
296.281	2798
296.338	2433
296.394	2948
296.451	4532
296.508	16468
296.564	19662
296.621	14830
296.678	39099
296.734	32438
296.791	11941
296.848	7877
296.904	11219
296.961	21906
297.018	29642
297.074	16062
297.131	7270
297.187	5996
297.244	11523
297.301	41140
297.357	39186
297.414	12217
297.470	6675
297.527	4416
297.583	3832
297.640	4654
297.696	2877
297.753	3004
297.809	1887
297.866	2061
297.922	2298
297.979	1937
298.035	3622
298.092	8403
298.148	20286
298.204	12054
298.261	8056
298.317	20798
298.374	34399
298.430	14231
298.486	7524
298.543	5219
298.599	6171
298.656	6593
298.712	16710
298.768	30209
298.824	13996
298.881	5862
298.937	3552
298.993	4827
299.050	4454
299.106	4583
299.162	3639
299.218	4043
299.275	3542
299.331	4642
299.387	12580
299.443	37769
299.500	26886
299.556	10919
299.612	7170
299.668	6878
299.724	11399
299.780	7639
299.837	6343
299.893	12210
299.949	35316
300.005	27067
300.061	33932
300.117	39371
300.173	15104
300.229	10142
300.285	14229
300.341	10676
300.397	6505
300.453	4362
300.510	3986
300.566	4026
300.622	8152
300.678	26036
300.734	30233
300.790	29018
300.845	27722
300.901	21481
300.957	31473
301.013	15990
301.069	7362
301.125	6554
301.181	6312
301.237	4409
301.293	3357
301.349	2742
301.405	3018
301.461	3461
301.516	4475
301.572	4979
301.628	7862
301.684	7206
301.740	14833
301.796	15760
301.851	12515
301.907	21679
301.963	18876
302.019	45357
302.074	90885
302.130	63643
302.186	26322
302.242	13213
302.297	9370
302.353	11652
302.409	18935
302.464	12124
302.520	16482
302.576	35239
302.631	30230
302.687	15337
302.743	7860
302.798	5376
302.854	3522
302.910	4970
302.965	6103
303.021	10011
303.076	9332
303.132	13925
303.187	12695
303.243	6439
303.299	3305
303.354	2452
303.410	3088
303.465	3119
303.521	3046
303.576	2899
303.632	5019
303.687	13665
303.743	28495
303.798	16203
303.853	7105
303.909	5082
303.964	4788
304.020	8635
304.075	11210
304.130	11229
304.186	17742
304.241	16716
304.297	12649
304.352	5987
304.358	5856
304.407	4786
304.449	4717
304.463	4690
304.518	4829
304.539	4573
304.573	4145
304.629	4227
304.630	4327
304.684	9346
304.720	21378
304.739	27175
304.794	25427
304.811	21504
304.850	11774
304.902	6432
304.905	6138
304.960	4535
304.992	4793
305.015	4998
305.071	5577
305.083	5339
305.126	4255
305.173	3293
305.181	3186
305.236	2642
305.264	4066
305.292	5491
305.347	5446
305.354	5428
305.402	5264
305.445	6083
305.457	6337
305.512	8610
305.535	8246
305.567	7749
305.622	8348
305.626	8723
305.678	18588
305.716	34218
305.733	38948
305.788	30272
305.807	27343
305.843	24744
305.897	36382
305.898	36470
305.953	25860
305.988	16956
306.008	12990
306.063	10667
306.078	9786
306.118	7619
306.168	4894
306.173	4718
306.228	4013
306.259	3989
306.283	4112
306.338	4520
306.349	4614
306.393	5143
306.440	5792
306.448	5880
306.503	6474
306.530	6715
306.558	9180
306.613	20005
306.620	21309
306.668	30852
306.711	40455
306.723	40202
306.778	24165
306.801	18186
306.833	13004
306.888	7668
306.892	7322
306.943	5628
306.982	5296
306.997	5355
307.052	5164
307.072	5350
307.107	5882
307.162	7363
307.163	7375
307.217	10189
307.253	12183
307.272	12634
307.327	11755
307.343	11087
307.381	10341
307.434	11443
307.436	11868
307.491	25061
307.524	33991
307.546	35512
307.600	30414
307.614	27923
307.655	17894
307.704	10471
307.710	10567
307.765	12767
307.795	15938
307.819	18437
307.874	22924
307.885	22725
307.929	19362
307.975	17858
307.984	18972
308.038	28527
308.065	35425
308.093	62172
308.148	131581
308.156	143903
308.202	193470
308.246	204597
308.257	192460
308.312	107933
308.336	77415
308.366	63013
308.421	40040
308.426	37793
308.475	25435
308.517	17741
308.530	16968
308.585	14892
308.607	14195
308.639	14497
308.694	16155
308.697	16337
308.748	25388
308.787	33019
308.803	32766
308.857	24578
308.877	22309
308.912	22916
308.967	25469
308.967	25472
309.021	36506
309.058	45162
309.076	58617
309.130	104129
309.148	121070
309.185	187568
309.238	297799
309.239	298620
309.293	288878
309.328	259760
309.348	222183
309.402	118030
309.418	91031
309.457	69498
309.508	45073
309.511	44900
309.566	43523
309.598	43906
309.620	50765
309.674	70583
309.688	75068
309.729	69742
309.778	58745
309.783	57616
309.837	43781
309.868	36380
309.892	45942
309.946	72136
309.959	78515
310.001	92737
310.049	103078
310.055	98767
310.109	55184
310.139	32089
310.163	27030
310.218	17450
310.229	15645
310.272	13437
310.319	11203
310.326	10986
310.381	9305
310.409	8556
310.435	8623
310.489	8554
310.499	8563
310.543	9378
310.589	9997
310.598	10081
310.652	10874
310.679	10890
310.706	9914
310.760	8151
310.769	7851
310.814	8031
310.859	8267
310.868	8282
310.923	8021
310.948	7962
310.977	9014
311.031	11119
311.038	11330
311.085	10635
311.128	9988
311.139	10091
311.193	10415
311.218	10488
311.247	10141
311.301	9512
311.308	9395
311.356	9601
311.398	9792
311.410	9761
311.464	9387
311.488	9142
311.518	9805
311.572	11000
311.578	11102
311.626	14959
311.668	18257
311.680	17783
311.734	15155
311.758	13985
311.788	13787
311.842	13240
311.847	13138
311.896	17763
311.937	21727
311.950	21427
312.004	19655
312.027	18807
312.058	16483
312.112	12214
312.117	11741
312.165	11491
312.207	11195
312.297	16910
312.386	13052
312.476	13441
312.566	27402
312.656	13889
312.745	10227
312.835	11605
312.925	13377
313.015	11380
313.104	11100
313.194	10909
313.284	12723
313.374	18903
313.463	16193
313.553	12654
313.643	11800
313.732	11361
313.822	12005
313.912	14218
314.001	14811
314.091	16865
314.180	19848
314.270	17925
314.360	18972
314.449	15972
314.539	12681
314.628	14093
314.718	13581
314.808	14887
314.897	13343
314.987	14867
315.076	18084
315.166	19352
315.255	16714
315.345	18661
315.434	16449
315.524	15899
315.613	19138
315.703	24484
315.792	31824
315.881	63984
315.971	27383
316.060	28760
316.150	29859
316.239	26740
316.328	14994
316.418	14520
316.507	14661
316.597	19729
316.686	17782
316.775	19796
316.865	26159
316.954	13710
317.043	12368
317.133	13547
317.222	13240
317.311	12183
317.400	12448
317.490	18799
317.579	19086
317.668	14003
317.757	21142
317.847	44940
317.936	108260
318.025	55042
318.114	34030
318.203	25495
318.293	40759
318.382	81221
318.471	58468
318.560	71581
318.649	94295
318.738	23583
318.828	19821
318.917	18170
319.006	18705
319.095	42072
319.184	122985
319.273	72707
319.362	41208
319.451	16453
319.540	15462
319.629	38739
319.718	53452
319.807	23694
319.896	49994
319.985	145506
320.074	51913
320.163	18573
320.252	22302
320.341	24253
320.430	23268
320.519	33062
320.608	19775
320.697	19335
320.786	18261
320.875	23265
320.964	28907
321.053	43853
321.142	58956
321.230	57338
321.319	48819
321.408	102130
321.497	43006
321.586	42741
321.675	37174
321.764	35920
321.852	29650
321.941	62026
322.030	39760
322.119	47535
322.207	97993
322.296	49616
322.385	34886
322.474	48588
322.562	127165
322.651	57965
322.740	47444
322.829	55758
322.917	40359
323.006	35994
323.095	32030
323.183	21895
323.272	31641
323.361	47282
323.449	86875
323.538	34074
323.626	72907
323.715	36624
323.804	22936
323.892	64360
323.981	40231
324.069	15997
324.158	34446
324.246	28156
324.335	24794
324.424	37921
324.512	16140
324.601	25189
324.689	58599
324.778	88161
324.866	32535
324.954	13616
325.043	15323
325.131	22118
325.220	27734
325.308	29480
325.397	27473
325.485	19203
325.574	12252
325.662	12599
325.750	14801
325.839	11905
325.927	10600
326.015	15369
326.104	14763
326.192	16739
326.280	11466
326.369	12115
326.457	20487
326.545	35625
326.634	14989
326.722	10725
326.810	12049
326.898	12161
326.987	13941
327.075	32245
327.163	23757
327.251	14931
327.340	45304
327.428	59289
327.516	16423
327.604	14016
327.692	12955
327.781	11535
327.869	15420
327.957	14546
328.045	15889
328.133	9367
328.221	11208
328.309	12482
328.397	11541
328.485	14655
328.574	22057
328.662	69048
328.750	31099
328.838	13240
328.926	11421
329.014	11306
329.102	17069
329.190	39326
329.278	26068
329.366	10722
329.454	10365
329.542	11820
329.630	10561
329.718	12300
329.806	17067
329.893	16877
329.981	19839
330.069	31809
330.157	137323
330.245	350569
330.333	182015
330.421	35365
330.509	27980
330.597	82691
330.684	48991
330.772	18967
330.860	22248
330.948	31111
331.036	16002
331.123	9409
331.211	11169
331.299	12435
331.387	27982
331.475	44170
331.562	15432
331.650	10163
331.738	11226
331.825	12668
331.913	9266
332.001	9910
332.089	11993
332.176	18026
332.264	31127
332.352	25890
332.439	15826
332.527	13022
332.614	9371
332.702	11131
332.790	9944
332.877	20998
332.965	31720
333.052	15837
333.140	17455
333.228	35703
333.315	13974
333.403	12475
333.490	21556
333.578	23369
333.665	48303
333.753	26394
333.840	13008
333.928	15154
334.015	25368
334.103	46370
334.190	128560
334.278	42967
334.365	27977
334.452	27203
334.540	20226
334.627	22091
334.715	26369
334.802	42949
334.889	121512
334.977	115467
335.064	39430
335.151	25879
335.239	21256
335.326	24926
335.413	79276
335.501	96993
335.588	23913
335.675	22538
335.762	28532
335.850	41777
335.937	40183
336.024	71382
336.111	164753
336.199	94033
336.286	38680
336.373	24341
336.460	18280
336.547	16046
336.635	18565
336.722	16831
336.809	13592
336.896	20056
336.983	53242
337.070	114295
337.157	134590
337.245	70112
337.332	42486
337.419	14153
337.506	12552
337.593	13844
337.680	41610
337.767	110506
337.854	34836
337.941	38376
338.028	33099
338.115	17440
338.202	19567
338.289	28794
338.376	65604
338.463	27270
338.550	67821
338.637	65541
338.724	19335
338.811	22867
338.898	10516
338.984	11483
339.071	14467
339.158	16984
339.245	41356
339.332	25907
339.419	20941
339.506	18964
339.593	9034
339.679	12164
339.766	11231
339.853	15380
339.940	31258
340.027	13402
340.113	14160
340.200	18153
340.287	12749
340.374	18113
340.460	28176
340.547	14713
340.634	21638
340.720	71432
340.807	39888
340.894	10858
340.980	11399
341.067	11224
341.154	13164
341.240	21478
341.327	41356
341.414	18576
341.500	22624
341.587	13757
341.674	10934
341.760	28448
341.847	33417
341.933	13309
342.020	8503
342.106	8581
342.193	14064
342.279	23087
342.366	19632
342.452	28214
342.539	16110
342.625	37122
342.712	78740
342.798	34804
342.885	16018
342.971	8660
343.058	7945
343.144	9739
343.230	9621
343.317	12208
343.403	11595
343.490	8599
343.576	8775
343.662	11068
343.749	12897
343.835	13557
343.921	23692
344.008	131610
344.094	263268
344.180	60712
344.267	27004
344.353	78408
344.439	75102
344.525	39716
344.612	20343
344.698	18302
344.784	12853
344.870	9608
344.957	11136
345.043	18391
345.129	15348
345.215	30107
345.301	19249
345.387	12660
345.474	8068
345.560	9337
345.646	10047
345.732	10946
345.818	15527
345.904	13519
345.990	12680
346.076	11920
346.162	19121
346.249	11842
346.335	9435
346.421	11226
346.507	36136
346.593	105648
346.679	29588
346.765	12799
346.851	14701
346.937	14230
347.023	10801
347.108	13495
347.194	12485
347.280	12262
347.366	14462
347.452	42462
347.538	137370
347.624	99502
347.710	77133
347.796	16238
347.882	11753
347.967	11277
348.053	13799
348.139	11398
348.225	9594
348.311	11217
348.397	10567
348.482	13425
348.568	15651
348.654	11639
348.740	23754
348.825	29208
348.911	22469
348.997	65942
349.083	112810
349.168	21475
349.254	15034
349.340	16009
349.425	9413
349.511	15526
349.597	16236
349.682	31404
349.768	84876
349.854	42138
349.939	11984
350.025	10395
350.110	10618
350.196	10702
350.282	8778
350.367	8029
350.453	11829
350.538	13602
350.624	15002
350.709	14691
350.795	10031
350.880	11590
350.966	12085
351.051	15060
351.137	10247
351.222	11543
351.308	31461
351.393	78428
351.479	27974
351.564	14343
351.649	10281
351.735	9276
351.820	9539
351.906	10245
351.991	13203
352.076	50552
352.162	74644
352.247	19257
352.332	14258
352.418	30300
352.503	36502
352.588	115860
352.673	97882
352.759	22896
352.844	14477
352.929	15605
353.014	19992
353.100	14142
353.185	21520
353.270	32903
353.355	31180
353.441	12502
353.526	11922
353.611	26942
353.696	33453
353.781	20038
353.866	11874
353.952	11683
354.037	29118
354.122	61204
354.207	53339
354.292	23754
354.377	10980
354.462	10870
354.547	15343
354.632	14836
354.717	19402
354.802	25505
354.887	12801
354.972	10321
355.057	9414
355.142	9167
355.227	12327
355.312	20504
355.397	42718
355.482	89152
355.567	48916
355.652	31792
355.737	36573
355.822	88996
355.907	75043
355.991	15622
356.076	10959
356.161	11104
356.246	9909
356.331	12729
356.416	26970
356.501	128384
356.585	138649
356.670	29958
356.755	18388
356.840	26071
356.924	109078
357.009	307296
357.094	132963
357.179	35050
357.263	23514
357.348	22339
357.433	24397
357.517	23224
357.602	19030
357.687	15840
357.771	23420
357.856	48621
357.941	38130
358.025	87511
358.110	302408
358.195	163916
358.279	31697
358.364	24381
358.448	70141
358.533	177470
358.617	137101
358.702	121586
358.787	51821
358.871	33702
358.956	29527
359.040	13508
359.125	10055
359.209	12342
359.294	25402
359.378	42734
359.462	28276
359.547	16963
359.631	11039
359.716	11323
359.800	12549
359.885	16761
359.969	13186
360.053	11678
360.138	12067
360.222	18077
360.306	31050
360.391	25823
360.475	36415
360.559	73769
360.644	66668
360.728	53847
360.812	78492
360.896	191171
360.981	96152
361.065	56547
361.149	19025
361.233	19241
361.318	15849
361.402	16457
361.486	15652
361.570	14953
361.654	17559
361.739	39290
361.823	137756
361.907	198803
361.991	51311
362.075	33033
362.159	64679
362.243	60068
362.327	78983
362.411	94213
362.495	47460
362.580	28708
362.664	23864
362.748	26639
362.832	38766
362.916	72507
363.000	174983
363.084	307227
363.168	280003
363.252	84938
363.336	36306
363.420	40514
363.503	103553
363.587	122292
363.671	32366
363.755	28866
363.839	37200
363.923	26737
364.007	42613
364.091	50607
364.175	73737
364.258	202278
364.342	253943
364.426	334293
364.510	192104
364.594	75787
364.677	66075
364.761	173607
364.845	137103
364.929	58547
365.013	47465
365.096	37797
365.180	43950
365.264	51605
365.347	142632
365.431	74154
365.515	25755
365.598	18043
365.682	15537
365.766	25649
365.849	31530
365.933	18597
366.017	21075
366.100	19881
366.184	11597
366.267	12500
366.351	12477
366.435	12286
366.518	11627
366.602	10793
366.685	12945
366.769	14656
366.852	23759
366.936	37656
367.019	24820
367.103	21504
367.186	31454
367.270	15856
367.353	11185
367.436	13715
367.520	13096
367.603	17140
367.687	23808
367.770	36860
367.853	25321
367.937	60161
368.020	96435
368.104	31081
368.187	27199
368.270	44211
368.353	40692
368.437	34726
368.520	45448
368.603	45537
368.687	71625
368.770	124919
368.853	41399
368.936	34797
369.020	35873
369.103	17846
369.186	13816
369.269	16135
369.352	25951
369.436	33941
369.519	24230
369.602	16982
369.685	14516
369.768	16629
369.851	13342
369.934	11126
370.018	15957
370.101	30912
370.184	25132
370.267	21427
370.350	35950
370.433	52293
370.516	103072
370.599	122535
370.682	48851
370.765	78608
370.848	95487
370.931	141365
371.014	64088
371.097	18192
371.180	14842
371.263	11979
371.346	11066
371.429	12319
371.511	14058
371.594	23975
371.677	33159
371.760	36928
371.843	36939
371.926	136364
372.009	280425
372.091	114130
372.174	68245
372.257	131447
372.340	66034
372.423	47619
372.505	54257
372.588	28950
372.671	53765
372.754	138168
372.836	81179
372.919	55291
373.002	98466
373.085	42405
373.167	33961
373.250	75071
373.332	140946
373.415	192053
373.498	340985
373.580	163110
373.663	180157
373.746	245701
373.828	72258
373.911	31625
373.993	34266
374.076	91298
374.159	90655
374.241	48628
374.324	121057
374.406	95924
374.489	116257
374.571	279055
374.654	138798
374.736	68634
374.819	177117
374.901	253958
374.983	256951
375.066	62903
375.148	26662
375.231	75166
375.313	139135
375.395	66602
375.478	21315
375.560	16576
375.643	21305
375.725	63566
375.807	201384
375.890	159144
375.972	53685
376.054	38796
376.136	38244
376.219	27145
376.301	68820
376.383	173162
376.465	84111
376.548	50899
376.630	67229
376.712	147764
376.794	83826
376.877	15878
376.959	10705
377.041	14403
377.123	25221
377.205	30282
377.287	11526
377.369	10971
377.452	11636
377.534	11807
377.616	11643
377.698	12673
377.780	10968
377.862	12972
377.944	12089
378.026	9900
378.108	10151
378.190	10908
378.272	10329
378.354	9713
378.436	9590
378.518	18803
378.600	49066
378.682	51397
378.764	88706
378.846	78129
378.928	27856
379.010	39005
379.091	23210
379.173	11704
379.255	11713
379.337	17241
379.419	48341
379.501	118495
379.583	59924
379.664	18655
379.746	37861
379.828	94084
379.910	128172
379.991	109527
380.073	25958
380.155	16566
380.237	14287
380.318	11946
380.400	13976
380.482	23369
380.564	35306
380.645	35145
380.727	35346
380.809	22657
380.890	18228
380.972	15196
381.053	14343
381.135	15841
381.217	39098
381.298	94294
381.380	58440
381.461	47006
381.543	147463
381.624	191004
381.706	48970
381.787	26502
381.869	30715
381.951	84238
382.032	249871
382.113	186294
382.195	52059
382.276	34354
382.358	65967
382.439	150303
382.521	174736
382.602	236727
382.684	136740
382.765	200402
382.846	262981
382.928	327491
383.009	211219
383.090	165731
383.172	446376
383.253	618666
383.334	272340
383.416	225302
383.497	140563
383.578	78361
383.659	146572
383.741	422144
383.822	813622
383.903	497251
383.984	203266
384.066	274131
384.147	190840
384.228	52696
384.309	37897
384.390	34222
384.471	26286
384.553	27520
384.634	32549
384.715	34081
384.796	21482
384.877	28554
384.958	79952
385.039	112879
385.120	50908
385.201	23790
385.282	28170
385.363	27557
385.444	27515
385.525	49399
385.606	121752
385.687	111827
385.768	35857
385.849	45807
385.930	141762
386.011	231412
386.092	84405
386.173	24288
386.254	19973
386.335	20137
386.416	25824
386.496	64761
386.577	99039
386.658	43233
386.739	27296
386.820	25661
386.901	21455
386.981	21082
387.062	17940
387.143	32275
387.224	89130
387.304	94535
387.385	41064
387.466	32668
387.547	36617
387.627	31191
387.708	48522
387.789	148693
387.869	189213
387.950	65084
388.031	19090
388.111	19232
388.192	33103
388.273	43194
388.353	31885
388.434	22333
388.514	42086
388.595	134676
388.676	188789
388.756	108064
388.837	89974
388.917	67022
388.998	19635
389.078	17603
389.159	15028
389.239	15554
389.320	21891
389.400	22939
389.480	39551
389.561	93220
389.641	58351
389.722	23984
389.802	36612
389.883	49561
389.963	103502
390.043	74708
390.124	26914
390.204	43766
390.284	103589
390.365	79653
390.445	69975
390.525	132310
390.605	124617
390.686	65095
390.766	24624
390.846	16507
390.927	13527
391.007	16225
391.087	16735
391.167	16055
391.247	14468
391.328	18781
391.408	28207
391.488	25343
391.568	15133
391.648	20602
391.728	28767
391.808	27104
391.888	31322
391.969	58344
392.049	94854
392.129	51123
392.209	52642
392.289	105983
392.369	75363
392.449	55416
392.529	43369
392.609	36538
392.689	48501
392.769	107279
392.849	108677
392.929	84434
393.009	161262
393.089	161234
393.169	171909
393.248	429859
393.328	942723
393.408	994387
393.488	459193
393.568	172177
393.648	90195
393.728	59447
393.807	44093
393.887	37629
393.967	33019
394.047	34269
394.127	36605
394.206	53026
394.286	152815
394.366	472875
394.446	535348
394.525	178642
394.605	51728
394.685	41841
394.764	71746
394.844	118043
394.924	101306
395.003	41001
395.083	26520
395.163	23992
395.242	21233
395.322	23920
395.402	18671
395.481	24256
395.561	54369
395.640	135122
395.720	151089
395.799	147196
395.879	114201
395.958	76365
396.038	216317
396.117	607130
396.197	695275
396.276	288481
396.356	111644
396.435	80321
396.515	66357
396.594	79595
396.673	146974
396.753	405147
396.832	865310
396.912	748246
396.991	274211
397.070	91342
397.150	52958
397.229	44177
397.308	66248
397.388	121467
397.467	76226
397.546	27901
397.625	19752
397.705	24382
397.784	24682
397.863	18465
397.942	13685
398.022	16746
398.101	40879
398.180	101168
398.259	66365
398.338	22885
398.417	17210
398.497	14308
398.576	13446
398.655	12004
398.734	11409
398.813	13258
398.892	37913
398.971	101942
399.050	66383
399.129	13677
399.208	9064
399.287	10397
399.366	8416
399.445	9874
399.524	9906
399.603	10539
399.682	18320
399.761	46248
399.840	108189
399.919	95949
399.998	19252
400.077	9330
400.156	8189
400.235	11087
400.313	9844
400.392	14428
400.471	50510
400.550	84608
400.629	30756
400.708	14379
400.786	14148
400.865	28818
400.944	35351
401.023	20550
401.102	7632
401.180	7424
401.259	7484
401.338	10555
401.416	13063
401.495	12980
401.574	10491
401.652	9749
401.731	12491
401.810	13109
401.888	8115
401.967	7885
402.046	8435
402.124	12611
402.203	16182
402.281	11530
402.360	13991
402.438	33685
402.517	29577
402.596	13048
402.674	11185
402.753	8214
402.831	7615
402.910	10813
402.988	36061
403.066	105347
403.145	76072
403.223	42436
403.302	93757
403.380	83774
403.459	73376
403.537	36956
403.615	14181
403.694	7534
403.772	7761
403.850	6974
403.929	7018
404.007	8073
404.085	15733
404.164	19095
404.242	10534
404.320	11767
404.398	22417
404.477	58541
404.555	177110
404.633	177232
404.711	39472
404.789	14514
404.868	10544
404.946	9143
405.024	6311
405.102	6594
405.180	6795
405.258	6071
405.336	7596
405.415	8692
405.493	15246
405.571	15723
405.649	7651
405.727	7696
405.805	10964
405.883	12047
405.961	12214
406.039	14438
406.117	9919
406.195	14865
406.273	53200
406.351	156501
406.429	116244
406.507	24084
406.585	11083
406.663	11067
406.740	13762
406.818	13652
406.896	8527
406.974	10042
407.052	21953
407.130	96225
407.208	144956
407.285	39477
407.363	9312
407.441	10204
407.519	8570
407.596	10538
407.674	18759
407.752	36198
407.830	41721
407.907	25577
407.985	12649
408.063	8142
408.141	6550
408.218	11992
408.296	14351
408.373	11477
408.451	11633
408.529	11539
408.606	7839
408.684	7526
408.762	7072
408.839	7198
408.917	7237
408.994	9220
409.072	9766
409.149	11364
409.227	17104
409.304	24034
409.382	22834
409.459	25168
409.537	31206
409.614	32600
409.692	25498
409.769	25301
409.846	32010
409.924	41135
410.001	37314
410.079	27487
410.156	20672
410.233	17308
410.311	14849
410.388	12785
410.465	15064
410.543	17547
410.620	12206
410.697	12018
410.775	13999
410.852	9313
410.929	13613
411.006	18156
411.083	14035
411.161	27322
411.238	30225
411.315	16392
411.392	10637
411.469	14789
411.547	18163
411.624	12321
411.701	10446
411.778	11691
411.855	19324
411.932	14190
412.009	8581
412.086	8437
412.163	9865
412.240	10470
412.317	12982
412.394	13356
412.471	7817
412.548	6915
412.625	6482
412.702	10227
412.779	17797
412.856	16679
412.933	7444
413.010	7173
413.087	12160
413.164	48798
413.241	76154
413.318	25958
413.395	13658
413.471	20284
413.548	12670
413.625	7802
413.702	9249
413.779	7755
413.855	5710
413.932	5055
414.009	4682
414.086	6181
414.162	6184
414.239	11921
414.316	46415
414.393	98314
414.469	48991
414.546	8813
414.623	5228
414.699	6938
414.776	9750
414.853	6776
414.929	6806
415.006	7294
415.082	7409
415.159	7426
415.236	6553
415.312	8020
415.389	13020
415.465	17479
415.542	11583
415.618	7832
415.695	12614
415.771	9865
415.848	8838
415.924	8899
416.000	7311
416.077	6190
416.153	3653
416.230	4198
416.306	5291
416.383	5251
416.459	4962
416.535	4454
416.612	4167
416.688	5204
416.764	5096
416.841	5812
416.917	6132
416.993	6637
417.069	8017
417.146	12594
417.222	17672
417.298	12348
417.374	7242
417.451	7944
417.527	10749
417.603	11623
417.679	9207
417.755	8202
417.831	5861
417.908	5849
417.984	4808
418.060	6018
418.136	15061
418.212	21099
418.288	10835
418.364	6548
418.440	6735
418.516	11261
418.592	14785
418.668	25045
418.744	36612
418.820	31444
418.896	11556
418.972	6155
419.048	7331
419.124	16892
419.200	17064
419.276	7579
419.352	5028
419.428	6155
419.504	7847
419.579	10726
419.655	8491
419.731	9415
419.807	23159
419.883	41299
419.959	32020
420.034	12173
420.110	20909
420.186	61238
420.262	59852
420.337	15860
420.413	12052
420.489	9745
420.565	10008
420.640	9527
420.716	10860
420.792	9594
420.867	10554
420.943	11502
421.019	17725
421.094	17367
421.170	12357
421.245	11896
421.321	13681
421.397	14794
421.472	19308
421.548	29980
421.623	31056
421.699	24826
421.774	24471
421.850	26616
421.925	35052
422.001	38201
422.076	41523
422.152	50933
422.227	68983
422.302	91243
422.378	134262
422.453	231054
422.529	425310
422.604	666184
422.679	662796
422.755	648313
422.830	499974
422.905	271787
422.981	161377
423.056	106753
423.131	76047
423.207	59003
423.282	50295
423.357	52230
423.432	43064
423.508	37066
423.583	50175
423.658	46282
423.733	25462
423.808	23273
423.883	24689
423.959	23954
424.034	22998
424.109	20135
424.184	15428
424.259	13400
424.334	12643
424.409	11425
424.484	10833
424.559	12469
424.634	11157
424.709	12795
424.784	14377
424.859	11580
424.934	16463
425.009	49215
425.084	79048
425.159	38791
425.234	10014
425.309	7946
425.384	13573
425.459	20578
425.534	12448
425.609	7898
425.683	7638
425.758	7422
425.833	8341
425.908	11296
425.983	30595
426.058	76827
426.132	45174
426.207	11286
426.282	13687
426.357	13344
426.431	6939
426.506	7129
426.581	6839
426.655	7994
426.730	7215
426.805	7334
426.879	7776
426.954	7794
427.029	16531
427.103	65778
427.178	145179
427.253	80787
427.327	13261
427.402	13374
427.476	24892
427.551	17042
427.625	8298
427.700	8706
427.774	7143
427.849	8125
427.923	7443
427.998	6842
428.072	9076
428.147	21562
428.221	80878
428.296	214299
428.370	143507
428.444	26449
428.519	18323
428.593	28731
428.667	28160
428.742	30022
428.816	43028
428.890	131710
428.965	224004
429.039	82611
429.113	35626
429.188	18985
429.262	9005
429.336	16044
429.410	37752
429.485	31135
429.559	23412
429.633	22583
429.707	12594
429.781	33429
429.855	141957
429.930	229809
430.004	114732
430.078	116243
430.152	146021
430.226	262008
430.300	294922
430.374	77183
430.448	23598
430.522	43172
430.596	99979
430.670	94503
430.744	192015
430.818	278549
430.892	75229
430.966	13732
431.040	8058
431.114	6936
431.188	5837
431.262	6271
431.336	6324
431.410	14441
431.484	34659
431.557	28775
431.631	8132
431.705	13338
431.779	53107
431.853	181682
431.927	158776
432.000	26986
432.074	8061
432.148	8220
432.222	7401
432.295	5739
432.369	5164
432.443	11216
432.516	55329
432.590	133519
432.664	64604
432.737	11511
432.811	4376
432.885	2843
432.958	3949
433.032	5092
433.106	2611
433.179	2875
433.253	3756
433.326	4013
433.400	3199
433.473	3990
433.547	3171
433.620	4913
433.694	10280
433.767	11266
433.841	4428
433.914	4846
433.988	3977
434.061	5163
434.134	5261
434.208	3689
434.281	3481
434.355	4016
434.428	4426
434.501	3447
434.575	3803
434.648	4664
434.721	2749
434.795	3298
434.868	3525
434.941	2996
435.014	3481
435.088	4258
435.161	6813
435.234	11734
435.307	14867
435.381	9973
435.454	10038
435.527	13256
435.600	14304
435.673	14487
435.746	11584
435.819	9952
435.892	7621
435.966	6825
436.039	5512
436.112	6528
436.185	3436
436.258	4368
436.331	3285
436.404	3837
436.477	3008
436.550	3861
436.623	3918
436.696	3437
436.769	4918
436.842	5109
436.915	4966
436.987	7200
437.060	3887
437.133	3625
437.206	2900
437.279	3943
437.352	3287
437.425	2810
437.498	5291
437.570	12653
437.643	14863
437.716	5741
437.789	4192
437.861	11894
437.934	30768
438.007	18611
438.080	4125
438.152	5116
438.225	13362
438.298	69083
438.370	174414
438.443	95903
438.516	30594
438.588	8704
438.661	4013
438.734	4977
438.806	5375
438.879	7046
438.951	9771
439.024	17852
439.096	8217
439.169	3702
439.241	3248
439.314	3746
439.386	6466
439.459	9625
439.531	13288
439.604	8369
439.676	3710
439.749	3506
439.821	3204
439.893	3932
439.966	3711
440.038	6389
440.110	7564
440.183	4398
440.255	3597
440.327	6921
440.400	31922
440.472	112899
440.544	86411
440.617	14821
440.689	11580
440.761	16877
440.833	26497
440.905	19421
440.978	5187
441.050	3459
441.122	4087
441.194	3591
441.266	4120
441.338	4226
441.411	8824
441.483	42244
441.555	66712
441.627	18231
441.699	9685
441.771	8699
441.843	5569
441.915	4829
441.987	4423
442.059	5648
442.131	7123
442.203	11061
442.275	12630
442.347	16022
442.419	29513
442.491	124885
442.563	280561
442.635	141508
442.706	47083
442.778	35786
442.850	11876
442.922	8917
442.994	9782
443.066	12798
443.137	13051
443.209	13481
443.281	20720
443.353	44967
443.425	152929
443.496	424006
443.568	462429
443.640	204369
443.711	45471
443.783	19114
443.855	12961
443.926	8995
443.998	9283
444.070	9441
444.141	9472
444.213	12839
444.285	14433
444.356	11287
444.428	9169
444.499	6522
444.571	5777
444.642	6552
444.714	8257
444.785	12287
444.857	14635
444.928	23186
445.000	17421
445.071	19648
445.143	25677
445.214	24792
445.285	38404
445.357	101179
445.428	284449
445.500	536432
445.571	421882
445.642	263854
445.714	95452
445.785	51518
445.856	21297
445.928	18705
445.999	16425
446.070	14357
446.141	12833
446.213	15593
446.284	8968
446.355	8136
446.426	6102
446.497	6021
446.569	9675
446.640	14811
446.711	11232
446.782	4477
446.853	4311
446.924	6448
446.995	5534
447.066	5828
447.138	8634
447.209	5999
447.280	2643
447.351	3140
447.422	2572
447.493	5329
447.564	7160
447.635	8856
447.706	4689
447.777	2592
447.847	2724
447.918	3047
447.989	5776
448.060	7085
448.131	14250
448.202	15235
448.273	11810
448.344	5698
448.414	3403
448.485	4894
448.556	2516
448.627	3151
448.698	2879
448.768	2423
448.839	3594
448.910	8098
448.981	8390
449.051	4420
449.122	2507
449.193	2500
449.263	3619
449.334	3530
449.405	5819
449.475	12970
449.546	10409
449.616	9201
449.687	8382
449.758	4777
449.828	3662
449.899	3132
449.969	2951
450.040	3368
450.110	3599
450.181	3966
450.251	3194
450.322	3141
450.392	3804
450.463	3425
450.533	3194
450.604	3304
450.674	2748
450.744	4168
450.815	3388
450.885	3847
450.955	3528
451.026	3367
451.096	3522
451.166	5116
451.237	9819
451.307	22692
451.377	10028
451.447	4496
451.518	3225
451.588	3724
451.658	3242
451.728	6327
451.799	21597
451.869	24678
451.939	6017
452.009	3097
452.079	2340
452.149	3990
452.219	7258
452.289	24594
452.360	18753
452.430	5163
452.500	5293
452.570	8045
452.640	13372
452.710	32436
452.780	45637
452.850	31906
452.920	25491
452.990	8719
453.060	6342
453.129	8094
453.199	9817
453.269	26594
453.339	53232
453.409	79926
453.479	76187
453.549	116412
453.619	121437
453.688	45921
453.758	6338
453.828	4270
453.898	3196
453.968	3803
454.037	2906
454.087	3168
454.107	3273
454.168	2842
454.177	2772
454.247	3015
454.249	3001
454.316	2177
454.330	2702
454.386	4503
454.411	7352
454.456	12062
454.492	15233
454.525	18137
454.574	9770
454.595	6165
454.655	3514
454.665	3085
454.734	3483
454.736	3647
454.804	7753
454.817	10147
454.873	19629
454.898	20623
454.943	22614
454.979	13740
455.013	5907
455.060	5080
455.082	4650
455.141	5500
455.152	5544
455.221	13877
455.222	14065
455.291	25661
455.303	23094
455.360	12238
455.384	11941
455.430	10811
455.465	10605
455.499	10327
455.546	15969
455.569	18403
455.627	13450
455.638	12657
455.707	3124
455.708	3129
455.777	3027
455.789	2981
455.846	2605
455.869	2640
455.916	2740
455.950	3070
455.985	3318
456.031	3373
456.054	3423
456.112	2892
456.124	2791
456.193	2614
456.193	2601
456.262	3403
456.274	3601
456.332	4496
456.355	4271
456.401	3565
456.436	3182
456.470	2949
456.516	2602
456.540	2459
456.597	2949
456.609	3007
456.678	2091
456.678	2082
456.747	2750
456.759	2641
456.817	2104
456.840	2119
456.886	2199
456.920	2311
456.955	2493
457.001	3170
457.024	3431
457.082	3861
457.093	3915
457.162	4915
457.163	4925
457.232	4461
457.243	4169
457.301	3177
457.324	3140
457.370	3066
457.405	3251
457.439	3438
457.485	3609
457.508	3851
457.566	4457
457.577	4675
457.646	6372
457.647	6425
457.715	11826
457.727	12971
457.784	17971
457.808	23481
457.853	31434
457.889	39008
457.922	45257
457.969	33472
457.991	30053
458.050	29142
458.060	29003
458.129	49389
458.130	50020
458.198	63528
458.211	57105
458.267	35124
458.292	26589
458.336	16113
458.372	15646
458.405	18205
458.453	25524
458.474	28545
458.533	44750
458.543	45883
458.611	81885
458.614	82090
458.680	70005
458.694	58228
458.749	24857
458.775	18661
458.818	9785
458.855	7842
458.887	6575
458.936	5817
458.955	5540
459.016	4995
459.024	4960
459.093	5231
459.097	5236
459.162	4696
459.177	4714
459.230	5554
459.257	6055
459.299	6162
459.338	6074
459.368	6013
459.418	6608
459.437	6688
459.499	5111
459.505	4995
459.574	4230
459.579	4201
459.643	3792
459.659	3832
459.711	4283
459.740	4449
459.780	4460
459.820	4375
459.849	4348
459.900	4777
459.917	4923
459.981	5007
459.986	4998
460.054	5095
460.061	5088
460.123	5343
460.141	5512
460.191	6160
460.222	6640
460.260	6805
460.302	7561
460.328	7664
460.382	6292
460.397	6265
460.462	6482
460.465	6650
460.534	10518
460.543	11178
460.602	18195
460.623	20851
460.671	28823
460.703	39187
460.739	35374
460.783	24846
460.808	23942
460.864	8101
460.876	5576
460.944	4127
460.945	4103
461.013	4386
461.024	4351
461.081	4451
461.104	4609
461.150	4224
461.184	3854
461.218	3907
461.264	3833
461.286	3836
461.345	3953
461.355	3995
461.423	4286
461.425	4306
461.491	5549
461.505	5718
461.559	10000
461.585	12045
461.628	15030
461.665	18743
461.696	18755
461.745	21390
461.764	20459
461.825	8844
461.832	8396
461.901	4738
461.905	4775
461.969	4884
461.985	4696
462.037	4684
462.065	4777
462.105	6477
462.145	8056
462.173	9047
462.225	11472
462.241	12213
462.305	16361
462.310	15966
462.378	9410
462.385	8142
462.446	4704
462.465	4611
462.514	4938
462.545	5184
462.582	5236
462.625	5224
462.650	5206
462.705	4800
462.718	4955
462.785	6232
462.786	6258
462.854	7985
462.865	8196
462.922	8182
462.945	8568
462.990	7604
463.025	5872
463.058	5333
463.104	4454
463.126	4249
463.184	4671
463.194	4769
463.262	5083
463.264	5104
463.330	4787
463.344	4610
463.398	5214
463.424	5676
463.466	5421
463.504	5173
463.533	5474
463.583	5959
463.601	6120
463.663	6010
463.669	6244
463.737	10120
463.743	10407
463.805	14691
463.823	16002
463.873	20544
463.903	23519
463.940	22642
463.982	22530
464.008	18834
464.062	7748
464.076	7238
464.142	4985
464.144	4949
464.211	4950
464.221	4992
464.279	5471
464.301	5620
464.347	6198
464.381	6686
464.414	7343
464.461	8158
464.482	7983
464.540	7875
464.550	7827
464.617	6740
464.620	6705
464.685	8214
464.699	8531
464.753	8860
464.779	9217
464.820	9594
464.859	9618
464.888	9658
464.938	9758
464.956	9663
465.018	9436
465.023	9373
465.091	8304
465.098	8156
465.158	7863
465.177	7876
465.226	8069
465.257	8072
465.293	8628
465.336	9360
465.361	10505
465.416	13091
465.428	14014
465.495	19051
465.496	19109
465.563	23797
465.575	24712
465.631	26033
465.654	26859
465.698	18053
465.734	9257
465.765	8447
465.813	7877
465.833	8100
465.893	9264
465.900	9251
465.968	8970
465.972	8942
466.035	8873
466.052	8843
466.102	9139
466.131	9289
466.170	9716
466.210	10166
466.237	9912
466.290	9351
466.304	9555
466.369	10352
466.372	10381
466.439	10951
466.449	10992
466.506	13978
466.528	15144
466.573	21361
466.607	25960
466.641	31048
466.687	38066
466.708	39255
466.766	42738
466.775	39885
466.842	17721
466.845	16636
466.909	13906
466.925	13383
466.977	13611
467.004	13726
467.044	13625
467.083	13531
467.111	14641
467.163	16648
467.178	16561
467.242	16108
467.245	16059
467.312	14591
467.321	14379
467.379	14732
467.400	14822
467.446	15577
467.480	16081
467.559	13422
467.638	12207
467.717	13121
467.796	14365
467.875	15187
467.955	15669
468.034	28680
468.113	42193
468.192	51418
468.271	14196
468.350	15088
468.429	17062
468.508	16081
468.588	13297
468.667	12068
468.746	12267
468.825	11004
468.904	10638
468.983	14470
469.062	17733
469.141	18909
469.220	9893
469.299	10050
469.378	10472
469.456	11506
469.535	10901
469.614	10070
469.693	12800
469.772	15455
469.851	20664
469.930	11407
470.009	10336
470.088	10931
470.166	14012
470.245	16685
470.324	17897
470.403	14610
470.482	11950
470.560	10681
470.639	11084
470.718	13663
470.797	11109
470.875	13723
470.954	15475
471.033	14687
471.111	8251
471.190	8365
471.269	8479
471.347	8248
471.426	9332
471.505	10774
471.583	10464
471.662	9705
471.740	9129
471.819	9483
471.898	8529
471.976	8671
472.055	9010
472.133	10436
472.212	13579
472.290	12404
472.369	8914
472.447	8629
472.526	6748
472.604	9397
472.683	9882
472.761	10508
472.839	8952
472.918	9706
472.996	9464
473.075	11157
473.153	10175
473.231	8883
473.310	10568
473.388	9135
473.466	10677
473.545	11613
473.623	14436
473.701	12450
473.780	8963
473.858	8531
473.936	10130
474.014	9602
474.093	11714
474.171	15908
474.249	20560
474.327	10549
474.405	8301
474.484	9076
474.562	10029
474.640	9188
474.718	10086
474.796	9929
474.874	9763
474.952	9195
475.030	10085
475.108	10592
475.187	12832
475.265	13683
475.343	17085
475.421	17157
475.499	9640
475.577	10379
475.655	16212
475.733	27197
475.811	41065
475.889	34854
475.966	17422
476.044	9901
476.122	12697
476.200	14642
476.278	10274
476.356	8671
476.434	10462
476.512	11756
476.590	14407
476.667	11589
476.745	8654
476.823	9223
476.901	8623
476.979	8198
477.056	9727
477.134	9877
477.212	10063
477.290	9184
477.367	8147
477.445	8183
477.523	7906
477.601	8938
477.678	9383
477.756	10300
477.834	10909
477.911	8188
477.989	7927
478.066	9120
478.144	10992
478.222	12866
478.299	18430
478.377	13935
478.454	8910
478.532	8110
478.609	9380
478.687	8976
478.764	8570
478.842	8874
478.919	9825
478.997	8575
479.074	8690
479.152	9456
479.229	12642
479.307	7103
479.384	7002
479.461	7198
479.539	8021
479.616	10059
479.694	8855
479.771	9409
479.848	10220
479.926	12185
480.003	12140
480.080	8055
480.157	8252
480.235	8050
480.312	8099
480.389	11040
480.467	14512
480.544	17184
480.621	9395
480.698	9819
480.775	11158
480.853	9941
480.930	9427
481.007	8763
481.084	10356
481.161	11412
481.238	10308
481.315	7895
481.392	8643
481.470	8778
481.547	8521
481.624	8776
481.701	8709
481.778	8909
481.855	11799
481.932	17814
482.009	24246
482.086	14018
482.163	12182
482.240	15839
482.317	24579
482.393	15985
482.470	9434
482.547	10444
482.624	9100
482.701	10173
482.778	8731
482.855	8911
482.932	8865
483.009	9261
483.085	10695
483.162	13476
483.239	11358
483.316	9449
483.393	10655
483.469	10564
483.546	10431
483.623	10087
483.699	8245
483.776	9351
483.853	11404
483.930	21405
484.006	39663
484.083	59289
484.160	25585
484.236	35497
484.313	25843
484.389	21117
484.466	19507
484.543	19625
484.619	20536
484.696	21968
484.772	22494
484.849	22605
484.925	18281
485.002	18466
485.078	20171
485.155	19036
485.231	16560
485.308	17380
485.384	18685
485.461	27148
485.537	37045
485.614	37838
485.690	17032
485.766	17183
485.843	19962
485.919	26398
485.995	26112
486.072	14974
486.148	15394
486.224	16128
486.301	16401
486.377	20419
486.453	21145
486.530	19731
486.606	24177
486.682	27322
486.758	32336
486.835	37009
486.911	33986
486.987	54607
487.063	54927
487.139	66598
487.215	42589
487.292	21893
487.368	20696
487.444	25026
487.520	32372
487.596	37736
487.672	82313
487.748	167644
487.824	220734
487.900	70166
487.976	33797
488.052	27839
488.128	30381
488.204	21914
488.280	20250
488.356	28291
488.432	47837
488.508	63178
488.584	18516
488.660	16711
488.736	17464
488.812	18820
488.888	24804
488.964	39664
489.039	79894
489.115	97127
489.191	47341
489.267	17910
489.343	15669
489.418	13982
489.494	14714
489.570	13111
489.646	14003
489.722	13701
489.797	17323
489.873	30809
489.949	50653
490.024	32798
490.100	14439
490.176	15400
490.251	19467
490.327	24204
490.403	14154
490.478	13440
490.554	12139
490.629	11572
490.705	12102
490.781	14231
490.856	13721
490.932	16902
491.007	16354
491.083	14539
491.158	15132
491.234	24676
491.309	40003
491.385	34133
491.460	14152
491.536	15180
491.611	13838
491.686	15925
491.762	27706
491.837	50715
491.913	87537
491.988	105549
492.063	115972
492.139	28993
492.214	17619
492.289	11072
492.365	11482
492.440	14726
492.515	14055
492.590	12382
492.666	13525
492.741	17268
492.816	22486
492.891	11712
492.967	10892
493.042	9429
493.117	10904
493.192	10231
493.267	16473
493.342	24781
493.418	24500
493.493	10577
493.568	10444
493.643	10399
493.718	15737
493.793	22180
493.868	22990
493.943	14662
494.018	12575
494.093	10131
494.168	11051
494.243	10136
494.318	8767
494.393	9569
494.468	10070
494.543	10431
494.618	12328
494.693	11425
494.768	10728
494.842	10663
494.917	9688
494.992	10781
495.067	9713
495.142	9872
495.217	11473
495.292	11345
495.366	12620
495.441	15934
495.516	21105
495.591	45683
495.665	123121
495.740	221737
495.815	60373
495.890	16759
495.964	14486
496.039	15574
496.114	13930
496.188	15910
496.263	15959
496.338	14771
496.412	17035
496.487	19077
496.561	20041
496.636	20747
496.710	17444
496.785	18956
496.860	21526
496.934	18088
497.009	17988
497.083	18395
497.158	20234
497.232	23203
497.307	27073
497.381	25374
497.455	30118
497.530	34906
497.604	27331
497.679	32455
497.753	45103
497.827	52380
497.902	50391
497.976	68299
498.050	159185
498.125	352838
498.199	272518
498.273	66968
498.348	58783
498.422	51531
498.496	48703
498.570	43696
498.645	35076
498.719	34051
498.793	37056
498.867	47553
498.941	77482
499.016	182326
499.090	352395
499.164	75205
499.238	22699
499.312	23213
499.386	25965
499.460	20803
499.534	21492
499.609	24596
499.683	32241
499.757	36683
499.831	103649
499.905	250175
499.979	172131
500.053	35039
500.127	35009
500.201	27499
500.275	18993
500.349	18216
500.422	21660
500.496	36121
500.570	80439
500.644	160566
500.718	231962
500.792	31381
500.866	18275
500.940	21424
501.013	17126
501.087	21076
501.161	34963
501.235	48909
501.309	116372
501.382	229761
501.456	149745
501.530	47132
501.603	71918
501.677	20188
501.751	13858
501.825	19918
501.898	44250
501.972	92263
502.046	41163
502.119	21544
502.193	52509
502.266	98020
502.340	40407
502.413	51886
502.487	81207
502.561	40174
502.634	15225
502.708	15793
502.781	14029
502.855	10621
502.928	10040
503.002	10080
503.075	10914
503.149	11150
503.222	11051
503.295	12277
503.369	16290
503.442	30112
503.516	88592
503.589	169115
503.662	90321
503.736	42450
503.809	84242
503.882	70735
503.956	105501
504.029	96047
504.102	106947
504.175	120703
504.249	46239
504.322	26418
504.395	19197
504.468	13918
504.542	13047
504.615	9353
504.688	10453
504.761	9468
504.834	13293
504.907	17541
504.980	24686
505.053	14103
505.127	17123
505.200	17609
505.273	16009
505.346	9926
505.419	9283
505.492	7664
505.565	8345
505.638	7491
505.711	7436
505.784	8388
505.857	8402
505.930	9237
506.003	8138
506.076	10519
506.149	12299
506.221	13692
506.294	18329
506.367	53431
506.440	123828
506.513	43860
506.586	15104
506.659	9502
506.731	9660
506.804	13557
506.877	17398
506.950	10333
507.022	10152
507.095	12197
507.168	13531
507.241	9514
507.313	8224
507.386	9417
507.459	13305
507.531	8207
507.604	7628
507.677	7549
507.749	7690
507.822	12386
507.894	20748
507.967	20112
508.040	11822
508.112	11139
508.185	11275
508.257	12578
508.330	17106
508.402	9551
508.475	10380
508.547	10509
508.620	11789
508.692	17369
508.765	10272
508.837	9110
508.909	9605
508.982	8964
509.054	10957
509.127	8989
509.199	7391
509.271	7660
509.344	7555
509.416	7762
509.488	8723
509.560	9612
509.633	9974
509.705	10757
509.777	11983
509.849	16094
509.922	9647
509.994	9324
510.066	9194
510.138	10027
510.210	17442
510.283	14309
510.355	13069
510.427	11501
510.499	12464
510.571	12440
510.643	12703
510.715	21304
510.787	14733
510.859	12149
510.931	14760
511.003	19697
511.076	14639
511.148	9907
511.219	11554
511.291	19154
511.363	17875
511.435	9062
511.507	9190
511.579	10005
511.651	9960
511.723	8962
511.795	8494
511.867	10237
511.939	14882
512.010	25573
512.082	16991
512.154	10555
512.226	11854
512.298	15794
512.369	21399
512.441	15594
512.513	16236
512.585	13084
512.656	14362
512.728	15697
512.800	11473
512.871	10419
512.943	10794
513.015	10086
513.086	11678
513.158	13746
513.230	14304
513.301	20164
513.373	17831
513.444	11813
513.516	10802
513.588	11455
513.659	12214
513.731	16299
513.802	16503
513.874	35197
513.945	48914
514.016	14128
514.088	10592
514.159	14205
514.231	18108
514.302	19593
514.374	15279
514.445	16007
514.516	31189
514.588	19411
514.659	17291
514.730	28144
514.802	21404
514.873	20088
514.944	21231
515.016	18707
515.087	20476
515.158	25254
515.229	30223
515.301	24391
515.372	31068
515.443	22259
515.514	16589
515.585	14087
515.656	12469
515.728	11889
515.799	11546
515.870	13069
515.941	13184
516.012	13001
516.083	18238
516.154	18818
516.225	22512
516.296	20213
516.367	19669
516.438	21923
516.509	29943
516.580	60369
516.651	196488
516.722	462895
516.793	136676
516.864	36455
516.935	33546
517.006	41122
517.077	71942
517.148	207037
517.219	587952
517.289	640064
517.360	170303
517.431	44388
517.502	21321
517.573	20553
517.643	20357
517.714	21966
517.785	21563
517.856	23207
517.926	26795
517.997	30767
518.068	38456
518.138	56080
518.209	134625
518.280	470234
518.350	1048911
518.421	292435
518.492	50187
518.562	34998
518.633	38789
518.703	49135
518.774	97552
518.845	184176
518.915	135240
518.986	50066
519.056	38723
519.127	57870
519.197	88543
519.268	154273
519.338	66094
519.408	26768
519.479	33411
519.549	20750
519.620	15695
519.690	13135
519.760	13738
519.831	14082
519.901	13543
519.971	12404
520.042	13929
520.112	15609
520.182	17636
520.253	18444
520.323	13338
520.393	17775
520.463	21923
520.534	18188
520.604	29281
520.674	15808
520.744	19537
520.814	36886
520.885	35042
520.955	69309
521.025	164980
521.095	38704
521.165	13351
521.235	12138
521.305	11072
521.375	11355
521.445	14022
521.515	17504
521.585	21671
521.655	17464
521.725	16752
521.795	14537
521.865	11581
521.935	18647
522.005	14125
522.075	11502
522.145	12840
522.215	14799
522.285	19865
522.355	28939
522.424	46538
522.494	35182
522.564	25266
522.634	59880
522.704	125428
522.774	30970
522.843	13170
522.913	13730
522.983	17398
523.053	12228
523.122	14600
523.192	28216
523.262	77510
523.331	50274
523.401	12787
523.471	10277
523.540	11510
523.610	8407
523.680	9703
523.749	10852
523.819	13681
523.888	12451
523.958	9009
524.027	10869
524.097	11923
524.166	10420
524.236	11888
524.305	10958
524.375	10208
524.444	9770
524.514	11064
524.583	12174
524.653	14846
524.722	15348
524.791	11056
524.861	10398
524.930	10417
524.999	12319
525.069	17144
525.138	13440
525.207	15054
525.277	11978
525.346	11896
525.415	12074
525.484	14399
525.554	15936
525.623	14878
525.692	15575
525.761	16841
525.830	19577
525.900	24300
525.969	40542
526.038	75150
526.107	186592
526.176	400616
526.245	246186
526.314	103526
526.383	233522
526.452	274915
526.522	474663
526.591	319304
526.660	84415
526.729	45145
526.797	63542
526.867	171324
526.935	550440
527.004	855623
527.073	325580
527.142	39026
527.211	22086
527.280	20853
527.349	18389
527.418	11505
527.487	11575
527.555	9653
527.624	8856
527.693	9276
527.762	9806
527.831	8184
527.899	9422
527.968	10069
528.037	10105
528.106	14602
528.174	23390
528.243	17972
528.312	29554
528.380	28111
528.449	10999
528.518	9431
528.586	7472
528.655	8688
528.723	8251
528.792	8633
528.861	9807
528.929	7713
528.998	8696
529.066	8864
529.135	9129
529.203	9181
529.272	9619
529.340	10664
529.409	11676
529.477	11043
529.545	13189
529.614	14250
529.682	17137
529.751	15747
529.819	17888
529.887	14113
529.956	11135
530.024	12149
530.092	11321
530.161	15455
530.229	19270
530.297	12761
530.365	11665
530.434	11848
530.502	10593
530.570	10871
530.638	8808
530.707	12183
530.775	12347
530.843	10761
530.911	11797
530.979	10550
531.047	11673
531.115	11690
531.183	11172
531.252	11406
531.320	10976
531.388	10980
531.456	11800
531.524	9863
531.592	12486
531.660	13900
531.728	11169
531.796	11570
531.864	11462
531.932	12566
532.000	11488
532.067	12770
532.135	13778
532.203	15470
532.271	17552
532.339	30489
532.407	61452
532.475	28245
532.542	17390
532.610	21283
532.678	39904
532.746	150899
532.814	219296
532.881	41882
532.949	14640
533.017	13745
533.084	12028
533.152	12030
533.220	13456
533.287	14058
533.355	12048
533.423	12485
533.490	12380
533.558	12736
533.625	12754
533.693	12050
533.761	12846
533.828	13899
533.896	14196
533.963	26169
534.031	30611
534.098	38919
534.166	16367
534.233	12961
534.300	14565
534.368	14886
534.435	12889
534.503	15009
534.570	16284
534.637	16094
534.705	19151
534.772	27000
534.840	64092
534.907	230451
534.974	173108
535.041	23704
535.109	17533
535.176	13128
535.243	13272
535.310	14359
535.378	13290
535.445	11921
535.512	10898
535.579	11929
535.646	11090
535.714	13274
535.781	14512
535.848	14061
535.915	12960
535.982	12562
536.049	11972
536.116	14213
536.183	12860
536.250	12766
536.317	13560
536.384	17314
536.451	22052
536.518	21434
536.585	16950
536.652	23100
536.719	26540
536.786	18626
536.853	17932
536.920	27823
536.987	35899
537.053	50821
537.120	160747
537.187	75992
537.254	14301
537.321	13173
537.388	13942
537.454	11420
537.521	11369
537.588	11809
537.654	13608
537.721	15104
537.788	14263
537.855	12954
537.921	12826
537.988	12906
538.055	14064
538.121	13574
538.188	15090
538.254	24048
538.321	35546
538.388	18373
538.454	14297
538.521	12949
538.587	11958
538.654	12707
538.720	12562
538.787	11948
538.853	14484
538.920	16633
538.986	15786
539.053	12843
539.119	13756
539.185	14405
539.252	17424
539.318	23630
539.385	17902
539.451	16241
539.517	16864
539.583	24520
539.650	61052
539.716	95578
539.782	20418
539.849	15381
539.915	14065
539.981	15349
540.047	16771
540.114	14748
540.180	15957
540.246	17072
540.312	24165
540.378	39403
540.444	35324
540.510	63763
540.576	111143
540.643	23453
540.709	12477
540.775	14740
540.841	13873
540.907	20149
540.973	24920
541.039	22248
541.105	21193
541.171	14506
541.237	13914
541.303	15373
541.369	19549
541.435	24175
541.500	32208
541.566	18251
541.632	13506
541.698	12733
541.764	13117
541.830	12272
541.896	12958
541.961	13842
542.027	13754
542.093	14683
542.159	15364
542.224	17613
542.290	23794
542.356	36528
542.421	31018
542.487	17081
542.553	15520
542.618	16228
542.684	14632
542.750	15128
542.815	20279
542.881	43249
542.947	119323
543.012	50454
543.078	14385
543.143	13189
543.209	15062
543.274	15286
543.340	21805
543.405	54795
543.471	52584
543.536	14301
543.602	14658
543.667	12887
543.732	13203
543.798	13456
543.863	13363
543.928	12461
543.994	11964
544.059	12954
544.124	13007
544.190	13884
544.255	14013
544.320	14613
544.386	17325
544.451	20347
544.516	22142
544.581	30700
544.646	88756
544.712	80811
544.777	18946
544.842	17419
544.907	17296
544.972	16076
545.037	16091
545.102	17319
545.168	17162
545.233	18466
545.298	19322
545.363	22498
545.428	26078
545.493	53217
545.558	83494
545.623	26872
545.688	16907
545.753	18406
545.818	17523
545.883	18588
545.947	17863
546.012	20441
546.077	20245
546.142	20595
546.207	20656
546.272	25891
546.337	24223
546.401	21680
546.466	21484
546.531	21145
546.596	23100
546.661	23341
546.725	23323
546.790	22504
546.855	24138
546.919	24995
546.984	26964
547.049	30394
547.113	34036
547.178	33770
547.243	40041
547.307	44779
547.372	50329
547.436	48882
547.501	47567
547.565	50004
547.630	51125
547.695	48646
547.759	51606
547.823	46114
547.888	44751
547.952	45928
548.017	49874
548.081	55209
548.146	57938
548.210	53692
548.274	52223
548.339	48902
548.403	45104
548.468	42556
548.532	44669
548.596	44948
548.660	46825
548.725	52155
548.789	57963
548.853	54955
548.917	51812
548.982	56581
549.046	48573
549.110	40173
549.174	42312
549.238	48697
549.303	49745
549.367	53492
549.431	48168
549.495	46854
549.559	48438
549.623	57304
549.687	62846
549.751	70004
549.815	70142
549.879	67183
549.943	65115
550.007	68352
550.071	69395
550.135	67646
550.199	59857
550.263	58334
550.327	58671
550.391	64698
550.455	64778
550.519	66617
550.582	73869
550.646	90790
550.710	85116
550.774	78892
550.838	78655
550.901	82989
550.965	88738
551.029	95434
551.093	107816
551.156	129516
551.220	173180
551.284	158293
551.347	114059
551.411	140332
551.475	114178
551.538	84723
551.602	75587
551.666	72319
551.729	66449
551.793	66781
551.856	66060
551.920	65056
551.983	64535
552.047	63802
552.110	63513
552.174	66235
552.237	66733
552.301	60005
552.364	59438
552.428	57709
552.491	60481
552.554	62300
552.618	61206
552.681	64317
552.745	67473
552.808	84772
552.871	91907
552.934	71760
552.998	63737
553.061	62983
553.124	57890
553.187	58152
553.251	60587
553.314	60969
553.377	60110
553.440	69860
553.503	85321
553.567	83000
553.630	63465
553.693	60778
553.756	63423
553.819	60264
553.882	57292
553.945	59236
554.008	59081
554.071	58400
554.134	59663
554.197	55554
554.260	55448
554.323	57415
554.386	58373
554.449	59532
554.512	59196
554.575	56555
554.638	56872
554.701	55961
554.764	54900
554.827	54355
554.889	50678
554.952	48124
555.015	47717
555.078	49485
555.141	50207
555.203	48489
555.266	49210
555.329	48393
555.391	46845
555.454	48440
555.517	46757
555.580	44471
555.642	42826
555.705	42286
555.768	42661
555.830	42346
555.893	38751
555.955	38000
556.018	38612
556.080	40075
556.143	40463
556.206	39357
556.268	39097
556.330	39822
556.393	39454
556.455	39899
556.518	46389
556.580	41890
556.643	34175
556.705	35542
556.767	33892
556.830	36664
556.892	39074
556.955	45942
557.017	35512
557.079	32523
557.142	33512
557.204	39828
557.266	58539
557.328	39703
557.391	29186
557.453	28446
557.515	30859
557.577	35241
557.639	33296
557.701	29681
557.764	30389
557.826	32448
557.888	33981
557.950	37104
558.012	42094
558.074	69459
558.136	188782
558.198	291133
558.260	70424
558.322	38288
558.384	39586
558.446	43201
558.508	50256
558.570	62668
558.632	98850
558.694	132601
558.756	226534
558.818	721155
558.880	1034238
558.942	312949
559.003	326560
559.065	102766
559.127	53744
559.189	55838
559.251	68980
559.312	129101
559.374	382386
559.436	822460
559.498	232868
559.559	60337
559.621	54695
559.683	76764
559.744	165397
559.806	523037
559.868	449956
559.929	78458
559.991	70239
560.052	148897
560.114	322696
560.176	149311
560.237	230073
560.299	230231
560.360	40063
560.422	25566
560.483	23551
560.545	23202
560.606	20628
560.667	19539
560.729	19182
560.790	20532
560.852	19443
560.913	19185
560.974	18745
561.036	18524
561.097	19770
561.158	18674
561.220	19512
561.281	19115
561.342	19902
561.403	23893
561.465	31736
561.526	68004
561.587	58284
561.648	21345
561.709	17190
561.771	17203
561.832	17626
561.893	17685
561.954	18210
562.015	16930
562.076	16994
562.137	16680
562.198	16568
562.259	18231
562.320	17897
562.381	21741
562.442	27395
562.503	20037
562.564	17750
562.625	17163
562.686	17954
562.747	19621
562.808	17671
562.869	17538
562.930	20123
562.991	18263
563.051	17978
563.112	17337
563.173	17351
563.234	15877
563.294	16099
563.355	16652
563.416	17339
563.477	17312
563.537	17206
563.598	17369
563.659	17011
563.720	16897
563.780	18710
563.841	18262
563.901	17397
563.962	16846
564.023	16555
564.083	17943
564.144	17938
564.204	17068
564.265	17906
564.325	22008
564.386	36712
564.446	24372
564.507	16662
564.567	15961
564.628	16058
564.688	16489
564.749	17508
564.809	19897
564.869	20658
564.930	17508
564.990	16227
565.050	16363
565.111	16463
565.171	16741
565.231	16606
565.292	17336
565.352	15837
565.412	17798
565.472	17524
565.532	18507
565.593	18029
565.653	17300
565.713	18908
565.773	19404
565.833	23496
565.893	25551
565.953	18418
566.013	19033
566.074	21989
566.134	26037
566.194	34759
566.254	31822
566.314	25156
566.374	21711
566.434	22185
566.494	22282
566.554	21889
566.614	24011
566.673	24440
566.733	26002
566.793	28420
566.853	29384
566.913	28495
566.973	28728
567.033	30075
567.092	28697
567.152	29106
567.212	30613
567.272	31806
567.331	33633
567.391	34242
567.451	36375
567.511	41822
567.570	37353
567.630	29385
567.690	29564
567.749	29661
567.809	34336
567.868	37284
567.928	41844
567.988	47526
568.047	56107
568.107	71045
568.166	99232
568.226	146731
568.285	175998
568.345	154501
568.404	133652
568.464	117468
568.523	110946
568.582	112967
568.642	128113
568.701	161427
568.761	230783
568.820	308169
568.879	283795
568.939	227874
568.998	177050
569.057	141222
569.116	115561
569.176	93150
569.235	79249
569.294	67866
569.353	59581
569.413	52523
569.472	47416
569.531	42102
569.590	38373
569.649	35593
569.708	32715
569.767	32976
569.827	34559
569.886	28195
569.945	25817
570.004	24997
570.063	23976
570.122	24688
570.181	24964
570.240	24597
570.299	25543
570.358	24085
570.417	19841
570.475	19598
570.534	20873
570.593	20265
570.652	20975
570.711	19982
570.770	19350
570.829	19407
570.887	20086
570.946	20593
571.005	17365
571.064	17859
571.122	19220
571.181	18710
571.240	15989
571.299	15790
571.357	17913
571.416	17511
571.475	19573
571.533	18467
571.592	16843
571.650	16771
571.709	15648
571.768	17271
571.826	15992
571.885	15504
571.943	15353
572.002	14525
572.060	15643
572.119	14310
572.177	13262
572.236	14209
572.294	13112
572.352	13771
572.411	14863
572.469	13663
572.528	13504
572.586	14194
572.644	16981
572.703	19386
572.761	14829
572.819	12872
572.877	13134
572.936	12532
572.994	12429
573.052	12820
573.110	14831
573.169	12830
573.227	12460
573.285	12463
573.343	12495
573.401	12337
573.459	12841
573.517	12476
573.576	12736
573.634	13955
573.692	13918
573.750	13343
573.808	12575
573.866	14139
573.924	16132
573.982	14168
574.040	12851
574.098	11781
574.155	12444
574.213	12353
574.271	13767
574.329	12932
574.387	11847
574.445	10871
574.503	11344
574.560	11114
574.618	12113
574.676	10981
574.734	12666
574.792	11781
574.849	11443
574.907	10248
574.965	11182
575.022	9435
575.080	10546
575.138	11001
575.195	11645
575.253	11889
575.311	12726
575.368	9921
575.426	10320
575.483	11004
575.541	10702
575.598	10766
575.656	12112
575.713	11592
575.771	11332
575.828	11967
575.886	11336
575.943	11511
576.001	12396
576.058	11176
576.115	13366
576.173	13734
576.230	14591
576.287	15516
576.345	12244
576.402	11559
576.459	12900
576.517	12491
576.574	13591
576.631	12720
576.688	11975
576.746	11018
576.803	10707
576.860	10170
576.917	10064
576.974	11474
577.031	11766
577.089	11697
577.146	11280
577.203	11307
577.260	11663
577.317	12654
577.374	13221
577.431	12074
577.488	11939
577.545	10708
577.602	10898
577.659	10966
577.716	11442
577.773	10673
577.830	10136
577.886	10612
577.943	10710
578.000	11061
578.057	11681
578.114	11807
578.171	11636
578.227	11543
578.284	10962
578.341	11045
578.398	11258
578.454	11791
578.511	12246
578.568	13824
578.625	11744
578.681	10543
578.738	10365
578.794	11195
578.851	11262
578.908	11457
578.964	11756
579.021	11977
579.077	10840
579.134	11076
579.190	10303
579.247	10305
579.303	10445
579.360	10693
579.416	11465
579.473	9864
579.529	10117
579.586	10847
579.642	11473
579.698	10569
579.755	11309
579.811	10612
579.867	11105
579.924	11091
579.980	11073
580.036	10933
580.093	11205
580.149	12122
580.205	12311
580.261	12029
580.317	13291
580.374	12798
580.430	13440
580.486	14079
580.542	12525
580.598	11974
580.619	12487
580.654	13380
580.692	12129
580.710	11508
580.765	12442
580.767	12471
580.823	12482
580.838	12538
580.879	12663
580.911	12540
580.935	12452
580.984	12731
580.991	12765
581.047	12685
581.057	12737
581.103	12968
581.130	13020
581.159	13063
581.203	12896
581.215	12849
581.270	12940
581.276	12951
581.326	13013
581.349	13295
581.382	13690
581.422	13593
581.438	13541
581.494	13549
581.494	13561
581.550	14087
581.567	13914
581.606	13512
581.640	13605
581.661	13679
581.713	13612
581.717	13596
581.773	13964
581.786	14011
581.829	14128
581.859	14312
581.885	14494
581.932	14201
581.940	14134
581.996	14624
582.004	14738
582.052	15168
582.077	14761
582.107	14375
582.150	15072
582.163	15244
582.219	15489
582.223	15544
582.274	16360
582.296	16244
582.330	15946
582.368	16542
582.386	16778
582.441	16635
582.441	16628
582.497	16324
582.514	16357
582.552	16433
582.587	16443
582.608	16492
582.659	17275
582.663	17316
582.719	17366
582.732	17217
582.774	16738
582.805	17060
582.830	17401
582.877	18190
582.885	18304
582.941	19072
582.950	19177
582.996	19806
583.023	19975
583.052	20167
583.095	20879
583.107	21012
583.162	20221
583.168	20321
583.218	20965
583.240	20515
583.273	19981
583.313	20239
583.328	20362
583.384	20534
583.385	20531
583.439	20232
583.458	20049
583.494	19813
583.531	20301
583.549	20546
583.603	21028
583.605	21048
583.660	21180
583.676	21317
583.715	21852
583.748	22225
583.770	22414
583.820	22188
583.825	22172
583.881	23038
583.893	22917
583.936	22492
583.965	22919
583.991	23282
584.038	23315
584.046	23378
584.101	23990
584.110	23949
584.156	23820
584.183	24273
584.211	24693
584.255	25175
584.266	25267
584.321	25486
584.328	25420
584.376	25671
584.400	26359
584.431	26915
584.472	26674
584.486	26847
584.541	28773
584.545	28793
584.596	28599
584.617	28582
584.651	29194
584.689	30076
584.706	30402
584.761	31541
584.762	31516
584.816	31619
584.834	31847
584.871	32713
584.906	33219
584.926	33504
584.978	34432
584.980	34524
585.035	36220
585.051	36678
585.090	38246
585.123	39767
585.145	40847
585.195	42424
585.200	42705
585.254	45871
585.267	46824
585.309	50997
585.340	53411
585.364	55670
585.412	61740
585.419	62910
585.473	73889
585.484	76658
585.528	93605
585.556	110385
585.583	142731
585.628	213710
585.637	248818
585.692	522135
585.700	553287
585.747	717775
585.772	726292
585.801	495340
585.845	221585
585.856	195002
585.910	95508
585.917	83833
585.965	70864
585.989	65253
586.019	62821
586.061	58610
586.074	58314
586.128	58306
586.133	58161
586.183	58038
586.205	57890
586.237	57836
586.277	57703
586.292	58039
586.346	58368
586.349	58297
586.401	58663
586.421	59021
586.455	60306
586.493	61890
586.509	63593
586.564	70672
586.565	70793
586.618	86822
586.637	87861
586.672	82533
586.709	80379
586.727	80246
586.781	79980
586.781	80129
586.835	76531
586.853	75290
586.889	73516
586.925	71968
586.944	72632
586.996	74703
586.998	74923
587.052	76746
587.068	77346
587.106	79537
587.140	81012
587.161	82010
587.212	84390
587.215	84754
587.269	89068
587.284	89988
587.323	92651
587.356	94708
587.377	96824
587.427	101612
587.431	102097
587.485	105745
587.499	106595
587.539	111484
587.571	115307
587.593	118523
587.643	124708
587.648	125633
587.702	132920
587.715	134624
587.755	141336
587.786	146125
587.810	150438
587.858	159528
587.864	161221
587.917	174574
587.930	177551
587.971	189963
588.001	198436
588.025	206823
588.073	222414
588.079	225303
588.133	248980
588.145	254134
588.187	276857
588.217	292161
588.241	309296
588.288	343286
588.295	349594
588.348	398522
588.360	408902
588.402	459574
588.431	495553
588.456	534180
588.503	608769
588.510	624175
588.564	746947
588.575	772969
588.617	915467
588.646	1015864
588.671	1146170
588.718	1400520
588.725	1458678
588.778	1896728
588.789	1979993
588.832	2383660
588.861	2616995
588.886	2629665
588.932	2555954
588.939	2503226
588.993	2131218
589.004	2070593
589.047	2548803
589.075	2797394
589.100	2699572
589.147	2445551
589.154	2386781
589.207	1881772
589.218	1776910
589.261	1608210
589.290	1499057
589.314	1518998
589.361	1563973
589.368	1605917
589.421	1938622
589.433	2004049
589.475	2375022
589.504	2582591
589.528	2533968
589.576	2412934
589.582	2423534
589.635	2541558
589.647	2537280
589.689	2288401
589.718	2086500
589.742	1805847
589.790	1238713
589.795	1208079
589.849	900088
589.861	827581
589.902	709270
589.932	619489
589.955	573484
590.004	475247
590.009	470442
590.062	406217
590.075	389448
590.115	356630
590.146	330250
590.168	318662
590.218	290344
590.222	289386
590.275	266534
590.289	259950
590.328	247975
590.360	236863
590.381	231190
590.431	215601
590.435	215559
590.488	204129
590.503	200309
590.541	194863
590.574	188964
590.594	186141
590.645	177259
590.647	177594
590.700	171109
590.716	168551
590.753	165538
590.787	161954
590.806	161104
590.859	156624
590.859	157100
590.912	152936
590.930	151211
590.965	150280
591.001	148135
591.018	147738
591.071	144904
591.072	144351
591.124	142693
591.143	141425
591.177	140502
591.214	138464
591.230	138924
591.283	138725
591.285	138194
591.336	135310
591.356	133434
591.389	132458
591.427	130192
591.442	130040
591.495	127518
591.498	126854
591.547	126526
591.569	125641
591.600	124996
591.640	122899
591.653	123469
591.706	123951
591.711	123521
591.759	124280
591.782	123934
591.811	126102
591.853	127905
591.864	128092
591.917	126402
591.924	125648
591.969	124393
591.995	122918
592.022	123256
592.066	122383
592.075	123366
592.127	126455
592.137	126515
592.180	129971
592.208	131179
592.233	130449
592.279	127641
592.285	127890
592.338	125416
592.350	124317
592.390	124848
592.421	124309
592.443	125147
592.491	125292
592.495	125925
592.548	127143
592.562	126933
592.600	127037
592.633	126094
592.653	125885
592.704	123223
592.705	123932
592.775	123575
592.846	125874
592.916	128539
592.987	127849
593.058	127566
593.128	127248
593.199	125338
593.270	124517
593.341	124356
593.411	126709
593.482	129575
593.553	130518
593.623	130978
593.694	132552
593.764	136026
593.835	132528
593.906	133112
593.976	132743
594.047	135733
594.117	142149
594.188	146430
594.258	141495
594.329	138586
594.399	142284
594.470	145157
594.540	145153
594.611	150171
594.681	147736
594.751	147842
594.822	151394
594.892	159091
594.963	159690
595.033	164021
595.103	166535
595.174	168696
595.244	178066
595.314	192133
595.384	180495
595.455	176419
595.525	184454
595.595	188846
595.665	191128
595.736	184546
595.806	187167
595.876	191348
595.946	191175
596.016	195103
596.087	204362
596.157	204994
596.227	203282
596.297	211236
596.367	223962
596.437	234042
596.507	240883
596.577	247286
596.647	243043
596.717	247597
596.787	254140
596.857	251461
596.927	253780
596.997	255276
597.067	257680
597.137	260954
597.207	262930
597.277	268347
597.347	260208
597.417	250891
597.487	249632
597.557	255639
597.626	262255
597.696	264998
597.766	266300
597.836	264735
597.906	244061
597.975	234533
598.045	236972
598.115	242767
598.185	257590
598.254	283213
598.324	309593
598.394	319283
598.464	309960
598.533	305607
598.603	290398
598.672	277847
598.742	284895
598.812	282458
598.881	292673
598.951	290206
599.020	293180
599.090	300842
599.159	311659
599.229	301313
599.299	293100
599.368	298935
599.437	302062
599.507	279732
599.576	269790
599.646	268815
599.715	264028
599.785	264646
599.854	257239
599.924	256904
599.993	254412
600.062	259317
600.132	266664
600.201	275358
600.270	312755
600.340	338533
600.409	329617
600.478	327576
600.547	333757
600.617	324742
600.686	264310
600.755	245430
600.824	235011
600.894	229421
600.963	228846
601.032	227939
601.101	224060
601.170	218164
601.239	215971
601.308	216121
601.378	216103
601.447	216437
601.516	220075
601.585	224575
601.654	229165
601.723	229783
601.792	235039
601.861	240378
601.930	251030
601.999	260140
602.068	255903
602.137	258094
602.206	265141
602.275	265784
602.343	271366
602.412	276502
602.481	270619
602.550	272575
602.619	276352
602.688	280661
602.756	282907
602.825	283432
602.894	288780
602.963	292963
603.032	297117
603.100	301223
603.169	294277
603.238	302009
603.307	297401
603.375	297010
603.444	310030
603.513	304704
603.581	307572
603.650	320725
603.719	300266
603.787	295256
603.856	301809
603.924	310374
603.993	323452
604.061	328376
604.130	342585
604.198	350613
604.267	355985
604.335	361735
604.404	365760
604.472	373037
604.541	373428
604.609	381868
604.678	389339
604.746	388917
604.815	401669
604.883	405310
604.951	398492
605.020	406294
605.088	409101
605.156	401560
605.225	408379
605.293	408691
605.361	407115
605.429	410757
605.498	415813
605.566	426040
605.634	443398
605.702	459782
605.771	467016
605.839	479091
605.907	462814
605.975	450213
606.043	442308
606.111	432751
606.180	441467
606.248	434832
606.316	420858
606.384	431982
606.452	423670
606.520	414158
606.588	422904
606.656	421435
606.724	417246
606.792	394039
606.860	359356
606.928	326923
606.996	310547
607.064	302080
607.132	307808
607.200	324742
607.267	342397
607.335	342258
607.403	356427
607.471	349306
607.539	331148
607.607	338602
607.674	302193
607.742	295549
607.810	297918
607.878	295676
607.946	298543
608.013	313161
608.081	321065
608.149	322882
608.216	326541
608.284	342870
608.352	342860
608.419	343022
608.487	336347
608.555	329235
608.622	335350
608.690	348948
608.757	381616
608.825	403519
608.893	391982
608.960	378164
609.028	363051
609.095	357924
609.163	350226
609.230	326334
609.298	286703
609.365	299792
609.432	324461
609.500	349000
609.567	394700
609.635	452044
609.702	487103
609.769	478426
609.837	396229
609.904	320862
609.971	328894
610.039	359934
610.106	434031
610.173	701770
610.241	1517994
610.308	1458750
610.375	571077
610.442	378209
610.509	335971
610.577	324151
610.644	327469
610.711	336660
610.778	348602
610.845	358111
610.912	379330
610.980	395550
611.047	400271
611.114	394950
611.181	381130
611.248	376949
611.315	391102
611.382	405048
611.449	416827
611.516	428684
611.583	423884
611.650	426549
611.717	429761
611.784	441440
611.851	460060
611.918	490950
611.984	553112
612.051	703643
612.118	1135471
612.185	2377069
612.252	2430718
612.319	822409
612.386	586659
612.452	529797
612.519	495511
612.586	483687
612.653	487807
612.719	498323
612.786	489705
612.853	453607
612.919	432721
612.986	441877
613.053	422189
613.120	396019
613.186	378174
613.253	378721
613.319	379508
613.386	382304
613.453	388351
613.519	393600
613.586	391236
613.652	412457
613.719	398628
613.785	398169
613.852	394894
613.918	389710
613.985	388859
614.051	408551
614.118	409347
614.184	396095
614.250	385623
614.317	402351
614.383	390699
614.449	401815
614.516	396863
614.582	398901
614.648	394148
614.715	389535
614.781	386238
614.847	378119
614.914	382203
614.980	370777
615.046	369009
615.112	378657
615.179	386209
615.245	392932
615.311	396956
615.377	419509
615.443	450979
615.509	415504
615.575	415542
615.642	411783
615.708	419855
615.774	440731
615.840	472389
615.906	511917
615.972	605697
616.038	842213
616.104	1411262
616.170	2589944
616.236	3052656
616.302	1184682
616.368	761939
616.434	588772
616.500	499917
616.565	518331
616.631	641823
616.697	594698
616.763	553020
616.829	706585
616.895	1216904
616.961	1437959
617.026	754276
617.092	462857
617.158	417294
617.224	404970
617.289	373377
617.355	354035
617.421	349211
617.487	348737
617.552	332020
617.618	324589
617.684	326044
617.749	325565
617.815	318089
617.880	306547
617.946	305166
618.012	313339
618.077	320880
618.143	308856
618.208	304302
618.274	327479
618.339	340217
618.405	290248
618.470	273604
618.536	278330
618.601	274234
618.667	262311
618.732	243055
618.798	240884
618.863	237400
618.928	237453
618.994	240710
619.059	243285
619.124	254658
619.190	248052
619.255	237369
619.320	235276
619.386	235988
619.451	234811
619.516	228238
619.581	229961
619.647	237360
619.712	238956
619.777	227620
619.842	227351
619.907	231894
619.972	234484
620.038	239949
620.103	227670
620.168	227364
620.233	230211
620.298	232798
620.363	234579
620.428	239083
620.493	244786
620.558	248170
620.623	251757
620.688	251407
620.753	246097
620.818	253917
620.883	256613
620.948	256865
621.013	253624
621.078	248366
621.143	250827
621.207	256536
621.272	252314
621.337	249133
621.402	244023
621.467	246357
621.532	247665
621.596	247059
621.661	240483
621.726	231953
621.791	234328
621.855	237799
621.920	235807
621.985	238360
622.049	244249
622.114	244668
622.179	247952
622.243	251711
622.308	256827
622.373	267253
622.437	268358
622.502	251694
622.566	248079
622.631	247509
622.695	252657
622.760	252627
622.824	249262
622.889	251990
622.953	254927
623.018	274817
623.082	293387
623.147	267703
623.211	261378
623.276	259275
623.340	250605
623.404	239345
623.469	239599
623.533	241890
623.597	238789
623.662	235369
623.726	224976
623.790	210104
623.854	203458
623.919	205892
623.983	207083
624.047	211754
624.111	210566
624.176	217569
624.240	222082
624.304	232258
624.368	220763
624.432	215134
624.496	218998
624.560	231383
624.625	244502
624.689	234669
624.753	239195
624.817	237570
624.881	226257
624.945	213268
625.009	198315
625.073	202423
625.137	211509
625.201	226758
625.265	230988
625.329	213373
625.393	213014
625.456	216047
625.520	219079
625.584	226619
625.648	235531
625.712	246773
625.776	282471
625.839	299923
625.903	232447
625.967	182831
626.031	192819
626.095	247554
626.158	228559
626.222	174331
626.286	154423
626.349	148408
626.413	141316
626.477	140359
626.540	141112
626.604	140158
626.668	136436
626.731	134347
626.795	136927
626.858	138576
626.922	134723
626.986	133900
627.049	132857
627.113	137641
627.176	135059
627.240	130469
627.303	130229
627.366	132217
627.430	131081
627.493	133540
627.557	128527
627.620	131187
627.684	135694
627.747	137334
627.810	131380
627.874	118033
627.937	112015
628.000	116013
628.064	116854
628.127	106034
628.190	101562
628.253	99109
628.317	96921
628.380	91280
628.443	90464
628.506	91883
628.569	88384
628.632	82819
628.696	81769
628.759	82199
628.822	79497
628.885	78610
628.948	77405
629.011	78905
629.074	75341
629.137	74742
629.200	72836
629.263	74528
629.326	70288
629.389	71836
629.452	70938
629.515	71214
629.578	69096
629.641	70992
629.704	72002
629.767	72081
629.830	70018
629.892	66753
629.955	66327
630.018	69904
630.081	70529
630.144	76754
630.207	69783
630.269	69842
630.332	67625
630.395	67349
630.458	63994
630.520	62478
630.583	63134
630.646	61906
630.708	62823
630.771	64491
630.834	65499
630.896	66235
630.959	65549
631.021	63363
631.084	65717
631.146	65600
631.209	67169
631.272	63840
631.334	65909
631.397	65771
631.459	66549
631.522	68396
631.584	69898
631.646	72862
631.709	76004
631.771	79971
631.834	76643
631.896	71154
631.958	67632
632.021	66255
632.083	63510
632.145	63536
632.208	62954
632.270	62961
632.332	60657
632.395	60745
632.457	61055
632.519	61734
632.581	60131
632.643	60694
632.706	60530
632.768	57941
632.830	59914
632.892	60152
632.954	60956
633.016	62348
633.078	61241
633.141	60004
633.203	59780
633.265	61553
633.327	59400
633.389	60757
633.451	61687
633.513	65815
633.575	66236
633.637	66242
633.698	65960
633.760	65218
633.822	65763
633.884	66244
633.946	66659
634.008	69534
634.070	68809
634.132	72983
634.193	76775
634.255	82013
634.317	84330
634.379	84289
634.441	78842
634.502	75585
634.564	65765
634.626	63433
634.687	60251
634.749	59698
634.811	58461
634.873	57700
634.934	57580
634.996	56932
635.057	56438
635.119	58521
635.181	58180
635.242	59241
635.304	57980
635.365	60044
635.427	58058
635.488	60217
635.550	58364
635.611	58381
635.673	58110
635.734	61527
635.796	65010
635.857	68888
635.918	72253
635.980	77054
636.041	81907
636.102	87690
636.164	88507
636.225	85524
636.286	77549
636.348	70298
636.409	63371
636.470	60652
636.531	57389
636.593	58156
636.654	57216
636.715	53341
636.776	52474
636.838	51108
636.899	50715
636.960	49756
637.021	49804
637.082	49882
637.143	48506
637.204	46645
637.265	46353
637.326	47029
637.387	48234
637.448	49224
637.509	47294
637.570	49238
637.631	46092
637.692	45622
637.753	44776
637.814	44944
637.875	45340
637.936	45478
637.997	44113
638.058	45657
638.119	44819
638.179	43949
638.240	44321
638.301	45393
638.362	43051
638.423	43174
638.483	42889
638.544	41426
638.605	42308
638.666	41190
638.726	41748
638.787	42314
638.848	42578
638.908	41535
638.969	39201
639.030	40243
639.090	39273
639.151	40205
639.211	41415
639.272	44357
639.332	52544
639.393	48832
639.453	41956
639.514	44665
639.574	40205
639.635	38787
639.695	38377
639.756	37714
639.816	38387
639.877	39576
639.937	45999
639.997	55906
640.058	42589
640.118	38407
640.178	36253
640.239	35894
640.299	36720
640.359	37948
640.420	38485
640.480	41197
640.540	46155
640.600	49319
640.661	45074
640.721	41826
640.781	45612
640.841	40890
640.901	37582
640.961	38426
641.021	38207
641.082	42970
641.142	45255
641.202	41944
641.262	34834
641.322	35700
641.382	34390
641.442	35067
641.502	34230
641.562	34822
641.622	35556
641.682	37136
641.742	40878
641.802	42260
641.861	35748
641.921	35995
641.981	36044
642.041	35692
642.101	38224
642.161	37157
642.221	33393
642.280	32385
642.340	32266
642.400	32097
642.460	34680
642.519	34680
642.579	33997
642.639	34292
642.698	32857
642.758	36324
642.818	34441
642.877	34755
642.937	35110
642.997	37001
643.056	42061
643.116	39453
643.175	35725
643.235	36640
643.294	37807
643.354	39259
643.414	42184
643.473	49416
643.532	58904
643.592	77828
643.651	110516
643.711	173265
643.770	296534
643.830	599797
643.889	1497621
643.948	849711
644.008	147120
644.067	74794
644.126	55802
644.186	46863
644.245	41737
644.304	36655
644.363	37951
644.423	35834
644.482	36717
644.541	37966
644.600	39479
644.659	48003
644.719	56193
644.778	80190
644.837	122208
644.896	216841
644.955	550813
645.014	390300
645.073	70143
645.132	46428
645.191	41637
645.250	39306
645.309	39492
645.368	41000
645.427	51196
645.486	71824
645.545	150962
645.604	80582
645.663	37807
645.722	37374
645.781	38835
645.840	45024
645.898	53002
645.957	71445
646.016	101934
646.075	161822
646.134	284630
646.192	609649
646.251	1337416
646.310	473527
646.369	95475
646.427	63648
646.486	54132
646.545	40892
646.603	36945
646.662	35982
646.721	32331
646.779	33847
646.838	34691
646.896	43323
646.955	53778
647.014	76529
647.072	127528
647.131	335364
647.189	348659
647.248	55885
647.306	32473
647.365	29759
647.423	26630
647.481	28182
647.540	25667
647.598	26318
647.657	24255
647.715	25515
647.773	24568
647.832	24394
647.890	22654
647.948	23781
648.007	22696
648.065	22391
648.123	21946
648.181	23213
648.240	22212
648.298	22029
648.356	21470
648.414	22729
648.472	21829
648.531	22836
648.589	21282
648.647	21191
648.705	21214
648.763	22520
648.821	23207
648.879	24331
648.937	26116
648.995	32067
649.053	40895
649.111	55894
649.169	84654
649.227	138766
649.285	246431
649.343	684754
649.401	718786
649.459	123674
649.516	64104
649.574	36972
649.632	35356
649.690	37880
649.748	43335
649.806	58841
649.863	94528
649.921	223483
649.979	312331
650.037	56321
650.094	25259
650.152	22432
650.210	20121
650.268	20787
650.325	19193
650.383	20021
650.440	17184
650.498	18632
650.556	18500
650.613	16847
650.671	16709
650.728	17516
650.786	19047
650.843	22513
650.901	21907
650.958	17353
651.016	15816
651.073	15770
651.131	14963
651.188	14127
651.246	15377
651.303	14818
651.360	15677
651.418	14132
651.475	15143
651.532	14375
651.590	14496
651.647	13637
651.704	14618
651.762	14840
651.819	14376
651.876	14106
651.933	14020
651.990	13541
652.048	13373
652.105	14447
652.162	13888
652.219	13655
652.276	12966
652.333	14312
652.390	12029
652.448	13360
652.505	13726
652.562	13658
652.619	12355
652.676	13622
652.733	14248
652.790	13243
652.847	11493
652.904	12909
652.961	12020
653.017	12895
653.074	13860
653.131	13795
653.188	11771
653.245	12390
653.302	13060
653.359	12480
653.415	13674
653.472	13415
653.529	13146
653.586	12607
653.642	12273
653.699	13351
653.756	11871
653.813	11546
653.869	12832
653.926	12763
653.983	12263
654.039	12581
654.096	12154
654.152	13006
654.209	11370
654.266	11697
654.322	11796
654.379	13372
654.435	13661
654.492	14419
654.548	15080
654.605	19414
654.661	17487
654.717	12904
654.774	13019
654.830	12371
654.887	11771
654.943	12318
655.000	13031
655.056	12610
655.112	11812
655.168	12327
655.225	13846
655.281	13894
655.337	12994
655.394	17608
655.450	16426
655.506	14590
655.562	15471
655.618	18537
655.675	12185
655.731	12022
655.787	10623
655.843	12544
655.899	10561
655.955	12407
656.011	12564
656.067	11334
656.123	11946
656.179	12408
656.235	12740
656.291	11598
656.347	12777
656.403	12483
656.459	12561
656.515	12401
656.571	12916
656.627	12489
656.683	12627
656.739	12581
656.795	10692
656.850	11888
656.906	13192
656.962	13666
657.018	12169
657.074	13880
657.129	16802
657.185	21751
657.241	42281
657.297	47400
657.352	15078
657.408	12245
657.464	12433
657.519	12025
657.575	9804
657.630	11570
657.686	10834
657.742	11451
657.797	11262
657.853	11267
657.908	12877
657.964	10850
658.019	11636
658.075	12224
658.130	11728
658.186	10089
658.241	10072
658.297	10863
658.352	10205
658.407	11395
658.463	9932
658.518	10327
658.573	11596
658.629	9833
658.684	10480
658.739	10500
658.795	9770
658.850	10116
658.905	9966
658.960	10924
659.016	9117
659.071	11522
659.126	10057
659.181	11997
659.236	13332
659.291	16898
659.346	11995
659.401	12174
659.457	11015
659.512	10342
659.567	11557
659.622	9732
659.677	10076
659.732	9655
659.787	10272
659.842	10322
659.897	12712
659.952	11477
660.007	10096
660.061	9603
660.116	9135
660.171	9759
660.226	9886
660.281	11233
660.336	8610
660.391	9803
660.445	8773
660.500	9964
660.555	9877
660.610	9547
660.664	10252
660.719	8930
660.774	9790
660.828	10714
660.883	10813
660.938	10633
660.992	9499
661.047	10445
661.101	9838
661.156	9942
661.211	9123
661.265	9966
661.320	9763
661.374	9942
661.429	9320
661.483	9927
661.538	9014
661.592	9344
661.647	9279
661.701	9985
661.755	9623
661.810	10411
661.864	9459
661.919	9322
661.973	9916
662.027	9135
662.081	8280
662.136	9142
662.190	9592
662.244	10095
662.299	9408
662.353	9372
662.407	8261
662.461	9231
662.515	10402
662.569	9408
662.624	9761
662.678	8945
662.732	8821
662.786	9911
662.840	10761
662.894	10622
662.948	9312
663.002	9291
663.056	9237
663.110	8590
663.164	9692
663.218	10033
663.272	8705
663.326	10635
663.380	9142
663.434	10664
663.488	9425
663.542	9783
663.595	9925
663.649	9482
663.703	9585
663.757	10064
663.811	8937
663.864	9030
663.918	9976
663.972	9677
664.026	9043
664.079	9304
664.133	10520
664.187	10223
664.240	9416
664.294	8945
664.348	9176
664.401	9927
664.455	9386
664.508	9020
664.562	8842
664.615	10042
664.669	9053
664.722	10604
664.776	9236
664.829	9460
664.883	9093
664.936	9644
664.990	9554
665.043	9886
665.097	9669
665.150	10497
665.203	9298
665.257	10413
665.310	10066
665.363	9809
665.417	9485
665.470	10312
665.523	10834
665.576	10508
665.630	10040
665.683	9195
665.736	10442
665.789	11077
665.842	10038
665.895	9737
665.949	9771
666.002	10042
666.055	10056
666.108	10443
666.161	10799
666.214	10782
666.267	10570
666.320	11924
666.373	10879
666.426	10825
666.479	10418
666.532	10284
666.585	10631
666.638	12207
666.691	11318
666.744	11622
666.796	10757
666.849	11642
666.902	10665
666.955	9962
667.008	10066
667.060	9812
667.113	9991
667.166	9841
667.219	10590
667.271	10023
667.324	10384
667.377	10555
667.430	10362
667.482	10058
667.535	10906
667.587	10052
667.640	10719
667.693	11818
667.745	13525
667.798	18418
667.850	12679
667.903	11124
667.955	10881
668.008	10505
668.060	11114
668.113	10422
668.165	11035
668.218	12000
668.270	10700
668.322	10574
668.375	10533
668.427	11623
668.479	10522
668.532	11048
668.584	9858
668.636	10343
668.689	10920
668.741	10937
668.793	10828
668.845	10211
668.898	11358
668.950	10582
669.002	11036
669.054	10240
669.106	9760
669.158	11319
669.211	10843
669.263	10150
669.315	10559
669.367	10635
669.419	9921
669.471	11760
669.523	11418
669.575	13072
669.627	13423
669.679	12392
669.731	11884
669.783	10928
669.835	11439
669.886	12284
669.938	11340
669.990	11208
670.042	11304
670.094	11489
670.146	12720
670.197	15229
670.249	17093
670.301	20276
670.353	26112
670.404	34523
670.456	47737
670.508	69829
670.560	103128
670.611	158252
670.663	251184
670.715	474616
670.766	1008940
670.818	681939
670.869	139223
670.921	48878
670.972	32848
671.024	25857
671.075	19857
671.127	17844
671.178	15867
671.230	16654
671.281	15881
671.333	15994
671.384	16865
671.436	20025
671.487	24678
671.538	30327
671.590	40110
671.641	58340
671.692	91494
671.744	178358
671.795	200508
671.846	88085
671.897	38257
671.949	25804
672.000	19180
672.051	16105
672.102	14866
672.153	12965
672.204	12702
672.256	12141
672.307	11707
672.358	11040
672.409	11502
672.460	11054
672.511	10264
672.562	10545
672.613	10035
672.664	10699
672.715	10108
672.766	9657
672.817	8926
672.868	8997
672.919	9137
672.970	8774
673.021	9248
673.071	9017
673.122	9202
673.173	8317
673.224	8779
673.275	9328
673.326	8568
673.376	8622
673.427	8563
673.478	8263
673.528	10384
673.579	9100
673.630	8855
673.680	8812
673.731	8190
673.782	8800
673.832	8574
673.883	8925
673.934	8310
673.984	8176
674.035	8567
674.085	8959
674.136	9406
674.186	9631
674.237	10179
674.287	11256
674.338	11421
674.388	9097
674.438	8814
674.489	9880
674.539	9056
674.589	9698
674.640	9575
674.690	8652
674.740	9871
674.791	10047
674.841	9349
674.891	8988
674.942	8585
674.992	8794
675.042	8237
675.092	7881
675.142	7177
675.193	7960
675.243	7657
675.293	7835
675.343	8331
675.393	9385
675.443	8837
675.493	8927
675.543	7221
675.593	8554
675.643	7868
675.693	8487
675.743	8456
675.793	7707
675.843	6578
675.893	8011
675.943	7456
675.993	7706
676.043	7265
676.093	7848
676.142	7604
676.192	7665
676.242	7326
676.292	7332
676.341	6929
676.391	7849
676.441	7300
676.491	6725
676.540	7043
676.590	7163
676.640	6765
676.689	7126
676.739	6986
676.789	6331
676.838	6813
676.888	6812
676.937	5570
676.987	6702
677.037	6174
677.086	6407
677.136	6503
677.185	6215
677.235	6391
677.284	6381
677.333	6601
677.383	6819
677.432	5575
677.482	6666
677.531	6263
677.580	5867
677.630	6485
677.679	5826
677.728	5871
677.778	6376
677.827	5838
677.876	6043
677.925	5580
677.975	6465
678.024	6654
678.073	7322
678.122	7363
678.171	7864
678.220	6512
678.269	7848
678.319	8805
678.368	9029
678.417	7215
678.466	8099
678.515	7379
678.564	7138
678.613	7379
678.662	6275
678.711	6222
678.760	6914
678.809	6837
678.857	6752
678.906	7221
678.955	6787
679.004	6351
679.053	6362
679.102	6248
679.151	7153
679.199	5819
679.248	6751
679.297	5705
679.346	7048
679.394	6612
679.443	5930
679.492	6034
679.540	5875
679.589	6413
679.638	6774
679.686	6827
679.735	6837
679.784	6771
679.832	8630
679.881	6601
679.929	6701
679.978	5994
680.026	7129
680.075	6528
680.123	6518
680.172	6620
680.220	5589
680.268	5744
680.317	6392
680.365	5213
680.414	6606
680.462	4978
680.510	5998
680.559	5315
680.607	5438
680.655	6056
680.703	5505
680.752	6511
680.800	5769
680.848	5000
680.896	5644
680.945	5503
680.993	5563
681.041	5331
681.089	4915
681.137	5148
681.185	4991
681.233	5348
681.258	5431
681.281	5501
681.329	5414
681.377	5385
681.380	5373
681.425	5007
681.473	6196
681.502	6023
681.521	5882
681.569	6037
681.617	6061
681.624	5950
681.665	5173
681.713	5903
681.745	5277
681.761	4970
681.809	5207
681.857	6131
681.867	6039
681.904	5664
681.952	6226
681.989	5723
682.000	5560
682.048	6001
682.096	5128
682.111	5258
682.143	5508
682.191	5001
682.233	5827
682.239	5938
682.286	5752
682.334	6145
682.354	5932
682.382	5640
682.430	6217
682.476	5859
682.477	5842
682.525	5782
682.572	5680
682.598	5914
682.620	6123
682.667	5315
682.715	5646
682.720	5640
682.763	5485
682.810	6101
682.841	6055
682.857	6005
682.905	5737
682.952	5407
682.963	5521
683.000	5894
683.047	5951
683.085	6003
683.095	6004
683.142	5647
683.190	6568
683.206	6259
683.237	5664
683.284	5086
683.328	5153
683.332	5157
683.379	5610
683.426	5757
683.449	5899
683.473	5999
683.521	5372
683.568	6069
683.571	6004
683.615	5054
683.662	5281
683.693	5667
683.709	5877
683.757	5430
683.804	5664
683.814	5637
683.851	5441
683.898	5609
683.936	5932
683.945	6016
683.992	5405
684.039	5837
684.057	5697
684.086	5470
684.133	6234
684.179	5823
684.180	5800
684.227	6293
684.274	5443
684.300	6002
684.321	6450
684.368	5334
684.415	5045
684.422	5157
684.462	5733
684.509	5612
684.543	5345
684.556	5271
684.603	5638
684.649	6611
684.665	6356
684.696	5770
684.743	5657
684.786	6171
684.790	6211
684.837	5420
684.883	6449
684.908	6234
684.930	6036
684.977	6672
685.023	6536
685.029	6528
685.070	6280
685.117	5545
685.150	5974
685.164	6176
685.210	6467
685.257	7323
685.272	7085
685.303	6485
685.350	6687
685.393	6448
685.396	6429
685.443	6722
685.490	7393
685.514	7330
685.536	7333
685.583	7028
685.629	6630
685.636	6788
685.675	7456
685.722	6768
685.757	6737
685.768	6743
685.815	7070
685.861	6740
685.878	6639
685.908	6530
685.954	6295
686.000	7172
686.000	7185
686.047	7448
686.093	8082
686.121	8014
686.139	7850
686.185	8005
686.232	7447
686.242	7531
686.278	7784
686.324	7358
686.363	7161
686.370	7128
686.416	6700
686.463	7142
686.484	7058
686.509	7061
686.555	6577
686.601	6892
686.606	6985
686.647	7678
686.693	6544
686.727	6850
686.739	6978
686.785	7279
686.831	6916
686.848	6945
686.877	6894
686.923	6665
686.969	6353
686.969	6352
687.015	6494
687.061	6669
687.090	7126
687.107	7404
687.153	7196
687.199	7335
687.211	7245
687.245	6884
687.291	6947
687.332	6964
687.336	6980
687.382	7366
687.428	7304
687.453	7685
687.474	7913
687.520	7521
687.565	7417
687.574	7288
687.611	6823
687.657	7227
687.695	7244
687.702	7273
687.748	7865
687.794	8226
687.816	8076
687.839	7745
687.885	6716
687.931	7079
687.937	7045
687.976	7075
688.022	7183
688.058	7481
688.067	7584
688.113	7489
688.158	7584
688.179	7810
688.204	7951
688.249	7218
688.295	7632
688.300	7652
688.340	8066
688.386	8388
688.421	8194
688.431	8075
688.477	8208
688.522	7735
688.542	7982
688.567	8326
688.613	7821
688.658	8154
688.663	8092
688.703	7642
688.749	7307
688.784	7686
688.794	7837
688.839	8023
688.884	8365
688.905	8386
688.930	8290
688.975	7553
689.020	7890
689.026	7865
689.065	7777
689.110	7802
689.146	7480
689.155	7444
689.201	7861
689.246	8211
689.267	8380
689.291	8435
689.336	7828
689.381	7886
689.388	7859
689.426	7886
689.471	7962
689.509	7748
689.516	7724
689.561	8090
689.606	8066
689.630	8119
689.651	8118
689.696	7524
689.741	8105
689.750	8085
689.785	8189
689.830	8805
689.871	8388
689.875	8330
689.920	8227
689.965	8359
689.992	8132
690.010	8044
690.054	8171
690.099	8310
690.112	8242
690.144	8175
690.189	8439
690.233	8067
690.233	8073
690.278	8628
690.323	8214
690.354	8308
690.367	8412
690.412	8162
690.457	8298
690.474	8090
690.501	7783
690.546	8071
690.590	7778
690.595	7809
690.635	8180
690.680	8022
690.716	8070
690.724	8086
690.769	8276
690.813	8441
690.836	8291
690.857	8195
690.902	8596
690.946	8196
690.957	8258
690.991	8664
691.035	8730
691.077	9309
691.080	9350
691.124	9692
691.168	9793
691.198	9677
691.213	9506
691.257	9463
691.301	8880
691.318	8998
691.346	9124
691.390	8387
691.434	8162
691.439	8095
691.478	8063
691.522	8767
691.559	8499
691.567	8469
691.611	8825
691.655	9240
691.680	9134
691.699	8999
691.743	9208
691.787	9175
691.800	9132
691.831	9065
691.875	9130
691.919	8980
691.921	8976
691.964	9335
692.008	9468
692.041	9329
692.052	9350
692.096	9508
692.139	9957
692.162	9973
692.183	9726
692.227	9479
692.271	9210
692.282	9086
692.315	9070
692.359	8950
692.402	9215
692.403	9231
692.447	8891
692.490	9131
692.523	9351
692.534	9424
692.578	9569
692.622	9135
692.643	9329
692.666	9623
692.709	9231
692.753	9805
692.763	9711
692.797	9264
692.840	9302
692.884	8675
692.884	8690
692.928	9580
692.971	9537
693.004	9604
693.015	9627
693.059	9807
693.102	9941
693.124	9899
693.146	9768
693.189	9776
693.233	9534
693.245	9557
693.276	9947
693.320	10081
693.363	10503
693.365	10490
693.407	10223
693.450	10104
693.485	9914
693.493	9971
693.537	10302
693.580	10418
693.605	10446
693.624	10404
693.667	10538
693.710	10756
693.725	10703
693.753	10840
693.797	11231
693.840	11511
693.845	11529
693.883	11520
693.926	11347
693.966	11383
693.970	11377
694.013	10830
694.056	10325
694.086	10203
694.099	10276
694.142	10172
694.185	10238
694.206	10112
694.229	10242
694.272	10601
694.315	11125
694.326	11230
694.358	11233
694.401	10849
694.444	10858
694.446	10827
694.487	10915
694.530	11053
694.566	11122
694.573	11041
694.616	10410
694.659	9787
694.686	9375
694.702	9475
694.745	9867
694.787	9907
694.806	10013
694.830	10055
694.873	10193
694.916	10060
694.926	10005
694.959	10105
695.002	10439
695.044	10617
695.046	10616
695.087	11075
695.130	11091
695.166	11452
695.172	11493
695.215	10990
695.258	10966
695.286	10780
695.301	10854
695.343	11255
695.386	11530
695.406	11599
695.428	11584
695.471	11647
695.514	11518
695.526	11513
695.556	12060
695.599	12838
695.641	13584
695.646	13606
695.684	13033
695.726	12647
695.766	12161
695.769	12185
695.811	12168
695.854	12182
695.886	12170
695.896	12157
695.938	11985
695.981	11782
696.005	11677
696.023	11892
696.065	12337
696.108	12867
696.125	12983
696.150	13183
696.192	13522
696.235	13861
696.245	13961
696.277	13883
696.319	13410
696.361	13156
696.365	13102
696.404	13013
696.446	12833
696.485	12751
696.488	12803
696.530	12985
696.572	13168
696.604	13503
696.614	13564
696.656	13330
696.698	13340
696.724	13223
696.740	13170
696.783	13049
696.825	12926
696.844	12829
696.867	12895
696.909	12950
696.951	13066
696.964	13052
696.992	13162
697.034	13266
697.076	13344
697.083	13361
697.118	13867
697.160	14290
697.202	14765
697.203	14744
697.244	14484
697.286	14228
697.323	13957
697.327	13999
697.369	14125
697.411	14294
697.442	14291
697.453	14363
697.494	14627
697.536	14868
697.562	14974
697.578	14938
697.620	14811
697.661	14586
697.682	14498
697.703	14659
697.744	14788
697.786	15012
697.801	15044
697.828	15389
697.869	15909
697.911	16334
697.921	16434
697.952	16140
697.994	15563
698.035	15078
698.040	14983
698.077	15242
698.118	15466
698.160	15674
698.160	15637
698.201	15664
698.243	15635
698.279	15594
698.284	15673
698.325	16031
698.367	16434
698.399	16656
698.408	16689
698.449	16705
698.491	16710
698.518	16674
698.532	16797
698.573	17061
698.614	17295
698.638	17402
698.656	17413
698.697	17354
698.738	17263
698.757	17185
698.779	17242
698.820	17276
698.862	17306
698.877	17283
698.903	17455
698.944	17654
698.985	17854
698.996	17870
699.026	17908
699.067	17904
699.116	17858
699.235	17846
699.354	16875
699.474	16379
699.593	17505
699.713	17323
699.832	16785
699.951	17677
700.070	16546
700.190	16399
700.309	16372
700.428	15329
700.547	16132
700.667	15092
700.786	15606
700.905	15186
701.024	16177
701.143	15235
701.262	15728
701.381	16099
701.500	16988
701.619	15982
701.738	16419
701.857	15217
701.976	15200
702.095	15275
702.214	16216
702.333	16086
702.452	15857
702.571	15448
702.690	15836
702.809	15262
702.928	14600
703.047	15321
703.165	14926
703.284	14482
703.403	14946
703.522	15728
703.640	15844
703.759	16099
703.878	16999
703.997	14758
704.115	15042
704.234	14144
704.353	15169
704.471	14249
704.590	14975
704.708	13584
704.827	13140
704.946	12818
705.064	14479
705.183	13592
705.301	15301
705.420	19491
705.538	19723
705.656	17009
705.775	15497
705.893	16906
706.012	18188
706.130	15850
706.249	17003
706.367	17101
706.485	16932
706.604	16636
706.722	15896
706.840	18163
706.958	19934
707.077	16993
707.195	15484
707.313	15655
707.431	14928
707.549	15785
707.668	15274
707.786	16078
707.904	15196
708.022	15666
708.140	15778
708.258	14496
708.376	16469
708.494	15167
708.612	16380
708.730	20965
708.848	20586
708.966	19619
709.084	18527
709.202	18159
709.320	18380
709.438	18165
709.556	18491
709.674	17969
709.791	18668
709.909	17129
710.027	17272
710.145	17139
710.263	17836
710.380	16530
710.498	17406
710.616	17460
710.733	17247
710.851	16950
710.969	18308
711.086	16667
711.204	16755
711.322	16856
711.439	16680
711.557	16695
711.674	15855
711.792	15881
711.909	15172
712.027	15730
712.144	15651
712.262	17001
712.379	18250
712.497	21598
712.614	23840
712.732	19875
712.849	18576
712.966	19462
713.084	22374
713.201	20172
713.318	20726
713.436	20538
713.553	19975
713.670	20848
713.787	21598
713.905	21662
714.022	20486
714.139	20496
714.256	23128
714.373	28357
714.490	47712
714.608	101591
714.725	417961
714.842	710215
714.959	75159
715.076	27739
715.193	23072
715.310	22709
715.427	19657
715.544	18476
715.661	18698
715.778	17500
715.895	19173
716.011	20180
716.128	18546
716.245	18252
716.362	18821
716.479	19047
716.596	18015
716.713	17146
716.829	16093
716.946	17163
717.063	15495
717.180	16289
717.296	16103
717.413	16201
717.530	15329
717.646	15982
717.763	16648
717.880	15668
717.996	15123
718.113	15544
718.229	15208
718.346	15277
718.462	15468
718.579	16220
718.695	20679
718.812	20229
718.928	17650
719.045	16639
719.161	14914
719.277	14791
719.394	14921
719.510	15512
719.626	16346
719.743	20176
719.859	25437
719.975	43150
720.092	135957
720.208	437795
720.324	95280
720.440	20473
720.557	17618
720.673	20832
720.789	25013
720.905	37762
721.021	24453
721.137	14806
721.253	14523
721.369	14535
721.486	15101
721.602	18578
721.718	15098
721.834	13317
721.950	13447
722.066	12664
722.181	12544
722.297	13695
722.413	12996
722.529	13082
722.645	12766
722.761	12682
722.877	13139
722.993	12122
723.108	15382
723.224	13864
723.340	13319
723.456	11792
723.571	12554
723.687	11281
723.803	12244
723.918	11674
724.034	11840
724.150	12147
724.265	12764
724.381	16850
724.497	24578
724.612	12120
724.728	12176
724.843	11318
724.959	12203
725.074	16886
725.190	22978
725.305	12298
725.421	12434
725.536	11470
725.651	11261
725.767	11197
725.882	10410
725.997	10868
726.113	10977
726.228	9858
726.343	10961
726.459	9308
726.574	10734
726.689	10127
726.804	9753
726.920	11274
727.035	11146
727.150	10276
727.265	10771
727.380	11010
727.495	11060
727.610	10366
727.725	10665
727.841	9657
727.956	10585
728.071	11826
728.186	11098
728.301	9265
728.416	11297
728.531	9727
728.645	10173
728.760	9700
728.875	10622
728.990	10031
729.105	9693
729.220	8870
729.335	10296
729.449	9634
729.564	9880
729.679	8827
729.794	9706
729.908	10560
730.023	10727
730.138	9935
730.253	10328
730.367	9013
730.482	9850
730.596	8811
730.711	10518
730.826	11038
730.940	12350
731.055	11167
731.169	11031
731.284	10285
731.398	9968
731.513	11670
731.627	11696
731.742	12696
731.856	15462
731.970	13817
732.085	16805
732.199	20975
732.313	34187
732.428	77866
732.542	254425
732.656	227367
732.771	37517
732.885	20126
732.999	18072
733.113	19001
733.227	17960
733.342	17384
733.456	16492
733.570	16549
733.684	16240
733.798	14985
733.912	15872
734.026	15073
734.140	15350
734.254	15114
734.368	18133
734.482	20051
734.596	15916
734.710	14143
734.824	14377
734.938	13545
735.052	14719
735.166	14316
735.280	14402
735.393	13925
735.507	13924
735.621	14744
735.735	18937
735.849	15524
735.962	13330
736.076	14235
736.190	13793
736.303	15055
736.417	17646
736.531	12195
736.644	12912
736.758	12198
736.872	12111
736.985	12233
737.099	13357
737.212	11548
737.326	12685
737.439	12017
737.553	12015
737.666	12137
737.780	11320
737.893	12014
738.007	11819
738.120	12374
738.233	12315
738.347	11874
738.460	11373
738.573	13586
738.687	11962
738.800	11501
738.913	13204
739.026	12420
739.140	11136
739.253	11370
739.366	11339
739.479	10559
739.592	11818
739.705	9757
739.818	12117
739.932	11106
740.045	11218
740.158	10656
740.271	11062
740.384	11015
740.497	9687
740.610	10358
740.723	10500
740.836	10535
740.949	10494
741.062	13135
741.174	11735
741.287	10598
741.400	10965
741.513	9138
741.626	10136
741.739	9662
741.851	10432
741.964	9643
742.077	10283
742.189	9470
742.302	10171
742.415	10672
742.527	10050
742.640	10521
742.753	8973
742.865	8963
742.978	10528
743.090	9038
743.203	9976
743.316	9026
743.428	9591
743.541	10177
743.653	8313
743.766	9346
743.878	9931
743.990	9637
744.103	10691
744.215	8951
744.327	8391
744.440	10709
744.552	11998
744.664	9838
744.777	9461
744.889	8903
745.001	9465
745.113	9224
745.226	8962
745.338	7667
745.450	9192
745.562	8099
745.674	7566
745.786	9144
745.898	8736
746.010	7903
746.122	8838
746.234	8441
746.347	8915
746.459	8934
746.570	7468
746.682	8760
746.794	9775
746.906	8394
747.018	8854
747.130	8887
747.242	8349
747.354	7831
747.466	9516
747.577	7807
747.689	8294
747.801	7552
747.913	7619
748.024	8437
748.136	7390
748.248	7780
748.359	7800
748.471	8207
748.583	7605
748.694	7523
748.806	8645
748.918	9050
749.029	7934
749.141	8337
749.252	9458
749.364	7742
749.475	11783
749.587	9760
749.698	7412
749.809	7263
749.921	7440
750.032	7286
750.144	7188
750.255	6416
750.366	7535
750.478	7081
750.589	8753
750.700	6959
750.811	8586
750.923	7395
751.034	10718
751.145	13125
751.256	7669
751.367	6441
751.479	8004
751.590	7266
751.701	7097
751.812	6874
751.923	6159
752.034	6096
752.145	7213
752.256	6920
752.367	6469
752.478	7276
752.589	6650
752.700	7296
752.811	6410
752.922	6481
753.032	7644
753.143	7708
753.254	6974
753.365	6278
753.476	7522
753.586	6507
753.697	7061
753.808	6777
753.919	6262
754.029	6989
754.140	6485
754.251	5600
754.361	7466
754.472	6621
754.582	6190
754.693	6357
754.804	7416
754.914	5953
755.025	5149
755.135	5603
755.246	6881
755.356	6643
755.466	6853
755.577	6092
755.687	6306
755.798	5612
755.908	6327
756.018	6295
756.129	6360
756.239	5691
756.349	7102
756.460	7084
756.570	6985
756.680	6516
756.790	6630
756.900	7642
757.011	5647
757.121	5175
757.231	5688
757.341	6449
757.451	5675
757.561	5137
757.671	5287
757.781	5868
757.891	5753
758.001	5155
758.111	6362
758.221	6355
758.331	7542
758.441	6955
758.551	8037
758.661	7670
758.771	6656
758.880	7154
758.990	6155
759.100	6698
759.210	6557
759.320	6637
759.429	6302
759.539	6767
759.649	7927
759.758	7522
759.868	8067
759.978	7373
760.087	8707
760.197	8063
760.307	7709
760.416	7902
760.526	7401
760.635	7426
760.745	8520
760.854	8535
760.964	9913
761.073	9268
761.182	9096
761.292	7915
761.401	7782
761.511	6936
761.620	7006
761.729	6350
761.839	5899
761.948	6442
762.057	6825
762.166	5600
762.276	6147
762.385	6604
762.494	5742
762.603	5332
762.712	6439
762.822	6875
762.931	5491
763.040	5659
763.149	6083
763.258	6360
763.367	6590
763.476	5206
763.585	5322
763.694	6168
763.803	5731
763.912	7042
764.021	6864
764.130	5786
764.238	6058
764.347	6788
764.456	7034
764.565	6723
764.674	6462
764.783	6277
764.891	6415
765.000	6539
765.109	6944
765.217	7005
765.326	7254
765.435	9102
765.543	9559
765.652	9367
765.761	10416
765.869	13503
765.978	20481
766.086	33730
766.195	67362
766.303	169730
766.412	543821
766.520	699141
766.629	149593
766.737	41758
766.846	24949
766.954	18287
767.062	14925
767.171	12925
767.279	10649
767.387	9167
767.496	9160
767.604	8168
767.712	8238
767.820	8426
767.928	8329
768.037	7147
768.145	7937
768.253	7418
768.361	7785
768.469	6768
768.577	7064
768.685	7545
768.793	7502
768.901	7243
769.009	8434
769.117	8369
769.225	9395
769.333	12596
769.441	16570
769.549	29994
769.657	64631
769.765	197554
769.873	579840
769.981	256759
770.088	37892
770.196	19350
770.304	14006
770.412	13241
770.519	11488
770.627	10257
770.735	9221
770.842	8427
770.950	8301
771.058	8934
771.165	8849
771.273	8929
771.380	9090
771.488	9883
771.595	11695
771.703	11338
771.810	10594
771.918	9921
772.025	10630
772.133	12292
772.240	12551
772.348	12814
772.455	12721
772.562	10490
772.670	11382
772.777	11295
772.884	11931
772.991	10545
773.099	11525
773.206	10113
773.313	11287
773.420	11285
773.528	11391
773.635	10040
773.742	12165
773.849	10494
773.956	10761
774.063	9954
774.170	10866
774.277	10392
774.384	10547
774.491	9762
774.598	10569
774.705	10250
774.812	11380
774.919	10401
775.026	11313
775.133	9592
775.239	10648
775.346	9637
775.453	9909
775.560	9832
775.667	10805
775.773	9828
775.880	9793
775.987	9701
776.093	9583
776.200	10591
776.307	9166
776.413	9541
776.520	10161
776.627	10177
776.733	9102
776.840	7458
776.946	10738
777.053	8589
777.159	9123
777.266	8372
777.372	9204
777.478	8538
777.585	10160
777.691	8574
777.798	8960
777.904	9178
778.010	9451
778.117	9917
778.223	9456
778.329	9088
778.435	8148
778.542	9158
778.648	8172
778.754	7706
778.860	7991
778.966	8697
779.072	8278
779.178	8195
779.284	7350
779.391	7377
779.497	7728
779.603	8756
779.708	7566
779.815	8377
779.920	11659
780.026	18630
780.132	9717
780.238	7250
780.344	7012
780.450	8971
780.556	7247
780.661	6713
780.767	9206
780.873	6048
780.979	6797
781.085	8256
781.190	8394
781.296	5687
781.402	7643
781.507	7238
781.613	6644
781.719	6825
781.824	8204
781.930	6250
782.035	6828
782.141	7007
782.246	5858
782.352	6216
782.457	6545
782.563	6761
782.668	7151
782.773	6426
782.879	6506
782.984	7221
783.090	7130
783.195	7719
783.300	9379
783.405	6424
783.511	6425
783.616	6210
783.721	6478
783.826	6594
783.932	6260
784.037	6536
784.142	6339
784.247	5932
784.352	7364
784.457	6255
784.562	6529
784.667	7066
784.772	6113
784.877	4761
784.982	5580
785.087	7055
785.192	6012
785.297	6246
785.402	6869
785.507	5597
785.611	5943
785.716	5248
785.821	6351
785.926	5697
786.031	6527
786.135	5931
786.240	5619
786.345	5068
786.450	4944
786.554	4516
786.659	5119
786.763	4906
786.868	5518
786.973	5268
787.077	5115
787.182	5056
787.286	5539
787.391	5722
787.495	4778
787.600	4122
787.704	4829
787.809	5051
787.913	4838
788.017	5193
788.122	6087
788.226	5090
788.330	4724
788.435	4736
788.539	5377
788.643	4733
788.747	3834
788.852	4315
788.956	4634
789.060	4844
789.164	5677
789.268	3815
789.372	5290
789.476	3966
789.580	4664
789.684	4597
789.788	4771
789.892	4965
789.996	4700
790.100	3863
790.204	4953
790.308	3844
790.412	5095
790.516	4034
790.620	3942
790.724	4671
790.828	4982
790.931	4475
791.035	4763
791.139	4552
791.242	4868
791.346	3872
791.450	5179
791.554	4177
791.657	3451
791.761	4637
791.864	4774
791.968	3715
792.072	4644
792.175	3853
792.279	4728
792.382	3736
792.486	3955
792.589	3644
792.693	4841
792.796	4147
792.899	4453
793.003	3950
793.106	3957
793.209	3795
793.313	4337
793.416	3048
793.519	3980
793.623	4805
793.726	7046
793.829	3941
793.932	3850
794.035	2662
794.138	5122
794.242	4582
794.345	4902
794.448	3493
794.551	5134
794.654	6156
794.757	9235
794.860	4946
794.963	4384
795.066	3846
795.169	4586
795.272	2931
795.375	3883
795.477	3090
795.580	2900
795.683	2753
795.786	3274
795.889	3538
795.991	4359
796.094	3669
796.197	3750
796.300	4112
796.402	3206
796.505	2258
796.608	3051
796.710	2905
796.813	3757
796.915	3020
797.018	3591
797.120	2820
797.223	3255
797.326	3115
797.428	3257
797.530	2621
797.633	2898
797.735	4364
797.838	5226
797.940	5056
798.042	3971
798.145	3184
798.247	3135
798.349	2737
798.452	3095
798.554	2911
798.656	3642
798.758	4072
798.860	3294
798.962	3403
799.065	3142
799.167	2407
799.269	3263
799.371	3327
799.473	4458
799.575	3404
799.677	3260
799.779	3886
799.881	4310
799.983	3799
800.085	2828
800.187	2724
800.289	2500
800.390	3074
800.492	3242
800.594	3274
800.696	2998
800.798	2018
800.899	3134
801.001	2073
801.103	3284
801.205	3235
801.306	2647
801.408	2655
801.509	2433
801.611	3005
801.713	2106
801.814	3139
801.916	2452
802.017	1470
802.119	1671
802.220	2111
802.322	1863
802.423	4682
802.525	3110
802.626	1824
802.727	2967
802.829	2628
802.930	947
803.031	2968
803.133	3005
803.234	2203
803.335	2973
803.436	1999
803.538	2163
803.639	1393
803.740	2575
803.841	2522
803.942	2296
804.043	2796
804.144	2852
804.245	2294
804.346	2529
804.447	2643
804.548	3180
804.649	3299
804.750	2282
804.851	1973
804.952	1370
805.053	1700
805.154	1418
805.255	2867
805.355	2528
805.456	1122
805.557	1102
805.658	1286
805.758	2981
805.859	2186
805.960	2031
806.061	1305
806.161	1938
806.262	1505
806.362	2097
806.463	1942
806.564	2504
806.664	2173
806.765	1859
806.865	1758
806.966	1204
807.066	1397
807.166	1994
807.267	2316
807.367	1748
807.468	1805
807.568	995
807.668	1802
807.769	2398
807.869	1376
807.969	2110
808.069	2196
808.170	2590
808.270	1930
808.370	2651
808.470	2412
808.570	2211
808.670	1812
808.770	2166
808.870	2162
808.970	1878
809.070	1292
809.170	1916
809.271	2200
809.370	1939
809.470	1542
809.570	1978
809.670	1935
809.770	1984
809.870	1554
809.970	1722
810.070	1881
810.169	1449
810.269	1468
810.369	2499
810.469	1700
810.568	984
810.668	1868
810.768	1740
810.867	1585
810.967	1289
811.066	1859
811.166	1783
811.265	1664
811.365	1481
811.464	428
811.564	1568
811.663	1456
811.763	1709
811.862	1764
811.962	2041
812.061	1712
812.160	2388
812.260	2007
812.359	2770
812.458	3038
812.557	5267
812.657	7327
812.756	4007
812.855	2167
812.954	1841
813.053	2431
813.153	2008
813.252	1875
813.351	2089
813.450	2545
813.549	1135
813.648	1741
813.747	1345
813.846	1659
813.945	1550
814.044	1286
814.143	2180
814.242	2117
814.341	1949
814.439	1876
814.538	2515
814.637	1408
814.736	1831
814.835	2317
814.933	3532
815.032	3172
815.131	2623
815.229	4850
815.328	7594
815.427	5540
815.525	5579
815.624	4827
815.722	4663
815.821	5350
815.919	5709
816.018	3798
816.116	5538
816.215	4955
816.313	5344
816.412	6057
816.510	6560
816.609	7448
816.707	7883
816.805	7247
816.904	6746
817.002	7936
817.100	7919
817.198	8487
817.296	8695
817.395	8746
817.493	10267
817.591	9195
817.689	12730
817.787	14731
817.885	22424
817.983	38485
818.081	76689
818.179	172651
818.277	397801
818.375	417332
818.473	115143
818.571	38043
818.669	26326
818.767	23894
818.865	24587
818.963	26847
819.061	39715
819.158	68841
819.256	139635
819.354	295137
819.452	618414
819.549	505109
819.647	145141
819.745	53526
819.842	31817
819.940	23934
820.038	17928
820.135	15213
820.233	12137
820.330	10991
820.428	9331
820.525	8621
820.623	7825
820.720	6948
820.818	7375
820.915	7333
821.012	6459
821.110	5911
821.207	6358
821.304	5804
821.402	4769
821.499	6258
821.596	5398
821.693	4708
821.791	5335
821.888	5700
821.985	7327
822.082	5841
822.179	4485
822.276	4822
822.373	4396
822.470	3789
822.567	5133
822.664	3888
822.761	4669
822.858	3885
822.955	4369
823.052	3018
823.149	4010
823.246	4000
823.343	2684
823.440	3373
823.536	3625
823.633	3830
823.730	3891
823.827	3313
823.923	3242
824.020	3860
824.117	3536
824.213	3126
824.310	4078
824.407	2339
824.503	3996
824.600	3220
824.696	3194
824.793	3728
824.889	3921
824.986	3166
825.082	2550
825.179	2487
825.275	3272
825.371	3767
825.468	3381
825.564	2003
825.660	2952
825.757	4174
825.853	3707
825.949	1984
826.045	2391
826.142	2431
826.238	3356
826.334	2788
826.430	2827
826.526	2463
826.622	1811
826.718	2848
826.814	3222
826.910	4092
827.006	1938
827.102	1820
827.198	3169
827.294	2276
827.390	3061
827.486	2115
827.582	965
827.678	1723
827.774	3390
827.869	1187
827.965	2419
828.061	1848
828.157	2608
828.252	2394
828.348	3159
828.444	2295
828.539	2213
828.635	2645
828.731	2348
828.826	1147
828.922	2402
829.017	2551
829.113	2687
829.208	1626
829.304	1720
829.399	3296
829.495	2114
829.590	2056
829.685	2702
829.781	2108
829.876	2960
829.971	1558
830.066	1555
830.162	1234
830.257	2924
830.352	2757
830.447	3230
830.543	1595
830.638	2090
830.733	3052
830.828	1848
830.923	1904
831.018	2414
831.113	2099
831.208	1907
831.303	1214
831.398	1428
831.493	1941
831.588	3401
831.683	1290
831.778	1279
831.873	446
831.967	1795
832.062	2168
832.157	974
832.252	2072
832.346	2025
832.441	2280
832.536	2945
832.631	4107
832.725	4992
832.820	1848
832.914	2376
833.009	1574
833.104	2135
833.198	1201
833.293	2078
833.387	2172
833.482	2558
833.576	1024
833.670	2468
833.765	1694
833.859	2273
833.954	1729
834.048	2024
834.142	1727
834.237	1237
834.331	1075
834.425	2284
834.519	1232
834.613	1978
834.708	1082
834.802	1693
834.896	1251
834.990	1886
835.084	1076
835.178	1332
835.272	1217
835.366	1919
835.460	1745
835.554	1950
835.648	1660
835.742	977
835.836	694
835.930	834
836.024	1089
836.117	1265
836.211	914
836.305	1731
836.399	1727
836.493	1490
836.586	1495
836.680	1374
836.774	1034
836.867	1730
836.961	527
837.055	1343
837.148	1783
837.242	1694
837.335	1543
837.429	1548
837.522	1177
837.616	1160
837.709	1945
837.803	2179
837.896	1858
837.989	1707
838.083	1372
838.176	2598
838.269	2350
838.363	1705
838.456	1180
838.549	2965
838.642	2348
838.735	4524
838.829	3650
838.922	1382
839.015	1133
839.108	704
839.201	367
839.294	1588
839.387	844
839.480	1220
839.573	1459
839.666	1874
839.759	1157
839.852	901
839.945	794
840.038	1055
840.131	-117
840.223	551
840.316	1467
840.409	2164
840.502	828
840.594	1918
840.687	39
840.780	771
840.873	-641
840.965	1275
841.058	1445
841.150	2109
841.243	1241
841.336	1578
841.428	696
841.521	-18
841.613	311
841.706	1471
841.798	219
841.890	1713
841.983	52
842.075	1125
842.167	374
842.260	1150
842.352	1564
842.444	1378
842.537	1639
842.629	3920
842.721	1683
842.813	606
842.905	471
842.997	1109
843.090	928
843.182	2701
843.274	2214
843.366	5368
843.458	9231
843.550	8456
843.642	2089
843.734	1132
843.826	779
843.918	1265
844.009	887
844.101	651
844.193	505
844.285	1355
844.377	943
844.469	2085
844.560	329
844.652	979
844.744	485
844.835	426
844.927	1055
845.019	975
845.110	814
845.202	809
845.293	603
845.385	405
845.476	978
845.568	1397
845.659	23
845.751	1092
845.842	339
845.934	-117
846.025	663
846.116	737
846.208	306
846.299	199
846.390	-270
846.482	785
846.573	918
846.664	1577
846.755	1636
846.846	2256
846.937	-666
847.029	-151
847.120	-76
847.211	-217
847.302	454
847.393	316
847.484	461
847.575	-641
847.666	-216
847.757	461
847.847	-126
847.938	789
848.029	61
848.120	241
848.211	381
848.302	269
848.392	809
848.483	730
848.574	55
848.664	428
848.755	411
848.846	-7
848.936	-251
849.027	648
849.118	510
849.208	678
849.299	1895
849.389	2609
849.480	5240
849.570	10956
849.661	17624
849.751	36579
849.841	22007
849.932	3240
850.022	136
850.112	870
850.203	-280
850.293	857
850.383	-352
850.474	-362
850.564	-122
850.654	202
850.744	651
850.834	487
850.924	-127
851.014	1472
851.104	343
851.194	46
851.284	371
851.374	1554
851.464	384
851.554	240
851.644	135
851.734	1740
851.824	1435
851.914	575
852.004	279
852.094	798
852.183	14
852.273	462
852.363	-122
852.452	635
852.542	601
852.632	385
852.721	-1
852.811	-308
852.901	493
852.990	1356
853.080	842
853.169	1028
853.259	433
853.348	1058
853.438	1498
853.527	2004
853.617	3379
853.706	7079
853.795	13409
853.885	28575
853.974	55535
854.063	85868
854.152	163387
854.242	103578
854.331	17952
854.420	4454
854.509	2717
854.598	2788
854.687	1940
854.777	2220
854.866	830
854.955	844
855.044	290
855.133	564
855.222	321
855.311	749
855.400	622
855.488	6
855.577	91
855.666	742
855.755	417
855.844	795
855.933	-510
856.021	210
856.110	360
856.199	-424
856.288	-606
856.376	-286
856.465	-499
856.554	-293
856.642	994
856.731	882
856.819	438
856.908	521
856.996	-30
857.085	-483
857.173	-19
857.262	-654
857.350	-310
857.438	354
857.527	494
857.615	199
857.703	285
857.792	-371
857.880	-878
857.968	226
858.056	603
858.145	-443
858.233	332
858.321	-33
858.409	175
858.497	118
858.585	-554
858.673	-490
858.761	-9
858.849	82
858.937	-116
859.025	620
859.113	686
859.201	311
859.289	-191
859.377	534
859.465	-298
859.552	262
859.640	-789
859.728	508
859.816	33
859.903	1314
859.991	-564
860.079	-30
860.166	-350
860.254	-97
860.342	472
860.429	261
860.517	273
860.604	304
860.692	-461
860.779	485
860.867	-320
860.954	-192
861.042	-154
861.129	1006
861.216	395
861.304	401
861.391	-101
861.478	896
861.565	999
861.653	273
861.740	-793
861.827	342
861.914	52
862.001	-440
862.089	266
862.176	830
862.263	-600
862.350	508
862.437	446
862.524	-355
862.611	196
862.698	395
862.785	24
862.871	868
862.958	-243
863.045	397
863.132	291
863.219	710
863.306	-591
863.392	620
863.479	96
863.566	613
863.652	433
863.739	110
863.826	1181
863.912	384
863.999	-262
864.086	903
864.172	684
864.259	-461
864.345	668
864.432	460
864.518	1168
864.604	998
864.691	591
864.777	1201
864.863	1126
864.950	1764
865.036	1549
865.122	3836
865.209	4562
865.295	4280
865.381	2954
865.467	3521
865.553	3857
865.639	6297
865.726	7846
865.812	16152
865.898	29874
865.984	42815
866.070	65014
866.156	105430
866.242	45263
866.328	9337
866.414	4365
866.499	4387
866.585	3251
866.671	3280
866.757	3016
866.843	3668
866.928	1892
867.014	2061
867.100	2846
867.186	2798
867.271	2808
867.357	3650
867.442	2525
867.528	2670
867.614	2717
867.699	2516
867.785	3083
867.870	2506
867.956	1780
868.041	2487
868.127	2492
868.212	2976
868.297	2537
868.383	2711
868.468	3212
868.553	4230
868.639	3979
868.724	4954
868.809	6248
868.894	2916
868.979	2460
869.065	2191
869.150	1509
869.235	1591
869.320	2003
869.405	1997
869.490	1603
869.575	1808
869.660	737
869.745	2288
869.830	2304
869.915	1783
870.000	1480
870.085	1265
870.169	1680
870.254	3210
870.339	826
870.424	1538
870.509	988
870.593	2391
870.678	1874
870.763	1134
870.847	1470
870.932	1234
871.016	1993
871.101	2020
871.186	1402
871.270	2321
871.355	1152
871.439	2116
871.523	1368
871.608	1576
871.692	736
871.777	2633
871.861	1624
871.945	1832
872.030	1865
872.114	1967
872.198	1339
872.282	1351
872.367	978
872.451	1566
872.535	1082
872.619	1897
872.703	939
872.787	1387
872.871	1509
872.955	725
873.039	584
873.123	1255
873.207	2122
873.291	889
873.375	-31
873.459	1987
873.543	1080
873.627	1602
873.711	424
873.794	1571
873.878	414
873.962	508
874.045	825
874.129	721
874.137	727
874.213	790
874.245	814
874.296	848
874.352	439
874.380	246
874.460	980
874.464	1008
874.547	652
874.568	562
874.631	323
874.676	933
874.714	1438
874.784	1352
874.798	1332
874.881	2242
874.892	2085
874.965	1030
874.999	1083
875.048	1164
875.107	1404
875.131	1484
875.215	561
875.215	561
875.298	776
875.323	609
875.381	252
875.430	779
875.465	1158
875.538	1107
875.548	1085
875.631	1171
875.646	1052
875.714	566
875.753	637
875.798	707
875.861	1110
875.881	1233
875.964	388
875.968	385
876.047	317
876.076	734
876.130	1589
876.183	844
876.213	398
876.291	1374
876.296	1442
876.379	633
876.398	880
876.462	1664
876.506	890
876.545	169
876.613	752
876.628	887
876.711	829
876.721	873
876.794	1396
876.828	1218
876.877	786
876.935	682
876.960	727
877.043	1012
877.043	1012
877.125	868
877.150	845
877.208	940
877.258	1341
877.291	1534
877.365	1268
877.374	1256
877.456	1212
877.472	1145
877.539	667
877.579	633
877.622	735
877.687	979
877.704	1005
877.787	1057
877.794	1028
877.869	898
877.901	1206
877.952	1474
878.008	767
878.034	559
878.115	654
878.117	653
878.199	205
878.222	345
878.282	948
878.329	1184
878.364	1145
878.437	1089
878.447	1117
878.529	349
878.544	443
878.611	642
878.651	569
878.694	781
878.758	1281
878.776	1317
878.858	854
878.865	831
878.941	749
878.972	700
879.023	563
879.078	365
879.105	293
879.185	1005
879.187	1021
879.269	997
879.292	1078
879.351	1340
879.399	971
879.433	551
879.506	385
879.516	416
879.598	835
879.613	800
879.680	570
879.720	647
879.762	658
879.827	730
879.844	716
879.926	617
879.933	582
880.007	556
880.040	534
880.089	358
880.147	520
880.171	778
880.253	2524
880.254	2525
880.335	1927
880.360	2159
880.417	3339
880.467	4325
880.499	5207
880.574	8145
880.580	8171
880.662	3866
880.680	3370
880.744	1856
880.787	895
880.825	565
880.893	592
880.907	583
880.989	468
881.000	492
881.070	1009
881.106	1057
881.152	806
881.213	185
881.233	115
881.315	265
881.319	323
881.396	902
881.426	665
881.478	394
881.532	341
881.559	475
881.639	1088
881.641	1088
881.722	1006
881.745	820
881.803	603
881.852	603
881.885	498
881.958	456
881.966	468
882.047	672
882.064	668
882.129	1066
882.171	1286
882.210	1131
882.277	960
882.291	1034
882.372	1742
882.383	1712
882.454	912
882.489	875
882.535	1193
882.596	990
882.616	807
882.697	702
882.702	658
882.778	-159
882.808	-60
882.859	673
882.914	900
882.940	864
883.020	705
883.021	704
883.102	674
883.127	589
883.183	928
883.233	1156
883.264	964
883.339	492
883.345	489
883.426	553
883.445	572
883.507	491
883.551	361
883.587	557
883.657	1055
883.668	1032
883.749	589
883.763	537
883.830	628
883.869	664
883.910	589
883.975	569
883.991	600
884.072	666
884.081	698
884.152	785
884.187	546
884.233	462
884.292	761
884.314	741
884.394	295
884.398	283
884.475	343
884.504	357
884.555	492
884.610	636
884.636	581
884.716	428
884.716	434
884.797	1137
884.821	1261
884.877	1162
884.927	1344
884.958	1233
885.033	552
885.038	549
885.118	465
885.139	431
885.199	413
885.244	700
885.279	874
885.350	792
885.359	746
885.439	859
885.456	748
885.520	721
885.561	720
885.600	448
885.667	177
885.680	266
885.760	970
885.773	989
885.840	422
885.878	322
885.920	486
885.984	643
886.000	612
886.080	378
886.089	345
886.160	999
886.195	1302
886.240	810
886.300	268
886.320	492
886.400	1419
886.406	1468
886.480	597
886.511	398
886.560	1114
886.616	1376
886.640	1348
886.720	1458
886.722	1460
886.800	895
886.827	633
886.879	406
886.932	87
886.959	386
887.038	1562
887.039	1564
887.119	958
887.143	873
887.198	705
887.248	421
887.278	302
887.354	130
887.358	151
887.437	461
887.459	560
887.517	1120
887.564	1518
887.596	1248
887.669	685
887.676	680
887.755	540
887.774	518
887.835	722
887.880	888
887.914	788
887.985	497
887.994	488
888.073	423
888.090	414
888.153	444
888.195	401
888.232	549
888.300	840
888.311	770
888.391	289
888.405	206
888.470	878
888.510	1231
888.549	1023
888.615	764
888.628	811
888.708	1014
888.720	1049
888.787	1183
888.825	1202
888.866	953
888.930	646
888.945	588
889.024	192
889.035	151
889.103	910
889.140	1284
889.182	1127
889.245	871
889.261	933
889.340	1261
889.349	1296
889.419	1006
889.454	842
889.498	769
889.559	682
889.577	732
889.656	940
889.664	960
889.735	1145
889.768	1224
889.814	898
889.873	465
889.978	660
890.083	800
890.187	1083
890.292	302
890.397	1129
890.501	617
890.606	674
890.710	1222
890.815	1748
890.919	359
891.024	816
891.128	1104
891.233	328
891.337	452
891.442	751
891.546	906
891.650	1268
891.755	114
891.859	1557
891.963	535
892.068	1182
892.172	1275
892.276	474
892.380	623
892.484	1258
892.589	314
892.693	765
892.797	508
892.901	1300
893.005	-39
893.109	1237
893.213	771
893.317	1100
893.421	824
893.525	1293
893.629	602
893.733	1365
893.837	800
893.941	716
894.045	539
894.148	923
894.252	1235
894.356	936
894.460	940
894.564	881
894.667	831
894.771	1215
894.875	732
894.978	972
895.082	532
895.186	684
895.289	1064
895.393	2287
895.496	243
895.600	1597
895.703	231
895.807	1452
895.910	1082
896.014	959
896.117	611
896.221	808
896.324	706
896.427	605
896.531	163
896.634	697
896.737	1099
896.840	734
896.944	989
897.047	829
897.150	1033
897.253	1067
897.356	377
897.460	288
897.563	372
897.666	571
897.769	537
897.872	1207
897.975	140
898.078	317
898.181	409
898.284	836
898.387	-13
898.490	1500
898.593	297
898.695	1494
898.798	399
898.901	1493
899.004	228
899.107	929
899.209	392
899.312	1044
899.415	51
899.518	390
899.620	296
899.723	717
899.826	745
899.928	1626
900.031	127
900.133	1341
900.236	843
900.338	636
900.441	222
900.543	858
900.646	-124
900.748	845
900.851	1247
900.953	135
901.055	591
901.158	1036
901.260	864
901.362	1162
901.465	477
901.567	562
901.669	1294
901.771	-150
901.873	-122
901.976	638
902.078	193
902.180	1288
902.282	-56
902.384	1048
902.486	527
902.588	737
902.690	437
902.792	701
902.894	140
902.996	941
903.098	537
903.200	13
903.302	-186
903.404	681
903.505	497
903.607	1013
903.709	889
903.811	1120
903.913	168
904.014	1009
904.116	-152
904.218	250
904.319	955
904.421	836
904.523	620
904.624	743
904.726	-141
904.827	629
904.929	-287
905.030	664
905.132	493
905.233	1476
905.335	262
905.436	955
905.537	193
905.639	804
905.740	-588
905.841	-107
905.943	708
906.044	927
906.145	641
906.247	302
906.348	204
906.449	1028
906.550	386
906.651	464
906.752	652
906.854	772
906.955	-161
907.056	-13
907.157	260
907.258	1387
907.359	-340
907.460	951
907.561	-750
907.662	160
907.762	-15
907.863	-138
907.964	437
908.065	1400
908.166	330
908.267	1165
908.367	88
908.468	610
908.569	477
908.670	439
908.770	178
908.871	536
908.971	508
909.072	1274
909.173	271
909.273	1059
909.374	8
909.474	634
909.575	325
909.675	731
909.776	-213
909.876	1170
909.977	1146
910.077	510
910.177	497
910.278	197
910.378	98
910.478	482
910.579	186
910.679	390
910.779	658
910.879	751
910.980	-34
911.080	195
911.180	641
911.280	282
911.380	127
911.480	327
911.580	-18
911.680	545
911.780	1086
911.880	813
911.980	19
912.080	627
912.180	103
912.280	291
912.380	469
912.480	1511
912.580	-246
912.679	223
912.779	-13
912.879	208
912.979	176
913.078	-517
913.178	60
913.278	305
913.377	138
913.477	388
913.577	236
913.676	1316
913.776	-656
913.875	376
913.975	-83
914.074	733
914.174	286
914.273	1171
914.373	584
914.472	606
914.572	408
914.671	1192
914.770	533
914.870	194
914.969	-80
915.068	-198
915.167	453
915.267	210
915.366	154
915.465	605
915.564	709
915.663	704
915.763	325
915.862	722
915.961	594
916.060	274
916.159	-283
916.258	547
916.357	310
916.456	822
916.555	209
916.654	280
916.752	-317
916.851	870
916.950	335
917.049	144
917.148	-330
917.247	-119
917.345	201
917.444	510
917.543	770
917.642	232
917.740	387
917.839	270
917.937	614
918.036	927
918.135	162
918.233	-133
918.332	161
918.430	449
918.529	202
918.627	1127
918.726	314
918.824	394
918.923	565
919.021	585
919.119	-267
919.218	-321
919.316	-524
919.414	612
919.512	551
919.611	366
919.709	607
919.807	579
919.905	243
920.003	494
920.102	44
920.200	-6
920.298	60
920.396	889
920.494	10
920.592	481
920.690	571
920.788	340
920.886	49
920.984	786
921.082	-606
921.180	1043
921.277	839
921.375	78
921.473	413
921.571	1117
921.669	512
921.766	266
921.864	921
921.962	1218
922.060	751
922.157	1959
922.255	743
922.352	475
922.450	1044
922.548	811
922.645	236
922.743	1129
922.840	1528
922.938	2390
923.035	1506
923.133	2789
923.230	1552
923.327	2368
923.425	2575
923.522	2684
923.619	1542
923.717	2364
923.814	2058
923.911	2423
924.008	1814
924.106	2024
924.203	1195
924.300	2100
924.397	1277
924.494	2528
924.591	2141
924.688	1762
924.786	1323
924.883	2243
924.979	1219
925.077	1982
925.173	1317
925.270	1725
925.367	1012
925.464	2456
925.561	1202
925.658	2660
925.755	1664
925.852	1855
925.948	1452
926.045	1439
926.142	1338
926.239	1230
926.335	1596
926.432	1676
926.529	1787
926.625	2049
926.722	1451
926.818	2019
926.915	1065
927.011	1754
927.108	1615
927.204	831
927.301	1308
927.397	1288
927.494	2004
927.590	1657
927.687	1469
927.783	1332
927.879	1408
927.976	1239
928.072	846
928.168	1583
928.264	945
928.361	952
928.457	1605
928.553	1912
928.649	1471
928.745	1777
928.841	937
928.937	1488
929.033	642
929.129	1895
929.225	2002
929.321	1710
929.417	722
929.513	1237
929.609	783
929.705	933
929.801	1763
929.897	1328
929.993	1427
930.089	1598
930.184	1178
930.280	1337
930.376	2448
930.471	1674
930.567	700
930.663	1837
930.758	867
930.854	1066
930.950	1259
931.045	1881
931.141	689
931.236	2084
931.332	2080
931.427	1190
931.523	1243
931.618	1429
931.714	399
931.809	497
931.905	1620
932.000	1453
932.095	970
932.191	955
932.286	566
932.381	1550
932.476	222
932.572	1066
932.667	169
932.762	1109
932.857	685
932.952	1286
933.047	-374
933.142	1326
933.237	1003
933.332	575
933.427	1309
933.522	1869
933.617	931
933.712	295
933.807	2119
933.902	1204
933.997	2137
934.092	824
934.187	641
934.282	1235
934.376	1309
934.471	924
934.566	213
934.661	-52
934.755	1591
934.850	1023
934.945	1129
935.039	139
935.134	453
935.228	939
935.323	1095
935.417	1327
935.512	-97
935.606	374
935.701	1260
935.795	972
935.890	1014
935.984	1149
936.079	960
936.173	757
936.267	411
936.362	572
936.456	1463
936.550	1035
936.644	968
936.738	1103
936.833	215
936.927	1368
937.021	1287
937.115	728
937.209	110
937.303	908
937.397	-32
937.491	960
937.585	876
937.679	1083
937.773	727
937.867	1417
937.961	-326
938.055	761
938.149	1304
938.243	779
938.337	-644
938.430	950
938.524	1152
938.618	442
938.712	306
938.805	650
938.899	520
938.993	1268
939.086	328
939.180	775
939.274	266
939.367	1351
939.461	168
939.554	574
939.648	472
939.741	1197
939.835	-671
939.928	817
940.022	1221
940.115	160
940.208	437
940.302	1495
940.395	709
940.488	1290
940.582	23
940.675	822
940.768	194
940.861	1356
940.954	954
941.048	810
941.141	372
941.234	815
941.327	520
941.420	1585
941.513	859
941.606	1016
941.699	1027
941.792	971
941.885	661
941.978	847
942.071	1184
942.164	121
942.257	-690
942.349	-84
942.442	-85
942.535	1299
942.628	-120
942.721	435
942.813	-286
942.906	823
942.999	278
943.091	654
943.184	658
943.277	363
943.369	352
943.462	619
943.554	916
943.647	222
943.739	438
943.832	1664
943.924	-133
944.017	-392
944.109	-233
944.201	314
944.294	429
944.386	1142
944.478	-74
944.571	191
944.663	-230
944.755	592
944.847	-45
944.940	991
945.032	431
945.124	-68
945.216	119
945.308	1103
945.400	64
945.492	643
945.584	105
945.676	822
945.768	-77
945.860	1414
945.952	457
946.044	686
946.136	-535
946.228	509
946.320	-357
946.412	547
946.503	920
946.595	1244
946.687	-226
946.779	854
946.870	248
946.962	663
947.054	-265
947.145	647
947.237	-170
947.329	712
947.420	-168
947.512	730
947.603	204
947.695	794
947.786	-242
947.878	-141
947.969	301
948.061	815
948.152	353
948.243	1196
948.335	-169
948.426	714
948.517	-517
948.609	317
948.700	-365
948.791	-242
948.882	-44
948.973	-101
949.065	-135
949.156	875
949.247	287
949.338	95
949.429	-669
949.520	282
949.611	-230
949.702	84
949.793	152
949.884	331
949.975	-755
950.066	151
950.157	-204
950.247	145
950.338	508
950.429	-11
950.520	269
950.611	6
950.701	127
950.792	1135
950.883	109
950.973	-162
951.064	161
951.155	771
951.245	-82
951.336	256
951.427	-286
951.517	345
951.608	45
951.698	333
951.788	332
951.879	-491
951.969	-465
952.060	381
952.150	-111
952.240	10
952.331	-285
952.421	1099
952.511	-666
952.602	434
952.692	-228
952.782	-312
952.872	99
952.962	-845
953.052	-452
953.143	278
953.233	270
953.323	15
953.413	129
953.503	463
953.593	345
953.683	805
953.773	-1083
953.863	452
953.953	-42
954.042	239
954.132	440
954.222	403
954.312	-892
954.402	-178
954.492	710
954.581	155
954.671	321
954.761	-890
954.850	41
954.940	-189
955.030	-74
955.119	-471
955.209	-397
955.298	79
955.388	245
955.477	231
955.567	-818
955.656	288
955.746	-662
955.835	161
955.925	167
956.014	-256
956.103	-14
956.193	451
956.282	-255
956.371	190
956.461	-791
956.550	261
956.639	-597
956.728	-156
956.817	-270
956.906	-672
956.995	256
957.085	514
957.174	24
957.263	25
957.352	374
957.441	-330
957.530	-119
957.619	-13
957.708	-573
957.796	343
957.885	-257
957.974	-680
958.063	-751
958.152	-1178
958.241	-841
958.329	88
958.418	-674
958.507	398
958.596	257
958.684	-545
958.773	-359
958.861	-111
958.950	-506
959.039	262
959.127	-666
959.216	653
959.304	-124
959.393	176
959.481	-722
959.570	-35
959.658	-775
959.746	-474
959.835	-600
959.923	551
960.011	-390
960.100	-17
960.188	-697
960.276	-535
960.365	-994
960.453	-789
960.541	-649
960.629	401
960.717	-745
960.805	-1128
960.893	-107
960.981	-879
961.069	-467
961.158	75
961.245	-730
961.333	-268
961.421	-1043
961.509	-37
961.597	-335
961.685	-672
961.773	-857
961.861	-508
961.949	-690
962.036	-655
962.124	-304
962.212	-295
962.299	-1255
962.387	180
962.475	-528
962.562	-499
962.650	-1388
962.738	-315
962.825	-186
962.913	228
963.000	-1119
963.088	-808
963.175	-663
963.263	-691
963.350	-338
963.438	-503
963.525	-675
963.612	971
963.700	-90
963.787	3717
963.874	1708
963.962	172
964.049	-642
964.136	-641
964.223	-1164
964.310	-842
964.398	-1237
964.485	-32
964.572	-588
964.659	567
964.746	-211
964.833	-272
964.920	-436
965.007	-286
965.094	-987
965.181	-574
965.268	-484
965.355	8
965.441	-1144
965.528	-727
965.615	-75
965.702	-2
965.789	-473
965.875	-624
965.962	-1149
966.049	-707
966.136	-588
966.222	-620
966.309	-962
966.395	-752
966.482	124
966.569	-656
966.655	-299
966.742	-74
966.828	-895
966.915	-823
967.001	-879
967.087	-832
967.174	-442
967.260	-539
967.347	-814
967.433	175
967.519	1439
967.605	542
967.692	-714
967.778	-333
967.864	39
967.950	80
968.036	-1654
968.123	-585
968.209	-527
968.295	-910
968.381	-596
968.467	-242
968.553	-1125
968.639	-382
968.725	-1041
968.811	-320
968.897	-453
968.983	-379
969.069	-841
969.154	-1052
969.240	-94
969.326	-643
969.412	-1248
969.497	-1292
969.583	-1779
969.669	-1068
969.755	-319
969.840	-712
969.926	-961
970.012	-1066
970.097	-805
970.183	38
970.268	-1563
970.354	-353
970.439	-679
970.525	1362
970.610	-101
970.696	-101
970.781	-797
970.866	-1028
970.952	-911
971.037	127
971.122	-1121
971.208	-402
971.293	-1020
971.378	-1006
971.463	-804
971.549	-564
971.634	-523
971.719	-693
971.804	-1253
971.889	-305
971.974	-1073
972.059	-311
972.144	-591
972.229	-766
972.314	-683
972.399	-1265
972.484	-1136
972.569	-350
972.654	-1243
972.739	531
972.824	-1194
972.908	-24
972.993	-527
973.078	-651
973.163	-867
973.247	-403
973.332	-1494
973.417	-294
973.501	-1341
973.586	-479
973.671	-1179
973.755	-402
973.840	-1090
973.924	344
974.009	-66
974.093	177
974.178	166
974.262	64
974.346	-838
974.431	359
974.515	-272
974.600	-471
974.684	-554
974.768	-759
974.852	-120
974.937	-1197
975.021	-1301
975.105	96
975.189	-1057
975.273	-755
975.358	-810
975.442	-773
975.526	-1313
975.610	-655
975.694	-1481
975.778	-615
975.862	-528
975.946	-1401
976.030	62
976.114	240
976.198	-333
976.281	51
976.365	-832
976.449	-1081
976.533	-1353
976.617	-689
976.700	-567
976.784	-779
976.868	-56
976.951	-300
977.035	-430
977.119	-94
977.202	-764
977.286	184
977.369	-256
977.453	-539
977.536	-290
977.620	-1112
977.703	-65
977.787	-138
977.870	-871
977.953	-124
978.037	-1042
978.120	413
978.203	-254
978.287	890
978.370	-866
978.453	-663
978.536	-990
978.620	-806
978.703	-503
978.786	-193
978.869	531
978.952	-754
979.035	-214
979.118	-366
979.201	-1718
979.284	-453
979.367	-996
979.450	-870
979.533	-1426
979.616	-782
979.699	-1275
979.782	353
979.865	-810
979.948	-916
980.030	-1404
980.113	114
980.196	-1641
980.279	335
980.361	-808
980.444	-262
980.526	-280
980.609	-167
980.692	-809
980.774	-319
980.857	-1195
980.939	561
981.022	-784
981.104	-613
981.187	-894
981.269	154
981.352	-373
981.434	-1164
981.516	-1001
981.599	-215
981.681	-1138
981.763	-33
981.846	-1099
981.928	-416
982.010	-633
982.092	-1513
982.174	-552
982.256	-1109
982.339	-1437
982.421	-721
982.503	-991
982.585	-143
982.667	-666
982.749	-530
982.831	-647
982.913	-1418
982.995	-311
983.077	-980
983.158	-658
983.240	-1022
983.322	-169
983.404	6
983.486	-612
983.568	-234
983.649	-1454
983.731	-146
983.813	6
983.894	294
983.976	-818
984.058	-166
984.139	-212
984.221	-77
984.302	-174
984.384	-44
984.465	-1113
984.547	-747
984.628	-948
984.710	558
984.791	-987
984.872	-467
984.954	-758
985.035	733
985.116	-1215
985.198	142
985.279	-140
985.360	-391
985.441	-1818
985.522	38
985.604	-1106
985.685	-1732
985.766	-624
985.847	368
985.928	-806
986.009	-17
986.090	-996
986.171	216
986.252	-870
986.333	-575
986.414	-270
986.495	-153
986.576	-620
986.656	-179
986.737	-488
986.818	-356
986.899	-1114
986.980	-862
987.060	-593
987.141	-280
987.222	-670
987.302	-1004
987.383	-1007
987.464	-850
987.544	-494
987.625	52
987.705	-126
987.786	-675
987.866	-570
987.947	-162
988.027	-725
988.108	-191
988.188	720
988.268	-173
988.349	-947
988.429	-355
988.509	-1299
988.589	66
988.670	-1677
988.750	1032
988.830	-297
988.910	-256
988.990	-476
989.070	333
989.151	277
989.231	-746
989.311	-1224
989.391	-145
989.471	-252
989.551	-807
989.631	-1284
989.711	52
989.791	-888
989.870	-389
989.950	368
990.030	-892
990.110	-752
990.190	259
990.269	-552
990.349	-913
990.429	-796
990.509	199
990.588	-627
990.668	-613
990.747	-480
990.827	-1026
990.907	137
990.986	-266
991.066	265
991.145	-494
991.225	-460
991.304	85
991.383	-121
991.463	-508
991.542	-1027
991.622	-975
991.701	-602
991.780	-798
991.859	-1041
991.939	-589
992.018	180
992.097	433
992.176	19
992.256	-363
992.335	-1206
992.414	-371
992.493	-1783
992.572	-335
992.651	-60
992.730	-828
992.809	-363
992.888	-61
992.967	-922
993.046	-680
993.125	-845
993.203	-526
993.282	-648
993.361	-478
993.440	-886
993.519	-733
993.597	-836
993.676	-987
993.755	-564
993.834	-62
993.912	-1514
993.991	-449
994.069	-1239
994.148	-562
994.226	-1364
994.305	-1125
994.384	-447
994.462	363
994.540	-1316
994.619	-855
994.697	-1216
994.776	-1029
994.854	-254
994.932	-974
995.011	-1764
995.089	-875
995.167	-1228
995.245	-1189
995.324	-822
995.402	-19
995.480	-1619
995.558	-918
995.636	-1307
995.714	-1293
995.792	-1473
995.870	-1108
995.948	-1193
996.026	-444
996.104	-911
996.182	-405
996.260	-807
996.338	-1374
996.416	-1601
996.494	-391
996.572	-601
996.649	-968
996.727	-1371
996.805	-625
996.883	-1838
996.960	-769
997.038	-1053
997.116	-225
997.193	-1978
997.271	-866
997.348	-878
997.426	-606
997.504	-2495
997.581	-177
997.658	-1722
997.736	-1121
997.813	-1417
997.891	-488
997.968	-1811
998.046	-415
998.123	-1558
998.200	-846
998.277	-2421
998.355	-421
998.432	-1400
998.509	-542
998.586	-1162
998.663	-238
998.741	-1470
998.818	-1289
998.895	-2129
998.972	-615
999.049	-2115
999.126	-1022
999.203	-565
999.280	-437
999.357	-874
999.434	-934
999.511	-528
999.587	-964
999.664	-2088
999.741	-978
999.818	-1294
999.895	-441
999.971	-1054
1000.048	-857
1000.125	-732
1000.202	-1379
1000.278	-1311
1000.355	-946
1000.431	-1540
1000.508	-1133
1000.584	-1127
1000.661	-543
1000.738	-1092
1000.814	-917
1000.890	-1112
1000.967	-936
1001.043	-1280
1001.120	-1443
1001.196	-1379
1001.272	-1996
1001.349	-1210
1001.425	-1216
1001.501	-872
1001.577	-751
1001.654	-1996
1001.730	-1149
1001.806	-1443
1001.882	-1633
1001.958	-670
1002.034	-988
1002.110	-1473
1002.186	-1124
1002.262	-2219
1002.338	-1545
1002.414	-1171
1002.490	-746
1002.566	-1521
1002.642	-1686
1002.718	-573
1002.794	-827
1002.870	-1875
1002.945	-564
1003.021	-1667
1003.097	-1311
1003.173	-824
1003.248	-953
1003.324	-1842
1003.400	-1429
1003.475	-998
1003.551	-711
1003.626	-1083
1003.702	-1055
1003.777	-2060
1003.853	-1472
1003.928	-1323
1004.004	-1302
1004.079	-2059
1004.155	-669
1004.230	-2622
1004.305	-875
1004.381	-2005
1004.456	-1774
1004.531	-1143
1004.607	-473
1004.682	-1416
1004.757	-1166
1004.832	-1244
1004.907	-808
1004.982	-1453
1005.057	-1077
1005.133	-2045
1005.208	-1541
1005.283	-1484
1005.358	-67
1005.433	-1455
1005.508	-1617
1005.583	-1322
1005.657	-1212
1005.732	-1245
1005.807	-1092
1005.882	-1292
1005.957	-850
1006.032	-1644
1006.106	-818
1006.181	-1690
1006.256	-1210
1006.331	-1680
1006.405	-1819
1006.480	-1167
1006.554	-336
1006.629	-1177
1006.704	-1321
1006.778	-1477
1006.853	-962
1006.927	-1587
1007.002	-1574
1007.076	-1268
1007.150	-953
1007.225	-1295
1007.299	-767
1007.373	-1734
1007.448	-694
1007.522	-1350
1007.596	-487
1007.671	-1902
1007.745	-1110
1007.819	-1644
1007.893	-1396
1007.967	-1216
1008.041	-1135
1008.115	-1713
1008.190	-1624
1008.264	-1830
1008.338	-1796
1008.412	-2153
1008.486	-665
1008.560	-1576
1008.633	-1421
1008.707	-1112
1008.781	-562
1008.855	-1885
1008.929	-891
1009.003	-3081
1009.076	-1445
1009.150	-1505
1009.224	-1199
1009.298	-1570
1009.371	-1456
1009.445	-1355
1009.519	-1236
1009.592	-2096
1009.666	-1303
1009.739	-1825
1009.813	-1042
1009.886	-1061
1009.960	-2325
1010.033	-1151
1010.107	-1269
1010.180	-1656
1010.253	-1204
1010.327	-2081
1010.400	-1582
1010.473	-1352
1010.547	-1029
1010.620	-1527
1010.693	-596
1010.766	-1492
1010.840	-1340
1010.913	-1739
1010.986	-1141
1011.059	-1550
1011.132	-1548
1011.205	-1508
1011.278	-696
1011.351	-2677
1011.424	-904
1011.497	-998
1011.570	-1016
1011.643	-1791
1011.716	-2238
1011.789	-1339
1011.862	-1209
1011.934	-1292
1012.007	-1602
1012.080	-1504
1012.153	-1088
1012.225	-1425
1012.298	-1810
1012.371	-1979
1012.443	-947
1012.516	-1739
1012.588	-821
1012.661	-526
1012.733	-1671
1012.806	-1421
1012.879	-38
1012.951	-1849
1013.023	-1328
1013.096	-678
1013.168	-1347
1013.241	-1159
1013.313	-962
1013.385	-1357
1013.458	-1342
1013.530	-1714
1013.602	-2023
1013.674	-1117
1013.746	-1318
1013.819	-2495
1013.891	-1384
1013.963	-1925
1014.035	-1812
1014.107	-1073
1014.179	-1314
1014.251	-2111
1014.323	-1376
1014.395	-2524
1014.467	-1512
1014.539	-2460
1014.611	-1237
1014.683	-1214
1014.754	-1670
1014.826	-1477
1014.898	-1630
1014.970	-1578
1015.042	-481
1015.113	-2850
1015.185	-930
1015.257	-2521
1015.328	-1118
1015.400	-1832
1015.471	-1519
1015.543	-2019
1015.615	-1081
1015.686	-1405
1015.757	-1943
1015.829	-1385
1015.901	-921
1015.972	-2318
1016.043	-1539
1016.115	-1696
1016.186	-1165
1016.257	-2588
1016.328	-954
1016.400	-1344
1016.471	-1228
1016.542	-1952
1016.613	-2072
1016.685	-1818
1016.756	-2160
1016.827	-2120
1016.898	-2730
1016.969	-1174
1017.040	-1086
1017.111	-2061
1017.182	-2125
1017.253	-1346
1017.324	-2226
1017.395	-1240
1017.466	-1374
1017.537	-2109
1017.608	-2112
1017.678	-2343
1017.749	-829
1017.820	-1741
1017.891	-2486
1017.961	-1879
1018.032	-2168
1018.103	-2504
1018.173	-1250
1018.244	-1866
1018.315	-1130
1018.385	-1326
1018.456	-736
1018.526	-1744
1018.597	-1648
1018.667	-1165
1018.738	-1857
1018.808	-2066
1018.878	-1275
1018.949	-2339
1019.019	-1758
1019.089	-2233
1019.160	-1580
1019.230	-2601
1019.300	-1918
1019.371	-2129
1019.441	-727
1019.511	-1478
1019.581	-1149
1019.651	-1772
1019.721	-795
1019.791	-1964
1019.861	-1196
1019.931	-1198
1020.001	-792
1020.071	-1258
1020.141	-1620
1020.211	-2089
1020.281	-2119
1020.351	-2238
1020.421	-1206
1020.491	-1970
1020.560	-2308
1020.630	-2810
1020.700	-1151
1020.770	-1687
1020.839	-945
1020.909	-1467
1020.979	-2184
1021.048	-2360
1021.118	-1254
1021.187	-2227
1021.257	-959
1021.326	-1863
1021.396	-1854
1021.465	-1829
1021.535	-1758
1021.604	-2242
1021.674	-1834
1021.743	-1943
1021.812	-1753
1021.882	-2316
1021.951	-1507
1022.020	-2209
1022.089	-1216
1022.159	-1966
1022.228	-2023
1022.297	-1943
1022.366	-1227
1022.435	-2486
1022.504	-1721
1022.573	-1723
1022.642	-753
1022.711	-2417
1022.781	-1199
1022.849	-2129
1022.918	-2321
1022.987	-2066
1023.056	-1679
1023.125	-2184
1023.194	-1301
1023.263	-1463
1023.331	-1271
1023.400	-1868
1023.469	-1300
1023.538	-1784
1023.606	-1708
1023.675	-2073
1023.744	-1216
1023.812	-2461
1023.881	-1879
1023.949	-1995
1024.018	-1684
1024.086	-2036
1024.155	-1941
1024.223	-2106
1024.292	-1522
1024.360	-1592
1024.429	-1780
1024.497	-3167
1024.565	-812
1024.634	-1875
1024.702	-1485
1024.770	-1782
1024.838	-1811
1024.907	-2123
1024.975	-2327
1025.043	-1915
1025.111	-2512
1025.179	-2169
1025.247	-1852
1025.315	-1731
1025.383	-1940
1025.451	-2203
1025.519	-1495
1025.587	-2207
1025.655	-1700
1025.723	-2428
1025.791	-1576
1025.859	-1835
1025.927	-2032
1025.995	-1501
1026.062	-1196
1026.130	-2179
1026.198	-1636
1026.266	-2290
1026.333	-1498
1026.401	-1926
1026.469	-1507
1026.536	-1912
1026.604	-1321
1026.671	-2216
1026.739	-1941
1026.806	-2161
1026.874	-1873
1026.941	-1297
1027.009	-1722
1027.076	-1533
1027.144	-1341
1027.211	-2519
1027.278	-1343
1027.345	-1921
1027.413	-1256
1027.480	-1797
1027.547	-1941
1027.614	-1791
1027.682	-1259
1027.749	-1994
1027.816	-2023
1027.883	-1888
1027.950	-1213
1028.017	-1736
1028.084	-1169
1028.151	-2935
1028.218	-1353
1028.285	-1972
1028.352	-1739
1028.419	-2054
1028.486	-1443
1028.553	-1510
1028.619	-2798
1028.686	-2401
1028.753	-1860
1028.820	-2838
1028.886	-1815
1028.953	-1956
1029.020	-1804
1029.086	-2213
1029.153	-1770
1029.220	-2327
1029.286	-2018
1029.353	-1911
1029.419	-2185
1029.486	-2197
1029.552	-1785
1029.619	-1766
1029.685	-1963
1029.751	-1819
1029.818	-808
1029.884	-2461
1029.951	-1085
1030.017	-2725
1030.083	-1474
1030.149	-1492
1030.216	-1614
1030.282	-2148
1030.348	-1550
1030.414	-2242
1030.480	-1884
1030.546	-2274
1030.612	-1446
1030.678	-2511
1030.744	-2575
1030.810	-1961
1030.876	-1908
1030.942	-1299
1031.008	-1598
1031.074	-2537
1031.140	-1052
1031.206	-1980
1031.272	-2170
1031.337	-2954
1031.403	-1064
1031.469	-2471
1031.534	-945
1031.600	-2501
1031.666	-2373
1031.731	-2444
1031.797	-2190
1031.863	-2052
1031.928	-2510
1031.994	-1980
1032.059	-2220
1032.125	-2251
1032.190	-1421
1032.256	-2163
1032.321	-2329
1032.386	-2130
1032.452	-1265
1032.517	-1987
1032.582	-1935
1032.647	-1992
1032.713	-2431
1032.778	-1650
1032.843	-1644
1032.908	-2115
1032.974	-1711
1033.039	-2287
1033.104	-1302
1033.169	-2463
1033.234	-1753
1033.299	-1875
1033.364	-1118
1033.429	-1860
1033.494	-1584
1033.559	-1425
1033.624	-1421
1033.688	-1873
1033.753	-2448
1033.818	-2001
1033.883	-1954
1033.948	-1124
1034.013	-1527
1034.077	-2249
1034.142	-1012
1034.207	-1579
1034.271	-964
1034.336	-498
1034.400	-1169
1034.465	-1565
1034.530	-953
1034.594	-1416
1034.658	-1692
1034.723	-1873
1034.787	-2175
1034.852	-2753
1034.916	-805
1034.981	-2519
1035.045	-1309
1035.109	-2713
1035.173	-1447
1035.238	-2224
1035.302	-1189
1035.366	-1942
1035.430	-1732
1035.495	-2167
1035.559	-800
1035.623	-1870
1035.687	-2619
1035.751	-2474
1035.815	-1848
1035.879	-1863
1035.943	-1965
1036.007	-1851
1036.071	-1727
1036.135	-2358
1036.198	-1275
1036.262	-2799
1036.326	-1614
1036.390	-1620
1036.454	-1046
1036.517	-1850
1036.581	-1748
1036.645	-1277
1036.709	-1114
1036.772	-1971
1036.836	-2036
1036.900	-2454
1036.963	-2244
1037.026	-2106
1037.090	-1892
1037.154	-2854
1037.217	-1854
1037.280	-2498
1037.344	-2263
1037.407	-2537
1037.471	-2006
1037.534	-2101
1037.597	-1964
1037.661	-2302
1037.724	-2030
1037.787	-2801
1037.850	-1967
1037.913	-2132
1037.977	-608
1038.040	-2077
1038.103	-1318
1038.166	-2281
1038.229	-1529
1038.292	-2576
1038.355	-1501
1038.418	-2512
1038.481	-1240
1038.544	-2308
1038.607	-1054
1038.670	-2216
1038.732	-1735
1038.795	-1875
1038.858	-1908
1038.921	-1638
1038.984	-1835
1039.046	-1514
1039.109	-2601
1039.172	-2207
1039.234	-1893
1039.297	-3250
1039.360	-1221
1039.422	-1900
1039.485	-2004
1039.547	-3013
1039.610	-1286
1039.672	-2622
1039.734	-2060
1039.797	-2607
1039.859	-1950
1039.922	-2037
1039.984	-1448
1040.046	-2188
1040.109	-1397
1040.171	-1739
1040.233	-1898
1040.295	-2291
1040.358	-1460
1040.420	-2246
1040.482	-1683
1040.544	-2286
1040.606	-1955
1040.668	-2273
1040.730	-1676
1040.792	-2267
1040.854	-1552
1040.916	-2540
1040.978	-1944
1041.040	-1976
1041.102	-1577
1041.164	-2023
1041.225	-1438
1041.287	-1763
1041.349	-1875
1041.411	-1834
1041.472	-1908
1041.534	-2147
1041.596	-2038
1041.657	-1934
1041.719	-1591
1041.781	-2538
1041.842	-2292
1041.904	-2188
1041.965	-2111
1042.027	-2240
1042.088	-1298
1042.150	-2070
1042.211	-1955
1042.272	-1162
1042.334	-2317
1042.395	-2202
1042.456	-1953
1042.518	-1763
1042.579	-1798
1042.640	-1674
1042.701	-2092
1042.763	-2872
1042.824	-1643
1042.885	-2208
1042.946	-1432
1043.007	-2578
1043.068	-1732
1043.129	-1072
1043.190	-2602
1043.251	-1855
1043.312	-1673
1043.373	-2320
1043.434	-1802
1043.495	-2151
1043.556	-1305
1043.616	-1348
1043.677	-1755
1043.738	-1801
1043.799	-2111
1043.859	-1378
1043.920	-1550
1043.981	-1957
1044.041	-1535
1044.102	-2274
1044.162	-1273
1044.223	-1796
1044.284	-1762
1044.344	-1593
1044.405	-984
1044.465	-2440
1044.525	-2350
1044.586	-2915
1044.646	-1417
1044.707	-1888
1044.767	-1669
1044.827	-2298
1044.887	-1805
1044.948	-2156
1045.008	-658
1045.068	-1672
1045.128	-2137
1045.188	-1691
1045.249	-1757
1045.309	-1706
1045.369	-1729
1045.429	-1986
1045.489	-1196
1045.549	-1751
1045.609	-1448
1045.669	-2314
1045.729	-1552
1045.789	-2412
1045.848	-613
1045.908	-1801
1045.968	-705
1046.028	-1956
1046.088	-1392
1046.147	-2035
1046.207	-1827
1046.267	-1665
1046.326	-1846
1046.386	-1151
1046.446	-1385
1046.505	-1899
1046.565	-1299
1046.624	-1753
1046.684	-212
1046.743	-879
1046.803	-634
1046.862	-1342
1046.922	0
