'Start Wavelength	183.907
'End Wavelength	1046.922
'Gate Delay	5.000
'Gate Width (ms)	1.050
'Laser Output Level	0.000
'X Position	0.000
'Y Position	0.000
'Z Position	0.000
'Grid Point Number	1.000
'Shot Number	100.000
183.907	-367.000
183.977	666.000
184.047	25
184.116	691
184.186	860
184.256	66
184.325	116
184.395	200
184.465	722
184.534	361
184.604	433
184.674	238
184.743	324
184.813	552
184.883	338
184.952	471
185.022	355
185.092	-577
185.161	363
185.231	-213
185.301	189
185.370	150
185.440	-299
185.509	-108
185.579	991
185.649	569
185.718	319
185.788	-302
185.857	560
185.927	581
185.996	213
186.066	484
186.136	90
186.205	539
186.275	490
186.344	248
186.414	-117
186.483	494
186.553	696
186.622	1176
186.692	887
186.761	285
186.831	1405
186.900	288
186.970	407
187.039	426
187.109	580
187.178	993
187.248	636
187.317	406
187.387	-200
187.456	331
187.526	324
187.595	983
187.664	22
187.734	317
187.803	227
187.873	889
187.942	773
188.012	653
188.081	329
188.150	538
188.220	900
188.289	266
188.358	6
188.428	-156
188.497	-59
188.567	354
188.636	109
188.705	211
188.775	155
188.844	-39
188.913	588
188.983	174
189.052	299
189.121	606
189.191	268
189.260	940
189.329	55
189.399	418
189.468	589
189.537	315
189.606	565
189.676	646
189.745	582
189.814	334
189.883	-9
189.953	159
190.022	378
190.091	601
190.161	768
190.230	425
190.299	98
190.368	313
190.437	1126
190.507	616
190.576	433
190.645	541
190.714	787
190.783	922
190.853	296
190.922	763
190.991	-448
191.060	683
191.129	362
191.198	340
191.268	262
191.337	480
191.406	608
191.475	404
191.544	351
191.613	479
191.682	-326
191.752	436
191.821	-94
191.890	56
191.959	86
192.028	251
192.097	687
192.166	252
192.235	916
192.304	790
192.373	830
192.442	123
192.511	221
192.580	36
192.650	478
192.719	953
192.788	338
192.857	-525
192.926	-289
192.995	505
193.064	220
193.133	100
193.202	531
193.271	772
193.340	868
193.409	747
193.478	765
193.547	766
193.615	998
193.684	711
193.753	502
193.822	662
193.891	75
193.960	-52
194.029	120
194.098	887
194.167	146
194.236	101
194.305	403
194.374	498
194.443	99
194.512	240
194.580	596
194.649	982
194.718	317
194.787	543
194.856	-41
194.925	537
194.994	216
195.062	477
195.131	1256
195.200	639
195.269	379
195.338	515
195.407	849
195.475	-359
195.544	-249
195.613	71
195.682	1075
195.751	688
195.819	229
195.888	1241
195.957	381
196.026	312
196.094	471
196.163	502
196.232	380
196.301	166
196.369	182
196.438	147
196.507	402
196.576	-7
196.644	-180
196.713	186
196.782	147
196.850	228
196.919	327
196.988	343
197.056	271
197.125	219
197.194	267
197.262	-88
197.331	-45
197.400	653
197.468	-84
197.537	662
197.606	23
197.674	694
197.743	-231
197.812	226
197.880	465
197.949	876
198.017	455
198.086	572
198.155	96
198.223	991
198.292	193
198.360	313
198.429	240
198.497	171
198.566	372
198.635	43
198.703	273
198.772	716
198.840	-287
198.909	657
198.977	1081
199.046	122
199.114	359
199.183	519
199.251	150
199.320	394
199.388	498
199.457	-64
199.525	866
199.594	-86
199.662	667
199.731	-605
199.799	450
199.867	294
199.936	322
200.004	145
200.073	516
200.141	134
200.210	411
200.278	327
200.346	183
200.415	1427
200.483	558
200.552	896
200.620	187
200.688	-469
200.757	477
200.825	408
200.893	192
200.962	45
201.030	-91
201.098	-85
201.167	740
201.235	58
201.303	-291
201.372	10
201.440	556
201.508	1066
201.577	439
201.645	187
201.713	627
201.781	10
201.850	1286
201.918	189
201.986	748
202.055	468
202.123	111
202.191	-176
202.259	144
202.327	-96
202.396	-32
202.464	425
202.532	350
202.600	426
202.669	346
202.737	448
202.805	935
202.873	497
202.941	205
203.009	202
203.078	-672
203.146	-642
203.214	-276
203.282	526
203.350	408
203.418	689
203.487	87
203.555	93
203.623	-67
203.691	413
203.759	-3
203.827	216
203.895	25
203.963	24
204.031	963
204.099	339
204.168	-734
204.236	357
204.304	234
204.372	286
204.440	186
204.508	-578
204.576	-140
204.644	488
204.712	-197
204.780	815
204.848	409
204.916	752
204.984	-626
205.052	64
205.120	-433
205.188	359
205.256	-9
205.324	244
205.392	-333
205.460	-136
205.528	300
205.596	73
205.664	257
205.732	-45
205.799	648
205.867	771
205.935	250
206.003	-207
206.071	125
206.139	51
206.207	88
206.275	246
206.343	-488
206.411	190
206.478	-340
206.546	350
206.614	554
206.682	-170
206.750	-6
206.818	68
206.885	785
206.953	30
207.021	643
207.089	471
207.157	806
207.225	620
207.292	-474
207.360	23
207.428	354
207.496	1100
207.563	-433
207.631	4
207.699	-476
207.767	596
207.834	-606
207.902	631
207.970	-191
208.038	59
208.105	191
208.173	-203
208.241	-429
208.309	403
208.376	484
208.444	351
208.512	-128
208.579	123
208.647	705
208.715	804
208.782	194
208.850	78
208.918	-507
208.985	155
209.053	-51
209.120	91
209.188	17
209.256	1010
209.323	-655
209.391	140
209.459	86
209.526	-44
209.594	-271
209.661	251
209.729	175
209.796	23
209.864	746
209.932	95
209.999	526
210.067	22
210.134	107
210.202	925
210.269	518
210.337	810
210.404	-22
210.472	570
210.539	480
210.607	-35
210.674	419
210.742	-80
210.809	-215
210.877	696
210.944	31
211.012	222
211.079	166
211.146	-76
211.214	418
211.281	741
211.349	416
211.416	-9
211.484	38
211.551	-77
211.618	-67
211.686	1030
211.753	609
211.821	582
211.888	1042
211.955	309
212.023	-393
212.090	670
212.157	-436
212.225	121
212.292	883
212.359	1538
212.427	2170
212.494	182
212.561	285
212.629	-586
212.696	361
212.763	-6
212.831	-143
212.898	528
212.965	154
213.032	-224
213.100	47
213.167	531
213.234	37
213.301	40
213.369	149
213.436	-721
213.503	540
213.570	715
213.638	68
213.705	-205
213.772	430
213.839	299
213.906	34
213.973	298
214.041	570
214.108	391
214.175	566
214.242	934
214.309	644
214.376	366
214.444	-45
214.511	458
214.578	400
214.645	358
214.712	920
214.779	876
214.846	735
214.913	647
214.980	471
215.048	1059
215.115	1238
215.182	852
215.249	270
215.316	464
215.383	8
215.450	715
215.517	168
215.584	10
215.651	239
215.718	261
215.785	826
215.852	83
215.919	138
215.986	847
216.053	465
216.120	-504
216.187	261
216.254	-47
216.321	450
216.388	86
216.455	408
216.522	387
216.589	570
216.656	1296
216.722	-606
216.789	441
216.856	393
216.923	-84
216.990	275
217.057	821
217.124	181
217.191	622
217.258	409
217.324	527
217.391	200
217.458	344
217.525	393
217.592	73
217.659	445
217.725	701
217.792	489
217.859	250
217.926	-736
217.993	-88
218.059	61
218.126	841
218.193	-62
218.260	220
218.327	-64
218.393	541
218.460	105
218.527	-71
218.594	410
218.660	630
218.727	381
218.794	55
218.860	161
218.927	-162
218.994	-61
219.061	250
219.127	-148
219.194	541
219.261	-313
219.327	236
219.394	-194
219.461	450
219.527	-142
219.594	-158
219.661	-163
219.727	-188
219.794	160
219.860	146
219.927	234
219.994	1840
220.060	2820
220.127	1102
220.193	695
220.260	506
220.326	1256
220.393	1184
220.460	1259
220.526	924
220.593	281
220.659	757
220.726	874
220.792	2295
220.859	2024
220.925	2418
220.992	2287
221.058	2757
221.125	1476
221.191	313
221.258	343
221.324	72
221.391	75
221.457	-627
221.524	603
221.590	115
221.657	1402
221.723	473
221.789	561
221.856	332
221.922	196
221.989	791
222.055	826
222.121	543
222.188	1495
222.254	485
222.321	972
222.387	-299
222.453	327
222.520	-638
222.586	149
222.652	291
222.719	87
222.785	643
222.851	-557
222.918	107
222.984	156
223.050	-525
223.116	246
223.183	-489
223.249	315
223.315	-119
223.382	-654
223.448	-131
223.514	797
223.580	-244
223.647	253
223.713	-260
223.779	130
223.845	-91
223.911	81
223.978	-565
224.044	-183
224.110	-89
224.176	6
224.242	657
224.309	-681
224.375	261
224.441	-122
224.507	-181
224.573	276
224.639	-244
224.705	45
224.772	-488
224.838	550
224.904	849
224.970	-207
225.036	641
225.102	75
225.168	34
225.234	477
225.300	647
225.366	-286
225.432	-224
225.499	-169
225.565	207
225.631	-438
225.697	145
225.763	-5
225.829	308
225.895	530
225.961	287
226.027	274
226.093	617
226.159	1175
226.225	1449
226.291	4193
226.357	4899
226.423	1542
226.489	882
226.554	657
226.620	720
226.686	833
226.752	1955
226.818	3937
226.884	7182
226.950	4241
227.016	1914
227.082	1537
227.148	177
227.214	807
227.279	953
227.345	-178
227.411	731
227.477	3287
227.543	4694
227.609	3013
227.674	886
227.740	525
227.806	1043
227.872	-54
227.938	440
228.003	593
228.069	-477
228.135	-104
228.201	429
228.267	564
228.332	190
228.398	59
228.464	384
228.530	112
228.595	-159
228.661	-380
228.727	711
228.792	728
228.858	23
228.924	-493
228.990	643
229.055	-219
229.121	826
229.187	-320
229.252	101
229.318	-589
229.384	422
229.449	457
229.515	-256
229.581	-953
229.646	277
229.712	686
229.777	1385
229.843	205
229.909	857
229.974	145
230.040	579
230.105	-225
230.171	146
230.236	120
230.302	582
230.368	497
230.433	168
230.499	669
230.564	292
230.630	532
230.695	-183
230.761	1008
230.826	-37
230.892	305
230.957	-114
231.023	-34
231.088	209
231.154	-423
231.219	437
231.284	493
231.350	-238
231.415	203
231.481	245
231.546	401
231.612	-242
231.677	-26
231.742	-52
231.808	-8
231.873	-35
231.939	-308
232.004	1050
232.069	335
232.135	445
232.200	307
232.265	-180
232.331	33
232.396	-841
232.461	-272
232.527	-481
232.592	30
232.657	108
232.723	45
232.788	266
232.853	237
232.918	755
232.984	260
233.049	-184
233.114	534
233.179	202
233.245	409
233.310	480
233.375	49
233.440	231
233.506	-459
233.571	14
233.636	550
233.701	-248
233.766	95
233.832	-339
233.897	139
233.962	-487
234.027	68
234.092	397
234.157	-83
234.222	405
234.288	124
234.353	1415
234.418	661
234.483	1632
234.548	346
234.613	201
234.678	722
234.743	939
234.808	1564
234.873	457
234.938	198
235.004	664
235.069	288
235.134	-572
235.199	226
235.264	88
235.329	132
235.394	-467
235.459	618
235.524	611
235.589	-721
235.654	346
235.719	168
235.784	377
235.849	745
235.913	643
235.978	654
236.043	-311
236.108	521
236.173	348
236.238	458
236.303	-242
236.368	-136
236.433	517
236.498	704
236.563	1261
236.627	4343
236.692	10499
236.757	4085
236.822	1378
236.887	1569
236.952	1224
237.017	199
237.081	1031
237.146	1604
237.211	5155
237.276	11522
237.341	11002
237.405	3832
237.470	2089
237.535	1365
237.600	917
237.664	422
237.729	326
237.794	1655
237.859	2022
237.923	1083
237.988	606
238.053	789
238.118	1454
238.182	2373
238.247	1342
238.312	285
238.376	736
238.441	58
238.506	1697
238.570	11
238.635	501
238.700	-112
238.764	425
238.829	1060
238.893	198
238.958	854
239.023	1112
239.087	-128
239.152	730
239.216	603
239.281	483
239.346	-202
239.410	172
239.475	1006
239.539	2270
239.604	840
239.668	910
239.733	1642
239.797	5532
239.862	8305
239.926	4459
239.991	2182
240.055	1088
240.120	1106
240.184	475
240.249	-148
240.313	475
240.378	384
240.442	2315
240.507	1259
240.571	711
240.635	498
240.700	794
240.764	907
240.829	454
240.893	868
240.957	713
241.022	1817
241.086	1641
241.151	-305
241.215	-19
241.279	1416
241.344	662
241.408	753
241.472	228
241.537	742
241.601	784
241.665	557
241.730	848
241.794	340
241.858	-40
241.922	587
241.987	790
242.051	666
242.115	-190
242.179	237
242.244	-351
242.308	1213
242.372	681
242.436	592
242.501	252
242.565	265
242.629	-35
242.693	146
242.757	754
242.822	283
242.886	399
242.950	111
243.014	420
243.078	-228
243.142	337
243.206	215
243.271	692
243.335	-104
243.399	1179
243.463	4413
243.527	6630
243.591	1088
243.655	466
243.719	538
243.783	21
243.847	794
243.911	888
243.975	1265
244.040	-20
244.104	643
244.168	630
244.232	1343
244.296	1482
244.360	440
244.424	1182
244.488	-556
244.552	767
244.615	808
244.679	825
244.743	526
244.807	85
244.871	516
244.935	-265
244.999	98
245.063	404
245.127	519
245.191	956
245.255	553
245.319	1377
245.383	487
245.446	783
245.510	-94
245.574	886
245.638	64
245.702	808
245.766	1783
245.829	900
245.893	381
245.957	4
246.021	407
246.085	764
246.149	1638
246.212	3268
246.276	2356
246.340	1168
246.404	1436
246.467	1697
246.531	717
246.595	1371
246.659	902
246.722	407
246.786	724
246.850	2185
246.913	948
246.977	456
247.041	-50
247.104	-81
247.168	768
247.232	3775
247.295	4232
247.359	1842
247.423	886
247.486	2160
247.550	957
247.614	1428
247.677	1279
247.741	771
247.804	-469
247.868	642
247.932	3840
247.995	4000
248.059	1128
248.122	463
248.186	1476
248.249	3662
248.313	9580
248.376	6951
248.440	2878
248.503	888
248.567	2543
248.630	2250
248.694	3108
248.757	5879
248.821	7402
248.884	4915
248.948	5516
249.011	7541
249.075	10354
249.138	5809
249.202	2082
249.265	1496
249.328	1682
249.392	1254
249.455	1003
249.519	1404
249.582	2123
249.645	2555
249.709	1400
249.772	648
249.835	1269
249.899	851
249.962	791
250.025	1245
250.089	4191
250.152	3015
250.215	1425
250.279	1306
250.342	1078
250.405	972
250.468	628
250.532	1118
250.595	2226
250.658	12203
250.721	8446
250.785	3421
250.848	2508
250.911	1293
250.974	1810
251.038	3723
251.101	4133
251.164	1662
251.227	2239
251.290	1862
251.354	4042
251.417	14443
251.480	6305
251.543	11001
251.606	22405
251.669	8478
251.732	4546
251.795	7234
251.859	7947
251.922	12159
251.985	4191
252.048	2816
252.111	1889
252.174	1714
252.237	6248
252.300	8508
252.363	13380
252.426	14044
252.489	4159
252.552	3157
252.615	2399
252.678	3758
252.741	7387
252.804	11485
252.867	15728
252.930	8726
252.993	4143
253.056	3202
253.119	1050
253.182	1030
253.245	1666
253.308	2178
253.371	1740
253.434	1290
253.497	3061
253.559	4502
253.622	2173
253.685	4162
253.748	2547
253.811	1363
253.874	1668
253.937	1138
254.000	1354
254.062	4506
254.125	3709
254.188	4849
254.251	2335
254.314	2070
254.376	3739
254.439	3259
254.502	2537
254.565	4348
254.628	3871
254.690	2265
254.753	527
254.816	1139
254.878	1690
254.941	4859
255.004	1594
255.067	1328
255.129	670
255.192	383
255.255	367
255.317	1404
255.380	-258
255.443	217
255.505	-94
255.568	396
255.631	476
255.693	678
255.756	-357
255.819	1271
255.881	-214
255.944	292
256.006	591
256.069	43
256.132	332
256.194	945
256.257	1268
256.319	1177
256.382	798
256.444	1347
256.507	692
256.569	206
256.632	786
256.694	1187
256.757	9656
256.819	11357
256.882	2471
256.944	1591
257.007	1172
257.069	1243
257.132	1112
257.194	1170
257.257	1163
257.319	1088
257.381	855
257.444	7208
257.506	21913
257.569	14277
257.631	7194
257.693	3350
257.756	1758
257.818	820
257.880	410
257.943	847
258.005	370
258.067	924
258.130	1247
258.192	1816
258.254	1031
258.317	682
258.379	1736
258.441	4737
258.503	1834
258.566	3047
258.628	1963
258.690	283
258.753	1122
258.815	1330
258.877	1088
258.939	767
259.001	477
259.064	504
259.126	564
259.188	749
259.250	1047
259.312	3366
259.375	4799
259.437	999
259.499	1331
259.561	1603
259.623	824
259.685	612
259.747	465
259.809	2675
259.872	3135
259.934	7148
259.996	3477
260.058	1110
260.120	378
260.182	1692
260.244	402
260.306	606
260.368	762
260.430	353
260.492	2702
260.554	6215
260.616	2306
260.678	4741
260.740	2789
260.802	1117
260.864	772
260.926	225
260.988	1222
261.050	1512
261.112	2827
261.174	4930
261.236	1152
261.298	732
261.359	1705
261.421	2438
261.483	91
261.545	988
261.607	415
261.669	637
261.731	1917
261.793	2292
261.854	623
261.916	2120
261.978	324
262.040	292
262.102	747
262.164	1116
262.225	464
262.287	1795
262.349	2452
262.411	1965
262.472	619
262.534	2405
262.596	279
262.658	1206
262.719	200
262.781	739
262.843	-16
262.904	690
262.966	896
263.028	1119
263.090	6692
263.151	6824
263.213	3293
263.275	1414
263.336	165
263.398	302
263.459	432
263.521	943
263.583	2893
263.644	791
263.706	287
263.767	-330
263.829	185
263.891	-52
263.952	-571
264.014	-308
264.075	1520
264.137	2215
264.198	-11
264.260	-747
264.321	874
264.383	3314
264.444	2463
264.506	709
264.567	291
264.629	3259
264.690	1964
264.752	734
264.813	623
264.875	-117
264.936	582
264.998	626
265.059	253
265.120	422
265.182	2359
265.243	10768
265.305	3694
265.366	670
265.427	335
265.489	697
265.550	-86
265.611	526
265.673	1168
265.734	228
265.795	-347
265.857	72
265.918	410
265.979	4679
266.040	14724
266.102	5194
266.163	2441
266.224	1344
266.286	237
266.347	250
266.408	597
266.469	257
266.530	226
266.592	-214
266.653	2609
266.714	1906
266.775	540
266.836	228
266.898	257
266.959	1202
267.020	726
267.081	1187
267.142	696
267.203	489
267.264	11
267.326	1879
267.387	597
267.448	-29
267.509	261
267.570	171
267.631	230
267.692	-404
267.753	368
267.814	269
267.875	2593
267.936	2300
267.997	1583
268.058	1263
268.119	315
268.180	-370
268.241	-532
268.302	313
268.363	131
268.424	423
268.485	681
268.546	-332
268.607	425
268.668	-212
268.729	-291
268.790	-115
268.851	273
268.912	2257
268.972	1442
269.033	-58
269.094	62
269.155	298
269.216	1176
269.277	617
269.338	-309
269.398	287
269.459	-376
269.520	720
269.581	1292
269.642	335
269.702	216
269.763	856
269.824	785
269.885	1144
269.945	839
270.006	458
270.067	-352
270.128	-283
270.188	166
270.249	-715
270.310	32
270.370	428
270.431	-404
270.492	-41
270.553	263
270.613	2160
270.674	2684
270.734	198
270.795	-690
270.856	1296
270.916	30
270.977	-402
271.038	557
271.098	299
271.159	1225
271.219	429
271.280	1098
271.340	286
271.401	161
271.462	1217
271.522	927
271.583	300
271.643	64
271.704	259
271.764	1112
271.825	3892
271.885	11068
271.946	6909
272.006	2232
272.066	7010
272.127	7231
272.187	3799
272.248	2371
272.308	3411
272.369	5648
272.429	1820
272.489	2376
272.550	1377
272.610	2316
272.671	764
272.731	1555
272.791	1280
272.852	932
272.912	942
272.972	194
273.033	1287
273.093	647
273.153	1491
273.214	540
273.274	1734
273.334	7159
273.394	6279
273.455	2253
273.515	5716
273.575	4620
273.635	2857
273.696	6120
273.756	5446
273.816	2576
273.876	2012
273.936	3755
273.997	3245
274.057	375
274.117	991
274.177	3827
274.237	11352
274.297	4727
274.358	4298
274.418	6090
274.478	2748
274.538	1114
274.598	526
274.658	3445
274.718	2474
274.778	1234
274.838	1374
274.898	1866
274.958	3565
275.018	6909
275.078	3269
275.138	1198
275.198	479
275.258	1114
275.318	872
275.378	1820
275.438	2065
275.498	1141
275.558	3812
275.618	6305
275.678	2798
275.738	4143
275.798	1308
275.858	67
275.918	613
275.978	952
276.038	1315
276.098	971
276.157	4122
276.217	5267
276.277	2226
276.337	538
276.397	1046
276.457	636
276.517	847
276.576	944
276.636	563
276.696	1394
276.756	4394
276.815	794
276.875	1397
276.935	1189
276.995	568
277.055	958
277.114	1594
277.174	2816
277.234	3869
277.293	1147
277.353	785
277.413	311
277.472	857
277.532	953
277.592	2470
277.651	12237
277.711	6598
277.771	6359
277.830	16036
277.890	6961
277.950	14748
278.009	16604
278.069	5993
278.128	13156
278.188	8316
278.248	8428
278.307	13851
278.367	3642
278.426	2474
278.486	919
278.545	642
278.605	1110
278.664	722
278.724	1437
278.783	6693
278.843	5735
278.902	1694
278.962	2055
279.021	2316
279.081	2918
279.140	2900
279.199	1890
279.259	2714
279.318	2807
279.378	4621
279.437	13531
279.496	33733
279.556	48792
279.615	19048
279.675	8483
279.734	7039
279.793	16037
279.853	15641
279.912	5955
279.971	5554
280.031	5296
280.090	13540
280.149	11386
280.208	13478
280.268	37515
280.327	16842
280.386	6531
280.445	6214
280.505	3905
280.564	2623
280.623	2606
280.682	4118
280.742	2516
280.801	1185
280.860	1196
280.919	1490
280.978	1029
281.037	-30
281.097	892
281.156	1933
281.215	893
281.274	2672
281.333	6924
281.392	1500
281.451	1323
281.510	1115
281.569	750
281.628	819
281.688	1336
281.747	1658
281.806	888
281.865	1543
281.924	815
281.983	1420
282.042	294
282.101	968
282.160	687
282.219	947
282.278	1853
282.337	3571
282.396	611
282.454	1461
282.513	2216
282.572	5763
282.631	1714
282.690	812
282.749	932
282.808	1322
282.867	649
282.926	1437
282.985	856
283.043	819
283.102	978
283.161	1144
283.220	4324
283.279	4469
283.338	1338
283.396	1976
283.455	1978
283.514	1806
283.573	2530
283.631	1771
283.690	2047
283.749	1705
283.808	3752
283.866	1907
283.925	1320
283.984	2153
284.043	2546
284.101	2075
284.160	1748
284.219	2778
284.277	3225
284.336	5173
284.395	9754
284.453	4409
284.512	4586
284.570	5204
284.629	5557
284.688	6059
284.746	7126
284.805	8775
284.863	12671
284.922	15006
284.981	19750
285.039	29324
285.098	46406
285.156	54451
285.215	39130
285.273	52426
285.332	51424
285.390	36188
285.449	25950
285.507	19293
285.566	13717
285.624	10930
285.683	8203
285.741	6867
285.799	5428
285.858	5271
285.916	4161
285.975	3826
286.033	3155
286.091	2451
286.150	2279
286.208	3169
286.267	2262
286.325	2530
286.383	3605
286.442	2124
286.500	2361
286.558	2177
286.616	920
286.675	2633
286.733	1377
286.791	1920
286.850	2304
286.908	2377
286.966	2753
287.024	1105
287.083	915
287.141	889
287.199	1237
287.257	2599
287.315	1247
287.374	2199
287.432	2604
287.490	1523
287.548	1030
287.606	1004
287.664	2241
287.723	1913
287.781	1528
287.839	1111
287.897	351
287.955	1587
288.013	2337
288.071	5199
288.129	28302
288.187	32615
288.245	9336
288.303	3908
288.361	2323
288.419	2675
288.477	1653
288.535	897
288.593	713
288.651	851
288.709	894
288.767	1315
288.825	344
288.883	545
288.941	947
288.999	116
289.057	175
289.115	305
289.173	771
289.231	1298
289.289	985
289.346	519
289.404	786
289.462	1775
289.520	1050
289.578	119
289.636	667
289.694	-102
289.751	-260
289.809	723
289.867	489
289.925	1423
289.983	906
290.040	541
290.098	1708
290.156	1028
290.214	1261
290.271	875
290.329	921
290.387	1339
290.444	634
290.502	502
290.560	-89
290.617	973
290.675	291
290.733	603
290.790	1194
290.848	434
290.906	751
290.963	473
291.021	632
291.078	829
291.136	1178
291.194	4086
291.251	3796
291.309	1181
291.366	360
291.424	1173
291.481	1581
291.539	1188
291.596	190
291.654	855
291.711	58
291.769	1218
291.826	1499
291.884	1176
291.941	96
291.999	419
292.056	992
292.114	388
292.171	845
292.228	1238
292.286	1771
292.343	1659
292.401	646
292.458	1347
292.515	1554
292.573	1932
292.630	1341
292.687	1448
292.745	569
292.802	739
292.859	4106
292.917	5045
292.974	1291
293.031	1373
293.089	397
293.146	85
293.203	895
293.260	897
293.318	1469
293.375	1111
293.432	737
293.489	817
293.546	784
293.604	1545
293.661	6501
293.718	7565
293.775	3660
293.832	2447
293.889	3109
293.947	4337
294.004	1548
294.061	2163
294.118	5493
294.175	6645
294.232	5115
294.289	2100
294.346	1477
294.403	1169
294.460	987
294.517	1349
294.574	1257
294.631	1007
294.688	1355
294.745	5261
294.802	10946
294.859	6813
294.916	4313
294.973	2392
295.030	1578
295.087	783
295.144	1079
295.201	482
295.258	152
295.315	1133
295.372	6141
295.429	5162
295.486	2651
295.542	1470
295.599	5885
295.656	5123
295.713	6064
295.770	4739
295.827	1627
295.883	1451
295.940	1437
295.997	2025
296.054	1790
296.111	1217
296.167	1031
296.224	447
296.281	490
296.338	485
296.394	350
296.451	1953
296.508	5258
296.564	4227
296.621	4138
296.678	11059
296.734	7519
296.791	2332
296.848	2284
296.904	3607
296.961	6871
297.018	7491
297.074	3389
297.131	1222
297.187	1193
297.244	3455
297.301	12672
297.357	9541
297.414	2943
297.470	2168
297.527	1058
297.583	811
297.640	608
297.696	112
297.753	896
297.809	942
297.866	18
297.922	664
297.979	357
298.035	583
298.092	2480
298.148	5675
298.204	2836
298.261	2486
298.317	6721
298.374	8006
298.430	3095
298.486	1509
298.543	1521
298.599	1215
298.656	1911
298.712	4775
298.768	5394
298.824	2237
298.881	457
298.937	1115
298.993	1096
299.050	719
299.106	245
299.162	525
299.218	822
299.275	794
299.331	1469
299.387	5819
299.443	13190
299.500	13071
299.556	6089
299.612	3237
299.668	5144
299.724	10877
299.780	6404
299.837	3461
299.893	6951
299.949	15551
300.005	11336
300.061	15197
300.117	14099
300.173	4712
300.229	2718
300.285	3971
300.341	2995
300.397	1474
300.453	1588
300.510	1396
300.566	2197
300.622	6914
300.678	19941
300.734	14925
300.790	11841
300.845	10076
300.901	14054
300.957	13233
301.013	5982
301.069	3806
301.125	2783
301.181	2464
301.237	1486
301.293	1415
301.349	839
301.405	461
301.461	1686
301.516	1339
301.572	1340
301.628	2039
301.684	1892
301.740	4520
301.796	4068
301.851	4423
301.907	6202
301.963	6231
302.019	15356
302.074	25356
302.130	16534
302.186	6729
302.242	2997
302.297	3183
302.353	3887
302.409	5543
302.464	3819
302.520	4983
302.576	10130
302.631	7996
302.687	3052
302.743	2491
302.798	1568
302.854	1192
302.910	1636
302.965	1709
303.021	2660
303.076	2290
303.132	3561
303.187	3438
303.243	1868
303.299	1391
303.354	1060
303.410	1638
303.465	662
303.521	704
303.576	383
303.632	1329
303.687	4989
303.743	7903
303.798	4566
303.853	1496
303.909	1476
303.964	2126
304.020	3185
304.075	3477
304.130	4096
304.186	5670
304.241	5507
304.297	3999
304.352	1369
304.358	1384
304.407	1502
304.449	2909
304.463	3384
304.518	2652
304.539	2111
304.573	1228
304.629	1902
304.630	1929
304.684	3203
304.720	6744
304.739	8529
304.794	7240
304.811	6257
304.850	3700
304.902	1858
304.905	1751
304.960	1198
304.992	1452
305.015	1646
305.071	1472
305.083	1456
305.126	1336
305.173	1130
305.181	1117
305.236	837
305.264	1237
305.292	1629
305.347	1784
305.354	1811
305.402	1989
305.445	2004
305.457	1983
305.512	1788
305.535	1757
305.567	1701
305.622	1616
305.626	1778
305.678	5314
305.716	8874
305.733	10122
305.788	7969
305.807	7854
305.843	7672
305.897	10193
305.898	10220
305.953	6554
305.988	4876
306.008	3961
306.063	2149
306.078	1919
306.118	1718
306.168	1443
306.173	1418
306.228	982
306.259	994
306.283	1110
306.338	1014
306.349	1098
306.393	1344
306.440	1314
306.448	1317
306.503	1784
306.530	1789
306.558	2122
306.613	4364
306.620	4659
306.668	7463
306.711	10599
306.723	10822
306.778	7015
306.801	6022
306.833	4714
306.888	2159
306.892	2066
306.943	2047
306.982	1801
306.997	1788
307.052	1825
307.072	1827
307.107	1817
307.162	1953
307.163	1958
307.217	2876
307.253	3227
307.272	3366
307.327	3110
307.343	3038
307.381	2785
307.434	2898
307.436	2989
307.491	5377
307.524	7415
307.546	8393
307.600	8633
307.614	8425
307.655	5617
307.704	2967
307.710	2919
307.765	3057
307.795	3271
307.819	3890
307.874	5232
307.885	5327
307.929	4782
307.975	5471
307.984	5855
308.038	7520
308.065	10077
308.093	18056
308.148	38486
308.156	42067
308.202	67140
308.246	77458
308.257	71706
308.312	36997
308.336	23915
308.366	19556
308.421	12506
308.426	11835
308.475	8062
308.517	5867
308.530	5687
308.585	4873
308.607	4782
308.639	4893
308.694	4782
308.697	4805
308.748	6542
308.787	7380
308.803	7207
308.857	6919
308.877	6749
308.912	7130
308.967	7824
308.967	7830
309.021	12008
309.058	15426
309.076	19204
309.130	32264
309.148	37424
309.185	63077
309.238	104403
309.239	104998
309.293	116972
309.328	116204
309.348	98697
309.402	50597
309.418	37703
309.457	28389
309.508	17642
309.511	17641
309.566	19151
309.598	20699
309.620	25959
309.674	40125
309.688	43349
309.729	42524
309.778	38520
309.783	37486
309.837	24916
309.868	18367
309.892	18436
309.946	19455
309.959	19821
310.001	24769
310.049	28922
310.055	27800
310.109	16548
310.139	10585
310.163	8695
310.218	5321
310.229	4698
310.272	4456
310.319	3791
310.326	3705
310.381	3313
310.409	3202
310.435	3322
310.489	3266
310.499	3298
310.543	3124
310.589	2862
310.598	2923
310.652	3136
310.679	3270
310.706	3217
310.760	3083
310.769	3059
310.814	3100
310.859	3111
310.868	3066
310.923	2675
310.948	2519
310.977	2738
311.031	3226
311.038	3261
311.085	3071
311.128	2918
311.139	2955
311.193	3144
311.218	3175
311.247	3276
311.301	3530
311.308	3533
311.356	2854
311.398	2309
311.410	2379
311.464	2706
311.488	2771
311.518	2978
311.572	3486
311.578	3534
311.626	4135
311.668	4563
311.680	4511
311.734	4208
311.758	4067
311.788	3897
311.842	3582
311.847	3538
311.896	4361
311.937	5035
311.950	5021
312.004	4914
312.027	4840
312.058	4472
312.112	3794
312.117	3716
312.165	3591
312.207	3468
312.297	4433
312.386	3376
312.476	3642
312.566	6530
312.656	4152
312.745	2711
312.835	3496
312.925	3743
313.015	3223
313.104	3113
313.194	3423
313.284	4067
313.374	5246
313.463	4698
313.553	3976
313.643	4329
313.732	4555
313.822	4119
313.912	5515
314.001	5098
314.091	6037
314.180	6691
314.270	6036
314.360	5462
314.449	6603
314.539	4932
314.628	5351
314.718	4636
314.808	6351
314.897	5564
314.987	6739
315.076	6420
315.166	7007
315.255	5911
315.345	6624
315.434	5536
315.524	5856
315.613	6600
315.703	7474
315.792	12944
315.881	41531
315.971	19512
316.060	8867
316.150	8281
316.239	7793
316.328	5524
316.418	5019
316.507	6017
316.597	7570
316.686	6780
316.775	6684
316.865	7940
316.954	5158
317.043	5174
317.133	5062
317.222	4699
317.311	4067
317.400	3628
317.490	5222
317.579	6361
317.668	4501
317.757	8031
317.847	19720
317.936	67809
318.025	29460
318.114	17245
318.203	12118
318.293	7514
318.382	13583
318.471	14101
318.560	14205
318.649	22372
318.738	8204
318.828	5319
318.917	4777
319.006	4787
319.095	9775
319.184	25428
319.273	18086
319.362	11633
319.451	4390
319.540	4683
319.629	7106
319.718	11870
319.807	6208
319.896	9317
319.985	31396
320.074	15946
320.163	5150
320.252	5965
320.341	5681
320.430	6320
320.519	8068
320.608	6648
320.697	6648
320.786	6593
320.875	8408
320.964	9728
321.053	11467
321.142	14684
321.230	16746
321.319	14797
321.408	24221
321.497	15870
321.586	14014
321.675	12221
321.764	11720
321.852	10300
321.941	13873
322.030	12501
322.119	13168
322.207	24070
322.296	17374
322.385	15483
322.474	19922
322.562	32756
322.651	22951
322.740	16374
322.829	26155
322.917	13297
323.006	11813
323.095	12331
323.183	8189
323.272	8603
323.361	11040
323.449	21213
323.538	10920
323.626	17021
323.715	17841
323.804	6737
323.892	12333
323.981	11390
324.069	6963
324.158	7800
324.246	9310
324.335	7654
324.424	11155
324.512	5295
324.601	5939
324.689	7943
324.778	13730
324.866	12793
324.954	5158
325.043	4633
325.131	5647
325.220	7391
325.308	9976
325.397	6949
325.485	6008
325.574	4964
325.662	6343
325.750	4294
325.839	6083
325.927	4192
326.015	5421
326.104	4636
326.192	5301
326.280	3882
326.369	4640
326.457	5902
326.545	8670
326.634	4923
326.722	4534
326.810	4411
326.898	5084
326.987	6304
327.075	7021
327.163	6526
327.251	4846
327.340	6823
327.428	11000
327.516	7117
327.604	6235
327.692	4637
327.781	4522
327.869	4426
327.957	3892
328.045	4536
328.133	3322
328.221	3614
328.309	3691
328.397	3088
328.485	4687
328.574	7072
328.662	17929
328.750	9998
328.838	5242
328.926	4759
329.014	4375
329.102	4503
329.190	7549
329.278	7077
329.366	3811
329.454	3300
329.542	4075
329.630	3320
329.718	4710
329.806	4452
329.893	4754
329.981	4601
330.069	5271
330.157	16127
330.245	56160
330.333	34953
330.421	7374
330.509	4652
330.597	14762
330.684	12426
330.772	5557
330.860	5143
330.948	6530
331.036	4620
331.123	3971
331.211	3837
331.299	4027
331.387	5044
331.475	8741
331.562	6028
331.650	4419
331.738	4702
331.825	4731
331.913	3518
332.001	3794
332.089	3592
332.176	5116
332.264	6383
332.352	7192
332.439	4341
332.527	4544
332.614	4311
332.702	4184
332.790	3700
332.877	5605
332.965	10192
333.052	8705
333.140	7188
333.228	20548
333.315	8748
333.403	4953
333.490	6984
333.578	8472
333.665	26774
333.753	17302
333.840	6400
333.928	5801
334.015	7074
334.103	11457
334.190	32552
334.278	19159
334.365	16850
334.452	17444
334.540	12684
334.627	11760
334.715	13705
334.802	19673
334.889	39319
334.977	57396
335.064	31302
335.151	16341
335.239	10776
335.326	10364
335.413	19759
335.501	29733
335.588	10236
335.675	10523
335.762	12171
335.850	16676
335.937	21581
336.024	36514
336.111	69410
336.199	62242
336.286	28206
336.373	15045
336.460	10174
336.547	8751
336.635	8400
336.722	6452
336.809	6116
336.896	6462
336.983	11202
337.070	22765
337.157	36471
337.245	17743
337.332	14179
337.419	5578
337.506	5059
337.593	4507
337.680	8187
337.767	23325
337.854	9765
337.941	8596
338.028	7369
338.115	5508
338.202	6195
338.289	7394
338.376	14999
338.463	9006
338.550	11726
338.637	16431
338.724	5408
338.811	6455
338.898	4433
338.984	4228
339.071	4364
339.158	4672
339.245	7617
339.332	6868
339.419	5703
339.506	6317
339.593	4076
339.679	4203
339.766	3569
339.853	4572
339.940	6913
340.027	4812
340.113	3994
340.200	5478
340.287	4698
340.374	5146
340.460	6837
340.547	4093
340.634	4659
340.720	14322
340.807	11925
340.894	4725
340.980	3058
341.067	3850
341.154	4150
341.240	5883
341.327	9040
341.414	5959
341.500	4421
341.587	4259
341.674	4005
341.760	7089
341.847	8031
341.933	4816
342.020	4381
342.106	3240
342.193	4351
342.279	5783
342.366	4676
342.452	7478
342.539	4674
342.625	7152
342.712	17665
342.798	9559
342.885	5759
342.971	3944
343.058	3580
343.144	3196
343.230	4165
343.317	4202
343.403	3685
343.490	3596
343.576	3011
343.662	3171
343.749	3887
343.835	4684
343.921	5327
344.008	25860
344.094	71154
344.180	21133
344.267	7945
344.353	18038
344.439	22200
344.525	9389
344.612	6246
344.698	5238
344.784	5082
344.870	3864
344.957	3706
345.043	5476
345.129	4500
345.215	7211
345.301	5066
345.387	3996
345.474	3484
345.560	3375
345.646	3164
345.732	3432
345.818	3947
345.904	3678
345.990	4845
346.076	4911
346.162	4370
346.249	4835
346.335	3720
346.421	4399
346.507	8099
346.593	29447
346.679	11232
346.765	5521
346.851	6477
346.937	6627
347.023	4295
347.108	4900
347.194	4253
347.280	4383
347.366	5650
347.452	14472
347.538	42467
347.624	30573
347.710	23837
347.796	6575
347.882	4292
347.967	3943
348.053	4149
348.139	3741
348.225	3916
348.311	4516
348.397	4005
348.482	5010
348.568	5116
348.654	5749
348.740	14599
348.825	20408
348.911	9921
348.997	14676
349.083	34033
349.168	7999
349.254	3929
349.340	3776
349.425	4149
349.511	5168
349.597	5014
349.682	6711
349.768	20146
349.854	14587
349.939	4315
350.025	4640
350.110	5016
350.196	4090
350.282	3351
350.367	4201
350.453	4073
350.538	4777
350.624	4994
350.709	4221
350.795	3921
350.880	3534
350.966	3854
351.051	4719
351.137	4566
351.222	4038
351.308	6755
351.393	19270
351.479	7733
351.564	4383
351.649	3919
351.735	3916
351.820	4231
351.906	3925
351.991	3932
352.076	10632
352.162	20098
352.247	5912
352.332	4182
352.418	5189
352.503	7132
352.588	21937
352.673	23933
352.759	6079
352.844	4368
352.929	5075
353.014	5057
353.100	6153
353.185	17905
353.270	16399
353.355	9202
353.441	4019
353.526	4130
353.611	6494
353.696	8163
353.781	6151
353.866	4081
353.952	4118
354.037	5736
354.122	12275
354.207	11579
354.292	7810
354.377	4519
354.462	4564
354.547	4185
354.632	5524
354.717	9322
354.802	26683
354.887	11325
354.972	4646
355.057	4439
355.142	4521
355.227	4440
355.312	5075
355.397	8758
355.482	17369
355.567	12207
355.652	7454
355.737	8956
355.822	21030
355.907	24374
355.991	6593
356.076	5054
356.161	4195
356.246	4111
356.331	4440
356.416	6326
356.501	31008
356.585	45281
356.670	9185
356.755	7112
356.840	8663
356.924	34949
357.009	96491
357.094	44633
357.179	9971
357.263	8248
357.348	6610
357.433	6497
357.517	6939
357.602	6596
357.687	6138
357.771	12369
357.856	17700
357.941	11581
358.025	16140
358.110	77471
358.195	51187
358.279	9176
358.364	6974
358.448	13776
358.533	40338
358.617	36489
358.702	33995
358.787	15853
358.871	8042
358.956	8605
359.040	6059
359.125	4632
359.209	4474
359.294	7787
359.378	12932
359.462	10859
359.547	7082
359.631	4833
359.716	4131
359.800	4042
359.885	5176
359.969	4222
360.053	4669
360.138	4337
360.222	5736
360.306	7594
360.391	6865
360.475	7658
360.559	17096
360.644	15726
360.728	16374
360.812	19875
360.896	57433
360.981	27217
361.065	16276
361.149	5941
361.233	5933
361.318	5690
361.402	6916
361.486	7182
361.570	5329
361.654	6585
361.739	10238
361.823	30112
361.907	61192
361.991	18046
362.075	9815
362.159	17170
362.243	21841
362.327	40405
362.411	69359
362.495	33904
362.580	15071
362.664	12188
362.748	13388
362.832	18974
362.916	35886
363.000	96763
363.084	180187
363.168	127333
363.252	39178
363.336	15590
363.420	14506
363.503	25290
363.587	36807
363.671	14030
363.755	10678
363.839	12211
363.923	11246
364.007	14135
364.091	19244
364.175	25723
364.258	67958
364.342	123980
364.426	229349
364.510	152912
364.594	47989
364.677	24740
364.761	49959
364.845	48294
364.929	16496
365.013	13634
365.096	10168
365.180	12970
365.264	11554
365.347	36899
365.431	24428
365.515	8301
365.598	6069
365.682	6721
365.766	6477
365.849	8692
365.933	6296
366.017	7494
366.100	6742
366.184	5079
366.267	6509
366.351	6005
366.435	5216
366.518	5090
366.602	4520
366.685	4676
366.769	5379
366.852	6670
366.936	9449
367.019	8857
367.103	7005
367.186	7748
367.270	5653
367.353	4990
367.436	6537
367.520	6266
367.603	6737
367.687	7564
367.770	10772
367.853	8400
367.937	14657
368.020	29384
368.104	10444
368.187	7066
368.270	10428
368.353	10492
368.437	8736
368.520	10163
368.603	10700
368.687	15713
368.770	35338
368.853	12169
368.936	8074
369.020	8372
369.103	6211
369.186	4704
369.269	4732
369.352	6970
369.436	9406
369.519	6906
369.602	4463
369.685	5434
369.768	5844
369.851	5135
369.934	5461
370.018	5460
370.101	7467
370.184	7279
370.267	6211
370.350	7084
370.433	10787
370.516	24488
370.599	49042
370.682	20980
370.765	16936
370.848	21553
370.931	39017
371.014	21757
371.097	6403
371.180	6262
371.263	5957
371.346	5679
371.429	6032
371.511	5549
371.594	6945
371.677	8587
371.760	10792
371.843	9991
371.926	28101
372.009	74673
372.091	37518
372.174	16736
372.257	39797
372.340	24570
372.423	13911
372.505	15182
372.588	9579
372.671	11666
372.754	37538
372.836	28530
372.919	12893
373.002	23524
373.085	13109
373.167	10437
373.250	17231
373.332	36731
373.415	44027
373.498	93918
373.580	48152
373.663	50845
373.746	87815
373.828	24660
373.911	11264
373.993	9222
374.076	20241
374.159	23889
374.241	11676
374.324	29714
374.406	29162
374.489	24592
374.571	76757
374.654	45292
374.736	17172
374.819	44403
374.901	65044
374.983	78885
375.066	22402
375.148	9141
375.231	16875
375.313	35164
375.395	19192
375.478	9647
375.560	7792
375.643	7617
375.725	14494
375.807	52300
375.890	51334
375.972	15716
376.054	10047
376.136	11008
376.219	8662
376.301	15161
376.383	51926
376.465	29459
376.548	12219
376.630	14501
376.712	41633
376.794	30536
376.877	6678
376.959	4478
377.041	4673
377.123	5919
377.205	7604
377.287	5031
377.369	4557
377.452	5380
377.534	5584
377.616	5409
377.698	5304
377.780	4609
377.862	5146
377.944	5421
378.026	4781
378.108	4373
378.190	5191
378.272	5134
378.354	4925
378.436	4954
378.518	4899
378.600	10044
378.682	11036
378.764	21318
378.846	23500
378.928	8096
379.010	10367
379.091	8491
379.173	5889
379.255	5037
379.337	5510
379.419	9831
379.501	30679
379.583	20780
379.664	6722
379.746	8824
379.828	21069
379.910	31244
379.991	32599
380.073	9806
380.155	6793
380.237	5490
380.318	5388
380.400	4302
380.482	7517
380.564	10086
380.645	16763
380.727	18829
380.809	8338
380.890	6574
380.972	8382
381.053	7501
381.135	6842
381.217	9677
381.298	23207
381.380	16997
381.461	11182
381.543	34634
381.624	61374
381.706	17521
381.787	9348
381.869	8802
381.951	18690
382.032	65442
382.113	58451
382.195	16124
382.276	13252
382.358	26573
382.439	47100
382.521	48405
382.602	72449
382.684	43726
382.765	58140
382.846	93506
382.928	179707
383.009	138374
383.090	73801
383.172	197490
383.253	350192
383.334	157054
383.416	89280
383.497	63126
383.578	38155
383.659	59467
383.741	169148
383.822	410205
383.903	300470
383.984	94395
384.066	88081
384.147	68899
384.228	25063
384.309	17446
384.390	17487
384.471	14393
384.553	12522
384.634	12704
384.715	13014
384.796	10253
384.877	11110
384.958	22194
385.039	32953
385.120	16494
385.201	9373
385.282	9903
385.363	10410
385.444	12390
385.525	14203
385.606	30775
385.687	38036
385.768	14082
385.849	12275
385.930	30594
386.011	64695
386.092	28066
386.173	10295
386.254	8551
386.335	7961
386.416	9290
386.496	15788
386.577	26812
386.658	15047
386.739	9663
386.820	9719
386.901	8653
386.981	9532
387.062	9433
387.143	12749
387.224	25364
387.304	32801
387.385	16624
387.466	13257
387.547	14280
387.627	14175
387.708	16273
387.789	39472
387.869	58762
387.950	26154
388.031	10137
388.111	8480
388.192	11248
388.273	13324
388.353	11538
388.434	8730
388.514	11044
388.595	32240
388.676	52325
388.756	30022
388.837	21387
388.917	19833
388.998	7529
389.078	7371
389.159	6190
389.239	6652
389.320	7120
389.400	6884
389.480	9199
389.561	25551
389.641	20774
389.722	8750
389.802	9952
389.883	12429
389.963	27657
390.043	24568
390.124	8561
390.204	8925
390.284	24161
390.365	22223
390.445	13316
390.525	25465
390.605	28218
390.686	18963
390.766	12154
390.846	8565
390.927	5904
391.007	6642
391.087	7710
391.167	10371
391.247	9230
391.328	8520
391.408	9069
391.488	9158
391.568	6582
391.648	8662
391.728	10684
391.808	10053
391.888	10849
391.969	15577
392.049	28726
392.129	18831
392.209	16042
392.289	32947
392.369	26800
392.449	18260
392.529	16560
392.609	16812
392.689	20018
392.769	37137
392.849	44756
392.929	34920
393.009	58387
393.089	74497
393.169	93437
393.248	208383
393.328	484461
393.408	565002
393.488	320511
393.568	130730
393.648	65392
393.728	40696
393.807	29610
393.887	23431
393.967	20530
394.047	18952
394.127	16596
394.206	18439
394.286	33316
394.366	140515
394.446	209767
394.525	67914
394.605	18081
394.685	14083
394.764	17099
394.844	29578
394.924	38310
395.003	18805
395.083	10221
395.163	10134
395.242	10201
395.322	9898
395.402	8877
395.481	10592
395.561	13951
395.640	37008
395.720	65327
395.799	54623
395.879	34544
395.958	21124
396.038	44725
396.117	180300
396.197	269365
396.276	99663
396.356	34955
396.435	28923
396.515	29284
396.594	38450
396.673	68946
396.753	183861
396.832	445668
396.912	436587
396.991	178817
397.070	64840
397.150	34672
397.229	26998
397.308	37548
397.388	84586
397.467	56322
397.546	18805
397.625	10909
397.705	12264
397.784	11401
397.863	9179
397.942	8090
398.022	7807
398.101	9838
398.180	23337
398.259	18206
398.338	8732
398.417	6586
398.497	6324
398.576	6123
398.655	5426
398.734	6311
398.813	5743
398.892	8152
398.971	23422
399.050	19091
399.129	5741
399.208	4907
399.287	5646
399.366	3996
399.445	4697
399.524	4457
399.603	4823
399.682	5591
399.761	8987
399.840	23288
399.919	27086
399.998	7922
400.077	3335
400.156	3340
400.235	5025
400.313	3374
400.392	4139
400.471	9224
400.550	20751
400.629	9207
400.708	4256
400.786	3367
400.865	5890
400.944	7116
401.023	6572
401.102	3126
401.180	3367
401.259	3114
401.338	3372
401.416	3795
401.495	4477
401.574	3810
401.652	3178
401.731	4780
401.810	7572
401.888	6141
401.967	3870
402.046	5360
402.124	5660
402.203	4992
402.281	4860
402.360	6487
402.438	8673
402.517	6899
402.596	4010
402.674	4263
402.753	3246
402.831	3601
402.910	4914
402.988	13985
403.066	56373
403.145	49107
403.223	20812
403.302	53917
403.380	53110
403.459	51562
403.537	30575
403.615	12312
403.694	5549
403.772	4441
403.850	4454
403.929	4183
404.007	3041
404.085	10172
404.164	22218
404.242	9980
404.320	6724
404.398	16385
404.477	22552
404.555	44080
404.633	58938
404.711	21180
404.789	11885
404.868	8298
404.946	7506
405.024	3477
405.102	2722
405.180	2843
405.258	2329
405.336	3147
405.415	3448
405.493	6423
405.571	11247
405.649	5899
405.727	2681
405.805	4507
405.883	7144
405.961	7206
406.039	5597
406.117	3248
406.195	5007
406.273	8987
406.351	39762
406.429	38085
406.507	7600
406.585	3623
406.663	3999
406.740	3871
406.818	4307
406.896	2618
406.974	3327
407.052	4630
407.130	19208
407.208	41167
407.285	14549
407.363	3140
407.441	3617
407.519	3969
407.596	4980
407.674	10596
407.752	48247
407.830	61567
407.907	17602
407.985	8301
408.063	4299
408.141	2953
408.218	5210
408.296	7528
408.373	9981
408.451	6166
408.529	4225
408.606	3250
408.684	4213
408.762	3612
408.839	4111
408.917	4179
408.994	4536
409.072	4431
409.149	6269
409.227	8471
409.304	14229
409.382	16064
409.459	15923
409.537	21612
409.614	22271
409.692	17181
409.769	14789
409.846	20954
409.924	28180
410.001	23146
410.079	17115
410.156	11643
410.233	10046
410.311	7276
410.388	6826
410.465	6000
410.543	6388
410.620	5719
410.697	5317
410.775	5491
410.852	5149
410.929	6188
411.006	7043
411.083	6030
411.161	6365
411.238	6918
411.315	5798
411.392	4137
411.469	4824
411.547	5190
411.624	3556
411.701	3832
411.778	3758
411.855	4534
411.932	3633
412.009	3560
412.086	3516
412.163	3483
412.240	3401
412.317	3566
412.394	4214
412.471	3670
412.548	3031
412.625	2590
412.702	2797
412.779	3296
412.856	4464
412.933	2508
413.010	3009
413.087	3101
413.164	8149
413.241	16453
413.318	7348
413.395	3767
413.471	4337
413.548	4383
413.625	2810
413.702	2155
413.779	2885
413.855	1839
413.932	1608
414.009	1689
414.086	2090
414.162	2252
414.239	2474
414.316	7791
414.393	21940
414.469	14954
414.546	3121
414.623	1950
414.699	2202
414.776	2206
414.853	2906
414.929	2977
415.006	2620
415.082	2739
415.159	2611
415.236	2182
415.312	2996
415.389	3171
415.465	4837
415.542	3592
415.618	1932
415.695	3075
415.771	2830
415.848	2489
415.924	2690
416.000	1526
416.077	2411
416.153	1789
416.230	1441
416.306	1687
416.383	2195
416.459	1610
416.535	2187
416.612	1316
416.688	2431
416.764	2226
416.841	1459
416.917	1851
416.993	2188
417.069	2185
417.146	3336
417.222	2279
417.298	3028
417.374	2461
417.451	2137
417.527	1756
417.603	3100
417.679	2371
417.755	2413
417.831	1592
417.908	2156
417.984	1639
418.060	2283
418.136	2484
418.212	5163
418.288	3312
418.364	3140
418.440	1692
418.516	3412
418.592	2655
418.668	4367
418.744	7009
418.820	6648
418.896	3264
418.972	2332
419.048	2488
419.124	3837
419.200	4119
419.276	2728
419.352	2773
419.428	2668
419.504	2257
419.579	3586
419.655	2595
419.731	4070
419.807	5273
419.883	8315
419.959	8758
420.034	5069
420.110	4170
420.186	13721
420.262	17230
420.337	6434
420.413	5100
420.489	4740
420.565	5486
420.640	5310
420.716	6375
420.792	4910
420.867	5892
420.943	5529
421.019	7471
421.094	7694
421.170	7742
421.245	7582
421.321	9708
421.397	9766
421.472	15050
421.548	39597
421.623	42079
421.699	18273
421.774	14948
421.850	16984
421.925	19708
422.001	23199
422.076	26930
422.152	32323
422.227	41645
422.302	57379
422.378	82274
422.453	132223
422.529	224835
422.604	343059
422.679	310788
422.755	308353
422.830	301924
422.905	195286
422.981	119633
423.056	82393
423.131	60279
423.207	44970
423.282	35282
423.357	30582
423.432	24884
423.508	22972
423.583	23416
423.658	21326
423.733	14555
423.808	13554
423.883	13115
423.959	14366
424.034	14950
424.109	15359
424.184	10591
424.259	9174
424.334	8390
424.409	6929
424.484	6828
424.559	6571
424.634	5861
424.709	6432
424.784	5824
424.859	5578
424.934	4954
425.009	9724
425.084	18365
425.159	13007
425.234	5211
425.309	4043
425.384	4180
425.459	6981
425.534	5186
425.609	3138
425.683	3025
425.758	3721
425.833	4210
425.908	4061
425.983	5202
426.058	15675
426.132	12073
426.207	4482
426.282	3483
426.357	3551
426.431	3226
426.506	3570
426.581	3209
426.655	4085
426.730	3312
426.805	2966
426.879	2990
426.954	2757
427.029	3778
427.103	10717
427.178	35154
427.253	28921
427.327	5781
427.402	3378
427.476	5371
427.551	5389
427.625	3622
427.700	2710
427.774	2515
427.849	3689
427.923	3003
427.998	3299
428.072	3731
428.147	8236
428.221	24463
428.296	99972
428.370	96823
428.444	18984
428.519	5840
428.593	5822
428.667	7217
428.742	7492
428.816	11246
428.890	47616
428.965	118033
429.039	53609
429.113	11175
429.188	6403
429.262	3243
429.336	4622
429.410	8065
429.485	8908
429.559	5380
429.633	6009
429.707	4943
429.781	9222
429.855	45581
429.930	110790
430.004	52518
430.078	25636
430.152	39781
430.226	115076
430.300	179204
430.374	61705
430.448	13685
430.522	9564
430.596	20312
430.670	25896
430.744	68916
430.818	138677
430.892	47811
430.966	7342
431.040	3973
431.114	3810
431.188	2241
431.262	2909
431.336	1932
431.410	3497
431.484	5359
431.557	7338
431.631	3045
431.705	5026
431.779	17478
431.853	85261
431.927	104573
432.000	22885
432.074	5236
432.148	3385
432.222	1956
432.295	2690
432.369	1483
432.443	1842
432.516	8552
432.590	33651
432.664	25111
432.737	3772
432.811	848
432.885	1753
432.958	1309
433.032	1105
433.106	453
433.179	1259
433.253	1117
433.326	836
433.400	571
433.473	919
433.547	702
433.620	1686
433.694	1692
433.767	2639
433.841	1316
433.914	1391
433.988	1563
434.061	1229
434.134	1141
434.208	2147
434.281	1478
434.355	1327
434.428	1596
434.501	755
434.575	1544
434.648	990
434.721	1139
434.795	1621
434.868	349
434.941	1300
435.014	1107
435.088	1813
435.161	2887
435.234	2686
435.307	5208
435.381	4412
435.454	5461
435.527	9604
435.600	12463
435.673	11824
435.746	8875
435.819	6393
435.892	4940
435.966	3877
436.039	2190
436.112	2832
436.185	2228
436.258	2003
436.331	1405
436.404	1878
436.477	1632
436.550	1314
436.623	529
436.696	1335
436.769	1184
436.842	2094
436.915	1710
436.987	1664
437.060	1196
437.133	2201
437.206	990
437.279	1536
437.352	834
437.425	435
437.498	1487
437.570	2327
437.643	3156
437.716	1613
437.789	910
437.861	2384
437.934	2828
438.007	2811
438.080	832
438.152	1116
438.225	2482
438.298	10694
438.370	47787
438.443	36958
438.516	6484
438.588	2365
438.661	763
438.734	1238
438.806	1441
438.879	1607
438.951	168
439.024	2498
439.096	1292
439.169	1192
439.241	1290
439.314	1043
439.386	972
439.459	2161
439.531	2162
439.604	2580
439.676	877
439.749	519
439.821	500
439.893	1553
439.966	1044
440.038	1349
440.110	1393
440.183	1577
440.255	308
440.327	1525
440.400	4553
440.472	25115
440.544	32749
440.617	6574
440.689	3728
440.761	2895
440.833	3883
440.905	3680
440.978	1487
441.050	898
441.122	2116
441.194	1243
441.266	1551
441.338	1498
441.411	1885
441.483	7781
441.555	17970
441.627	8140
441.699	2123
441.771	2340
441.843	2356
441.915	2521
441.987	2573
442.059	2644
442.131	2725
442.203	4006
442.275	5264
442.347	6981
442.419	12334
442.491	49323
442.563	164419
442.635	122764
442.706	28343
442.778	14431
442.850	7140
442.922	4825
442.994	5117
443.066	6019
443.137	6121
443.209	7414
443.281	10589
443.353	19853
443.425	57951
443.496	208957
443.568	305168
443.640	183419
443.711	47953
443.783	14902
443.855	9119
443.926	5695
443.998	4819
444.070	5244
444.141	4203
444.213	5327
444.285	4687
444.356	4541
444.428	3549
444.499	3187
444.571	2537
444.642	3128
444.714	2969
444.785	4030
444.857	4807
444.928	5673
445.000	6306
445.071	7119
445.143	10012
445.214	15037
445.285	17871
445.357	38141
445.428	120019
445.500	299391
445.571	284800
445.642	213628
445.714	91671
445.785	32867
445.856	14672
445.928	10439
445.999	7623
446.070	6185
446.141	5475
446.213	7806
446.284	5581
446.355	3654
446.426	2876
446.497	3373
446.569	2753
446.640	3473
446.711	2918
446.782	1780
446.853	1691
446.924	1378
446.995	1641
447.066	1957
447.138	1498
447.209	1824
447.280	1217
447.351	1436
447.422	377
447.493	1631
447.564	1291
447.635	2042
447.706	1775
447.777	1244
447.847	899
447.918	1146
447.989	615
448.060	1349
448.131	1570
448.202	2844
448.273	2496
448.344	2130
448.414	1531
448.485	1323
448.556	920
448.627	401
448.698	1289
448.768	248
448.839	1003
448.910	967
448.981	1912
449.051	1747
449.122	978
449.193	236
449.263	-99
449.334	300
449.405	1282
449.475	2424
449.546	2540
449.616	3335
449.687	1933
449.758	1276
449.828	318
449.899	1415
449.969	1236
450.040	782
450.110	471
450.181	1321
450.251	533
450.322	841
450.392	1713
450.463	445
450.533	713
450.604	877
450.674	-218
450.744	1183
450.815	1395
450.885	1197
450.955	1973
451.026	1964
451.096	849
451.166	1078
451.237	2202
451.307	5159
451.377	3662
451.447	1921
451.518	1357
451.588	743
451.658	1073
451.728	1574
451.799	2892
451.869	5365
451.939	2357
452.009	1455
452.079	207
452.149	1181
452.219	1220
452.289	4061
452.360	4855
452.430	2128
452.500	1509
452.570	3666
452.640	6887
452.710	18264
452.780	30407
452.850	21791
452.920	12797
452.990	5592
453.060	2733
453.129	2524
453.199	2375
453.269	3566
453.339	12490
453.409	21459
453.479	13000
453.549	22190
453.619	24521
453.688	15261
453.758	3366
453.828	1141
453.898	555
453.968	519
454.037	1349
454.087	880
454.107	684
454.168	300
454.177	234
454.247	585
454.249	593
454.316	533
454.330	542
454.386	510
454.411	813
454.456	1286
454.492	2897
454.525	4345
454.574	2648
454.595	1893
454.655	1101
454.665	968
454.734	651
454.736	680
454.804	1400
454.817	1722
454.873	2958
454.898	3572
454.943	4711
454.979	3597
455.013	2603
455.060	1836
455.082	1501
455.141	972
455.152	867
455.221	2486
455.222	2554
455.291	6489
455.303	6614
455.360	6476
455.384	10035
455.430	16180
455.465	16520
455.499	17279
455.546	9236
455.569	5371
455.627	4111
455.638	3901
455.707	1928
455.708	1933
455.777	1323
455.789	1194
455.846	630
455.869	663
455.916	724
455.950	708
455.985	683
456.031	1244
456.054	1520
456.112	1362
456.124	1285
456.193	783
456.193	774
456.262	1166
456.274	1349
456.332	2093
456.355	1926
456.401	1529
456.436	1439
456.470	1382
456.516	1202
456.540	1105
456.597	1304
456.609	1324
456.678	1273
456.678	1264
456.747	1897
456.759	1739
456.817	987
456.840	1196
456.886	1517
456.920	1505
456.955	1522
457.001	1533
457.024	1516
457.082	1569
457.093	1553
457.162	1911
457.163	1917
457.232	2211
457.243	2263
457.301	2286
457.324	2196
457.370	2125
457.405	2622
457.439	3093
457.485	2756
457.508	2626
457.566	3356
457.577	3594
457.646	4176
457.647	4210
457.715	9391
457.727	10428
457.784	15793
457.808	20834
457.853	25051
457.889	34653
457.922	43611
457.969	36771
457.991	36712
458.050	30629
458.060	29331
458.129	42180
458.130	42960
458.198	57578
458.211	53769
458.267	46069
458.292	34738
458.336	18919
458.372	15978
458.405	16924
458.453	23480
458.474	27353
458.533	43530
458.543	43422
458.611	65667
458.614	66496
458.680	74456
458.694	63564
458.749	35585
458.775	26109
458.818	11538
458.855	8579
458.887	6193
458.936	5256
458.955	4752
459.016	3001
459.024	2878
459.093	3189
459.097	3170
459.162	2539
459.177	2587
459.230	2791
459.257	2814
459.299	2785
459.338	3176
459.368	3400
459.418	2950
459.437	2850
459.499	3088
459.505	3094
459.574	2674
459.579	2647
459.643	1689
459.659	1670
459.711	2322
459.740	2534
459.780	2555
459.820	2544
459.849	2596
459.900	2860
459.917	2959
459.981	2800
459.986	2769
460.054	2816
460.061	2826
460.123	2834
460.141	2755
460.191	2818
460.222	3023
460.260	3093
460.302	3691
460.328	4233
460.382	4008
460.397	4073
460.462	4961
460.465	5265
460.534	12726
460.543	13724
460.602	30046
460.623	36243
460.671	52591
460.703	69102
460.739	55574
460.783	42055
460.808	44714
460.864	19829
460.876	16155
460.944	4510
460.945	4374
461.013	2991
461.024	2930
461.081	2834
461.104	2873
461.150	2814
461.184	2883
461.218	2909
461.264	2789
461.286	2851
461.345	2374
461.355	2239
461.423	2563
461.425	2546
461.491	2120
461.505	2240
461.559	3352
461.585	3533
461.628	3833
461.665	4448
461.696	4261
461.745	4323
461.764	4260
461.825	3573
461.832	3671
461.901	3104
461.905	3156
461.969	2575
461.985	2358
462.037	2438
462.065	2594
462.105	2658
462.145	2793
462.173	3118
462.225	3272
462.241	3201
462.305	3476
462.310	3476
462.378	4007
462.385	3905
462.446	3279
462.465	3202
462.514	2923
462.545	2894
462.582	3119
462.625	3437
462.650	3222
462.705	2537
462.718	2585
462.785	2936
462.786	2937
462.854	2669
462.865	2658
462.922	2595
462.945	2663
462.990	2843
463.025	2908
463.058	3066
463.104	3007
463.126	2929
463.184	3095
463.194	3088
463.262	2816
463.264	2804
463.330	2663
463.344	2652
463.398	3386
463.424	3682
463.466	3162
463.504	2763
463.533	2819
463.583	2878
463.601	2987
463.663	3426
463.669	3456
463.737	3705
463.743	3718
463.805	3712
463.823	3723
463.873	4053
463.903	4337
463.940	4217
463.982	4176
464.008	4211
464.062	4019
464.076	3878
464.142	2812
464.144	2813
464.211	2707
464.221	2780
464.279	3186
464.301	3255
464.347	3160
464.381	3210
464.414	3237
464.461	3113
464.482	3351
464.540	3961
464.550	3866
464.617	3197
464.620	3175
464.685	4342
464.699	4527
464.753	4772
464.779	5024
464.820	5329
464.859	5519
464.888	4947
464.938	4035
464.956	4132
465.018	4103
465.023	4102
465.091	4345
465.098	4356
465.158	4221
465.177	4162
465.226	4305
465.257	4418
465.293	4530
465.336	4597
465.361	4567
465.416	4499
465.428	4509
465.495	4585
465.496	4603
465.563	6281
465.575	6611
465.631	6664
465.654	6704
465.698	5746
465.734	4778
465.765	4869
465.813	4828
465.833	4635
465.893	4249
465.900	4264
465.968	4472
465.972	4466
466.035	4358
466.052	4369
466.102	4298
466.131	4193
466.170	4491
466.210	4812
466.237	4683
466.290	4493
466.304	4646
466.369	5139
466.372	5113
466.439	4271
466.449	4118
466.506	4556
466.528	4745
466.573	5283
466.607	5673
466.641	6966
466.687	8752
466.708	8685
466.766	8471
466.775	8225
466.842	6408
466.845	6308
466.909	5374
466.925	5158
466.977	5238
467.004	5301
467.044	5570
467.083	5830
467.111	6361
467.163	7320
467.178	7390
467.242	7652
467.245	7613
467.312	6600
467.321	6458
467.379	7338
467.400	7641
467.446	6755
467.480	6094
467.559	5838
467.638	6165
467.717	5844
467.796	6058
467.875	6267
467.955	6336
468.034	7862
468.113	10805
468.192	11924
468.271	8611
468.350	11139
468.429	14450
468.508	13559
468.588	9527
468.667	7180
468.746	6095
468.825	5789
468.904	5199
468.983	6066
469.062	6445
469.141	6109
469.220	4887
469.299	6166
469.378	6355
469.456	6931
469.535	6124
469.614	5309
469.693	5936
469.772	6463
469.851	6674
469.930	5607
470.009	6501
470.088	6075
470.166	7710
470.245	9197
470.324	9360
470.403	7103
470.482	6032
470.560	6105
470.639	5681
470.718	6006
470.797	5550
470.875	5679
470.954	6675
471.033	5266
471.111	5890
471.190	5201
471.269	4796
471.347	6017
471.426	5177
471.505	5658
471.583	6189
471.662	6044
471.740	5628
471.819	6002
471.898	5599
471.976	5731
472.055	6007
472.133	6250
472.212	7883
472.290	5184
472.369	5342
472.447	5331
472.526	5379
472.604	5853
472.683	5491
472.761	6151
472.839	5633
472.918	5783
472.996	5464
473.075	5650
473.153	5594
473.231	5279
473.310	5714
473.388	5880
473.466	5800
473.545	7218
473.623	6321
473.701	6602
473.780	5665
473.858	5086
473.936	6206
474.014	5660
474.093	6882
474.171	7613
474.249	6685
474.327	5744
474.405	5252
474.484	4829
474.562	4952
474.640	5349
474.718	5533
474.796	5728
474.874	5129
474.952	4988
475.030	4718
475.108	5593
475.187	6207
475.265	8465
475.343	12375
475.421	11131
475.499	5293
475.577	6546
475.655	6206
475.733	6374
475.811	7562
475.889	6714
475.966	6267
476.044	7231
476.122	8567
476.200	11551
476.278	5614
476.356	4940
476.434	6044
476.512	8075
476.590	9760
476.667	7704
476.745	4114
476.823	4259
476.901	4707
476.979	5572
477.056	4638
477.134	4957
477.212	4934
477.290	4556
477.367	4523
477.445	5084
477.523	4078
477.601	5105
477.678	4793
477.756	4482
477.834	5207
477.911	4921
477.989	5441
478.066	4666
478.144	5809
478.222	10528
478.299	16416
478.377	10799
478.454	5211
478.532	4750
478.609	3767
478.687	4705
478.764	4945
478.842	4197
478.919	4290
478.997	3989
479.074	4680
479.152	4161
479.229	5308
479.307	4179
479.384	4597
479.461	4371
479.539	3658
479.616	4473
479.694	4361
479.771	4460
479.848	3996
479.926	4470
480.003	4898
480.080	4019
480.157	4363
480.235	3841
480.312	4616
480.389	3785
480.467	5113
480.544	5405
480.621	4795
480.698	5285
480.775	4083
480.853	3628
480.930	4471
481.007	4976
481.084	7408
481.161	10026
481.238	5189
481.315	3967
481.392	4360
481.470	4429
481.547	4083
481.624	3808
481.701	3878
481.778	5120
481.855	5455
481.932	5774
482.009	6943
482.086	5621
482.163	7560
482.240	13648
482.317	21462
482.393	10431
482.470	5708
482.547	4478
482.624	4356
482.701	5042
482.778	5050
482.855	4656
482.932	4731
483.009	4558
483.085	6752
483.162	8249
483.239	7634
483.316	5929
483.393	5193
483.469	5234
483.546	4595
483.623	4701
483.699	4011
483.776	3655
483.853	4558
483.930	5940
484.006	8471
484.083	11560
484.160	14298
484.236	18883
484.313	13195
484.389	10999
484.466	10328
484.543	11555
484.619	14041
484.696	12375
484.772	11226
484.849	10101
484.925	9372
485.002	9770
485.078	9606
485.155	8195
485.231	7922
485.308	8817
485.384	9147
485.461	9749
485.537	10601
485.614	9816
485.690	8548
485.766	8355
485.843	8144
485.919	9007
485.995	8569
486.072	7558
486.148	8411
486.224	7493
486.301	7560
486.377	8358
486.453	8613
486.530	8371
486.606	12377
486.682	10863
486.758	10781
486.835	11004
486.911	11162
486.987	12716
487.063	13902
487.139	15826
487.215	16234
487.292	12096
487.368	11147
487.444	13605
487.520	18424
487.596	29038
487.672	64258
487.748	164225
487.824	179170
487.900	42055
487.976	17258
488.052	12270
488.128	10022
488.204	9106
488.280	8177
488.356	9119
488.432	10570
488.508	11666
488.584	7753
488.660	8318
488.736	7856
488.812	7411
488.888	9548
488.964	10699
489.039	16135
489.115	17448
489.191	11472
489.267	8400
489.343	7661
489.418	6796
489.494	8008
489.570	5554
489.646	7417
489.722	6905
489.797	7575
489.873	8165
489.949	9509
490.024	7938
490.100	6462
490.176	6680
490.251	7498
490.327	7565
490.403	7154
490.478	5811
490.554	6622
490.629	6546
490.705	5880
490.781	6353
490.856	6787
490.932	5970
491.007	6067
491.083	5837
491.158	5374
491.234	7352
491.309	8643
491.385	7514
491.460	5613
491.536	6061
491.611	5970
491.686	5966
491.762	7457
491.837	9850
491.913	12870
491.988	16822
492.063	16320
492.139	6154
492.214	5783
492.289	5913
492.365	6145
492.440	5198
492.515	5033
492.590	4625
492.666	5118
492.741	6083
492.816	5144
492.891	5312
492.967	5226
493.042	5293
493.117	5371
493.192	6197
493.267	12280
493.342	27690
493.418	25252
493.493	6043
493.568	4750
493.643	5236
493.718	5686
493.793	5695
493.868	6269
493.943	5092
494.018	5387
494.093	4614
494.168	4910
494.243	4891
494.318	4664
494.393	4943
494.468	4881
494.543	4845
494.618	5409
494.693	4468
494.768	4743
494.842	4490
494.917	4331
494.992	4778
495.067	5059
495.142	5586
495.217	5172
495.292	4031
495.366	5145
495.441	4958
495.516	5877
495.591	7869
495.665	19330
495.740	29246
495.815	9550
495.890	5389
495.964	4890
496.039	6450
496.114	7640
496.188	12314
496.263	8494
496.338	5372
496.412	5644
496.487	5702
496.561	5627
496.636	6086
496.710	5997
496.785	5472
496.860	5240
496.934	5277
497.009	5557
497.083	5089
497.158	4968
497.232	5689
497.307	6378
497.381	6338
497.455	7081
497.530	7424
497.604	5780
497.679	7087
497.753	7733
497.827	8787
497.902	9370
497.976	10817
498.050	21908
498.125	54417
498.199	35421
498.273	11139
498.348	9775
498.422	9508
498.496	8764
498.570	9063
498.645	6627
498.719	6940
498.793	5857
498.867	7367
498.941	10463
499.016	26059
499.090	45622
499.164	12355
499.238	5176
499.312	4501
499.386	7095
499.460	5672
499.534	6519
499.609	7399
499.683	7501
499.757	6040
499.831	13470
499.905	34404
499.979	19774
500.053	5828
500.127	5739
500.201	5123
500.275	5231
500.349	5061
500.422	6064
500.496	8691
500.570	13199
500.644	24941
500.718	29013
500.792	5901
500.866	3975
500.940	4420
501.013	4342
501.087	4567
501.161	6894
501.235	7549
501.309	12983
501.382	28058
501.456	15209
501.530	7004
501.603	8330
501.677	4469
501.751	3171
501.825	4514
501.898	6269
501.972	11305
502.046	6139
502.119	4421
502.193	7754
502.266	11482
502.340	6084
502.413	7357
502.487	10298
502.561	6074
502.634	3383
502.708	3459
502.781	3504
502.855	3394
502.928	2892
503.002	2707
503.075	2772
503.149	2804
503.222	3860
503.295	4635
503.369	3289
503.442	5223
503.516	11046
503.589	17845
503.662	10053
503.736	7719
503.809	12601
503.882	12654
503.956	22861
504.029	38522
504.102	90864
504.175	97451
504.249	27780
504.322	11564
504.395	7292
504.468	4874
504.542	4541
504.615	4222
504.688	2866
504.761	3289
504.834	4063
504.907	5090
504.980	4553
505.053	3736
505.127	3409
505.200	5179
505.273	3656
505.346	2860
505.419	2864
505.492	3330
505.565	2958
505.638	3406
505.711	2742
505.784	2745
505.857	3054
505.930	3153
506.003	2387
506.076	3469
506.149	3165
506.221	3285
506.294	3350
506.367	7093
506.440	14415
506.513	5901
506.586	2856
506.659	3274
506.731	2919
506.804	3667
506.877	3600
506.950	3194
507.022	3081
507.095	2979
507.168	2382
507.241	2481
507.313	2460
507.386	2612
507.459	2848
507.531	2380
507.604	2368
507.677	2660
507.749	2946
507.822	3499
507.894	6927
507.967	6921
508.040	5480
508.112	4378
508.185	4423
508.257	3756
508.330	4494
508.402	4496
508.475	3748
508.547	3744
508.620	4314
508.692	4402
508.765	4234
508.837	3857
508.909	3289
508.982	3065
509.054	3655
509.127	3411
509.199	3736
509.271	3627
509.344	2258
509.416	2556
509.488	3215
509.560	3786
509.633	3583
509.705	2866
509.777	3248
509.849	3919
509.922	3510
509.994	3444
510.066	3694
510.138	5085
510.210	7414
510.283	6365
510.355	4464
510.427	4676
510.499	4121
510.571	4194
510.643	4764
510.715	5905
510.787	4405
510.859	4761
510.931	4435
511.003	6163
511.076	5038
511.148	3911
511.219	3865
511.291	5268
511.363	4782
511.435	4397
511.507	3862
511.579	3559
511.651	3995
511.723	3080
511.795	3430
511.867	4134
511.939	3903
512.010	5079
512.082	5198
512.154	3357
512.226	4654
512.298	6709
512.369	7763
512.441	5880
512.513	5292
512.585	4881
512.656	4725
512.728	4379
512.800	3784
512.871	3427
512.943	4439
513.015	3537
513.086	3824
513.158	4434
513.230	3832
513.301	5015
513.373	5209
513.444	4106
513.516	3751
513.588	3866
513.659	3696
513.731	4309
513.802	4313
513.874	6502
513.945	6818
514.016	3989
514.088	4047
514.159	4365
514.231	5201
514.302	7100
514.374	5301
514.445	5029
514.516	7550
514.588	5334
514.659	5429
514.730	6170
514.802	5681
514.873	4204
514.944	5613
515.016	5573
515.087	5290
515.158	5426
515.229	6286
515.301	5259
515.372	6599
515.443	4679
515.514	4803
515.585	4755
515.656	4721
515.728	4394
515.799	3670
515.870	3916
515.941	4840
516.012	4757
516.083	6154
516.154	6342
516.225	6802
516.296	6325
516.367	6687
516.438	8328
516.509	9437
516.580	17247
516.651	58230
516.722	132382
516.793	33287
516.864	10294
516.935	10103
517.006	13898
517.077	21604
517.148	57691
517.219	206950
517.289	186306
517.360	29799
517.431	9942
517.502	6972
517.573	5514
517.643	6294
517.714	7823
517.785	7081
517.856	7120
517.926	8535
517.997	10647
518.068	14154
518.138	20301
518.209	43814
518.280	162340
518.350	359230
518.421	82647
518.492	17781
518.562	13778
518.633	18558
518.703	28331
518.774	65532
518.845	152693
518.915	100110
518.986	25489
519.056	13444
519.127	13094
519.197	14124
519.268	19580
519.338	10695
519.408	6889
519.479	6768
519.549	6091
519.620	5698
519.690	4011
519.760	4927
519.831	4257
519.901	4377
519.971	4194
520.042	3995
520.112	4111
520.182	5207
520.253	4297
520.323	3954
520.393	5450
520.463	6723
520.534	3488
520.604	6799
520.674	4975
520.744	4597
520.814	7597
520.885	6193
520.955	9614
521.025	18890
521.095	5533
521.165	4215
521.235	3404
521.305	3818
521.375	3952
521.445	3760
521.515	4356
521.585	5164
521.655	4063
521.725	4293
521.795	4183
521.865	2321
521.935	4476
522.005	3406
522.075	3193
522.145	3901
522.215	4153
522.285	4545
522.355	5047
522.424	5992
522.494	6170
522.564	5357
522.634	9919
522.704	16843
522.774	5467
522.843	4559
522.913	4694
522.983	4354
523.053	3473
523.122	4152
523.192	4844
523.262	11153
523.331	6850
523.401	3480
523.471	3812
523.540	3907
523.610	2663
523.680	3731
523.749	3576
523.819	4494
523.888	4389
523.958	4607
524.027	3834
524.097	3648
524.166	3044
524.236	3519
524.305	4791
524.375	3704
524.444	3544
524.514	4421
524.583	4355
524.653	4062
524.722	4193
524.791	4650
524.861	4449
524.930	3868
524.999	3880
525.069	5065
525.138	3384
525.207	3423
525.277	4678
525.346	4399
525.415	4141
525.484	5275
525.554	5983
525.623	6421
525.692	9408
525.761	8757
525.830	10928
525.900	14172
525.969	27216
526.038	53046
526.107	135068
526.176	294196
526.245	166911
526.314	65249
526.383	167978
526.452	178809
526.522	320919
526.591	177596
526.660	30373
526.729	23441
526.797	32204
526.867	65089
526.935	209295
527.004	490447
527.073	173471
527.142	21708
527.211	11218
527.280	8916
527.349	7032
527.418	5350
527.487	5582
527.555	4126
527.624	4657
527.693	4306
527.762	4322
527.831	3501
527.899	4531
527.968	3814
528.037	3225
528.106	4544
528.174	4819
528.243	4376
528.312	5707
528.380	5244
528.449	3779
528.518	3843
528.586	3609
528.655	3263
528.723	3636
528.792	3823
528.861	2809
528.929	3264
528.998	4453
529.066	4206
529.135	5128
529.203	6060
529.272	6431
529.340	8008
529.409	7932
529.477	6736
529.545	7051
529.614	7803
529.682	8772
529.751	8707
529.819	10354
529.887	9949
529.956	10016
530.024	8500
530.092	8464
530.161	9622
530.229	9992
530.297	9904
530.365	10449
530.434	9716
530.502	10283
530.570	9421
530.638	7119
530.707	7743
530.775	8998
530.843	8144
530.911	9457
530.979	9095
531.047	8736
531.115	8475
531.183	7479
531.252	8386
531.320	8078
531.388	7799
531.456	9528
531.524	8916
531.592	10752
531.660	10654
531.728	9507
531.796	8612
531.864	8854
531.932	9358
532.000	9186
532.067	10316
532.135	11264
532.203	10740
532.271	12854
532.339	13423
532.407	15861
532.475	13167
532.542	12035
532.610	11940
532.678	14301
532.746	32876
532.814	43640
532.881	15636
532.949	11563
533.017	12206
533.084	9822
533.152	10014
533.220	10150
533.287	10422
533.355	10611
533.423	10789
533.490	10311
533.558	9636
533.625	9951
533.693	10802
533.761	9817
533.828	10321
533.896	10162
533.963	12785
534.031	13925
534.098	17815
534.166	12855
534.233	12437
534.300	13087
534.368	11673
534.435	11382
534.503	11646
534.570	14187
534.637	13871
534.705	16873
534.772	21570
534.840	43574
534.907	158819
534.974	115516
535.041	17865
535.109	11555
535.176	10797
535.243	11352
535.310	11692
535.378	10853
535.445	10552
535.512	11317
535.579	11021
535.646	10613
535.714	10750
535.781	11059
535.848	11776
535.915	11856
535.982	12327
536.049	11317
536.116	10999
536.183	9194
536.250	10495
536.317	9946
536.384	10920
536.451	11603
536.518	12079
536.585	10245
536.652	11687
536.719	12398
536.786	10769
536.853	9765
536.920	12072
536.987	13314
537.053	14434
537.120	31320
537.187	19737
537.254	10737
537.321	10861
537.388	11967
537.454	10772
537.521	10402
537.588	10081
537.654	11576
537.721	11428
537.788	12784
537.855	10742
537.921	10749
537.988	10899
538.055	9902
538.121	9540
538.188	9048
538.254	9908
538.321	11871
538.388	10852
538.454	11286
538.521	11941
538.587	11591
538.654	11179
538.720	11122
538.787	10475
538.853	10743
538.920	9105
538.986	9470
539.053	10112
539.119	9583
539.185	9808
539.252	10926
539.318	12278
539.385	11796
539.451	12905
539.517	11579
539.583	12101
539.650	16542
539.716	21358
539.782	10512
539.849	9498
539.915	11361
539.981	10714
540.047	10588
540.114	9777
540.180	10204
540.246	11000
540.312	13025
540.378	12435
540.444	13430
540.510	16999
540.576	23463
540.643	11554
540.709	9977
540.775	10559
540.841	10477
540.907	10601
540.973	11418
541.039	11325
541.105	11112
541.171	10825
541.237	11246
541.303	11474
541.369	11698
541.435	11944
541.500	12277
541.566	10036
541.632	9879
541.698	9982
541.764	11339
541.830	10277
541.896	9561
541.961	9862
542.027	11925
542.093	11906
542.159	11499
542.224	10960
542.290	11210
542.356	11594
542.421	12114
542.487	10324
542.553	10402
542.618	9797
542.684	10288
542.750	10306
542.815	10554
542.881	13340
542.947	24094
543.012	15970
543.078	10056
543.143	10241
543.209	11222
543.274	9374
543.340	10584
543.405	15547
543.471	15973
543.536	10227
543.602	11486
543.667	10619
543.732	10777
543.798	10305
543.863	10427
543.928	10860
543.994	10741
544.059	10971
544.124	11745
544.190	10720
544.255	11562
544.320	11494
544.386	11459
544.451	12706
544.516	12659
544.581	13697
544.646	20723
544.712	19656
544.777	12472
544.842	11907
544.907	11850
544.972	12219
545.037	12646
545.102	14106
545.168	12245
545.233	14067
545.298	13057
545.363	14709
545.428	14349
545.493	17596
545.558	21812
545.623	15475
545.688	13408
545.753	14181
545.818	15198
545.883	16100
545.947	16768
546.012	17358
546.077	17580
546.142	18423
546.207	18650
546.272	20052
546.337	20631
546.401	21929
546.466	21932
546.531	22018
546.596	23555
546.661	24779
546.725	26576
546.790	26870
546.855	30109
546.919	32973
546.984	35666
547.049	40406
547.113	46615
547.178	50647
547.243	57392
547.307	66602
547.372	72396
547.436	72138
547.501	78241
547.565	80885
547.630	73495
547.695	70444
547.759	72287
547.823	73499
547.888	74493
547.952	77013
548.017	81005
548.081	84787
548.146	80103
548.210	82913
548.274	90073
548.339	84635
548.403	77719
548.468	74341
548.532	75505
548.596	76023
548.660	76077
548.725	85485
548.789	90378
548.853	86352
548.917	82228
548.982	80147
549.046	72168
549.110	64477
549.174	70093
549.238	81560
549.303	87842
549.367	89418
549.431	83331
549.495	80430
549.559	83523
549.623	98096
549.687	102275
549.751	105290
549.815	123443
549.879	121678
549.943	117395
550.007	122434
550.071	119347
550.135	107252
550.199	101964
550.263	100935
550.327	96076
550.391	100289
550.455	113197
550.519	116241
550.582	124591
550.646	142132
550.710	140292
550.774	139751
550.838	141216
550.901	144930
550.965	153362
551.029	158111
551.093	166778
551.156	175395
551.220	188198
551.284	192115
551.347	159366
551.411	151369
551.475	148350
551.538	151611
551.602	139793
551.666	134386
551.729	127769
551.793	125531
551.856	123305
551.920	122917
551.983	120981
552.047	120781
552.110	122412
552.174	125284
552.237	124537
552.301	115998
552.364	110836
552.428	109155
552.491	114001
552.554	115199
552.618	114994
552.681	117141
552.745	112570
552.808	121293
552.871	125902
552.934	118805
552.998	114635
553.061	113044
553.124	108339
553.187	111096
553.251	112578
553.314	114170
553.377	116945
553.440	129576
553.503	156214
553.567	156319
553.630	126333
553.693	122814
553.756	125599
553.819	120726
553.882	117732
553.945	119747
554.008	119820
554.071	121312
554.134	119244
554.197	113655
554.260	113304
554.323	115533
554.386	117563
554.449	120238
554.512	119367
554.575	114363
554.638	113935
554.701	113741
554.764	110910
554.827	108930
554.889	104825
554.952	98890
555.015	97672
555.078	98260
555.141	100479
555.203	98061
555.266	97347
555.329	96122
555.391	92413
555.454	90026
555.517	86886
555.580	84221
555.642	81565
555.705	81483
555.768	80301
555.830	77180
555.893	73871
555.955	72064
556.018	70632
556.080	71286
556.143	72450
556.206	70857
556.268	69997
556.330	68694
556.393	65715
556.455	64223
556.518	63964
556.580	61305
556.643	58260
556.705	57163
556.767	56535
556.830	55507
556.892	55481
556.955	54316
557.017	52442
557.079	51327
557.142	50325
557.204	49491
557.266	50491
557.328	45525
557.391	43063
557.453	41857
557.515	41789
557.577	42769
557.639	41828
557.701	41380
557.764	40013
557.826	40546
557.888	43579
557.950	43854
558.012	48098
558.074	61393
558.136	127313
558.198	201803
558.260	62929
558.322	39909
558.384	39676
558.446	42948
558.508	46058
558.570	53631
558.632	62853
558.694	83816
558.756	137919
558.818	375832
558.880	565669
558.942	193224
559.003	220418
559.065	83745
559.127	48301
559.189	49266
559.251	58380
559.312	87203
559.374	206107
559.436	456228
559.498	153432
559.559	50241
559.621	49357
559.683	59470
559.744	100158
559.806	289569
559.868	280478
559.929	60657
559.991	55760
560.052	96670
560.114	215713
560.176	108321
560.237	143234
560.299	158089
560.360	33393
560.422	22530
560.483	21092
560.545	19450
560.606	19148
560.667	18390
560.729	18490
560.790	16556
560.852	16618
560.913	17058
560.974	16290
561.036	15858
561.097	15780
561.158	16328
561.220	15937
561.281	15065
561.342	15132
561.403	16126
561.465	15925
561.526	19267
561.587	18425
561.648	14712
561.709	14057
561.771	14198
561.832	13952
561.893	13819
561.954	13329
562.015	13966
562.076	12795
562.137	13320
562.198	12353
562.259	13424
562.320	12481
562.381	13546
562.442	13513
562.503	13534
562.564	12754
562.625	11973
562.686	12545
562.747	11231
562.808	13063
562.869	12643
562.930	12134
562.991	11719
563.051	11407
563.112	11771
563.173	11575
563.234	11036
563.294	11560
563.355	10508
563.416	11577
563.477	10205
563.537	10706
563.598	12285
563.659	11684
563.720	10827
563.780	10838
563.841	10935
563.901	10545
563.962	10338
564.023	9646
564.083	10897
564.144	10333
564.204	10336
564.265	10422
564.325	10638
564.386	11561
564.446	10439
564.507	9919
564.567	9737
564.628	10320
564.688	10495
564.749	10212
564.809	10157
564.869	10747
564.930	10382
564.990	9976
565.050	9551
565.111	9680
565.171	9239
565.231	9851
565.292	11874
565.352	9174
565.412	10798
565.472	10586
565.532	10414
565.593	10642
565.653	9235
565.713	10254
565.773	10377
565.833	10342
565.893	11634
565.953	10678
566.013	10720
566.074	9644
566.134	10093
566.194	10261
566.254	10542
566.314	9602
566.374	9016
566.434	9097
566.494	10331
566.554	9405
566.614	10342
566.673	10122
566.733	10255
566.793	9949
566.853	10800
566.913	10295
566.973	11247
567.033	11379
567.092	11261
567.152	11336
567.212	11550
567.272	11176
567.331	11518
567.391	11355
567.451	11111
567.511	12550
567.570	12406
567.630	10752
567.690	10121
567.749	11026
567.809	11369
567.868	11416
567.928	11507
567.988	12812
568.047	13410
568.107	15512
568.166	18252
568.226	23657
568.285	28112
568.345	22624
568.404	19222
568.464	16982
568.523	17433
568.582	18072
568.642	20096
568.701	23598
568.761	31179
568.820	44565
568.879	38227
568.939	26672
568.998	20649
569.057	17201
569.116	15769
569.176	13490
569.235	13229
569.294	13008
569.353	12270
569.413	11806
569.472	10792
569.531	10798
569.590	9908
569.649	11059
569.708	10281
569.767	10403
569.827	10567
569.886	9831
569.945	10194
570.004	10416
570.063	9747
570.122	9964
570.181	10257
570.240	10448
570.299	11254
570.358	11559
570.417	10065
570.475	9972
570.534	9706
570.593	10558
570.652	11144
570.711	10776
570.770	9360
570.829	10193
570.887	9530
570.946	11166
571.005	10147
571.064	11708
571.122	10788
571.181	11003
571.240	9957
571.299	10168
571.357	9254
571.416	9829
571.475	10403
571.533	10868
571.592	10548
571.650	10151
571.709	10225
571.768	11377
571.826	11459
571.885	10852
571.943	10924
572.002	9743
572.060	9828
572.119	9120
572.177	10004
572.236	9975
572.294	10088
572.352	10369
572.411	10832
572.469	9511
572.528	10371
572.586	9321
572.644	9017
572.703	9865
572.761	9337
572.819	9799
572.877	8565
572.936	8647
572.994	9401
573.052	8578
573.110	8932
573.169	8904
573.227	8665
573.285	8963
573.343	8702
573.401	8423
573.459	9357
573.517	9250
573.576	8960
573.634	8722
573.692	8403
573.750	9180
573.808	8550
573.866	8672
573.924	8634
573.982	8665
574.040	8744
574.098	9051
574.155	8728
574.213	7629
574.271	7592
574.329	9270
574.387	8197
574.445	7954
574.503	7495
574.560	7794
574.618	7160
574.676	7341
574.734	7298
574.792	8165
574.849	7813
574.907	6908
574.965	7499
575.022	6637
575.080	7896
575.138	7844
575.195	7130
575.253	6586
575.311	7504
575.368	7498
575.426	7185
575.483	7000
575.541	7383
575.598	7455
575.656	6444
575.713	6721
575.771	6891
575.828	7138
575.886	6272
575.943	7529
576.001	7280
576.058	6362
576.115	6672
576.173	6747
576.230	7042
576.287	7987
576.345	6528
576.402	6184
576.459	7357
576.517	6633
576.574	6748
576.631	6523
576.688	5815
576.746	5897
576.803	7309
576.860	5891
576.917	5994
576.974	6585
577.031	6882
577.089	7365
577.146	6001
577.203	6529
577.260	7200
577.317	6763
577.374	5677
577.431	6552
577.488	6410
577.545	6248
577.602	6551
577.659	6753
577.716	7840
577.773	7820
577.830	6582
577.886	6999
577.943	5852
578.000	6636
578.057	5862
578.114	6951
578.171	6769
578.227	7769
578.284	6649
578.341	7398
578.398	5930
578.454	6970
578.511	7469
578.568	6931
578.625	6922
578.681	6763
578.738	6433
578.794	5916
578.851	6591
578.908	6842
578.964	7694
579.021	8208
579.077	7167
579.134	6962
579.190	6832
579.247	6433
579.303	6751
579.360	6496
579.416	7453
579.473	6386
579.529	6174
579.586	6126
579.642	6755
579.698	7406
579.755	6883
579.811	6614
579.867	7402
579.924	6781
579.980	6910
580.036	7951
580.093	8796
580.149	9454
580.205	9236
580.261	7698
580.317	8065
580.374	7377
580.430	7604
580.486	8475
580.542	6877
580.598	8243
580.619	8172
580.654	8049
580.692	7830
580.710	7724
580.765	7799
580.767	7800
580.823	8654
580.838	8494
580.879	8079
580.911	8068
580.935	8054
580.984	7848
580.991	7822
581.047	8745
581.057	8716
581.103	8551
581.130	8357
581.159	8165
581.203	8666
581.215	8788
581.270	8063
581.276	8071
581.326	8175
581.349	8195
581.382	8179
581.422	8803
581.438	9072
581.494	8109
581.494	8119
581.550	8683
581.567	8546
581.606	8217
581.640	8232
581.661	8290
581.713	8873
581.717	8911
581.773	8950
581.786	8881
581.829	8593
581.859	9100
581.885	9559
581.932	9684
581.940	9701
581.996	9168
582.004	9306
582.052	10000
582.077	9734
582.107	9459
582.150	9641
582.163	9655
582.219	9902
582.223	9931
582.274	10342
582.296	9966
582.330	9441
582.368	10229
582.386	10531
582.441	10339
582.441	10336
582.497	11015
582.514	10959
582.552	10807
582.587	10906
582.608	11006
582.659	11002
582.663	10976
582.719	11159
582.732	11126
582.774	11205
582.805	11281
582.830	11299
582.877	11065
582.885	11038
582.941	12188
582.950	12334
582.996	13195
583.023	13776
583.052	14443
583.095	14398
583.107	14306
583.162	14721
583.168	14675
583.218	14278
583.240	14182
583.273	13816
583.313	13387
583.328	13245
583.384	12585
583.385	12562
583.439	11914
583.458	12234
583.494	13077
583.531	13256
583.549	13303
583.603	13182
583.605	13180
583.660	12967
583.676	13031
583.715	13173
583.748	12841
583.770	12662
583.820	13193
583.825	13237
583.881	12914
583.893	13098
583.936	13928
583.965	14096
583.991	14200
584.038	14191
584.046	14206
584.101	14553
584.110	14535
584.156	14272
584.183	14297
584.211	14516
584.255	14574
584.266	14570
584.321	15263
584.328	15226
584.376	15273
584.400	15470
584.431	15516
584.472	15912
584.486	16104
584.541	16434
584.545	16452
584.596	17253
584.617	17214
584.651	16885
584.689	17098
584.706	17401
584.761	18217
584.762	18211
584.816	19209
584.834	19461
584.871	19773
584.906	19651
584.926	19770
584.978	20595
584.980	20643
585.035	21561
585.051	21763
585.090	22755
585.123	23652
585.145	24422
585.195	25898
585.200	26112
585.254	29265
585.267	30251
585.309	34389
585.340	37634
585.364	40459
585.412	46229
585.419	47053
585.473	55081
585.484	57247
585.528	70642
585.556	81794
585.583	101607
585.628	150292
585.637	172846
585.692	355201
585.700	379126
585.747	573779
585.772	599510
585.801	441111
585.845	259549
585.856	224856
585.910	89074
585.917	73164
585.965	54772
585.989	45783
586.019	41991
586.061	37680
586.074	37190
586.128	34728
586.133	34470
586.183	33363
586.205	32825
586.237	32362
586.277	31999
586.292	32117
586.346	31572
586.349	31499
586.401	31295
586.421	31203
586.455	31303
586.493	31674
586.509	32181
586.564	33400
586.565	33382
586.618	36685
586.637	37495
586.672	39237
586.709	41151
586.727	42329
586.781	45128
586.781	45219
586.835	42662
586.853	41970
586.889	38473
586.925	35442
586.944	35298
586.996	35097
586.998	35180
587.052	35381
587.068	35288
587.106	36158
587.140	37121
587.161	37499
587.212	37368
587.215	37478
587.269	38381
587.284	38638
587.323	39887
587.356	40778
587.377	41539
587.427	42566
587.431	42718
587.485	43976
587.499	44130
587.539	45464
587.571	46840
587.593	48186
587.643	50156
587.648	50427
587.702	51903
587.715	52229
587.755	54373
587.786	55769
587.810	56897
587.858	59055
587.864	59536
587.917	62907
587.930	63505
587.971	66531
588.001	68437
588.025	70591
588.073	74015
588.079	74767
588.133	81293
588.145	82441
588.187	88320
588.217	92355
588.241	97397
588.288	106877
588.295	108746
588.348	122591
588.360	125421
588.402	139337
588.431	148818
588.456	159258
588.503	179640
588.510	184028
588.564	218780
588.575	225854
588.617	264418
588.646	291645
588.671	327265
588.718	397888
588.725	416658
588.778	565361
588.789	597001
588.832	816473
588.861	968294
588.886	1118731
588.932	1365638
588.939	1359435
588.993	1244041
589.004	1223308
589.047	1303080
589.075	1321657
589.100	1206121
589.147	984807
589.154	949511
589.207	663472
589.218	603876
589.261	522504
589.290	467614
589.314	468701
589.361	472918
589.368	486664
589.421	599880
589.433	625093
589.475	846607
589.504	999159
589.528	1123593
589.576	1319972
589.582	1316214
589.635	1240388
589.647	1213434
589.689	1005948
589.718	860376
589.742	717249
589.790	431140
589.795	419477
589.849	299038
589.861	270636
589.902	231907
589.932	201898
589.955	188471
590.004	158784
590.009	157544
590.062	138915
590.075	133866
590.115	124451
590.146	116456
590.168	113048
590.218	104175
590.222	104090
590.275	98638
590.289	96913
590.328	94165
590.360	91262
590.381	90359
590.431	87494
590.435	87554
590.488	83149
590.503	81698
590.541	80907
590.574	79689
590.594	79427
590.645	77962
590.647	78227
590.700	77896
590.716	77608
590.753	77366
590.787	76682
590.806	77033
590.859	76790
590.859	77040
590.912	75991
590.930	75393
590.965	75861
591.001	75758
591.018	75851
591.071	75375
591.072	75105
591.124	73895
591.143	73161
591.177	73083
591.214	72384
591.230	73021
591.283	74233
591.285	74017
591.336	73697
591.356	73196
591.389	72896
591.427	71918
591.442	71820
591.495	70495
591.498	70151
591.547	70076
591.569	69637
591.600	70827
591.640	71817
591.653	71983
591.706	71545
591.711	71243
591.759	72604
591.782	72937
591.811	74451
591.853	75932
591.864	76177
591.917	76040
591.924	75731
591.969	75784
591.995	75391
592.022	75905
592.066	76022
592.075	76463
592.127	77515
592.137	77416
592.180	79609
592.208	80541
592.233	81001
592.279	81053
592.285	81409
592.338	81860
592.350	81661
592.390	81996
592.421	81705
592.443	82248
592.491	82502
592.495	82969
592.548	85174
592.562	85464
592.600	85183
592.633	84362
592.653	84739
592.704	84426
592.705	84917
592.775	85032
592.846	88271
592.916	89594
592.987	88889
593.058	90145
593.128	89035
593.199	88941
593.270	90637
593.341	90219
593.411	91211
593.482	95047
593.553	97675
593.623	97949
593.694	98990
593.764	103081
593.835	102838
593.906	102380
593.976	104628
594.047	106213
594.117	112001
594.188	113783
594.258	115424
594.329	112154
594.399	115634
594.470	119492
594.540	122133
594.611	125945
594.681	125965
594.751	124459
594.822	126328
594.892	131095
594.963	136374
595.033	138853
595.103	143020
595.174	143695
595.244	149121
595.314	155271
595.384	155865
595.455	157481
595.525	162609
595.595	167208
595.665	171875
595.736	166604
595.806	166777
595.876	172052
595.946	171217
596.016	174309
596.087	182875
596.157	187266
596.227	184871
596.297	190093
596.367	201983
596.437	214387
596.507	220257
596.577	219696
596.647	224243
596.717	230034
596.787	240254
596.857	238746
596.927	239412
596.997	239309
597.067	243662
597.137	249544
597.207	252294
597.277	255042
597.347	249811
597.417	235630
597.487	234985
597.557	239703
597.626	245929
597.696	252602
597.766	251546
597.836	246035
597.906	233249
597.975	221905
598.045	221986
598.115	226532
598.185	239480
598.254	262174
598.324	293438
598.394	303730
598.464	300878
598.533	294772
598.603	287214
598.672	268101
598.742	268869
598.812	272441
598.881	278143
598.951	280647
599.020	283841
599.090	288219
599.159	301887
599.229	294080
599.299	283631
599.368	285727
599.437	295485
599.507	277542
599.576	261037
599.646	261728
599.715	259631
599.785	257405
599.854	252916
599.924	247711
599.993	244594
600.062	248089
600.132	256180
600.201	260812
600.270	289811
600.340	325428
600.409	325754
600.478	321671
600.547	321354
600.617	329863
600.686	269394
600.755	237148
600.824	225664
600.894	218221
600.963	219089
601.032	220754
601.101	216328
601.170	209158
601.239	207479
601.308	208249
601.378	215236
601.447	209837
601.516	212087
601.585	215816
601.654	226537
601.723	227787
601.792	224790
601.861	233181
601.930	245380
601.999	251699
602.068	250684
602.137	255710
602.206	266751
602.275	259063
602.343	259713
602.412	262812
602.481	263555
602.550	266051
602.619	269971
602.688	274208
602.756	276687
602.825	277806
602.894	281768
602.963	287421
603.032	289670
603.100	298615
603.169	290548
603.238	294443
603.307	297628
603.375	293021
603.444	302589
603.513	303806
603.581	300143
603.650	313795
603.719	306422
603.787	291172
603.856	297931
603.924	301598
603.993	309600
604.061	320831
604.130	333691
604.198	343792
604.267	348590
604.335	356048
604.404	359338
604.472	367587
604.541	371310
604.609	373596
604.678	381881
604.746	379628
604.815	393835
604.883	401916
604.951	396626
605.020	397473
605.088	406762
605.156	396983
605.225	400852
605.293	401638
605.361	403724
605.429	405703
605.498	411316
605.566	419985
605.634	428825
605.702	450503
605.771	459067
605.839	471232
605.907	460428
605.975	451230
606.043	442252
606.111	428195
606.180	435740
606.248	439347
606.316	422229
606.384	425888
606.452	426954
606.520	401327
606.588	413146
606.656	416234
606.724	418153
606.792	399325
606.860	370011
606.928	334164
606.996	314572
607.064	301570
607.132	308510
607.200	317092
607.267	339402
607.335	340016
607.403	355951
607.471	351634
607.539	331562
607.607	340800
607.674	311866
607.742	292364
607.810	291508
607.878	292173
607.946	294639
608.013	306089
608.081	319154
608.149	317365
608.216	324324
608.284	339354
608.352	340705
608.419	343184
608.487	336527
608.555	323728
608.622	329970
608.690	340011
608.757	370486
608.825	401417
608.893	391719
608.960	380201
609.028	356296
609.095	348302
609.163	351846
609.230	335763
609.298	290250
609.365	291694
609.432	314275
609.500	336786
609.567	378143
609.635	431183
609.702	480069
609.769	476329
609.837	423184
609.904	321045
609.971	312583
610.039	328340
610.106	369756
610.173	511213
610.241	983102
610.308	1339448
610.375	539446
610.442	363762
610.509	331093
610.577	320222
610.644	326203
610.711	326634
610.778	343426
610.845	349341
610.912	371796
610.980	391325
611.047	403675
611.114	402559
611.181	382783
611.248	373907
611.315	383549
611.382	403111
611.449	415490
611.516	424891
611.583	423103
611.650	420645
611.717	424796
611.784	432475
611.851	439827
611.918	458525
611.984	492363
612.051	581413
612.118	808961
612.185	1468672
612.252	2048774
612.319	947283
612.386	595438
612.452	539558
612.519	494376
612.586	477080
612.653	475418
612.719	487361
612.786	494262
612.853	462751
612.919	432725
612.986	443557
613.053	429860
613.120	408002
613.186	379841
613.253	377857
613.319	376730
613.386	383524
613.453	385038
613.519	393369
613.586	387024
613.652	391746
613.719	393527
613.785	388471
613.852	395082
613.918	395933
613.985	392791
614.051	407169
614.118	423396
614.184	432362
614.250	394536
614.317	400878
614.383	396930
614.449	399196
614.516	399515
614.582	400088
614.648	399624
614.715	392734
614.781	390998
614.847	378016
614.914	384117
614.980	375190
615.046	369758
615.112	376221
615.179	386470
615.245	389098
615.311	389318
615.377	390187
615.443	409898
615.509	400632
615.575	407587
615.642	410356
615.708	408441
615.774	424501
615.840	444808
615.906	463625
615.972	501551
616.038	621521
616.104	932004
616.170	1628280
616.236	2340906
616.302	1308093
616.368	760487
616.434	620027
616.500	504468
616.565	494739
616.631	579688
616.697	611843
616.763	529737
616.829	606516
616.895	947630
616.961	1321831
617.026	904180
617.092	501451
617.158	427713
617.224	410565
617.289	387840
617.355	361833
617.421	350868
617.487	350838
617.552	339661
617.618	325182
617.684	328727
617.749	330004
617.815	323057
617.880	311744
617.946	308797
618.012	311765
618.077	322145
618.143	316880
618.208	304384
618.274	320567
618.339	343187
618.405	308873
618.470	276012
618.536	281736
618.601	276990
618.667	268568
618.732	247901
618.798	240993
618.863	238303
618.928	235221
618.994	236486
619.059	235527
619.124	242027
619.190	242842
619.255	238235
619.320	236048
619.386	236731
619.451	235921
619.516	232625
619.581	228530
619.647	234095
619.712	242079
619.777	231243
619.842	228582
619.907	232269
619.972	235378
620.038	239715
620.103	231425
620.168	230393
620.233	232274
620.298	234407
620.363	234803
620.428	239857
620.493	245949
620.558	252604
620.623	251943
620.688	258086
620.753	251440
620.818	257969
620.883	261063
620.948	259583
621.013	256408
621.078	254224
621.143	252625
621.207	258961
621.272	255650
621.337	251872
621.402	243810
621.467	244499
621.532	241841
621.596	245749
621.661	239750
621.726	233508
621.791	236609
621.855	239669
621.920	237875
621.985	238031
622.049	242723
622.114	243125
622.179	246243
622.243	248594
622.308	256566
622.373	264765
622.437	270278
622.502	255673
622.566	249097
622.631	248679
622.695	251327
622.760	253151
622.824	248598
622.889	251021
622.953	249524
623.018	258637
623.082	277312
623.147	267469
623.211	261969
623.276	258265
623.340	256068
623.404	243998
623.469	242767
623.533	244380
623.597	245465
623.662	237651
623.726	235368
623.790	215386
623.854	205719
623.919	206041
623.983	208223
624.047	212537
624.111	214643
624.176	218698
624.240	219074
624.304	226388
624.368	223516
624.432	216877
624.496	219992
624.560	228741
624.625	239313
624.689	234723
624.753	240634
624.817	245309
624.881	228729
624.945	222776
625.009	200764
625.073	203704
625.137	208063
625.201	217455
625.265	225041
625.329	215653
625.393	210818
625.456	214328
625.520	218209
625.584	221183
625.648	228490
625.712	233721
625.776	245677
625.839	247255
625.903	221483
625.967	179441
626.031	182315
626.095	205527
626.158	229622
626.222	184942
626.286	156545
626.349	150604
626.413	142508
626.477	136199
626.540	137292
626.604	138199
626.668	135536
626.731	134108
626.795	133222
626.858	134389
626.922	133921
626.986	131741
627.049	129117
627.113	134986
627.176	135029
627.240	129515
627.303	127451
627.366	129264
627.430	127561
627.493	130308
627.557	125306
627.620	125169
627.684	128655
627.747	133362
627.810	131557
627.874	115706
627.937	108453
628.000	109887
628.064	113030
628.127	102386
628.190	95172
628.253	94377
628.317	92170
628.380	87525
628.443	84613
628.506	84571
628.569	82999
628.632	77622
628.696	76316
628.759	77257
628.822	75315
628.885	72207
628.948	71697
629.011	70394
629.074	67618
629.137	67510
629.200	65683
629.263	64319
629.326	64032
629.389	63048
629.452	63921
629.515	62339
629.578	61882
629.641	62421
629.704	62539
629.767	63117
629.830	61045
629.892	58115
629.955	58517
630.018	59627
630.081	59862
630.144	60194
630.207	61052
630.269	58537
630.332	58737
630.395	56433
630.458	56184
630.520	54757
630.583	56034
630.646	53487
630.708	54183
630.771	56017
630.834	56901
630.896	58623
630.959	57059
631.021	56508
631.084	55787
631.146	55307
631.209	57239
631.272	56848
631.334	57317
631.397	58484
631.459	57954
631.522	59333
631.584	60188
631.646	62393
631.709	65304
631.771	67807
631.834	68096
631.896	62666
631.958	59756
632.021	59081
632.083	56543
632.145	55261
632.208	54325
632.270	54298
632.332	54387
632.395	53531
632.457	54109
632.519	54104
632.581	53182
632.643	52767
632.706	54157
632.768	51755
632.830	51361
632.892	52412
632.954	53347
633.016	55291
633.078	54042
633.141	53721
633.203	53526
633.265	53740
633.327	52356
633.389	53417
633.451	53478
633.513	53989
633.575	54763
633.637	55629
633.698	55309
633.760	55908
633.822	57378
633.884	58073
633.946	59910
634.008	62304
634.070	62718
634.132	66663
634.193	71671
634.255	72781
634.317	76371
634.379	76268
634.441	72793
634.502	68002
634.564	61252
634.626	57412
634.687	53960
634.749	53269
634.811	52067
634.873	51155
634.934	51245
634.996	51125
635.057	51081
635.119	52127
635.181	53320
635.242	53176
635.304	52123
635.365	54274
635.427	51982
635.488	52293
635.550	51722
635.611	51811
635.673	52453
635.734	55377
635.796	56391
635.857	59901
635.918	64615
635.980	69487
636.041	72299
636.102	77029
636.164	80234
636.225	77891
636.286	73769
636.348	65268
636.409	59113
636.470	54842
636.531	52626
636.593	52413
636.654	50097
636.715	48844
636.776	46367
636.838	47496
636.899	46055
636.960	44637
637.021	45317
637.082	44317
637.143	43773
637.204	42042
637.265	42241
637.326	42718
637.387	42379
637.448	44014
637.509	42734
637.570	42568
637.631	42959
637.692	42048
637.753	40497
637.814	39891
637.875	40039
637.936	40364
637.997	40306
638.058	41466
638.119	41215
638.179	39085
638.240	39400
638.301	39266
638.362	38638
638.423	38490
638.483	37793
638.544	37931
638.605	36879
638.666	37621
638.726	37756
638.787	37273
638.848	37291
638.908	37997
638.969	36186
639.030	35284
639.090	36062
639.151	34896
639.211	35458
639.272	35707
639.332	38590
639.393	40377
639.453	37666
639.514	40631
639.574	38445
639.635	33827
639.695	33394
639.756	33164
639.816	33360
639.877	32747
639.937	34818
639.997	37698
640.058	35418
640.118	33614
640.178	32179
640.239	32439
640.299	32470
640.359	33461
640.420	34428
640.480	37182
640.540	39559
640.600	44947
640.661	42337
640.721	39673
640.781	43450
640.841	47307
640.901	40669
640.961	33885
641.021	33650
641.082	35967
641.142	36898
641.202	35399
641.262	31335
641.322	32244
641.382	31018
641.442	30924
641.502	29152
641.562	29333
641.622	31813
641.682	33106
641.742	35902
641.802	38540
641.861	32645
641.921	31499
641.981	29118
642.041	29620
642.101	29638
642.161	29650
642.221	28659
642.280	28881
642.340	29692
642.400	29258
642.460	29926
642.519	30581
642.579	30021
642.639	31546
642.698	28278
642.758	32023
642.818	30643
642.877	30953
642.937	30166
642.997	30310
643.056	31568
643.116	31551
643.175	30294
643.235	30887
643.294	32529
643.354	33067
643.414	33882
643.473	38636
643.532	42650
643.592	52693
643.651	68829
643.711	105815
643.770	180586
643.830	338909
643.889	826060
643.948	843160
644.008	183616
644.067	72202
644.126	52136
644.186	42427
644.245	37158
644.304	33649
644.363	31598
644.423	31895
644.482	29901
644.541	31305
644.600	32755
644.659	37669
644.719	41822
644.778	55799
644.837	81636
644.896	141887
644.955	319520
645.014	415395
645.073	87856
645.132	43956
645.191	37772
645.250	34196
645.309	33700
645.368	35968
645.427	41293
645.486	55395
645.545	113915
645.604	106891
645.663	35522
645.722	31211
645.781	31741
645.840	33989
645.898	38199
645.957	46956
646.016	63216
646.075	99218
646.134	168444
646.192	323773
646.251	796532
646.310	548921
646.369	108828
646.427	58014
646.486	51164
646.545	37258
646.603	32755
646.662	30468
646.721	27802
646.779	29097
646.838	28128
646.896	32222
646.955	38548
647.014	54304
647.072	87935
647.131	186809
647.189	343797
647.248	79221
647.306	30232
647.365	26647
647.423	23713
647.481	22819
647.540	21775
647.598	22945
647.657	22448
647.715	22174
647.773	21938
647.832	21054
647.890	19334
647.948	19550
648.007	19975
648.065	18266
648.123	18611
648.181	19396
648.240	18994
648.298	21268
648.356	18864
648.414	18469
648.472	18400
648.531	18204
648.589	18020
648.647	17422
648.705	17117
648.763	17805
648.821	17595
648.879	18476
648.937	19170
648.995	22441
649.053	25442
649.111	34092
649.169	49209
649.227	81410
649.285	144692
649.343	333132
649.401	608454
649.459	152499
649.516	47737
649.574	32843
649.632	31255
649.690	40899
649.748	38997
649.806	42446
649.863	70928
649.921	129790
649.979	282848
650.037	85665
650.094	23428
650.152	18943
650.210	16574
650.268	17392
650.325	17273
650.383	21096
650.440	19983
650.498	14744
650.556	13105
650.613	13689
650.671	13537
650.728	13189
650.786	14454
650.843	15979
650.901	19319
650.958	13834
651.016	12643
651.073	12539
651.131	12560
651.188	12091
651.246	11275
651.303	10711
651.360	10679
651.418	10943
651.475	11338
651.532	10584
651.590	11453
651.647	11294
651.704	11082
651.762	10847
651.819	10730
651.876	10278
651.933	10556
651.990	10036
652.048	10742
652.105	9842
652.162	9845
652.219	10310
652.276	10759
652.333	9394
652.390	9903
652.448	10110
652.505	9985
652.562	9799
652.619	9767
652.676	11194
652.733	13854
652.790	11319
652.847	9337
652.904	9036
652.961	8855
653.017	8856
653.074	9171
653.131	9300
653.188	8620
653.245	9072
653.302	9373
653.359	8988
653.415	9662
653.472	9118
653.529	8262
653.586	8677
653.642	9382
653.699	9759
653.756	9410
653.813	9214
653.869	9902
653.926	9191
653.983	8402
654.039	9582
654.096	8942
654.152	9432
654.209	8279
654.266	8525
654.322	8232
654.379	8569
654.435	8771
654.492	9177
654.548	8556
654.605	11224
654.661	11599
654.717	9259
654.774	8657
654.830	8986
654.887	9359
654.943	8869
655.000	10280
655.056	11262
655.112	8550
655.168	8699
655.225	8473
655.281	9268
655.337	8378
655.394	9884
655.450	10064
655.506	9187
655.562	8655
655.618	10070
655.675	8421
655.731	7981
655.787	7270
655.843	7499
655.899	7851
655.955	7531
656.011	8772
656.067	7830
656.123	8755
656.179	8470
656.235	7972
656.291	8501
656.347	8546
656.403	7845
656.459	8216
656.515	8900
656.571	8270
656.627	8677
656.683	7261
656.739	8375
656.795	6772
656.850	8916
656.906	8249
656.962	8840
657.018	9601
657.074	9906
657.129	11887
657.185	16247
657.241	25864
657.297	48399
657.352	16057
657.408	9214
657.464	9179
657.519	7724
657.575	7277
657.630	7759
657.686	6758
657.742	6700
657.797	7468
657.853	6995
657.908	8020
657.964	7247
658.019	7238
658.075	8131
658.130	7905
658.186	7222
658.241	7208
658.297	6939
658.352	6586
658.407	7584
658.463	6917
658.518	6630
658.573	7185
658.629	7926
658.684	6427
658.739	7213
658.795	6480
658.850	7492
658.905	7207
658.960	8369
659.016	6660
659.071	6351
659.126	7031
659.181	6551
659.236	7892
659.291	8959
659.346	7925
659.401	7632
659.457	9036
659.512	8784
659.567	9877
659.622	7356
659.677	6253
659.732	6472
659.787	6978
659.842	7221
659.897	6684
659.952	7290
660.007	7633
660.061	7035
660.116	6495
660.171	6115
660.226	6211
660.281	7126
660.336	6067
660.391	6785
660.445	6724
660.500	6976
660.555	6141
660.610	6390
660.664	6802
660.719	6543
660.774	6998
660.828	6896
660.883	6430
660.938	6703
660.992	6109
661.047	6136
661.101	5773
661.156	6030
661.211	6615
661.265	6165
661.320	6442
661.374	6966
661.429	6153
661.483	6917
661.538	6543
661.592	6672
661.647	6693
661.701	8407
661.755	9683
661.810	6952
661.864	5341
661.919	6510
661.973	6079
662.027	7068
662.081	5370
662.136	5707
662.190	5628
662.244	6590
662.299	5953
662.353	6451
662.407	5966
662.461	5938
662.515	6277
662.569	5211
662.624	5495
662.678	5953
662.732	5694
662.786	6565
662.840	5787
662.894	6026
662.948	5304
663.002	5881
663.056	5899
663.110	6353
663.164	5578
663.218	6879
663.272	6101
663.326	6064
663.380	5575
663.434	5362
663.488	4551
663.542	6095
663.595	6191
663.649	6249
663.703	5979
663.757	6837
663.811	5492
663.864	5668
663.918	6232
663.972	5920
664.026	6157
664.079	5784
664.133	5708
664.187	5916
664.240	6078
664.294	6057
664.348	6798
664.401	6178
664.455	6519
664.508	5308
664.562	5793
664.615	5723
664.669	5488
664.722	6218
664.776	4832
664.829	5284
664.883	6085
664.936	4738
664.990	5826
665.043	6235
665.097	5252
665.150	6348
665.203	6224
665.257	5644
665.310	5979
665.363	5767
665.417	6027
665.470	6381
665.523	5937
665.576	5676
665.630	6151
665.683	5586
665.736	5878
665.789	5868
665.842	5663
665.895	6029
665.949	6424
666.002	5768
666.055	5836
666.108	5702
666.161	6375
666.214	6466
666.267	7105
666.320	5622
666.373	6378
666.426	6692
666.479	6522
666.532	6675
666.585	6600
666.638	7108
666.691	5901
666.744	7375
666.796	6741
666.849	6697
666.902	6767
666.955	6869
667.008	5794
667.060	6563
667.113	5637
667.166	6205
667.219	6192
667.271	6296
667.324	6764
667.377	5284
667.430	7086
667.482	6263
667.535	7905
667.587	6997
667.640	6589
667.693	6277
667.745	6603
667.798	8332
667.850	6717
667.903	6065
667.955	6236
668.008	6018
668.060	6351
668.113	5962
668.165	6088
668.218	6926
668.270	7009
668.322	5535
668.375	6196
668.427	6779
668.479	5518
668.532	6966
668.584	5843
668.636	5975
668.689	6192
668.741	6321
668.793	6071
668.845	5754
668.898	6079
668.950	6627
669.002	5829
669.054	5316
669.106	5765
669.158	6699
669.211	6249
669.263	5682
669.315	6005
669.367	6627
669.419	5776
669.471	6605
669.523	5969
669.575	6318
669.627	6038
669.679	6028
669.731	5413
669.783	6205
669.835	5717
669.886	4908
669.938	5069
669.990	5554
670.042	5375
670.094	5758
670.146	5018
670.197	6147
670.249	6001
670.301	6564
670.353	7284
670.404	8379
670.456	9051
670.508	12248
670.560	18083
670.611	29950
670.663	48271
670.715	80536
670.766	212162
670.818	223449
670.869	41258
670.921	13207
670.972	9854
671.024	9117
671.075	7059
671.127	6467
671.178	6064
671.230	7849
671.281	7797
671.333	7662
671.384	8536
671.436	10084
671.487	13368
671.538	16952
671.590	24696
671.641	39850
671.692	62239
671.744	113517
671.795	185382
671.846	104701
671.897	39723
671.949	22204
672.000	14755
672.051	11521
672.102	9002
672.153	7765
672.204	7673
672.256	6847
672.307	6128
672.358	5402
672.409	5869
672.460	5920
672.511	4524
672.562	4839
672.613	3983
672.664	4732
672.715	5115
672.766	4882
672.817	4518
672.868	4633
672.919	3991
672.970	4040
673.021	4099
673.071	4308
673.122	4057
673.173	3770
673.224	3569
673.275	4528
673.326	3623
673.376	4901
673.427	2910
673.478	4297
673.528	5077
673.579	4058
673.630	3379
673.680	4330
673.731	3664
673.782	4312
673.832	4433
673.883	4001
673.934	3665
673.984	4990
674.035	4058
674.085	4068
674.136	3863
674.186	3411
674.237	4212
674.287	4267
674.338	4310
674.388	4175
674.438	3964
674.489	4796
674.539	5221
674.589	4354
674.640	4327
674.690	4354
674.740	3715
674.791	4909
674.841	4099
674.891	3837
674.942	3524
674.992	3371
675.042	3126
675.092	3539
675.142	3020
675.193	3827
675.243	2550
675.293	3631
675.343	2909
675.393	3704
675.443	4158
675.493	3177
675.543	3414
675.593	4078
675.643	3881
675.693	3362
675.743	4078
675.793	3685
675.843	2634
675.893	3296
675.943	3062
675.993	3328
676.043	2822
676.093	3092
676.142	3516
676.192	2639
676.242	2030
676.292	2911
676.341	3136
676.391	3575
676.441	1949
676.491	2544
676.540	2762
676.590	1958
676.640	3309
676.689	3040
676.739	2529
676.789	2228
676.838	2191
676.888	2606
676.937	2247
676.987	2538
677.037	2692
677.086	2832
677.136	2893
677.185	3008
677.235	2591
677.284	2389
677.333	2337
677.383	3003
677.432	1718
677.482	1899
677.531	2789
677.580	2284
677.630	2748
677.679	2383
677.728	1730
677.778	3086
677.827	2306
677.876	2655
677.925	2196
677.975	2137
678.024	2736
678.073	2035
678.122	2341
678.171	2679
678.220	3574
678.269	3426
678.319	3514
678.368	4190
678.417	3696
678.466	3304
678.515	2784
678.564	2332
678.613	3127
678.662	2290
678.711	2248
678.760	3540
678.809	2197
678.857	2182
678.906	1970
678.955	2785
679.004	2491
679.053	3717
679.102	2586
679.151	2785
679.199	2123
679.248	1407
679.297	1826
679.346	3113
679.394	2094
679.443	2466
679.492	2919
679.540	2684
679.589	2179
679.638	2284
679.686	2214
679.735	2728
679.784	2977
679.832	2895
679.881	3180
679.929	2386
679.978	1779
680.026	2368
680.075	1698
680.123	2415
680.172	1630
680.220	1860
680.268	1557
680.317	2209
680.365	1250
680.414	2496
680.462	1810
680.510	2466
680.559	1915
680.607	2044
680.655	1198
680.703	1997
680.752	1809
680.800	1909
680.848	1926
680.896	1189
680.945	1841
680.993	1721
681.041	1315
681.089	2188
681.137	1785
681.185	1208
681.233	1551
681.258	1447
681.281	1319
681.329	2015
681.377	1879
681.380	1907
681.425	1875
681.473	2169
681.502	2142
681.521	2078
681.569	2086
681.617	2113
681.624	2264
681.665	3001
681.713	2085
681.745	2331
681.761	2409
681.809	2598
681.857	2604
681.867	2766
681.904	3209
681.952	3449
681.989	2916
682.000	2720
682.048	3061
682.096	2304
682.111	2440
682.143	2644
682.191	3487
682.233	3664
682.239	3661
682.286	2842
682.334	3350
682.354	3409
682.382	3430
682.430	3301
682.476	3317
682.477	3292
682.525	2948
682.572	3269
682.598	3072
682.620	2870
682.667	3954
682.715	3539
682.720	3615
682.763	4050
682.810	3133
682.841	3799
682.857	4118
682.905	3588
682.952	3420
682.963	3548
683.000	3830
683.047	3646
683.085	4901
683.095	5233
683.142	3605
683.190	4364
683.206	4280
683.237	4051
683.284	4032
683.328	3627
683.332	3565
683.379	3659
683.426	4252
683.449	4000
683.473	3733
683.521	4627
683.568	4629
683.571	4629
683.615	4333
683.662	5070
683.693	4548
683.709	4244
683.757	5334
683.804	4372
683.814	4431
683.851	4432
683.898	4850
683.936	5027
683.945	5083
683.992	4471
684.039	4772
684.057	4943
684.086	5148
684.133	5330
684.179	4887
684.180	4852
684.227	4758
684.274	5051
684.300	4737
684.321	4492
684.368	5142
684.415	5785
684.422	5681
684.462	4983
684.509	5008
684.543	5284
684.556	5340
684.603	5117
684.649	5345
684.665	5563
684.696	6046
684.743	5644
684.786	5746
684.790	5730
684.837	5660
684.883	6367
684.908	5874
684.930	5466
684.977	6054
685.023	5990
685.029	6094
685.070	6735
685.117	6588
685.150	6655
685.164	6640
685.210	6518
685.257	6514
685.272	6644
685.303	6860
685.350	6796
685.393	6950
685.396	6960
685.443	6655
685.490	6907
685.514	6851
685.536	6710
685.583	7203
685.629	6519
685.636	6489
685.675	6324
685.722	6941
685.757	7121
685.768	7184
685.815	7201
685.861	6553
685.878	6850
685.908	7291
685.954	6680
686.000	7187
686.000	7187
686.047	7499
686.093	7482
686.121	7328
686.139	7327
686.185	7752
686.232	8285
686.242	8265
686.278	7898
686.324	8173
686.363	8154
686.370	8156
686.416	6914
686.463	7806
686.484	7895
686.509	7986
686.555	7513
686.601	7877
686.606	7876
686.647	7964
686.693	8002
686.727	8184
686.739	8229
686.785	8450
686.831	7997
686.848	8067
686.877	8053
686.923	7775
686.969	7403
686.969	7401
687.015	7844
687.061	7992
687.090	8701
687.107	9113
687.153	8767
687.199	8770
687.211	8877
687.245	8991
687.291	8350
687.332	8679
687.336	8712
687.382	8649
687.428	8293
687.453	8608
687.474	8911
687.520	8943
687.565	9130
687.574	9215
687.611	9631
687.657	10036
687.695	9632
687.702	9675
687.748	10841
687.794	12724
687.816	13457
687.839	14334
687.885	14218
687.931	14984
687.937	15090
687.976	13193
688.022	11751
688.058	10363
688.067	10340
688.113	9805
688.158	9497
688.179	9346
688.204	9288
688.249	9388
688.295	9349
688.300	9380
688.340	9836
688.386	9511
688.421	9471
688.431	9449
688.477	9559
688.522	10300
688.542	10279
688.567	10263
688.613	10024
688.658	10398
688.663	10313
688.703	9836
688.749	10822
688.784	10971
688.794	10929
688.839	10852
688.884	10386
688.905	10342
688.930	10471
688.975	10132
689.020	10341
689.026	10307
689.065	10188
689.110	10609
689.146	10802
689.155	10891
689.201	11180
689.246	11542
689.267	11720
689.291	11773
689.336	11276
689.381	11153
689.388	11154
689.426	11131
689.471	10905
689.509	10491
689.516	10451
689.561	10772
689.606	10875
689.630	11024
689.651	11153
689.696	10532
689.741	10495
689.750	10444
689.785	10443
689.830	10395
689.871	10814
689.875	10869
689.920	10564
689.965	10740
689.992	10729
690.010	10808
690.054	10712
690.099	11336
690.112	11418
690.144	11388
690.189	11026
690.233	10604
690.233	10618
690.278	10894
690.323	10980
690.354	11161
690.367	11275
690.412	11374
690.457	11600
690.474	11489
690.501	11180
690.546	11328
690.590	11104
690.595	11057
690.635	11017
690.680	10815
690.716	11227
690.724	11408
690.769	11820
690.813	12411
690.836	12353
690.857	12314
690.902	13035
690.946	13622
690.957	13732
690.991	15353
691.035	17472
691.077	19882
691.080	20193
691.124	25179
691.168	29564
691.198	32222
691.213	30688
691.257	26666
691.301	22611
691.318	21073
691.346	19591
691.390	16734
691.434	14143
691.439	13782
691.478	13054
691.522	12575
691.559	12298
691.567	12353
691.611	12915
691.655	12509
691.680	12583
691.699	12809
691.743	12699
691.787	13466
691.800	13493
691.831	13163
691.875	13069
691.919	12637
691.921	12602
691.964	12724
692.008	12656
692.041	13038
692.052	13137
692.096	12784
692.139	13032
692.162	13014
692.183	13013
692.227	12958
692.271	12572
692.282	12495
692.315	12400
692.359	12808
692.402	12749
692.403	12773
692.447	12514
692.490	12489
692.523	12225
692.534	12202
692.578	12745
692.622	12671
692.643	12684
692.666	12708
692.709	12769
692.753	12612
692.763	12687
692.797	13178
692.840	13225
692.884	13194
692.884	13218
692.928	12997
692.971	12887
693.004	12610
693.015	12629
693.059	12602
693.102	12884
693.124	12828
693.146	12927
693.189	13372
693.233	13381
693.245	13488
693.276	13721
693.320	13474
693.363	13587
693.365	13558
693.407	13833
693.450	14334
693.485	14452
693.493	14555
693.537	15099
693.580	15815
693.605	15943
693.624	16550
693.667	18294
693.710	20122
693.725	20670
693.753	23374
693.797	27638
693.840	32560
693.845	33085
693.883	43289
693.926	53371
693.966	62754
693.970	61894
694.013	51862
694.056	42007
694.086	35089
694.099	33219
694.142	27125
694.185	20761
694.206	17894
694.229	17507
694.272	16474
694.315	15444
694.326	15134
694.358	15101
694.401	15088
694.444	14964
694.446	14934
694.487	14843
694.530	14480
694.566	14350
694.573	14421
694.616	14295
694.659	14412
694.686	14378
694.702	14382
694.745	14562
694.787	14369
694.806	14331
694.830	14282
694.873	14362
694.916	14139
694.926	14024
694.959	14160
695.002	14582
695.044	14919
695.046	14894
695.087	14837
695.130	14788
695.166	14799
695.172	14903
695.215	15316
695.258	15728
695.286	15977
695.301	16080
695.343	16188
695.386	16231
695.406	16321
695.428	16390
695.471	16196
695.514	16138
695.526	16124
695.556	17000
695.599	18093
695.641	19077
695.646	19132
695.684	19561
695.726	20157
695.766	20615
695.769	20610
695.811	19750
695.854	19086
695.886	18395
695.896	18347
695.938	18117
695.981	17665
696.005	17511
696.023	17816
696.065	18273
696.108	18868
696.125	19010
696.150	19543
696.192	20409
696.235	21445
696.245	21594
696.277	21539
696.319	21385
696.361	21451
696.365	21393
696.404	21687
696.446	21880
696.485	22142
696.488	22147
696.530	21491
696.572	20727
696.604	20196
696.614	20289
696.656	20244
696.698	20455
696.724	20455
696.740	20513
696.783	20553
696.825	20703
696.844	20660
696.867	20952
696.909	21427
696.951	21928
696.964	22003
696.992	21927
697.034	21842
697.076	21688
697.083	21616
697.118	21818
697.160	21994
697.202	22139
697.203	22086
697.244	22251
697.286	22440
697.323	22453
697.327	22521
697.369	22791
697.411	22798
697.442	22932
697.453	23013
697.494	22974
697.536	22998
697.562	22941
697.578	22913
697.620	22693
697.661	22366
697.682	22237
697.703	22422
697.744	22537
697.786	22791
697.801	22770
697.828	23184
697.869	23807
697.911	24418
697.921	24520
697.952	24547
697.994	24444
698.035	24324
698.040	24251
698.077	24146
698.118	23946
698.160	23748
698.160	23686
698.201	23985
698.243	24191
698.279	24378
698.284	24508
698.325	25126
698.367	25724
698.399	26110
698.408	26218
698.449	26418
698.491	26639
698.518	26704
698.532	26748
698.573	26661
698.614	26619
698.638	26497
698.656	26687
698.697	27013
698.738	27311
698.757	27380
698.779	27457
698.820	27468
698.862	27494
698.877	27428
698.903	27433
698.944	27335
698.985	27234
698.996	27138
699.026	27229
699.067	27259
699.116	27226
699.235	26923
699.354	26514
699.474	26149
699.593	24832
699.713	25920
699.832	24322
699.951	25516
700.070	26393
700.190	24691
700.309	23930
700.428	23668
700.547	23618
700.667	22362
700.786	23199
700.905	23317
701.024	21372
701.143	23243
701.262	22148
701.381	24297
701.500	23976
701.619	24061
701.738	23484
701.857	23298
701.976	23338
702.095	21896
702.214	23564
702.333	23259
702.452	22938
702.571	23255
702.690	23884
702.809	23068
702.928	23751
703.047	22438
703.165	21436
703.284	22837
703.403	20704
703.522	21172
703.640	20417
703.759	19993
703.878	20994
703.997	21282
704.115	20724
704.234	21606
704.353	20328
704.471	19963
704.590	19848
704.708	19599
704.827	19451
704.946	17940
705.064	18429
705.183	19940
705.301	18504
705.420	20465
705.538	20243
705.656	20119
705.775	18991
705.893	20945
706.012	33957
706.130	29525
706.249	20051
706.367	19002
706.485	18687
706.604	18566
706.722	18588
706.840	19863
706.958	24021
707.077	37188
707.195	21921
707.313	18306
707.431	16441
707.549	16523
707.668	16829
707.786	16316
707.904	17325
708.022	15681
708.140	16852
708.258	16916
708.376	17565
708.494	17001
708.612	16181
708.730	17213
708.848	18603
708.966	17632
709.084	18515
709.202	16986
709.320	17751
709.438	17143
709.556	17080
709.674	16643
709.791	15177
709.909	15786
710.027	16288
710.145	16075
710.263	16152
710.380	15552
710.498	15891
710.616	15665
710.733	14655
710.851	14412
710.969	15393
711.086	15442
711.204	14916
711.322	15091
711.439	15115
711.557	14618
711.674	13635
711.792	14228
711.909	15540
712.027	16277
712.144	16041
712.262	14693
712.379	14005
712.497	14485
712.614	15688
712.732	15777
712.849	14937
712.966	14577
713.084	16157
713.201	16010
713.318	15052
713.436	15958
713.553	15527
713.670	15150
713.787	15525
713.905	16659
714.022	15564
714.139	15995
714.256	17001
714.373	20442
714.490	29435
714.608	52111
714.725	148378
714.842	573262
714.959	309983
715.076	38377
715.193	22578
715.310	19343
715.427	16625
715.544	14332
715.661	14877
715.778	14640
715.895	13748
716.011	15058
716.128	14566
716.245	13927
716.362	13550
716.479	12955
716.596	13369
716.713	13371
716.829	12903
716.946	12569
717.063	12047
717.180	12547
717.296	11501
717.413	11794
717.530	12413
717.646	11742
717.763	11103
717.880	11589
717.996	11397
718.113	10789
718.229	11635
718.346	11444
718.462	10445
718.579	11140
718.695	12443
718.812	12634
718.928	11471
719.045	11886
719.161	10425
719.277	10864
719.394	11559
719.510	11821
719.626	11407
719.743	13139
719.859	16615
719.975	24784
720.092	52803
720.208	216870
720.324	306542
720.440	30513
720.557	14734
720.673	13169
720.789	13591
720.905	14012
721.021	15217
721.137	10572
721.253	9900
721.369	10146
721.486	10240
721.602	10626
721.718	10548
721.834	9484
721.950	9132
722.066	9683
722.181	9026
722.297	9567
722.413	9367
722.529	9358
722.645	10053
722.761	9046
722.877	8767
722.993	9087
723.108	10361
723.224	12394
723.340	10145
723.456	9213
723.571	7985
723.687	8842
723.803	9001
723.918	8902
724.034	9111
724.150	8099
724.265	8881
724.381	8813
724.497	9527
724.612	9450
724.728	8199
724.843	8620
724.959	7819
725.074	8413
725.190	9921
725.305	9322
725.421	7938
725.536	8821
725.651	8334
725.767	8130
725.882	8491
725.997	8087
726.113	8254
726.228	7902
726.343	7277
726.459	7900
726.574	8118
726.689	7921
726.804	7054
726.920	7453
727.035	8287
727.150	8000
727.265	7325
727.380	7622
727.495	8216
727.610	7953
727.725	7764
727.841	8188
727.956	9434
728.071	15929
728.186	10397
728.301	7693
728.416	7651
728.531	7932
728.645	7821
728.760	7202
728.875	7217
728.990	7763
729.105	6465
729.220	7317
729.335	7177
729.449	7858
729.564	7701
729.679	6957
729.794	6921
729.908	8428
730.023	7203
730.138	7523
730.253	6897
730.367	7553
730.482	8034
730.596	7526
730.711	8162
730.826	8676
730.940	12411
731.055	12438
731.169	9083
731.284	8220
731.398	8990
731.513	9021
731.627	9304
731.742	9997
731.856	12525
731.970	13048
732.085	13913
732.199	17701
732.313	25410
732.428	45178
732.542	123773
732.656	324115
732.771	124848
732.885	29501
732.999	19298
733.113	18396
733.227	19060
733.342	17511
733.456	16280
733.570	17417
733.684	14986
733.798	15652
733.912	14211
734.026	15041
734.140	14871
734.254	14934
734.368	14439
734.482	15265
734.596	14505
734.710	13819
734.824	14085
734.938	13116
735.052	13713
735.166	14156
735.280	14623
735.393	13017
735.507	12172
735.621	13033
735.735	13454
735.849	13836
735.962	13431
736.076	12964
736.190	12984
736.303	12397
736.417	13237
736.531	12550
736.644	13236
736.758	11986
736.872	12309
736.985	11389
737.099	12492
737.212	10733
737.326	12181
737.439	10156
737.553	12881
737.666	10576
737.780	11364
737.893	11099
738.007	11295
738.120	11015
738.233	12028
738.347	10927
738.460	10955
738.573	10881
738.687	11825
738.800	11061
738.913	11160
739.026	11947
739.140	11210
739.253	11308
739.366	11196
739.479	10272
739.592	10235
739.705	10739
739.818	10183
739.932	10819
740.045	9571
740.158	10816
740.271	9819
740.384	10603
740.497	9896
740.610	8878
740.723	9650
740.836	9319
740.949	9963
741.062	11016
741.174	10775
741.287	9209
741.400	10092
741.513	9891
741.626	8890
741.739	9997
741.851	8950
741.964	9491
742.077	9488
742.189	9080
742.302	8736
742.415	9503
742.527	8483
742.640	9640
742.753	8527
742.865	8095
742.978	9059
743.090	8204
743.203	7856
743.316	9418
743.428	8230
743.541	8605
743.653	9059
743.766	8269
743.878	8701
743.990	8415
744.103	8290
744.215	8370
744.327	8264
744.440	8854
744.552	9508
744.664	8491
744.777	7964
744.889	8854
745.001	7356
745.113	7913
745.226	8767
745.338	8125
745.450	7648
745.562	8998
745.674	8448
745.786	7126
745.898	9439
746.010	7908
746.122	7922
746.234	7600
746.347	8351
746.459	7619
746.570	6924
746.682	7928
746.794	7704
746.906	8191
747.018	7263
747.130	7674
747.242	8283
747.354	6239
747.466	7224
747.577	7274
747.689	7262
747.801	6954
747.913	6646
748.024	6604
748.136	6166
748.248	7177
748.359	7548
748.471	6959
748.583	7291
748.694	6804
748.806	8202
748.918	7896
749.029	7103
749.141	7030
749.252	7512
749.364	6846
749.475	6846
749.587	7353
749.698	6453
749.809	6579
749.921	6641
750.032	6758
750.144	6308
750.255	7209
750.366	5985
750.478	7403
750.589	5961
750.700	5764
750.811	6439
750.923	6306
751.034	5929
751.145	8205
751.256	7318
751.367	6260
751.479	6016
751.590	5473
751.701	6063
751.812	5234
751.923	5951
752.034	5774
752.145	6644
752.256	6886
752.367	6709
752.478	5054
752.589	6646
752.700	6615
752.811	5776
752.922	6052
753.032	5237
753.143	6444
753.254	5945
753.365	5832
753.476	7026
753.586	5793
753.697	5887
753.808	6462
753.919	6136
754.029	5376
754.140	5976
754.251	6047
754.361	5519
754.472	6156
754.582	5679
754.693	5852
754.804	5738
754.914	6487
755.025	5191
755.135	5527
755.246	6107
755.356	6095
755.466	6677
755.577	4875
755.687	5280
755.798	6062
755.908	5077
756.018	5599
756.129	6122
756.239	6171
756.349	6446
756.460	5696
756.570	6203
756.680	6300
756.790	5364
756.900	6863
757.011	6193
757.121	5994
757.231	5139
757.341	5827
757.451	5522
757.561	5978
757.671	5695
757.781	5905
757.891	6087
758.001	5065
758.111	5036
758.221	5550
758.331	6277
758.441	6696
758.551	5351
758.661	6951
758.771	7056
758.880	5983
758.990	6103
759.100	6065
759.210	5837
759.320	5967
759.429	5786
759.539	6223
759.649	6619
759.758	6841
759.868	8511
759.978	7120
760.087	7943
760.197	7752
760.307	7526
760.416	7269
760.526	7530
760.635	6982
760.745	7799
760.854	7709
760.964	8294
761.073	9391
761.182	9451
761.292	8423
761.401	7211
761.511	8306
761.620	7083
761.729	6585
761.839	7640
761.948	7105
762.057	6695
762.166	6802
762.276	6865
762.385	7186
762.494	6395
762.603	7362
762.712	6409
762.822	7481
762.931	6965
763.040	6923
763.149	7171
763.258	6916
763.367	7583
763.476	7285
763.585	7269
763.694	8744
763.803	8155
763.912	8256
764.021	8623
764.130	8791
764.238	8931
764.347	9615
764.456	10705
764.565	11415
764.674	11405
764.783	11820
764.891	12976
765.000	14086
765.109	14158
765.217	16221
765.326	18626
765.435	21081
765.543	24659
765.652	29900
765.761	37619
765.869	49563
765.978	69228
766.086	103090
766.195	165437
766.303	293174
766.412	516120
766.520	565087
766.629	513594
766.737	378537
766.846	207701
766.954	124913
767.062	86107
767.171	62138
767.279	49562
767.387	37854
767.496	31253
767.604	26628
767.712	23149
767.820	20144
767.928	18607
768.037	17545
768.145	15663
768.253	15629
768.361	14549
768.469	14210
768.577	13935
768.685	14291
768.793	14773
768.901	16899
769.009	17853
769.117	19804
769.225	23851
769.333	30380
769.441	43541
769.549	68516
769.657	119088
769.765	242968
769.873	480862
769.981	473361
770.088	346552
770.196	160868
770.304	86356
770.412	56933
770.519	41036
770.627	30959
770.735	24531
770.842	20242
770.950	18697
771.058	16989
771.165	16164
771.273	15535
771.380	13533
771.488	13408
771.595	15445
771.703	15780
771.810	13786
771.918	12118
772.025	12807
772.133	14694
772.240	15025
772.348	14512
772.455	15179
772.562	14405
772.670	12902
772.777	12530
772.884	12591
772.991	12570
773.099	12329
773.206	13235
773.313	12267
773.420	11643
773.528	11789
773.635	11523
773.742	11343
773.849	11379
773.956	10981
774.063	11306
774.170	10393
774.277	11116
774.384	11342
774.491	10987
774.598	10522
774.705	10836
774.812	10522
774.919	10527
775.026	9631
775.133	10274
775.239	10375
775.346	9273
775.453	9906
775.560	9301
775.667	8828
775.773	10291
775.880	9669
775.987	9707
776.093	9251
776.200	9617
776.307	10055
776.413	7696
776.520	8665
776.627	10158
776.733	7775
776.840	8033
776.946	8569
777.053	10367
777.159	8706
777.266	8712
777.372	8086
777.478	8645
777.585	9207
777.691	8779
777.798	7923
777.904	8561
778.010	8456
778.117	9098
778.223	8539
778.329	7608
778.435	7999
778.542	7879
778.648	8931
778.754	7246
778.860	7865
778.966	8150
779.072	7634
779.178	7313
779.284	7194
779.391	6561
779.497	6842
779.603	8390
779.708	8286
779.815	10562
779.920	16314
780.026	49750
780.132	68717
780.238	12345
780.344	7490
780.450	6462
780.556	7863
780.661	5781
780.767	6456
780.873	6943
780.979	5718
781.085	6212
781.190	7659
781.296	5962
781.402	6095
781.507	6237
781.613	6721
781.719	5008
781.824	6230
781.930	7455
782.035	5688
782.141	6193
782.246	7019
782.352	5975
782.457	5262
782.563	6424
782.668	5707
782.773	6204
782.879	5031
782.984	5114
783.090	6037
783.195	5765
783.300	6376
783.405	6001
783.511	4669
783.616	5337
783.721	6616
783.826	6185
783.932	4768
784.037	4976
784.142	5048
784.247	5359
784.352	4843
784.457	5236
784.562	3913
784.667	5702
784.772	6372
784.877	4774
784.982	4213
785.087	5329
785.192	5100
785.297	3994
785.402	4724
785.507	6151
785.611	4939
785.716	4249
785.821	3881
785.926	4678
786.031	5022
786.135	4485
786.240	4710
786.345	4617
786.450	4558
786.554	3620
786.659	4306
786.763	4841
786.868	4145
786.973	4276
787.077	3985
787.182	4196
787.286	4196
787.391	4884
787.495	4347
787.600	3344
787.704	3182
787.809	5364
787.913	4844
788.017	4930
788.122	4267
788.226	4464
788.330	4106
788.435	4091
788.539	4459
788.643	4810
788.747	3368
788.852	3781
788.956	3394
789.060	4582
789.164	4704
789.268	4045
789.372	3687
789.476	3642
789.580	3605
789.684	2752
789.788	3436
789.892	3897
789.996	4031
790.100	2916
790.204	3405
790.308	4359
790.412	4042
790.516	3645
790.620	3565
790.724	3507
790.828	4542
790.931	4355
791.035	3014
791.139	3177
791.242	3775
791.346	3767
791.450	3892
791.554	4346
791.657	3054
791.761	2825
791.864	3431
791.968	3636
792.072	4379
792.175	3599
792.279	2908
792.382	3467
792.486	3661
792.589	3097
792.693	3391
792.796	3067
792.899	3495
793.003	3476
793.106	2848
793.209	3321
793.313	3410
793.416	2180
793.519	2337
793.623	3136
793.726	4308
793.829	3858
793.932	3058
794.035	2108
794.138	3458
794.242	3493
794.345	3933
794.448	2651
794.551	4435
794.654	8343
794.757	23187
794.860	37422
794.963	6497
795.066	3639
795.169	3747
795.272	2322
795.375	3112
795.477	2909
795.580	3417
795.683	1979
795.786	2429
795.889	2559
795.991	3611
796.094	2932
796.197	2893
796.300	2745
796.402	2431
796.505	3328
796.608	2160
796.710	2190
796.813	2607
796.915	3183
797.018	2835
797.120	2352
797.223	2785
797.326	3031
797.428	3222
797.530	3140
797.633	2968
797.735	3181
797.838	2364
797.940	2726
798.042	3255
798.145	2637
798.247	1863
798.349	2298
798.452	2879
798.554	2825
798.656	2456
798.758	3388
798.860	2866
798.962	3212
799.065	2510
799.167	2696
799.269	1978
799.371	2898
799.473	3415
799.575	3715
799.677	3555
799.779	3198
799.881	1970
799.983	3116
800.085	3289
800.187	2057
800.289	2317
800.390	2604
800.492	2744
800.594	2742
800.696	2189
800.798	1443
800.899	2111
801.001	2516
801.103	2522
801.205	2027
801.306	2647
801.408	2981
801.509	2415
801.611	2209
801.713	1252
801.814	2208
801.916	2194
802.017	1514
802.119	1270
802.220	2502
802.322	1552
802.423	3166
802.525	1752
802.626	1902
802.727	1684
802.829	3330
802.930	698
803.031	1540
803.133	2100
803.234	1974
803.335	2050
803.436	1917
803.538	1832
803.639	2304
803.740	2695
803.841	1671
803.942	2936
804.043	1814
804.144	2028
804.245	2417
804.346	1863
804.447	1549
804.548	1493
804.649	1947
804.750	2347
804.851	1661
804.952	1461
805.053	2121
805.154	1293
805.255	2487
805.355	1875
805.456	1955
805.557	1769
805.658	1940
805.758	1909
805.859	1357
805.960	1713
806.061	1986
806.161	2079
806.262	2096
806.362	1110
806.463	1192
806.564	1848
806.664	1944
806.765	2317
806.865	1261
806.966	1919
807.066	1803
807.166	1269
807.267	1717
807.367	1343
807.468	2055
807.568	1825
807.668	1187
807.769	1763
807.869	1814
807.969	2273
808.069	1853
808.170	1876
808.270	1526
808.370	2045
808.470	1788
808.570	1663
808.670	2474
808.770	1355
808.870	1781
808.970	1364
809.070	1302
809.170	1300
809.271	1353
809.370	1795
809.470	1747
809.570	1471
809.670	1351
809.770	867
809.870	1729
809.970	2033
810.070	1392
810.169	1475
810.269	1053
810.369	2201
810.469	1470
810.568	1763
810.668	1491
810.768	1860
810.867	2164
810.967	1550
811.066	1449
811.166	1819
811.265	1658
811.365	1882
811.464	2106
811.564	2158
811.663	1426
811.763	1205
811.862	2907
811.962	2583
812.061	1473
812.160	2377
812.260	1366
812.359	1477
812.458	2205
812.557	2006
812.657	2410
812.756	2609
812.855	1521
812.954	1773
813.053	1042
813.153	1330
813.252	1406
813.351	1098
813.450	1081
813.549	1508
813.648	2036
813.747	1149
813.846	1359
813.945	1826
814.044	1762
814.143	1934
814.242	2393
814.341	1731
814.439	2228
814.538	2253
814.637	2147
814.736	2963
814.835	3090
814.933	2225
815.032	2664
815.131	3176
815.229	4104
815.328	6718
815.427	8514
815.525	6473
815.624	5826
815.722	5731
815.821	5077
815.919	5471
816.018	6210
816.116	6577
816.215	6002
816.313	5006
816.412	6538
816.510	7978
816.609	7799
816.707	7773
816.805	7809
816.904	7392
817.002	7430
817.100	8941
817.198	7656
817.296	8747
817.395	7418
817.493	8427
817.591	8417
817.689	8832
817.787	8727
817.885	11016
817.983	14311
818.081	19246
818.179	36716
818.277	83465
818.375	182434
818.473	137073
818.571	40010
818.669	19011
818.767	15236
818.865	13738
818.963	14438
819.061	13562
819.158	21228
819.256	33581
819.354	67233
819.452	143420
819.549	265546
819.647	161596
819.745	52047
819.842	24871
819.940	16683
820.038	13342
820.135	10052
820.233	9232
820.330	8171
820.428	8517
820.525	8197
820.623	7030
820.720	6326
820.818	6072
820.915	6890
821.012	6401
821.110	6074
821.207	5673
821.304	5821
821.402	5800
821.499	6750
821.596	6123
821.693	5154
821.791	5638
821.888	4864
821.985	5118
822.082	6596
822.179	5804
822.276	5414
822.373	5654
822.470	4626
822.567	5162
822.664	5044
822.761	4514
822.858	4552
822.955	5560
823.052	4153
823.149	3834
823.246	5065
823.343	5548
823.440	4819
823.536	3849
823.633	4928
823.730	5189
823.827	4251
823.923	5297
824.020	4386
824.117	3609
824.213	4095
824.310	6301
824.407	3967
824.503	3739
824.600	3767
824.696	4289
824.793	3473
824.889	4561
824.986	5421
825.082	3989
825.179	3138
825.275	3553
825.371	4992
825.468	4704
825.564	3350
825.660	2879
825.757	4753
825.853	5219
825.949	3965
826.045	3448
826.142	3906
826.238	3739
826.334	4789
826.430	3140
826.526	4485
826.622	1473
826.718	2627
826.814	3723
826.910	5647
827.006	3191
827.102	2715
827.198	3081
827.294	3570
827.390	4637
827.486	3846
827.582	2849
827.678	1884
827.774	3424
827.869	3152
827.965	3256
828.061	2479
828.157	3474
828.252	4156
828.348	3249
828.444	2410
828.539	2769
828.635	3433
828.731	2939
828.826	2728
828.922	2683
829.017	3011
829.113	4231
829.208	3727
829.304	2175
829.399	3918
829.495	3753
829.590	3298
829.685	2626
829.781	3632
829.876	2245
829.971	2684
830.066	2209
830.162	1738
830.257	2719
830.352	3755
830.447	3213
830.543	2385
830.638	1676
830.733	3317
830.828	3262
830.923	3234
831.018	2645
831.113	3003
831.208	3600
831.303	2881
831.398	1981
831.493	2310
831.588	2763
831.683	4788
831.778	2453
831.873	1506
831.967	2650
832.062	2993
832.157	2712
832.252	3192
832.346	2400
832.441	2245
832.536	3538
832.631	2099
832.725	4210
832.820	2739
832.914	2242
833.009	2943
833.104	2215
833.198	2912
833.293	1973
833.387	2671
833.482	2491
833.576	2669
833.670	2495
833.765	1650
833.859	2582
833.954	3516
834.048	2811
834.142	2269
834.237	2151
834.331	1795
834.425	2856
834.519	1668
834.613	2299
834.708	1656
834.802	2642
834.896	914
834.990	2510
835.084	2460
835.178	1539
835.272	1381
835.366	2551
835.460	2867
835.554	2898
835.648	1685
835.742	1341
835.836	1506
835.930	1184
836.024	2406
836.117	2694
836.211	2458
836.305	2860
836.399	2453
836.493	1466
836.586	1996
836.680	1585
836.774	2819
836.867	2491
836.961	1400
837.055	1255
837.148	2141
837.242	1606
837.335	1194
837.429	2274
837.522	1359
837.616	1420
837.709	1375
837.803	1543
837.896	2411
837.989	1992
838.083	2612
838.176	1909
838.269	953
838.363	937
838.456	1394
838.549	1623
838.642	3017
838.735	2467
838.829	2426
838.922	2292
839.015	2124
839.108	1853
839.201	2069
839.294	1807
839.387	2044
839.480	1000
839.573	1074
839.666	1575
839.759	768
839.852	1595
839.945	2036
840.038	1608
840.131	718
840.223	303
840.316	608
840.409	1088
840.502	2644
840.594	2585
840.687	2085
840.780	984
840.873	520
840.965	1274
841.058	590
841.150	2008
841.243	2204
841.336	1864
841.428	2496
841.521	1222
841.613	814
841.706	2080
841.798	1321
841.890	1128
841.983	1248
842.075	1715
842.167	934
842.260	1000
842.352	1579
842.444	1967
842.537	1904
842.629	1290
842.721	1588
842.813	1877
842.905	1170
842.997	1798
843.090	837
843.182	1373
843.274	1987
843.366	1247
843.458	2223
843.550	3769
843.642	3829
843.734	1419
843.826	1172
843.918	1405
844.009	919
844.101	1079
844.193	1195
844.285	1057
844.377	1329
844.469	666
844.560	1241
844.652	1046
844.744	1162
844.835	1134
844.927	1533
845.019	2101
845.110	1271
845.202	1152
845.293	1334
845.385	985
845.476	929
845.568	1787
845.659	1457
845.751	955
845.842	1054
845.934	1031
846.025	1007
846.116	1702
846.208	523
846.299	937
846.390	435
846.482	1278
846.573	1119
846.664	1630
846.755	1459
846.846	2036
846.937	1168
847.029	640
847.120	642
847.211	476
847.302	1798
847.393	855
847.484	762
847.575	1004
847.666	305
847.757	1415
847.847	688
847.938	749
848.029	713
848.120	971
848.211	1023
848.302	1109
848.392	340
848.483	766
848.574	1533
848.664	584
848.755	1698
848.846	1024
848.936	741
849.027	1358
849.118	1337
849.208	1251
849.299	1421
849.389	2588
849.480	3179
849.570	6081
849.661	10485
849.751	19098
849.841	32105
849.932	11759
850.022	2575
850.112	1676
850.203	1633
850.293	1929
850.383	768
850.474	1306
850.564	1139
850.654	1217
850.744	-301
850.834	670
850.924	942
851.014	1367
851.104	1212
851.194	613
851.284	694
851.374	628
851.464	433
851.554	959
851.644	-6
851.734	710
851.824	1043
851.914	1547
852.004	1540
852.094	1152
852.183	1727
852.273	239
852.363	1187
852.452	770
852.542	1221
852.632	546
852.721	902
852.811	552
852.901	812
852.990	893
853.080	1317
853.169	788
853.259	1780
853.348	1495
853.438	1231
853.527	1816
853.617	1997
853.706	3834
853.795	6651
853.885	12464
853.974	26341
854.063	46540
854.152	80941
854.242	113370
854.331	45142
854.420	10688
854.509	4701
854.598	3704
854.687	3377
854.777	2422
854.866	1791
854.955	1622
855.044	1442
855.133	1183
855.222	1652
855.311	979
855.400	1424
855.488	1557
855.577	1047
855.666	978
855.755	1032
855.844	1038
855.933	1902
856.021	2242
856.110	1248
856.199	374
856.288	365
856.376	-110
856.465	710
856.554	1111
856.642	844
856.731	888
856.819	1488
856.908	424
856.996	1127
857.085	507
857.173	657
857.262	338
857.350	452
857.438	126
857.527	957
857.615	1141
857.703	504
857.792	698
857.880	871
857.968	157
858.056	507
858.145	49
858.233	586
858.321	183
858.409	167
858.497	273
858.585	1391
858.673	1259
858.761	606
858.849	673
858.937	1070
859.025	112
859.113	172
859.201	-328
859.289	848
859.377	92
859.465	498
859.552	202
859.640	193
859.728	-54
859.816	639
859.903	664
859.991	424
860.079	635
860.166	846
860.254	393
860.342	833
860.429	728
860.517	471
860.604	1213
860.692	696
860.779	759
860.867	468
860.954	741
861.042	972
861.129	1051
861.216	1349
861.304	739
861.391	1615
861.478	889
861.565	1212
861.653	1181
861.740	1098
861.827	308
861.914	749
862.001	1131
862.089	679
862.176	270
862.263	707
862.350	1089
862.437	1151
862.524	701
862.611	911
862.698	1023
862.785	338
862.871	666
862.958	1494
863.045	1314
863.132	1121
863.219	104
863.306	175
863.392	1315
863.479	976
863.566	1319
863.652	1380
863.739	1057
863.826	869
863.912	1268
863.999	1004
864.086	616
864.172	1255
864.259	1353
864.345	2398
864.432	845
864.518	1387
864.604	1411
864.691	784
864.777	1498
864.863	1516
864.950	2055
865.036	3756
865.122	4329
865.209	7284
865.295	7903
865.381	6839
865.467	6603
865.553	6618
865.639	6382
865.726	7649
865.812	11773
865.898	16946
865.984	29226
866.070	39536
866.156	67836
866.242	71309
866.328	24349
866.414	9705
866.499	6940
866.585	5650
866.671	5902
866.757	6248
866.843	5382
866.928	5397
867.014	4240
867.100	5856
867.186	5058
867.271	5235
867.357	4704
867.442	4846
867.528	4970
867.614	5559
867.699	4438
867.785	4647
867.870	5226
867.956	4914
868.041	4891
868.127	5268
868.212	4522
868.297	4678
868.383	4342
868.468	5694
868.553	5674
868.639	5925
868.724	4581
868.809	5882
868.894	5835
868.979	3789
869.065	5030
869.150	4352
869.235	3739
869.320	4071
869.405	4086
869.490	3920
869.575	4255
869.660	4428
869.745	3196
869.830	4425
869.915	4895
870.000	4365
870.085	4027
870.169	3946
870.254	4201
870.339	5173
870.424	3537
870.509	3776
870.593	3428
870.678	4377
870.763	4309
870.847	4415
870.932	3547
871.016	4378
871.101	4159
871.186	2286
871.270	3703
871.355	4748
871.439	3399
871.523	3521
871.608	4579
871.692	3097
871.777	3424
871.861	4148
871.945	3785
872.030	3758
872.114	3629
872.198	3443
872.282	3382
872.367	3014
872.451	2558
872.535	3617
872.619	3824
872.703	3416
872.787	3389
872.871	2948
872.955	3899
873.039	3046
873.123	2148
873.207	3840
873.291	3660
873.375	2589
873.459	3060
873.543	3151
873.627	3430
873.711	3314
873.794	2883
873.878	2989
873.962	3006
874.045	3207
874.129	2207
874.137	2237
874.213	2540
874.245	2763
874.296	3126
874.352	2697
874.380	2484
874.460	2479
874.464	2480
874.547	2156
874.568	2214
874.631	2400
874.676	2848
874.714	3208
874.784	3094
874.798	3075
874.881	3591
874.892	3368
874.965	1817
874.999	1962
875.048	2188
875.107	2512
875.131	2610
875.215	3289
875.215	3287
875.298	1880
875.323	1897
875.381	1901
875.430	2420
875.465	2822
875.538	3386
875.548	3441
875.631	2724
875.646	2696
875.714	2662
875.753	2036
875.798	1309
875.861	1778
875.881	1948
875.964	3452
875.968	3414
876.047	2594
876.076	2235
876.130	1571
876.183	2169
876.213	2552
876.291	3213
876.296	3251
876.379	1922
876.398	2039
876.462	2444
876.506	2120
876.545	1810
876.613	1635
876.628	1603
876.711	1865
876.721	1910
876.794	2310
876.828	2487
876.877	2671
876.935	2599
876.960	2575
877.043	1488
877.043	1490
877.125	1871
877.150	1942
877.208	2293
877.258	2059
877.291	1731
877.365	1537
877.374	1542
877.456	1766
877.472	1732
877.539	1525
877.579	1379
877.622	1240
877.687	1899
877.704	2092
877.787	2180
877.794	2139
877.869	1619
877.901	1765
877.952	1977
878.008	2126
878.034	2208
878.115	794
878.117	765
878.199	1394
878.222	1444
878.282	1655
878.329	1536
878.364	1478
878.437	2304
878.447	2406
878.529	1954
878.544	1921
878.611	1580
878.651	1343
878.694	1218
878.758	1411
878.776	1449
878.858	1505
878.865	1531
878.941	2035
878.972	1882
879.023	1371
879.078	685
879.105	523
879.185	1406
879.187	1421
879.269	1936
879.292	1928
879.351	1820
879.399	2161
879.433	2405
879.506	1661
879.516	1548
879.598	1449
879.613	1422
879.680	1444
879.720	1415
879.762	1478
879.827	1897
879.844	1958
879.926	1655
879.933	1600
880.007	1059
880.040	1190
880.089	1328
880.147	1372
880.171	1589
880.253	2467
880.254	2474
880.335	3120
880.360	3133
880.417	3497
880.467	3829
880.499	4148
880.574	5666
880.580	5751
880.662	6381
880.680	5725
880.744	3100
880.787	2294
880.825	1646
880.893	750
880.907	667
880.989	1470
881.000	1523
881.070	1793
881.106	1840
881.152	1818
881.213	1809
881.233	1718
881.315	1369
881.319	1343
881.396	1293
881.426	1328
881.478	1307
881.532	1191
881.559	1360
881.639	2414
881.641	2409
881.722	1584
881.745	1314
881.803	1262
881.852	1474
881.885	1549
881.958	1485
881.966	1465
882.047	1001
882.064	1003
882.129	1314
882.171	1552
882.210	1543
882.277	1176
882.291	1135
882.372	1045
882.383	1056
882.454	1321
882.489	1704
882.535	1974
882.596	1237
882.616	1155
882.697	2061
882.702	2056
882.778	1422
882.808	1340
882.859	995
882.914	516
882.940	526
883.020	989
883.021	994
883.102	1176
883.127	1394
883.183	1889
883.233	1959
883.264	1987
883.339	2019
883.345	1962
883.426	700
883.445	546
883.507	782
883.551	1059
883.587	1236
883.657	1515
883.668	1546
883.749	1523
883.763	1524
883.830	1601
883.869	1583
883.910	1289
883.975	1032
883.991	1131
884.072	1410
884.081	1466
884.152	1383
884.187	1237
884.233	1565
884.292	2282
884.314	2228
884.394	1250
884.398	1223
884.475	679
884.504	468
884.555	627
884.610	765
884.636	784
884.716	1016
884.716	1019
884.797	1229
884.821	1419
884.877	1924
884.927	1984
884.958	1781
885.033	1356
885.038	1304
885.118	478
885.139	271
885.199	460
885.244	757
885.279	918
885.350	1194
885.359	1240
885.439	1495
885.456	1562
885.520	1805
885.561	1811
885.600	1490
885.667	970
885.680	966
885.760	1348
885.773	1355
885.840	1033
885.878	861
885.920	719
885.984	547
886.000	667
886.080	1332
886.089	1387
886.160	914
886.195	731
886.240	1021
886.300	1377
886.320	1343
886.400	1297
886.406	1288
886.480	1286
886.511	1207
886.560	1107
886.616	1174
886.640	1202
886.720	1278
886.722	1274
886.800	988
886.827	986
886.879	1011
886.932	948
886.959	1154
887.038	1690
887.039	1689
887.119	1507
887.143	1454
887.198	1504
887.248	1538
887.278	1351
887.354	635
887.358	648
887.437	1159
887.459	1303
887.517	1342
887.564	1341
887.596	1331
887.669	1159
887.676	1119
887.755	663
887.774	612
887.835	649
887.880	554
887.914	496
887.985	454
887.994	560
888.073	1580
888.090	1763
888.153	1514
888.195	1360
888.232	1655
888.300	2179
888.311	2075
888.391	1323
888.405	1191
888.470	996
888.510	850
888.549	943
888.615	1137
888.628	1177
888.708	1415
888.720	1448
888.787	1798
888.825	1968
888.866	1446
888.930	668
888.945	725
889.024	1020
889.035	1064
889.103	1041
889.140	1007
889.182	777
889.245	444
889.261	572
889.340	1221
889.349	1295
889.419	1211
889.454	1168
889.498	1401
889.559	1718
889.577	1466
889.656	375
889.664	272
889.735	1306
889.768	1794
889.814	1495
889.873	1097
889.978	1196
890.083	1167
890.187	831
890.292	1478
890.397	2306
890.501	1163
890.606	202
890.710	972
890.815	700
890.919	814
891.024	1721
891.128	1511
891.233	701
891.337	1515
891.442	1610
891.546	1480
891.650	405
891.755	214
891.859	772
891.963	1855
892.068	1895
892.172	697
892.276	946
892.380	923
892.484	166
892.589	1243
892.693	1323
892.797	409
892.901	538
893.005	699
893.109	1343
893.213	1623
893.317	1387
893.421	292
893.525	281
893.629	109
893.733	1031
893.837	994
893.941	614
894.045	1585
894.148	226
894.252	101
894.356	1251
894.460	942
894.564	1245
894.667	555
894.771	727
894.875	1228
894.978	154
895.082	876
895.186	663
895.289	1063
895.393	1384
895.496	606
895.600	1242
895.703	440
895.807	442
895.910	1097
896.014	363
896.117	1524
896.221	691
896.324	925
896.427	484
896.531	640
896.634	910
896.737	501
896.840	294
896.944	577
897.047	691
897.150	914
897.253	1351
897.356	638
897.460	-51
897.563	1052
897.666	1140
897.769	770
897.872	327
897.975	249
898.078	354
898.181	224
898.284	403
898.387	519
898.490	882
898.593	1011
898.695	438
898.798	130
898.901	421
899.004	588
899.107	896
899.209	456
899.312	1254
899.415	1385
899.518	644
899.620	-78
899.723	471
899.826	228
899.928	632
900.031	586
900.133	1587
900.236	978
900.338	920
900.441	-418
900.543	580
900.646	658
900.748	790
900.851	1011
900.953	987
901.055	601
901.158	1176
901.260	-13
901.362	870
901.465	30
901.567	978
901.669	1350
901.771	1148
901.873	839
901.976	-82
902.078	843
902.180	984
902.282	106
902.384	225
902.486	1269
902.588	1014
902.690	498
902.792	496
902.894	-55
902.996	928
903.098	184
903.200	409
903.302	-192
903.404	361
903.505	345
903.607	167
903.709	619
903.811	765
903.913	983
904.014	460
904.116	8
904.218	616
904.319	548
904.421	785
904.523	839
904.624	248
904.726	136
904.827	130
904.929	38
905.030	1395
905.132	538
905.233	2262
905.335	157
905.436	502
905.537	49
905.639	-441
905.740	601
905.841	487
905.943	1203
906.044	362
906.145	-221
906.247	31
906.348	-24
906.449	1381
906.550	789
906.651	1123
906.752	634
906.854	896
906.955	56
907.056	3
907.157	-209
907.258	291
907.359	465
907.460	-282
907.561	-205
907.662	224
907.762	458
907.863	412
907.964	466
908.065	760
908.166	133
908.267	27
908.367	291
908.468	592
908.569	513
908.670	920
908.770	1119
908.871	963
908.971	-210
909.072	183
909.173	116
909.273	567
909.374	418
909.474	955
909.575	279
909.675	707
909.776	433
909.876	555
909.977	-353
910.077	503
910.177	449
910.278	1106
910.378	-92
910.478	425
910.579	1042
910.679	463
910.779	933
910.879	615
910.980	752
911.080	592
911.180	1051
911.280	1202
911.380	466
911.480	-147
911.580	-112
911.680	599
911.780	299
911.880	451
911.980	135
912.080	740
912.180	1085
912.280	178
912.380	1217
912.480	327
912.580	740
912.679	-254
912.779	753
912.879	1479
912.979	577
913.078	603
913.178	382
913.278	13
913.377	199
913.477	-86
913.577	-319
913.676	740
913.776	1077
913.875	1153
913.975	463
914.074	763
914.174	131
914.273	37
914.373	971
914.472	621
914.572	152
914.671	80
914.770	-311
914.870	379
914.969	241
915.068	611
915.167	1138
915.267	714
915.366	82
915.465	148
915.564	971
915.663	1332
915.763	1209
915.862	-15
915.961	490
916.060	490
916.159	524
916.258	-34
916.357	389
916.456	1134
916.555	521
916.654	76
916.752	292
916.851	757
916.950	1211
917.049	-251
917.148	1254
917.247	690
917.345	364
917.444	-153
917.543	274
917.642	142
917.740	942
917.839	636
917.937	1320
918.036	900
918.135	757
918.233	1153
918.332	744
918.430	134
918.529	206
918.627	292
918.726	1074
918.824	265
918.923	837
919.021	204
919.119	388
919.218	31
919.316	400
919.414	1191
919.512	-26
919.611	937
919.709	429
919.807	314
919.905	1496
920.003	1120
920.102	1009
920.200	1184
920.298	600
920.396	1237
920.494	1163
920.592	1097
920.690	1328
920.788	938
920.886	1129
920.984	1171
921.082	1130
921.180	1410
921.277	770
921.375	1536
921.473	1493
921.571	2605
921.669	2484
921.766	1331
921.864	2243
921.962	1950
922.060	2048
922.157	1955
922.255	1632
922.352	1358
922.450	3079
922.548	2024
922.645	2468
922.743	3001
922.840	3708
922.938	6143
923.035	6005
923.133	5407
923.230	4979
923.327	6911
923.425	7402
923.522	6704
923.619	6388
923.717	6031
923.814	5437
923.911	4552
924.008	5305
924.106	5588
924.203	4622
924.300	4672
924.397	5517
924.494	4964
924.591	4851
924.688	4916
924.786	4921
924.883	5368
924.979	5073
925.077	4621
925.173	4397
925.270	4483
925.367	5089
925.464	5404
925.561	4594
925.658	5945
925.755	5402
925.852	3971
925.948	5072
926.045	5660
926.142	4423
926.239	5799
926.335	4993
926.432	4009
926.529	5250
926.625	5228
926.722	5336
926.818	4371
926.915	4758
927.011	5409
927.108	3672
927.204	4066
927.301	4406
927.397	4840
927.494	5811
927.590	4735
927.687	3286
927.783	3932
927.879	5781
927.976	4831
928.072	3792
928.168	3652
928.264	5197
928.361	4421
928.457	4938
928.553	5430
928.649	4158
928.745	4179
928.841	4618
928.937	4211
929.033	4161
929.129	3703
929.225	4082
929.321	5420
929.417	3386
929.513	3920
929.609	4594
929.705	3293
929.801	4321
929.897	4309
929.993	3629
930.089	4169
930.184	3763
930.280	3169
930.376	4163
930.471	5167
930.567	3391
930.663	3277
930.758	3440
930.854	3333
930.950	3381
931.045	3065
931.141	2515
931.236	3693
931.332	5292
931.427	3499
931.523	3092
931.618	4496
931.714	3581
931.809	2327
931.905	3516
932.000	3501
932.095	2591
932.191	2814
932.286	4403
932.381	4616
932.476	2745
932.572	3096
932.667	3381
932.762	2736
932.857	3292
932.952	3462
933.047	3835
933.142	3127
933.237	2641
933.332	3044
933.427	3524
933.522	3426
933.617	2686
933.712	3434
933.807	3207
933.902	4459
933.997	4321
934.092	3636
934.187	2939
934.282	3726
934.376	3531
934.471	4535
934.566	3786
934.661	3515
934.755	3048
934.850	3427
934.945	2945
935.039	2819
935.134	2686
935.228	1801
935.323	3632
935.417	4507
935.512	1738
935.606	2235
935.701	3145
935.795	3132
935.890	4286
935.984	3461
936.079	2116
936.173	2955
936.267	2637
936.362	2109
936.456	2254
936.550	3292
936.644	4173
936.738	2392
936.833	2206
936.927	2095
937.021	1989
937.115	2899
937.209	2488
937.303	2930
937.397	1794
937.491	2011
937.585	2018
937.679	3409
937.773	2783
937.867	1640
937.961	1822
938.055	2864
938.149	3523
938.243	2313
938.337	1223
938.430	2455
938.524	2472
938.618	2913
938.712	2699
938.805	2552
938.899	2825
938.993	3300
939.086	2854
939.180	1785
939.274	1020
939.367	2687
939.461	2716
939.554	2661
939.648	1973
939.741	1477
939.835	2513
939.928	2868
940.022	3528
940.115	2575
940.208	3388
940.302	2549
940.395	3330
940.488	2716
940.582	2012
940.675	2456
940.768	1091
940.861	2144
940.954	2979
941.048	2573
941.141	1285
941.234	1762
941.327	2363
941.420	1733
941.513	2362
941.606	2001
941.699	2165
941.792	2133
941.885	1679
941.978	2641
942.071	2096
942.164	1466
942.257	1155
942.349	1911
942.442	2506
942.535	2124
942.628	1930
942.721	1398
942.813	1678
942.906	2256
942.999	2480
943.091	1610
943.184	1978
943.277	2385
943.369	1849
943.462	990
943.554	1411
943.647	988
943.739	1445
943.832	2605
943.924	1605
944.017	1468
944.109	820
944.201	1025
944.294	1197
944.386	1771
944.478	1701
944.571	1427
944.663	940
944.755	1444
944.847	1449
944.940	1788
945.032	1357
945.124	808
945.216	1515
945.308	1039
945.400	2360
945.492	2000
945.584	1653
945.676	2523
945.768	2060
945.860	1838
945.952	1926
946.044	2309
946.136	1550
946.228	2356
946.320	1410
946.412	1383
946.503	1577
946.595	2666
946.687	1754
946.779	1635
946.870	1041
946.962	1216
947.054	1726
947.145	1943
947.237	1920
947.329	1540
947.420	953
947.512	1503
947.603	1151
947.695	1183
947.786	1231
947.878	583
947.969	1654
948.061	1697
948.152	1465
948.243	1042
948.335	1202
948.426	1395
948.517	1214
948.609	1644
948.700	1336
948.791	1598
948.882	1398
948.973	766
949.065	1106
949.156	630
949.247	1567
949.338	858
949.429	951
949.520	1115
949.611	1720
949.702	1770
949.793	1535
949.884	1410
949.975	704
950.066	900
950.157	369
950.247	182
950.338	1026
950.429	220
950.520	1431
950.611	1688
950.701	1092
950.792	1558
950.883	2747
950.973	1584
951.064	1223
951.155	2092
951.245	1628
951.336	1152
951.427	1990
951.517	1682
951.608	1571
951.698	1005
951.788	1489
951.879	794
951.969	489
952.060	951
952.150	454
952.240	1070
952.331	907
952.421	2099
952.511	1166
952.602	1006
952.692	-577
952.782	867
952.872	208
952.962	466
953.052	920
953.143	987
953.233	1101
953.323	1009
953.413	1087
953.503	1024
953.593	798
953.683	839
953.773	522
953.863	567
953.953	103
954.042	452
954.132	667
954.222	1313
954.312	429
954.402	853
954.492	1341
954.581	357
954.671	569
954.761	-97
954.850	1523
954.940	1069
955.030	38
955.119	571
955.209	328
955.298	741
955.388	977
955.477	1051
955.567	658
955.656	-30
955.746	165
955.835	581
955.925	127
956.014	810
956.103	869
956.193	1996
956.282	1468
956.371	1292
956.461	651
956.550	1250
956.639	-191
956.728	-90
956.817	1735
956.906	490
956.995	1172
957.085	776
957.174	246
957.263	1299
957.352	209
957.441	141
957.530	792
957.619	745
957.708	545
957.796	857
957.885	470
957.974	1029
958.063	691
958.152	211
958.241	445
958.329	135
958.418	698
958.507	-108
958.596	576
958.684	657
958.773	422
958.861	143
958.950	35
959.039	-351
959.127	667
959.216	541
959.304	-44
959.393	1071
959.481	658
959.570	698
959.658	-113
959.746	1037
959.835	-692
959.923	-208
960.011	455
960.100	801
960.188	243
960.276	-60
960.365	372
960.453	-375
960.541	-328
960.629	239
960.717	49
960.805	159
960.893	-547
960.981	405
961.069	191
961.158	1076
961.245	836
961.333	1398
961.421	730
961.509	-372
961.597	-39
961.685	1
961.773	221
961.861	485
961.949	911
962.036	567
962.124	324
962.212	-15
962.299	-42
962.387	218
962.475	373
962.562	-687
962.650	-57
962.738	165
962.825	-29
962.913	-228
963.000	473
963.088	75
963.175	1052
963.263	9
963.350	25
963.438	-224
963.525	-80
963.612	-55
963.700	186
963.787	1116
963.874	1545
963.962	968
964.049	68
964.136	268
964.223	548
964.310	198
964.398	-67
964.485	-125
964.572	-552
964.659	638
964.746	29
964.833	217
964.920	111
965.007	76
965.094	-131
965.181	-186
965.268	415
965.355	236
965.441	-304
965.528	-130
965.615	-71
965.702	38
965.789	17
965.875	660
965.962	479
966.049	3
966.136	-281
966.222	118
966.309	-80
966.395	507
966.482	1023
966.569	419
966.655	239
966.742	447
966.828	-302
966.915	31
967.001	-107
967.087	205
967.174	-8
967.260	-475
967.347	-371
967.433	-255
967.519	-508
967.605	-186
967.692	-392
967.778	-615
967.864	-268
967.950	-366
968.036	-296
968.123	633
968.209	-436
968.295	366
968.381	-694
968.467	-39
968.553	-849
968.639	-546
968.725	120
968.811	220
968.897	-153
968.983	-45
969.069	-464
969.154	14
969.240	-957
969.326	241
969.412	-220
969.497	-319
969.583	310
969.669	-79
969.755	-85
969.840	610
969.926	-180
970.012	507
970.097	519
970.183	680
970.268	712
970.354	11
970.439	-178
970.525	-596
970.610	-312
970.696	63
970.781	-110
970.866	-703
970.952	-239
971.037	-293
971.122	423
971.208	487
971.293	267
971.378	-40
971.463	-246
971.549	-663
971.634	-203
971.719	-146
971.804	-12
971.889	580
971.974	-378
972.059	118
972.144	-1326
972.229	120
972.314	-531
972.399	-172
972.484	216
972.569	-359
972.654	237
972.739	35
972.824	67
972.908	77
972.993	-449
973.078	-440
973.163	-323
973.247	-51
973.332	-120
973.417	-314
973.501	152
973.586	-558
973.671	-360
973.755	-95
973.840	-583
973.924	210
974.009	119
974.093	1054
974.178	814
974.262	202
974.346	711
974.431	510
974.515	-122
974.600	-215
974.684	65
974.768	-74
974.852	393
974.937	277
975.021	345
975.105	-954
975.189	-343
975.273	-607
975.358	-536
975.442	-786
975.526	-91
975.610	179
975.694	-396
975.778	558
975.862	-151
975.946	-919
976.030	497
976.114	-443
976.198	-606
976.281	276
976.365	173
976.449	-300
976.533	-68
976.617	190
976.700	-97
976.784	618
976.868	-234
976.951	-147
977.035	7
977.119	310
977.202	-509
977.286	65
977.369	107
977.453	799
977.536	1141
977.620	1075
977.703	781
977.787	-725
977.870	510
977.953	454
978.037	412
978.120	189
978.203	1073
978.287	464
978.370	-153
978.453	201
978.536	-872
978.620	-774
978.703	95
978.786	-362
978.869	366
978.952	-496
979.035	313
979.118	190
979.201	-590
979.284	-498
979.367	85
979.450	802
979.533	-137
979.616	-206
979.699	398
979.782	-71
979.865	-202
979.948	85
980.030	-812
980.113	-202
980.196	-873
980.279	-46
980.361	-9
980.444	445
980.526	149
980.609	262
980.692	655
980.774	1113
980.857	842
980.939	504
981.022	235
981.104	743
981.187	110
981.269	284
981.352	-244
981.434	-357
981.516	509
981.599	-4
981.681	-553
981.763	-393
981.846	108
981.928	458
982.010	133
982.092	478
982.174	-202
982.256	-90
982.339	228
982.421	529
982.503	493
982.585	296
982.667	369
982.749	-271
982.831	431
982.913	-575
982.995	639
983.077	-575
983.158	288
983.240	81
983.322	1040
983.404	1130
983.486	659
983.568	888
983.649	619
983.731	953
983.813	797
983.894	550
983.976	343
984.058	253
984.139	1139
984.221	155
984.302	162
984.384	64
984.465	523
984.547	890
984.628	-2
984.710	652
984.791	-281
984.872	438
984.954	540
985.035	852
985.116	818
985.198	846
985.279	671
985.360	18
985.441	438
985.522	704
985.604	530
985.685	-189
985.766	1071
985.847	28
985.928	36
986.009	160
986.090	-228
986.171	969
986.252	563
986.333	-86
986.414	419
986.495	537
986.576	490
986.656	646
986.737	477
986.818	373
986.899	27
986.980	300
987.060	434
987.141	-204
987.222	679
987.302	1233
987.383	369
987.464	779
987.544	844
987.625	1446
987.705	184
987.786	1493
987.866	535
987.947	819
988.027	1090
988.108	340
988.188	893
988.268	804
988.349	219
988.429	91
988.509	907
988.589	253
988.670	38
988.750	1263
988.830	388
988.910	793
988.990	220
989.070	953
989.151	2
989.231	914
989.311	682
989.391	671
989.471	950
989.551	913
989.631	330
989.711	1181
989.791	500
989.870	997
989.950	633
990.030	948
990.110	406
990.190	642
990.269	622
990.349	32
990.429	-120
990.509	812
990.588	-338
990.668	797
990.747	-12
990.827	337
990.907	376
990.986	204
991.066	710
991.145	-89
991.225	589
991.304	-373
991.383	886
991.463	239
991.542	42
991.622	665
991.701	533
991.780	374
991.859	270
991.939	733
992.018	-579
992.097	66
992.176	377
992.256	-68
992.335	-99
992.414	-131
992.493	-241
992.572	19
992.651	396
992.730	482
992.809	158
992.888	281
992.967	78
993.046	375
993.125	-696
993.203	-162
993.282	-210
993.361	-81
993.440	773
993.519	-406
993.597	-524
993.676	594
993.755	328
993.834	280
993.912	-835
993.991	-183
994.069	-348
994.148	-390
994.226	-588
994.305	-232
994.384	-406
994.462	315
994.540	-812
994.619	-471
994.697	279
994.776	395
994.854	204
994.932	18
995.011	294
995.089	-689
995.167	-378
995.245	-12
995.324	-1148
995.402	-59
995.480	-171
995.558	-676
995.636	-858
995.714	-647
995.792	379
995.870	-287
995.948	406
996.026	22
996.104	-395
996.182	-249
996.260	-1183
996.338	227
996.416	-1159
996.494	317
996.572	156
996.649	-317
996.727	-864
996.805	-501
996.883	-801
996.960	-566
997.038	-696
997.116	-279
997.193	-60
997.271	320
997.348	-1216
997.426	-136
997.504	-1558
997.581	-79
997.658	18
997.736	-745
997.813	-715
997.891	-1011
997.968	-542
998.046	-414
998.123	-593
998.200	-384
998.277	-1258
998.355	-998
998.432	-1264
998.509	-707
998.586	-801
998.663	-1074
998.741	-382
998.818	-240
998.895	-643
998.972	-144
999.049	-862
999.126	-94
999.203	-389
999.280	-521
999.357	-903
999.434	-1021
999.511	-125
999.587	-489
999.664	-1844
999.741	-919
999.818	-273
999.895	-854
999.971	-1221
1000.048	-721
1000.125	-459
1000.202	-255
1000.278	-1100
1000.355	250
1000.431	-150
1000.508	-949
1000.584	-580
1000.661	-768
1000.738	-987
1000.814	-413
1000.890	-426
1000.967	-569
1001.043	32
1001.120	-504
1001.196	-945
1001.272	-928
1001.349	-1244
1001.425	-624
1001.501	-891
1001.577	-1132
1001.654	-637
1001.730	-1022
1001.806	-886
1001.882	-1538
1001.958	-478
1002.034	17
1002.110	-862
1002.186	-707
1002.262	-775
1002.338	-1102
1002.414	-1015
1002.490	-985
1002.566	-447
1002.642	-644
1002.718	-332
1002.794	-1088
1002.870	-1181
1002.945	-880
1003.021	-607
1003.097	-1237
1003.173	-1378
1003.248	-474
1003.324	-432
1003.400	-1037
1003.475	-1287
1003.551	-995
1003.626	-981
1003.702	-717
1003.777	-1247
1003.853	-1187
1003.928	-1279
1004.004	-640
1004.079	-1027
1004.155	-998
1004.230	-1360
1004.305	-485
1004.381	-554
1004.456	-921
1004.531	-846
1004.607	-1490
1004.682	-242
1004.757	-1008
1004.832	-227
1004.907	-981
1004.982	-1362
1005.057	-407
1005.133	-2044
1005.208	-523
1005.283	-1361
1005.358	-652
1005.433	-1233
1005.508	-306
1005.583	-1313
1005.657	-1733
1005.732	-1499
1005.807	-905
1005.882	-687
1005.957	-334
1006.032	-729
1006.106	-1195
1006.181	-620
1006.256	-990
1006.331	-1486
1006.405	-622
1006.480	-580
1006.554	-979
1006.629	-1021
1006.704	-1210
1006.778	-732
1006.853	-407
1006.927	-957
1007.002	-1208
1007.076	-1169
1007.150	-783
1007.225	-1490
1007.299	-2062
1007.373	-1396
1007.448	-544
1007.522	-747
1007.596	-1491
1007.671	-1071
1007.745	-532
1007.819	-883
1007.893	-869
1007.967	-842
1008.041	-1528
1008.115	-265
1008.190	-1229
1008.264	-902
1008.338	-1102
1008.412	-1346
1008.486	-1040
1008.560	-962
1008.633	-1552
1008.707	-391
1008.781	-786
1008.855	-827
1008.929	-539
1009.003	-2056
1009.076	-1318
1009.150	-638
1009.224	-1123
1009.298	-1420
1009.371	-1213
1009.445	-365
1009.519	-1340
1009.592	-837
1009.666	-693
1009.739	-625
1009.813	-1313
1009.886	-875
1009.960	-993
1010.033	-482
1010.107	-986
1010.180	-1015
1010.253	-914
1010.327	-1050
1010.400	-580
1010.473	-1324
1010.547	-888
1010.620	-783
1010.693	-1303
1010.766	-1444
1010.840	-443
1010.913	-395
1010.986	-1091
1011.059	15
1011.132	-890
1011.205	-929
1011.278	-1130
1011.351	-622
1011.424	-878
1011.497	-1297
1011.570	-674
1011.643	-1432
1011.716	-905
1011.789	-977
1011.862	-886
1011.934	-989
1012.007	-1005
1012.080	-2103
1012.153	-980
1012.225	-780
1012.298	-431
1012.371	-1295
1012.443	-630
1012.516	-1451
1012.588	-1119
1012.661	-1005
1012.733	-1053
1012.806	-617
1012.879	-895
1012.951	-1263
1013.023	-989
1013.096	-1120
1013.168	-826
1013.241	-831
1013.313	-1488
1013.385	-1708
1013.458	-690
1013.530	-719
1013.602	-1308
1013.674	-1008
1013.746	-1537
1013.819	-1566
1013.891	-1206
1013.963	-1360
1014.035	-1320
1014.107	7
1014.179	-1254
1014.251	-1158
1014.323	-1018
1014.395	-711
1014.467	-880
1014.539	-937
1014.611	-1126
1014.683	-1378
1014.754	-455
1014.826	-2231
1014.898	-586
1014.970	-1487
1015.042	-1171
1015.113	-1438
1015.185	-920
1015.257	-1195
1015.328	-406
1015.400	-1215
1015.471	-1278
1015.543	-1426
1015.615	-1506
1015.686	-1226
1015.757	-1018
1015.829	-985
1015.901	-1259
1015.972	-1458
1016.043	-874
1016.115	-972
1016.186	-395
1016.257	-1699
1016.328	-1482
1016.400	-930
1016.471	-1588
1016.542	-1501
1016.613	-1602
1016.685	-1219
1016.756	-1179
1016.827	-1507
1016.898	-2292
1016.969	-1148
1017.040	-1001
1017.111	-875
1017.182	-703
1017.253	-1565
1017.324	-1586
1017.395	-1578
1017.466	-1543
1017.537	-1959
1017.608	-1123
1017.678	-1528
1017.749	-1041
1017.820	-2106
1017.891	-1468
1017.961	-1296
1018.032	-1117
1018.103	-1386
1018.173	-1046
1018.244	-1282
1018.315	-1364
1018.385	-1100
1018.456	-1415
1018.526	-1828
1018.597	-1598
1018.667	-1548
1018.738	-1297
1018.808	-883
1018.878	-1295
1018.949	-1638
1019.019	-1132
1019.089	-810
1019.160	-973
1019.230	-1506
1019.300	-1674
1019.371	-1060
1019.441	-914
1019.511	-1122
1019.581	-1309
1019.651	-1159
1019.721	-1512
1019.791	-1152
1019.861	-1410
1019.931	-1713
1020.001	-1333
1020.071	-1867
1020.141	-1850
1020.211	-1888
1020.281	-1151
1020.351	-1752
1020.421	-1255
1020.491	-560
1020.560	-1377
1020.630	-690
1020.700	-777
1020.770	-1211
1020.839	-618
1020.909	-1464
1020.979	-1084
1021.048	-1527
1021.118	-797
1021.187	-1352
1021.257	-1660
1021.326	-1210
1021.396	-1297
1021.465	-572
1021.535	-1395
1021.604	-2666
1021.674	-965
1021.743	-1330
1021.812	-1224
1021.882	-1489
1021.951	-1989
1022.020	-1714
1022.089	-1559
1022.159	-1402
1022.228	-1767
1022.297	-1643
1022.366	-744
1022.435	-2184
1022.504	-1305
1022.573	-1658
1022.642	-1245
1022.711	-1977
1022.781	-1955
1022.849	-1252
1022.918	-1607
1022.987	-1751
1023.056	-1433
1023.125	-1856
1023.194	-2113
1023.263	-992
1023.331	-1746
1023.400	-2089
1023.469	-1013
1023.538	-503
1023.606	-1676
1023.675	-1090
1023.744	-1879
1023.812	-2009
1023.881	-1422
1023.949	-1302
1024.018	-1328
1024.086	-1325
1024.155	-1205
1024.223	-1471
1024.292	-913
1024.360	-1846
1024.429	-1286
1024.497	-2815
1024.565	-1607
1024.634	-1014
1024.702	-1578
1024.770	-2134
1024.838	-1580
1024.907	-1199
1024.975	-1385
1025.043	-1784
1025.111	-2023
1025.179	-1784
1025.247	-2202
1025.315	-1114
1025.383	-1660
1025.451	-1288
1025.519	-1687
1025.587	-1670
1025.655	-1095
1025.723	-1334
1025.791	-1842
1025.859	-1592
1025.927	-1309
1025.995	-1961
1026.062	-893
1026.130	-2307
1026.198	-1251
1026.266	-2034
1026.333	-1346
1026.401	-1962
1026.469	-801
1026.536	-1735
1026.604	-1696
1026.671	-1584
1026.739	-1524
1026.806	-1886
1026.874	-1636
1026.941	-1365
1027.009	-1895
1027.076	-1431
1027.144	-1843
1027.211	-1852
1027.278	-1408
1027.345	-1870
1027.413	-1061
1027.480	-1548
1027.547	-2439
1027.614	-2035
1027.682	-1180
1027.749	-1690
1027.816	-1777
1027.883	-1048
1027.950	-549
1028.017	-1456
1028.084	-1066
1028.151	-2344
1028.218	-633
1028.285	-1573
1028.352	-1362
1028.419	-2460
1028.486	-2385
1028.553	-1048
1028.619	-1830
1028.686	-1626
1028.753	-2013
1028.820	-2254
1028.886	-1591
1028.953	-1671
1029.020	-1915
1029.086	-2015
1029.153	-1696
1029.220	-978
1029.286	-1810
1029.353	-1733
1029.419	-1477
1029.486	-1546
1029.552	-2456
1029.619	-1832
1029.685	-1693
1029.751	-2006
1029.818	-1982
1029.884	-1450
1029.951	-816
1030.017	-2717
1030.083	-1076
1030.149	-2464
1030.216	-1891
1030.282	-2267
1030.348	-1895
1030.414	-2197
1030.480	-1801
1030.546	-3211
1030.612	-2453
1030.678	-1980
1030.744	-1541
1030.810	-1142
1030.876	-1321
1030.942	-2255
1031.008	-1613
1031.074	-1706
1031.140	-1441
1031.206	-1865
1031.272	-1474
1031.337	-1694
1031.403	-1780
1031.469	-2158
1031.534	-1696
1031.600	-1009
1031.666	-1742
1031.731	-1652
1031.797	-1807
1031.863	-1565
1031.928	-1156
1031.994	-2085
1032.059	-2382
1032.125	-1404
1032.190	-1448
1032.256	-1976
1032.321	-2085
1032.386	-2325
1032.452	-1247
1032.517	-1100
1032.582	-1464
1032.647	-1879
1032.713	-1970
1032.778	-2350
1032.843	-1699
1032.908	-1569
1032.974	-1508
1033.039	-1876
1033.104	-1710
1033.169	-1599
1033.234	-1512
1033.299	-1772
1033.364	-2008
1033.429	-1627
1033.494	-2039
1033.559	-1623
1033.624	-2333
1033.688	-1703
1033.753	-1879
1033.818	-1616
1033.883	-1583
1033.948	-1810
1034.013	-2001
1034.077	-1627
1034.142	-1666
1034.207	-1713
1034.271	-1158
1034.336	-1450
1034.400	-604
1034.465	-238
1034.530	-1073
1034.594	-1816
1034.658	-1132
1034.723	-1869
1034.787	-1637
1034.852	-1752
1034.916	-2067
1034.981	-2188
1035.045	-1332
1035.109	-1707
1035.173	-820
1035.238	-1178
1035.302	-1396
1035.366	-2202
1035.430	-1255
1035.495	-1881
1035.559	-1158
1035.623	-1121
1035.687	-1733
1035.751	-2493
1035.815	-2161
1035.879	-2603
1035.943	-2091
1036.007	-2559
1036.071	-1568
1036.135	-1755
1036.198	-1757
1036.262	-1943
1036.326	-1088
1036.390	-1798
1036.454	-1498
1036.517	-1943
1036.581	-1470
1036.645	-1485
1036.709	-1025
1036.772	-1817
1036.836	-1109
1036.900	-1478
1036.963	-2268
1037.026	-1829
1037.090	-1970
1037.154	-1944
1037.217	-1878
1037.280	-2069
1037.344	-1316
1037.407	-1805
1037.471	-733
1037.534	-1727
1037.597	-2332
1037.661	-2984
1037.724	-1599
1037.787	-1942
1037.850	-1359
1037.913	-2462
1037.977	-1348
1038.040	-1680
1038.103	-1518
1038.166	-1898
1038.229	-2294
1038.292	-1336
1038.355	-1973
1038.418	-1655
1038.481	-1782
1038.544	-2117
1038.607	-1747
1038.670	-1636
1038.732	-1932
1038.795	-2330
1038.858	-1326
1038.921	-2280
1038.984	-1757
1039.046	-2316
1039.109	-1716
1039.172	-1667
1039.234	-1773
1039.297	-2714
1039.360	-1670
1039.422	-1964
1039.485	-2070
1039.547	-1775
1039.610	-2050
1039.672	-1817
1039.734	-1775
1039.797	-2078
1039.859	-1600
1039.922	-2185
1039.984	-1978
1040.046	-2091
1040.109	-1597
1040.171	-2306
1040.233	-2014
1040.295	-2267
1040.358	-1307
1040.420	-1671
1040.482	-2022
1040.544	-2827
1040.606	-1519
1040.668	-2099
1040.730	-1821
1040.792	-1896
1040.854	-1438
1040.916	-1928
1040.978	-2192
1041.040	-1640
1041.102	-1964
1041.164	-1941
1041.225	-2481
1041.287	-2501
1041.349	-1592
1041.411	-1388
1041.472	-2640
1041.534	-1765
1041.596	-2001
1041.657	-1509
1041.719	-2713
1041.781	-1758
1041.842	-2217
1041.904	-2519
1041.965	-2522
1042.027	-2330
1042.088	-2708
1042.150	-2916
1042.211	-1617
1042.272	-1450
1042.334	-2590
1042.395	-1849
1042.456	-1904
1042.518	-2086
1042.579	-1871
1042.640	-1660
1042.701	-2485
1042.763	-3090
1042.824	-2535
1042.885	-2078
1042.946	-1671
1043.007	-2262
1043.068	-2030
1043.129	-2432
1043.190	-2162
1043.251	-1995
1043.312	-1736
1043.373	-1682
1043.434	-2651
1043.495	-1995
1043.556	-1681
1043.616	-2147
1043.677	-2036
1043.738	-2749
1043.799	-1856
1043.859	-1155
1043.920	-1664
1043.981	-1857
1044.041	-1263
1044.102	-1762
1044.162	-1759
1044.223	-2152
1044.284	-2577
1044.344	-1482
1044.405	-1528
1044.465	-1962
1044.525	-2228
1044.586	-1706
1044.646	-2078
1044.707	-2047
1044.767	-2250
1044.827	-2250
1044.887	-1793
1044.948	-2101
1045.008	-1971
1045.068	-2215
1045.128	-1645
1045.188	-2098
1045.249	-1779
1045.309	-2584
1045.369	-1712
1045.429	-1199
1045.489	-2050
1045.549	-2332
1045.609	-1683
1045.669	-2130
1045.729	-1534
1045.789	-1388
1045.848	-2126
1045.908	-2095
1045.968	-2366
1046.028	-2616
1046.088	-1442
1046.147	-1805
1046.207	-1900
1046.267	-1814
1046.326	-1469
1046.386	-1601
1046.446	-1330
1046.505	-1574
1046.565	-2098
1046.624	-510
1046.684	-1668
1046.743	-1227
1046.803	-714
1046.862	-661
1046.922	0
