'Start Wavelength	183.907
'End Wavelength	1046.922
'Gate Delay	5.000
'Gate Width (ms)	1.050
'Laser Output Level	0.000
'X Position	0.000
'Y Position	0.000
'Z Position	0.000
'Grid Point Number	1.000
'Shot Number	100.000
183.907	459.000
183.977	-12.000
184.047	341
184.116	-240
184.186	569
184.256	692
184.325	-307
184.395	-42
184.465	654
184.534	505
184.604	-21
184.674	523
184.743	-354
184.813	515
184.883	226
184.952	-305
185.022	-535
185.092	944
185.161	131
185.231	-9
185.301	592
185.370	-33
185.440	370
185.509	599
185.579	132
185.649	737
185.718	294
185.788	219
185.857	286
185.927	321
185.996	191
186.066	370
186.136	504
186.205	345
186.275	1046
186.344	-194
186.414	-28
186.483	91
186.553	589
186.622	506
186.692	627
186.761	-26
186.831	601
186.900	452
186.970	362
187.039	769
187.109	1208
187.178	553
187.248	154
187.317	401
187.387	-114
187.456	829
187.526	1167
187.595	728
187.664	480
187.734	920
187.803	569
187.873	1224
187.942	1144
188.012	863
188.081	606
188.150	550
188.220	1139
188.289	533
188.358	116
188.428	1229
188.497	519
188.567	758
188.636	509
188.705	-57
188.775	-10
188.844	775
188.913	756
188.983	215
189.052	875
189.121	402
189.191	592
189.260	1261
189.329	1002
189.399	602
189.468	473
189.537	32
189.606	747
189.676	580
189.745	685
189.814	959
189.883	849
189.953	884
190.022	1327
190.091	3184
190.161	2843
190.230	592
190.299	765
190.368	734
190.437	788
190.507	729
190.576	487
190.645	-206
190.714	182
190.783	206
190.853	1429
190.922	666
190.991	681
191.060	716
191.129	712
191.198	951
191.268	380
191.337	190
191.406	1330
191.475	1007
191.544	895
191.613	749
191.682	624
191.752	537
191.821	1130
191.890	701
191.959	489
192.028	966
192.097	366
192.166	326
192.235	528
192.304	1099
192.373	584
192.442	14
192.511	926
192.580	323
192.650	51
192.719	250
192.788	179
192.857	664
192.926	558
192.995	1187
193.064	1664
193.133	1795
193.202	2804
193.271	2378
193.340	1888
193.409	2111
193.478	2609
193.547	2804
193.615	3756
193.684	2821
193.753	2763
193.822	2273
193.891	887
193.960	1604
194.029	1212
194.098	1077
194.167	270
194.236	1020
194.305	599
194.374	1305
194.443	669
194.512	1134
194.580	1133
194.649	1481
194.718	1582
194.787	1308
194.856	924
194.925	1507
194.994	944
195.062	1272
195.131	1712
195.200	1194
195.269	2056
195.338	917
195.407	1827
195.475	1431
195.544	636
195.613	1066
195.682	1019
195.751	1096
195.819	1365
195.888	1045
195.957	2002
196.026	815
196.094	1747
196.163	1956
196.232	1983
196.301	1639
196.369	1130
196.438	1687
196.507	1453
196.576	602
196.644	1472
196.713	1214
196.782	1339
196.850	1037
196.919	1532
196.988	469
197.056	508
197.125	1291
197.194	1625
197.262	1252
197.331	1330
197.400	442
197.468	1951
197.537	1128
197.606	2299
197.674	2162
197.743	3489
197.812	1932
197.880	3935
197.949	1506
198.017	2963
198.086	2090
198.155	1130
198.223	1731
198.292	3750
198.360	2077
198.429	2023
198.497	2392
198.566	3438
198.635	3985
198.703	2565
198.772	2582
198.840	4230
198.909	2823
198.977	2564
199.046	1450
199.114	1796
199.183	1713
199.251	1296
199.320	815
199.388	1818
199.457	1253
199.525	1664
199.594	1517
199.662	1793
199.731	1454
199.799	1485
199.867	1315
199.936	943
200.004	1266
200.073	1280
200.141	1226
200.210	940
200.278	1398
200.346	1184
200.415	1530
200.483	1953
200.552	1716
200.620	1442
200.688	1509
200.757	1423
200.825	1467
200.893	1860
200.962	1255
201.030	1142
201.098	1275
201.167	1921
201.235	1854
201.303	1307
201.372	1622
201.440	1442
201.508	1731
201.577	1596
201.645	1399
201.713	2253
201.781	1618
201.850	2259
201.918	1394
201.986	1690
202.055	2962
202.123	1055
202.191	1312
202.259	886
202.327	1631
202.396	2272
202.464	1512
202.532	1800
202.600	5257
202.669	3005
202.737	1728
202.805	1885
202.873	1747
202.941	1733
203.009	2424
203.078	2053
203.146	1947
203.214	2285
203.282	882
203.350	2341
203.418	1887
203.487	1973
203.555	503
203.623	2316
203.691	1790
203.759	1529
203.827	1338
203.895	1319
203.963	2886
204.031	1696
204.099	1507
204.168	1476
204.236	1568
204.304	1737
204.372	2296
204.440	2152
204.508	2305
204.576	1903
204.644	1412
204.712	1704
204.780	1893
204.848	2003
204.916	1242
204.984	1936
205.052	2796
205.120	1890
205.188	2189
205.256	2059
205.324	2730
205.392	1786
205.460	2771
205.528	2559
205.596	1928
205.664	2423
205.732	2288
205.799	6045
205.867	6570
205.935	2377
206.003	2662
206.071	1768
206.139	2606
206.207	2772
206.275	2058
206.343	2606
206.411	2130
206.478	2080
206.546	3043
206.614	2239
206.682	1789
206.750	2462
206.818	2438
206.885	2382
206.953	1982
207.021	2004
207.089	3130
207.157	1781
207.225	2975
207.292	2794
207.360	3351
207.428	2694
207.496	1885
207.563	2027
207.631	2479
207.699	2959
207.767	2558
207.834	2429
207.902	1928
207.970	3339
208.038	2921
208.105	3042
208.173	2747
208.241	3420
208.309	3423
208.376	4098
208.444	4676
208.512	2939
208.579	2612
208.647	2976
208.715	3209
208.782	2857
208.850	2376
208.918	3514
208.985	2715
209.053	2619
209.120	2571
209.188	2575
209.256	3317
209.323	2999
209.391	2897
209.459	3720
209.526	2652
209.594	2383
209.661	2898
209.729	2520
209.796	3161
209.864	2846
209.932	2172
209.999	3593
210.067	3380
210.134	3885
210.202	2898
210.269	3678
210.337	3336
210.404	2840
210.472	2778
210.539	3390
210.607	2837
210.674	3081
210.742	3274
210.809	3715
210.877	4186
210.944	4098
211.012	3385
211.079	4407
211.146	3392
211.214	3443
211.281	4328
211.349	3889
211.416	3810
211.484	4111
211.551	3282
211.618	3284
211.686	3047
211.753	3111
211.821	3477
211.888	3995
211.955	3678
212.023	4091
212.090	4399
212.157	4416
212.225	4816
212.292	6717
212.359	10729
212.427	18991
212.494	9100
212.561	5846
212.629	4734
212.696	4237
212.763	3955
212.831	4802
212.898	4401
212.965	3792
213.032	3867
213.100	4805
213.167	4268
213.234	5006
213.301	4091
213.369	3685
213.436	3319
213.503	3787
213.570	4856
213.638	5185
213.705	3739
213.772	3157
213.839	4959
213.906	4410
213.973	4465
214.041	4136
214.108	4153
214.175	4190
214.242	3491
214.309	4163
214.376	4688
214.444	4088
214.511	5465
214.578	3481
214.645	4606
214.712	5190
214.779	4036
214.846	4568
214.913	4915
214.980	5343
215.048	5837
215.115	6327
215.182	4806
215.249	4452
215.316	3816
215.383	4176
215.450	4352
215.517	4450
215.584	3305
215.651	3826
215.718	4057
215.785	4013
215.852	4308
215.919	4364
215.986	4052
216.053	4034
216.120	4358
216.187	4094
216.254	4929
216.321	4533
216.388	4495
216.455	4974
216.522	5185
216.589	5687
216.656	7357
216.722	7474
216.789	6925
216.856	6631
216.923	5616
216.990	6585
217.057	5181
217.124	6511
217.191	6267
217.258	8067
217.324	9010
217.391	7996
217.458	7243
217.525	6137
217.592	5240
217.659	5861
217.725	4717
217.792	7420
217.859	5799
217.926	3894
217.993	4852
218.059	4131
218.126	3701
218.193	3880
218.260	3998
218.327	3449
218.393	4188
218.460	3515
218.527	3028
218.594	4052
218.660	5754
218.727	6909
218.794	3339
218.860	4036
218.927	2398
218.994	3704
219.061	3598
219.127	4305
219.194	6064
219.261	3655
219.327	3048
219.394	3576
219.461	2968
219.527	3981
219.594	4675
219.661	3933
219.727	2957
219.794	4107
219.860	2730
219.927	4740
219.994	5955
220.060	7881
220.127	5895
220.193	5910
220.260	6193
220.326	8717
220.393	12553
220.460	14006
220.526	9724
220.593	7648
220.659	9008
220.726	9198
220.792	16269
220.859	15675
220.925	19145
220.992	20850
221.058	19441
221.125	17032
221.191	12224
221.258	7255
221.324	6729
221.391	5304
221.457	5248
221.524	5552
221.590	7345
221.657	17294
221.723	9398
221.789	11141
221.856	9593
221.922	6256
221.989	4997
222.055	4658
222.121	3580
222.188	5767
222.254	4545
222.321	4650
222.387	2907
222.453	4308
222.520	3690
222.586	3264
222.652	3950
222.719	3389
222.785	3961
222.851	3271
222.918	3701
222.984	3250
223.050	3693
223.116	3337
223.183	3618
223.249	2937
223.315	2471
223.382	2861
223.448	2810
223.514	2038
223.580	3110
223.647	2789
223.713	2891
223.779	4025
223.845	2860
223.911	3798
223.978	3538
224.044	3666
224.110	3122
224.176	3522
224.242	2979
224.309	2882
224.375	2616
224.441	3106
224.507	2802
224.573	3103
224.639	3064
224.705	2027
224.772	2976
224.838	3138
224.904	3607
224.970	2902
225.036	3585
225.102	3148
225.168	3101
225.234	2846
225.300	3313
225.366	2740
225.432	3845
225.499	4001
225.565	3542
225.631	4899
225.697	4839
225.763	6387
225.829	6274
225.895	6252
225.961	7560
226.027	6802
226.093	7388
226.159	9178
226.225	14457
226.291	28793
226.357	32576
226.423	18635
226.489	12597
226.554	8942
226.620	9431
226.686	12228
226.752	16939
226.818	26752
226.884	42267
226.950	33721
227.016	16532
227.082	11035
227.148	7892
227.214	7984
227.279	6777
227.345	6338
227.411	6521
227.477	5299
227.543	6960
227.609	8157
227.674	5201
227.740	5218
227.806	4976
227.872	4985
227.938	4672
228.003	5819
228.069	4348
228.135	3626
228.201	3863
228.267	4762
228.332	4175
228.398	5593
228.464	3924
228.530	3241
228.595	3575
228.661	3461
228.727	6048
228.792	4467
228.858	3059
228.924	3149
228.990	4914
229.055	4207
229.121	3756
229.187	3497
229.252	4577
229.318	3029
229.384	4020
229.449	3722
229.515	2139
229.581	2071
229.646	4292
229.712	4371
229.777	8757
229.843	7095
229.909	7008
229.974	7261
230.040	6932
230.105	5952
230.171	6535
230.236	8033
230.302	9640
230.368	7554
230.433	5811
230.499	5457
230.564	5607
230.630	4122
230.695	4488
230.761	4602
230.826	3459
230.892	6404
230.957	4454
231.023	4184
231.088	3966
231.154	4879
231.219	3828
231.284	6528
231.350	5603
231.415	4213
231.481	5147
231.546	3711
231.612	4118
231.677	4530
231.742	3360
231.808	4292
231.873	3872
231.939	2892
232.004	6307
232.069	5452
232.135	4041
232.200	3952
232.265	3721
232.331	3409
232.396	2984
232.461	2758
232.527	3078
232.592	3144
232.657	3260
232.723	4399
232.788	3476
232.853	3658
232.918	3169
232.984	3263
233.049	3043
233.114	3464
233.179	3519
233.245	6135
233.310	5402
233.375	3327
233.440	3935
233.506	3497
233.571	3313
233.636	3408
233.701	2995
233.766	5101
233.832	4374
233.897	3600
233.962	3075
234.027	4105
234.092	3106
234.157	3394
234.222	3520
234.288	5907
234.353	10256
234.418	9142
234.483	7833
234.548	6246
234.613	6194
234.678	6427
234.743	5996
234.808	13149
234.873	7976
234.938	6320
235.004	5242
235.069	5774
235.134	4344
235.199	5229
235.264	4676
235.329	3586
235.394	4132
235.459	5234
235.524	4932
235.589	5358
235.654	4493
235.719	3620
235.784	4706
235.849	5305
235.913	7374
235.978	7379
236.043	8166
236.108	5679
236.173	4656
236.238	6080
236.303	5303
236.368	4717
236.433	7969
236.498	10319
236.563	11468
236.627	24516
236.692	57618
236.757	42867
236.822	19565
236.887	13385
236.952	12366
237.017	10215
237.081	12859
237.146	17541
237.211	34390
237.276	61495
237.341	72060
237.405	38052
237.470	18191
237.535	12666
237.600	9717
237.664	8359
237.729	7440
237.794	11860
237.859	19587
237.923	10601
237.988	7085
238.053	8452
238.118	7501
238.182	17826
238.247	11505
238.312	7180
238.376	6317
238.441	4909
238.506	5842
238.570	4710
238.635	4733
238.700	4103
238.764	4373
238.829	8879
238.893	7192
238.958	6973
239.023	5575
239.087	4551
239.152	5520
239.216	3926
239.281	4362
239.346	4850
239.410	4341
239.475	5450
239.539	15032
239.604	8006
239.668	5003
239.733	4096
239.797	4397
239.862	6547
239.926	10022
239.991	5346
240.055	4026
240.120	4780
240.184	4377
240.249	3723
240.313	3397
240.378	3757
240.442	9884
240.507	11214
240.571	4265
240.635	7934
240.700	7175
240.764	4031
240.829	3841
240.893	3465
240.957	4338
241.022	10032
241.086	11267
241.151	5705
241.215	2853
241.279	5709
241.344	6752
241.408	6564
241.472	5783
241.537	6837
241.601	6397
241.665	5552
241.730	5247
241.794	6169
241.858	6037
241.922	6602
241.987	6220
242.051	5275
242.115	5611
242.179	4965
242.244	4897
242.308	5519
242.372	6843
242.436	6522
242.501	5256
242.565	5252
242.629	4145
242.693	5301
242.757	4445
242.822	4422
242.886	5096
242.950	5426
243.014	5151
243.078	6094
243.142	6310
243.206	5067
243.271	5993
243.335	6700
243.399	10907
243.463	37949
243.527	62197
243.591	18732
243.655	9608
243.719	6601
243.783	8134
243.847	12470
243.911	12909
243.975	14318
244.040	8551
244.104	7376
244.168	5295
244.232	8232
244.296	10789
244.360	11780
244.424	5665
244.488	5107
244.552	5528
244.615	4257
244.679	4255
244.743	6453
244.807	5954
244.871	4759
244.935	4141
244.999	3228
245.063	4017
245.127	6055
245.191	10436
245.255	6799
245.319	6420
245.383	4495
245.446	6351
245.510	3686
245.574	4747
245.638	5254
245.702	5859
245.766	11712
245.829	6435
245.893	6053
245.957	4740
246.021	6373
246.085	4996
246.149	7516
246.212	17757
246.276	20123
246.340	9400
246.404	7125
246.467	9202
246.531	10463
246.595	7556
246.659	7413
246.722	5921
246.786	7706
246.850	9074
246.913	9419
246.977	5242
247.041	6066
247.104	5343
247.168	6884
247.232	16257
247.295	28681
247.359	11740
247.423	7765
247.486	13141
247.550	7541
247.614	6308
247.677	8602
247.741	5150
247.804	5647
247.868	6411
247.932	16484
247.995	24271
248.059	8728
248.122	5552
248.186	8683
248.249	15317
248.313	50131
248.376	40766
248.440	25925
248.503	9448
248.567	10499
248.630	14347
248.694	18565
248.757	28012
248.821	48827
248.884	24902
248.948	28952
249.011	37757
249.075	58406
249.138	39927
249.202	17406
249.265	11577
249.328	13125
249.392	10990
249.455	10916
249.519	9448
249.582	10717
249.645	17537
249.709	12160
249.772	11977
249.835	10309
249.899	8977
249.962	9336
250.025	8136
250.089	23904
250.152	21969
250.215	12237
250.279	10815
250.342	10187
250.405	10558
250.468	10251
250.532	13637
250.595	22626
250.658	81291
250.721	88099
250.785	33772
250.848	19410
250.911	12513
250.974	12322
251.038	19463
251.101	29491
251.164	15194
251.227	18667
251.290	17465
251.354	31392
251.417	104035
251.480	76386
251.543	77271
251.606	158512
251.669	100455
251.732	46409
251.795	47443
251.859	51525
251.922	102958
251.985	47835
252.048	23660
252.111	18375
252.174	17182
252.237	34868
252.300	57464
252.363	76751
252.426	116145
252.489	44789
252.552	24460
252.615	18471
252.678	21512
252.741	48551
252.804	74320
252.867	122720
252.930	66711
252.993	35654
253.056	22157
253.119	15465
253.182	13691
253.245	25151
253.308	15389
253.371	13859
253.434	12201
253.497	13952
253.559	26643
253.622	16149
253.685	19257
253.748	16590
253.811	9597
253.874	11942
253.937	10481
254.000	9667
254.062	20667
254.125	23968
254.188	24423
254.251	16231
254.314	10144
254.376	18865
254.439	16457
254.502	13475
254.565	21395
254.628	27819
254.690	14850
254.753	8533
254.816	7596
254.878	9146
254.941	22564
255.004	15903
255.067	8599
255.129	8218
255.192	5636
255.255	5396
255.317	6361
255.380	4199
255.443	3243
255.505	3548
255.568	4200
255.631	4247
255.693	4768
255.756	4277
255.819	4744
255.881	4114
255.944	4214
256.006	4185
256.069	4413
256.132	4687
256.194	6071
256.257	10803
256.319	8137
256.382	7818
256.444	7933
256.507	7007
256.569	6989
256.632	8568
256.694	12969
256.757	45446
256.819	90349
256.882	33128
256.944	15913
257.007	11861
257.069	11430
257.132	8188
257.194	8989
257.257	8385
257.319	8515
257.381	12410
257.444	33701
257.506	117702
257.569	92946
257.631	37059
257.693	22046
257.756	12588
257.818	9604
257.880	7945
257.943	7565
258.005	6172
258.067	6076
258.130	6522
258.192	7631
258.254	11818
258.317	7269
258.379	6975
258.441	17984
258.503	13064
258.566	17564
258.628	15132
258.690	5797
258.753	8034
258.815	11870
258.877	7738
258.939	6320
259.001	7591
259.064	6202
259.126	7335
259.188	7753
259.250	7404
259.312	7029
259.375	11563
259.437	8333
259.499	6392
259.561	5473
259.623	6181
259.685	5747
259.747	6239
259.809	17760
259.872	21018
259.934	41583
259.996	29821
260.058	10261
260.120	5279
260.182	4886
260.244	4984
260.306	4536
260.368	5862
260.430	4574
260.492	13136
260.554	14756
260.616	9129
260.678	26340
260.740	20487
260.802	7369
260.864	7044
260.926	5074
260.988	6453
261.050	7307
261.112	19523
261.174	32079
261.236	15946
261.298	7590
261.359	12792
261.421	11987
261.483	5773
261.545	6195
261.607	3270
261.669	4595
261.731	10317
261.793	16108
261.854	7753
261.916	6604
261.978	6988
262.040	5990
262.102	5144
262.164	7024
262.225	5153
262.287	5075
262.349	14735
262.411	8579
262.472	5280
262.534	9476
262.596	11462
262.658	6065
262.719	4004
262.781	6705
262.843	12936
262.904	6539
262.966	7312
263.028	9150
263.090	49771
263.151	80834
263.213	25099
263.275	14509
263.336	6935
263.398	5195
263.459	4103
263.521	4990
263.583	13104
263.644	7859
263.706	4096
263.767	2918
263.829	3354
263.891	2063
263.952	2896
264.014	2821
264.075	10645
264.137	16539
264.198	7602
264.260	3141
264.321	4710
264.383	14784
264.444	24665
264.506	7978
264.567	5800
264.629	15854
264.690	20962
264.752	8270
264.813	6095
264.875	3821
264.936	5682
264.998	4566
265.059	4899
265.120	6006
265.182	12160
265.243	62753
265.305	42157
265.366	12591
265.427	7245
265.489	5913
265.550	4124
265.611	5962
265.673	5260
265.734	4938
265.795	4923
265.857	5692
265.918	7185
265.979	20907
266.040	93901
266.102	53696
266.163	18166
266.224	12703
266.286	6511
266.347	5191
266.408	4755
266.469	5454
266.530	4017
266.592	3524
266.653	9678
266.714	11203
266.775	4601
266.836	3236
266.898	4002
266.959	7803
267.020	4684
267.081	4358
267.142	4210
267.203	3364
267.264	3074
267.326	4882
267.387	2424
267.448	2903
267.509	4258
267.570	4138
267.631	3582
267.692	3239
267.753	4233
267.814	4015
267.875	11205
267.936	15991
267.997	12293
268.058	8866
268.119	6374
268.180	4542
268.241	3476
268.302	3974
268.363	3713
268.424	3276
268.485	4240
268.546	3132
268.607	3145
268.668	3822
268.729	2421
268.790	3765
268.851	4293
268.912	12342
268.972	10860
269.033	5873
269.094	3780
269.155	3507
269.216	3703
269.277	3140
269.338	3309
269.398	4243
269.459	4500
269.520	5599
269.581	7655
269.642	7554
269.702	5908
269.763	5160
269.824	5029
269.885	6403
269.945	7654
270.006	4122
270.067	2952
270.128	3096
270.188	3354
270.249	3217
270.310	2982
270.370	3828
270.431	3669
270.492	3315
270.553	4167
270.613	8832
270.674	15417
270.734	6024
270.795	3877
270.856	5888
270.916	4767
270.977	4160
271.038	4918
271.098	5079
271.159	8320
271.219	5679
271.280	3821
271.340	3501
271.401	4416
271.462	6518
271.522	5231
271.583	4847
271.643	3999
271.704	4176
271.764	5963
271.825	15123
271.885	49950
271.946	44969
272.006	16083
272.066	31475
272.127	36214
272.187	10105
272.248	7270
272.308	10877
272.369	31557
272.429	11878
272.489	12187
272.550	9497
272.610	11925
272.671	7279
272.731	9176
272.791	9967
272.852	6539
272.912	6013
272.972	4210
273.033	5013
273.093	7041
273.153	6662
273.214	5631
273.274	6246
273.334	29859
273.394	36431
273.455	13488
273.515	19132
273.575	33072
273.635	11885
273.696	21983
273.756	35148
273.816	11427
273.876	7874
273.936	16932
273.997	17756
274.057	6738
274.117	6808
274.177	12863
274.237	56071
274.297	31428
274.358	21954
274.418	32695
274.478	18662
274.538	7949
274.598	7435
274.658	20092
274.718	19004
274.778	8471
274.838	5755
274.898	14502
274.958	27501
275.018	38988
275.078	18500
275.138	8087
275.198	5323
275.258	4131
275.318	6305
275.378	11589
275.438	10520
275.498	7494
275.558	19053
275.618	33437
275.678	21865
275.738	16757
275.798	11374
275.858	6166
275.918	3558
275.978	6237
276.038	4121
276.098	4599
276.157	11363
276.217	24187
276.277	9934
276.337	7778
276.397	4022
276.457	5085
276.517	3633
276.576	3284
276.636	3482
276.696	7055
276.756	16217
276.815	8218
276.875	4676
276.935	5372
276.995	4647
277.055	3679
277.114	3907
277.174	9742
277.234	21175
277.293	7666
277.353	4617
277.413	3976
277.472	4778
277.532	4363
277.592	5823
277.651	19262
277.711	20483
277.771	11280
277.830	37641
277.890	20297
277.950	26025
278.009	51265
278.069	15951
278.128	22793
278.188	21081
278.248	12678
278.307	29025
278.367	12234
278.426	6329
278.486	4990
278.545	3610
278.605	4128
278.664	4157
278.724	5676
278.783	21978
278.843	34245
278.902	8695
278.962	7683
279.021	7004
279.081	7542
279.140	7031
279.199	8521
279.259	8969
279.318	7501
279.378	10700
279.437	18619
279.496	56550
279.556	133414
279.615	65688
279.675	23012
279.734	16237
279.793	24918
279.853	30736
279.912	11730
279.971	8557
280.031	8111
280.090	18400
280.149	20995
280.208	22637
280.268	100158
280.327	58269
280.386	17540
280.445	19862
280.505	14028
280.564	8619
280.623	5807
280.682	15249
280.742	15617
280.801	6391
280.860	4405
280.919	4235
280.978	3865
281.037	4421
281.097	3537
281.156	4384
281.215	4176
281.274	7045
281.333	29248
281.392	12854
281.451	4969
281.510	3396
281.569	3093
281.628	2800
281.688	2946
281.747	4518
281.806	3428
281.865	2795
281.924	3640
281.983	3039
282.042	2279
282.101	2538
282.160	3113
282.219	2180
282.278	4915
282.337	13900
282.396	6301
282.454	4069
282.513	7104
282.572	20166
282.631	7713
282.690	3886
282.749	2871
282.808	4688
282.867	4280
282.926	3781
282.985	3097
283.043	2997
283.102	3035
283.161	3491
283.220	15839
283.279	20061
283.338	6251
283.396	3026
283.455	4417
283.514	4825
283.573	7268
283.631	5237
283.690	3546
283.749	3946
283.808	10697
283.866	8249
283.925	3345
283.984	3852
284.043	5936
284.101	5503
284.160	4401
284.219	5318
284.277	5630
284.336	10441
284.395	30141
284.453	17152
284.512	8149
284.570	10928
284.629	7575
284.688	6835
284.746	7623
284.805	9210
284.863	11879
284.922	14976
284.981	17992
285.039	26496
285.098	48037
285.156	128137
285.215	229372
285.273	198215
285.332	102952
285.390	52412
285.449	31284
285.507	21040
285.566	15282
285.624	12610
285.683	10430
285.741	9148
285.799	7783
285.858	6919
285.916	6154
285.975	5514
286.033	4592
286.091	5171
286.150	4409
286.208	4469
286.267	5369
286.325	5625
286.383	8606
286.442	5559
286.500	3539
286.558	3092
286.616	3300
286.675	4936
286.733	4324
286.791	3352
286.850	4339
286.908	7744
286.966	9783
287.024	4352
287.083	4062
287.141	2819
287.199	4543
287.257	5547
287.315	4432
287.374	5731
287.432	13708
287.490	7805
287.548	5623
287.606	3986
287.664	5216
287.723	8080
287.781	7975
287.839	6920
287.897	8276
287.955	11255
288.013	17827
288.071	41238
288.129	162584
288.187	259258
288.245	107614
288.303	43209
288.361	24543
288.419	16980
288.477	11452
288.535	8655
288.593	7200
288.651	6694
288.709	5326
288.767	5185
288.825	4109
288.883	4464
288.941	4034
288.999	3117
289.057	2792
289.115	2524
289.173	3559
289.231	3280
289.289	3884
289.346	2586
289.404	4002
289.462	6677
289.520	6335
289.578	3593
289.636	2744
289.694	2506
289.751	2210
289.809	2724
289.867	3173
289.925	4724
289.983	3190
290.040	2997
290.098	2746
290.156	3778
290.214	3970
290.271	1910
290.329	2263
290.387	2278
290.444	2543
290.502	1628
290.560	2729
290.617	2987
290.675	2117
290.733	2607
290.790	2590
290.848	2483
290.906	3614
290.963	2245
291.021	3140
291.078	2746
291.136	4324
291.194	17476
291.251	23153
291.309	6634
291.366	2905
291.424	2280
291.481	3086
291.539	1936
291.596	2836
291.654	1396
291.711	2034
291.769	3273
291.826	6554
291.884	3014
291.941	2546
291.999	2982
292.056	2872
292.114	3702
292.171	2660
292.228	2533
292.286	3012
292.343	6584
292.401	7346
292.458	4494
292.515	3662
292.573	4506
292.630	3438
292.687	2879
292.745	4049
292.802	6453
292.859	16243
292.917	24250
292.974	9975
293.031	4077
293.089	3387
293.146	2660
293.203	2840
293.260	2502
293.318	4231
293.375	6486
293.432	3733
293.489	2633
293.546	3099
293.604	5112
293.661	20604
293.718	39048
293.775	16093
293.832	7978
293.889	6371
293.947	4757
294.004	4112
294.061	5177
294.118	14437
294.175	26835
294.232	27403
294.289	9448
294.346	7002
294.403	6865
294.460	5382
294.517	3053
294.574	3010
294.631	3792
294.688	5728
294.745	17834
294.802	55096
294.859	43173
294.916	14812
294.973	8763
295.030	6620
295.087	5424
295.144	4726
295.201	4416
295.258	3781
295.315	6012
295.372	22969
295.429	30893
295.486	11935
295.542	9695
295.599	30604
295.656	33866
295.713	26935
295.770	27573
295.827	10658
295.883	6064
295.940	6350
295.997	10188
296.054	7239
296.111	4611
296.167	3553
296.224	3199
296.281	3766
296.338	2818
296.394	3818
296.451	5582
296.508	19596
296.564	23730
296.621	18086
296.678	45248
296.734	43774
296.791	15748
296.848	9592
296.904	11579
296.961	24401
297.018	37893
297.074	20765
297.131	9129
297.187	7358
297.244	12656
297.301	49590
297.357	53557
297.414	17362
297.470	9732
297.527	6366
297.583	4441
297.640	5054
297.696	3248
297.753	3479
297.809	2778
297.866	2881
297.922	3390
297.979	2783
298.035	4222
298.092	9459
298.148	24127
298.204	14716
298.261	8319
298.317	23391
298.374	43244
298.430	18460
298.486	10705
298.543	7612
298.599	7153
298.656	9259
298.712	18782
298.768	40760
298.824	21757
298.881	8861
298.937	5822
298.993	5439
299.050	5424
299.106	5060
299.162	4947
299.218	5002
299.275	4479
299.331	5212
299.387	14022
299.443	42477
299.500	27710
299.556	10771
299.612	7650
299.668	5402
299.724	5078
299.780	5313
299.837	5663
299.893	11435
299.949	33850
300.005	27284
300.061	33656
300.117	46388
300.173	18292
300.229	10001
300.285	13207
300.341	11521
300.397	6054
300.453	4699
300.510	4211
300.566	4058
300.622	4458
300.678	12847
300.734	23194
300.790	30884
300.845	31267
300.901	18973
300.957	26941
301.013	17322
301.069	6607
301.125	6048
301.181	6353
301.237	4734
301.293	2985
301.349	3659
301.405	3416
301.461	4182
301.516	5669
301.572	6186
301.628	8121
301.684	8523
301.740	16098
301.796	19929
301.851	14385
301.907	23873
301.963	21800
302.019	51937
302.074	112408
302.130	84740
302.186	35165
302.242	17484
302.297	11754
302.353	13804
302.409	23107
302.464	16628
302.520	17151
302.576	42021
302.631	36544
302.687	18370
302.743	8856
302.798	6805
302.854	5429
302.910	5903
302.965	7366
303.021	12119
303.076	9942
303.132	14682
303.187	14107
303.243	7543
303.299	5593
303.354	4921
303.410	4952
303.465	4095
303.521	4206
303.576	4168
303.632	5835
303.687	15721
303.743	37019
303.798	22413
303.853	9662
303.909	6586
303.964	5889
304.020	10124
304.075	11767
304.130	12184
304.186	19909
304.241	19205
304.297	14109
304.352	7461
304.358	7188
304.407	4971
304.449	5022
304.463	5039
304.518	5095
304.539	5039
304.573	4960
304.629	5205
304.630	5324
304.684	11157
304.720	24547
304.739	31088
304.794	33093
304.811	27858
304.850	15310
304.902	7897
304.905	7456
304.960	7415
304.992	7400
305.015	7250
305.071	6012
305.083	5729
305.126	4829
305.173	3438
305.181	3216
305.236	3888
305.264	4072
305.292	4336
305.347	5881
305.354	6002
305.402	6762
305.445	7427
305.457	7574
305.512	8491
305.535	8066
305.567	7632
305.622	9006
305.626	9515
305.678	21560
305.716	39518
305.733	45004
305.788	36328
305.807	31775
305.843	26160
305.897	39570
305.898	39692
305.953	30348
305.988	19943
306.008	14972
306.063	10449
306.078	9449
306.118	7097
306.168	4933
306.173	4789
306.228	4529
306.259	4477
306.283	4472
306.338	4692
306.349	4816
306.393	5624
306.440	7058
306.448	7236
306.503	6587
306.530	7481
306.558	10738
306.613	21971
306.620	23226
306.668	30117
306.711	39036
306.723	39325
306.778	24344
306.801	17859
306.833	11990
306.888	7370
306.892	7095
306.943	5604
306.982	5780
306.997	5818
307.052	5221
307.072	5009
307.107	5672
307.162	8579
307.163	8603
307.217	11886
307.253	14248
307.272	14410
307.327	13120
307.343	12286
307.381	11403
307.434	11645
307.436	12077
307.491	24975
307.524	35561
307.546	36938
307.600	30518
307.614	27231
307.655	18021
307.704	11761
307.710	11882
307.765	15057
307.795	19186
307.819	22853
307.874	30347
307.885	30755
307.929	27143
307.975	24935
307.984	26900
308.038	43603
308.065	55943
308.093	94273
308.148	193444
308.156	210811
308.202	277493
308.246	298052
308.257	283406
308.312	163119
308.336	116214
308.366	89890
308.421	52796
308.426	49623
308.475	33964
308.517	23941
308.530	22584
308.585	19544
308.607	18919
308.639	19353
308.694	20765
308.697	20945
308.748	33683
308.787	45017
308.803	43748
308.857	31832
308.877	27857
308.912	28337
308.967	31505
308.967	31533
309.021	44645
309.058	56020
309.076	73186
309.130	131186
309.148	154417
309.185	244257
309.238	388591
309.239	389542
309.293	378416
309.328	344092
309.348	298173
309.402	161790
309.418	126094
309.457	92539
309.508	55770
309.511	54918
309.566	44288
309.598	39595
309.620	40172
309.674	42702
309.688	43600
309.729	40295
309.778	33984
309.783	33465
309.837	27632
309.868	24890
309.892	31979
309.946	51130
309.959	56251
310.001	67426
310.049	74985
310.055	71959
310.109	39439
310.139	22501
310.163	18624
310.218	12654
310.229	11573
310.272	10260
310.319	8649
310.326	8519
310.381	8103
310.409	7853
310.435	7543
310.489	7146
310.499	7054
310.543	7898
310.589	8757
310.598	8705
310.652	8384
310.679	8105
310.706	7517
310.760	6208
310.769	6022
310.814	5473
310.859	4923
310.868	4966
310.923	5199
310.948	5317
310.977	5859
311.031	6982
311.038	7093
311.085	6883
311.128	6666
311.139	6627
311.193	6451
311.218	6319
311.247	5927
311.301	5084
311.308	4987
311.356	5514
311.398	5933
311.410	5908
311.464	5675
311.488	5564
311.518	5627
311.572	5785
311.578	5787
311.626	7911
311.668	9815
311.680	9847
311.734	9752
311.758	9690
311.788	9414
311.842	8854
311.847	8780
311.896	12937
311.937	16531
311.950	16082
312.004	13839
312.027	12801
312.058	10490
312.112	6359
312.117	5937
312.165	6478
312.207	6930
312.297	11430
312.386	8218
312.476	8231
312.566	14663
312.656	6760
312.745	5762
312.835	6614
312.925	8423
313.015	7369
313.104	7857
313.194	5549
313.284	5737
313.374	7946
313.463	6683
313.553	5229
313.643	4906
313.732	4822
313.822	5348
313.912	6073
314.001	7598
314.091	9271
314.180	11744
314.270	8920
314.360	10183
314.449	7583
314.539	5158
314.628	5562
314.718	7338
314.808	8143
314.897	4866
314.987	4979
315.076	7440
315.166	9758
315.255	8099
315.345	8919
315.434	8105
315.524	6872
315.613	8647
315.703	10547
315.792	11316
315.881	15177
315.971	9741
316.060	16663
316.150	24838
316.239	23744
316.328	8657
316.418	5473
316.507	5337
316.597	7941
316.686	7442
316.775	13371
316.865	24359
316.954	4545
317.043	5036
317.133	5812
317.222	5567
317.311	4479
317.400	4220
317.490	7413
317.579	7747
317.668	5284
317.757	8673
317.847	12860
317.936	28357
318.025	20777
318.114	12048
318.203	9845
318.293	19309
318.382	36245
318.471	26672
318.560	44434
318.649	81900
318.738	13660
318.828	10355
318.917	10317
319.006	14476
319.095	37613
319.184	105997
319.273	46351
319.362	20749
319.451	8304
319.540	7695
319.629	20402
319.718	28307
319.807	12931
319.896	38704
319.985	126104
320.074	34131
320.163	11422
320.252	17713
320.341	15939
320.430	14018
320.519	16289
320.608	9034
320.697	7862
320.786	7834
320.875	9591
320.964	13577
321.053	20002
321.142	30077
321.230	26719
321.319	25459
321.408	56681
321.497	20595
321.586	20325
321.675	28174
321.764	23046
321.852	17219
321.941	31661
322.030	17715
322.119	24936
322.207	56894
322.296	37152
322.385	18947
322.474	21524
322.562	69740
322.651	29366
322.740	23246
322.829	30459
322.917	35738
323.006	18690
323.095	15797
323.183	12992
323.272	19520
323.361	40910
323.449	106917
323.538	30332
323.626	80462
323.715	34941
323.804	19435
323.892	70921
323.981	31306
324.069	10687
324.158	42244
324.246	29843
324.335	12436
324.424	18076
324.512	7477
324.601	9235
324.689	13607
324.778	21839
324.866	24201
324.954	6822
325.043	7625
325.131	16072
325.220	29141
325.308	30453
325.397	24044
325.485	11856
325.574	5171
325.662	4648
325.750	6690
325.839	4395
325.927	5914
326.015	7094
326.104	13700
326.192	15855
326.280	5452
326.369	5928
326.457	8895
326.545	16481
326.634	7000
326.722	3760
326.810	4589
326.898	4383
326.987	6787
327.075	16407
327.163	15786
327.251	7452
327.340	9115
327.428	9949
327.516	5129
327.604	5022
327.692	6071
327.781	6890
327.869	13399
327.957	7910
328.045	8516
328.133	4025
328.221	6239
328.309	5360
328.397	5095
328.485	6619
328.574	10111
328.662	36855
328.750	18669
328.838	7299
328.926	5322
329.014	4534
329.102	9164
329.190	27117
329.278	14987
329.366	4995
329.454	5254
329.542	5593
329.630	5887
329.718	6167
329.806	8848
329.893	10365
329.981	14459
330.069	27752
330.157	131680
330.245	319902
330.333	151501
330.421	26428
330.509	17800
330.597	48266
330.684	28313
330.772	12774
330.860	17764
330.948	23647
331.036	8912
331.123	4343
331.211	6582
331.299	7263
331.387	22446
331.475	33484
331.562	8991
331.650	4563
331.738	5664
331.825	8644
331.913	4575
332.001	4262
332.089	6678
332.176	15401
332.264	38202
332.352	24952
332.439	8761
332.527	7191
332.614	6118
332.702	7104
332.790	6133
332.877	17910
332.965	30565
333.052	7225
333.140	9028
333.228	17277
333.315	5620
333.403	6498
333.490	21037
333.578	16107
333.665	17339
333.753	9301
333.840	5295
333.928	7946
334.015	22231
334.103	41068
334.190	125575
334.278	23928
334.365	9603
334.452	6149
334.540	4583
334.627	6549
334.715	9679
334.802	23402
334.889	134194
334.977	102698
335.064	10379
335.151	5784
335.239	7798
335.326	10994
335.413	68779
335.501	76333
335.588	8768
335.675	5992
335.762	10665
335.850	17247
335.937	8849
336.024	31433
336.111	133076
336.199	40955
336.286	7002
336.373	4222
336.460	4300
336.547	3862
336.635	7585
336.722	5663
336.809	6004
336.896	8895
336.983	38616
337.070	96032
337.157	126849
337.245	87565
337.332	49882
337.419	6713
337.506	5635
337.593	6747
337.680	34795
337.767	91619
337.854	23158
337.941	26616
338.028	28628
338.115	9268
338.202	13016
338.289	26288
338.376	80382
338.463	23058
338.550	58456
338.637	52435
338.724	18085
338.811	22918
338.898	5604
338.984	4610
339.071	7269
339.158	8397
339.245	22771
339.332	12266
339.419	18553
339.506	14963
339.593	3219
339.679	4208
339.766	4756
339.853	7097
339.940	15138
340.027	4270
340.113	6123
340.200	8190
340.287	5613
340.374	8236
340.460	12769
340.547	5399
340.634	11774
340.720	42668
340.807	21618
340.894	3545
340.980	4938
341.067	4085
341.154	5426
341.240	8597
341.327	19011
341.414	5950
341.500	6472
341.587	4787
341.674	4862
341.760	12686
341.847	15151
341.933	4802
342.020	2331
342.106	2574
342.193	5500
342.279	10139
342.366	7990
342.452	12834
342.539	6813
342.625	18681
342.712	44378
342.798	17453
342.885	6901
342.971	2465
343.058	2920
343.144	2897
343.230	3947
343.317	3482
343.403	3678
343.490	2924
343.576	3277
343.662	3396
343.749	5091
343.835	6708
343.921	14384
344.008	97677
344.094	193909
344.180	35806
344.267	14885
344.353	58244
344.439	54247
344.525	21399
344.612	11369
344.698	10860
344.784	7933
344.870	2885
344.957	4258
345.043	7080
345.129	5849
345.215	11800
345.301	6016
345.387	4281
345.474	3238
345.560	3664
345.646	5714
345.732	4675
345.818	5341
345.904	4458
345.990	5240
346.076	5316
346.162	10677
346.249	4295
346.335	4314
346.421	4582
346.507	25034
346.593	77695
346.679	16323
346.765	5036
346.851	4729
346.937	4165
347.023	4781
347.108	5014
347.194	3747
347.280	3212
347.366	5959
347.452	23574
347.538	95524
347.624	65785
347.710	51006
347.796	7990
347.882	4510
347.967	5099
348.053	8406
348.139	4733
348.225	3549
348.311	3205
348.397	2974
348.482	5123
348.568	6878
348.654	2426
348.740	2675
348.825	3350
348.911	9358
348.997	47437
349.083	83735
349.168	12037
349.254	4808
349.340	4689
349.425	3987
349.511	5516
349.597	7911
349.682	16384
349.768	52366
349.854	22319
349.939	4755
350.025	2807
350.110	5115
350.196	3077
350.282	2742
350.367	3024
350.453	8280
350.538	7490
350.624	7011
350.709	6268
350.795	3821
350.880	4066
350.966	5040
351.051	7613
351.137	5644
351.222	5016
351.308	17799
351.393	42756
351.479	10627
351.564	3791
351.649	3591
351.735	2808
351.820	2774
351.906	4323
351.991	7495
352.076	30572
352.162	42322
352.247	7001
352.332	5908
352.418	11336
352.503	15278
352.588	64372
352.673	46782
352.759	9693
352.844	5189
352.929	6138
353.014	8921
353.100	4410
353.185	6467
353.270	13634
353.355	14706
353.441	4448
353.526	6374
353.611	13481
353.696	15014
353.781	9118
353.866	3898
353.952	4844
354.037	14462
354.122	29492
354.207	27053
354.292	10124
354.377	3904
354.462	3910
354.547	6661
354.632	5757
354.717	8606
354.802	7030
354.887	4327
354.972	3567
355.057	3296
355.142	2287
355.227	5475
355.312	8679
355.397	21487
355.482	46727
355.567	22429
355.652	16454
355.737	19528
355.822	61298
355.907	46701
355.991	6880
356.076	3164
356.161	3742
356.246	3667
356.331	3757
356.416	15222
356.501	101247
356.585	98471
356.670	12853
356.755	7931
356.840	12825
356.924	72149
357.009	225402
357.094	81271
357.179	16867
357.263	11331
357.348	11412
357.433	11263
357.517	10607
357.602	8884
357.687	5999
357.771	13946
357.856	43344
357.941	26731
358.025	62689
358.110	226592
358.195	101131
358.279	13787
358.364	11514
358.448	42201
358.533	109197
358.617	78867
358.702	74548
358.787	27025
358.871	14747
358.956	12259
359.040	3912
359.125	3076
359.209	4285
359.294	22073
359.378	35004
359.462	12853
359.547	6290
359.631	5036
359.716	2718
359.800	5243
359.885	8805
359.969	5691
360.053	5170
360.138	5449
360.222	8250
360.306	14937
360.391	12094
360.475	26004
360.559	50471
360.644	41741
360.728	29036
360.812	58010
360.896	145357
360.981	60772
361.065	30272
361.149	8082
361.233	7396
361.318	6699
361.402	6541
361.486	5883
361.570	4335
361.654	6690
361.739	21371
361.823	100206
361.907	142127
361.991	24059
362.075	13477
362.159	28318
362.243	18957
362.327	13639
362.411	12194
362.495	9214
362.580	7244
362.664	4322
362.748	2952
362.832	4727
362.916	6354
363.000	21254
363.084	92496
363.168	161098
363.252	34847
363.336	12464
363.420	20314
363.503	85162
363.587	96082
363.671	15060
363.755	10693
363.839	13329
363.923	6665
364.007	15306
364.091	17728
364.175	34563
364.258	125040
364.342	65994
364.426	25845
364.510	17685
364.594	16494
364.677	32406
364.761	127480
364.845	88981
364.929	25459
365.013	20813
365.096	17277
365.180	21645
365.264	40622
365.347	129118
365.431	57004
365.515	13781
365.598	5519
365.682	6092
365.766	14915
365.849	17484
365.933	7749
366.017	11305
366.100	8982
366.184	3631
366.267	4294
366.351	4454
366.435	3492
366.518	3050
366.602	3345
366.685	4442
366.769	4903
366.852	13378
366.936	19832
367.019	10011
367.103	10041
367.186	20046
367.270	6031
367.353	2724
367.436	3593
367.520	2373
367.603	4872
367.687	9620
367.770	16457
367.853	11145
367.937	38748
368.020	62285
368.104	13163
368.187	11871
368.270	18147
368.353	17331
368.437	24747
368.520	51477
368.603	31357
368.687	46652
368.770	78924
368.853	20269
368.936	18985
369.020	20663
369.103	6842
369.186	4036
369.269	5767
369.352	11663
369.436	16586
369.519	11168
369.602	5084
369.685	5876
369.768	7150
369.851	5479
369.934	3942
370.018	6716
370.101	13758
370.184	12207
370.267	8572
370.350	16219
370.433	27390
370.516	66218
370.599	73857
370.682	20469
370.765	38807
370.848	55748
370.931	97535
371.014	39310
371.097	6854
371.180	5446
371.263	3292
371.346	3510
371.429	2841
371.511	3809
371.594	8654
371.677	17066
371.760	20974
371.843	17651
371.926	89267
372.009	181280
372.091	58546
372.174	41746
372.257	93011
372.340	38433
372.423	27140
372.505	34320
372.588	14893
372.671	33042
372.754	93402
372.836	50434
372.919	41934
373.002	77032
373.085	22856
373.167	14817
373.250	43747
373.332	93766
373.415	135980
373.498	242938
373.580	94455
373.663	110048
373.746	148533
373.828	34737
373.911	13991
373.993	20782
374.076	75171
374.159	71708
374.241	30748
374.324	77612
374.406	55530
374.489	81627
374.571	203114
374.654	87030
374.736	43562
374.819	129123
374.901	185578
374.983	179116
375.066	31979
375.148	14423
375.231	64175
375.313	115900
375.395	42907
375.478	8067
375.560	5467
375.643	9953
375.725	43993
375.807	154394
375.890	125130
375.972	48412
376.054	26838
376.136	40246
376.219	20044
376.301	51432
376.383	130340
376.465	53585
376.548	26945
376.630	44922
376.712	109466
376.794	53667
376.877	5846
376.959	3648
377.041	5597
377.123	16012
377.205	19798
377.287	4105
377.369	2179
377.452	3859
377.534	3642
377.616	3714
377.698	3721
377.780	3858
377.862	3960
377.944	3989
378.026	2548
378.108	3231
378.190	2162
378.272	3674
378.354	1391
378.436	2773
378.518	9845
378.600	31807
378.682	29470
378.764	54615
378.846	43864
378.928	13937
379.010	15806
379.091	9295
379.173	4277
379.255	3970
379.337	7495
379.419	29592
379.501	76240
379.583	33629
379.664	7794
379.746	20641
379.828	53438
379.910	75230
379.991	63443
380.073	11391
380.155	5732
380.237	5090
380.318	3097
380.400	5001
380.482	9965
380.564	18545
380.645	15331
380.727	14272
380.809	8507
380.890	5686
380.972	3770
381.053	4511
381.135	6416
381.217	20558
381.298	53486
381.380	29505
381.461	27762
381.543	111318
381.624	136493
381.706	26367
381.787	11836
381.869	14654
381.951	58084
382.032	178584
382.113	119180
382.195	23536
382.276	14263
382.358	36915
382.439	100010
382.521	122566
382.602	171830
382.684	86848
382.765	134104
382.846	141535
382.928	129002
383.009	79753
383.090	71793
383.172	215460
383.253	290994
383.334	130493
383.416	146610
383.497	80816
383.578	33644
383.659	66006
383.741	219045
383.822	447547
383.903	244152
383.984	111229
384.066	182429
384.147	116686
384.228	22798
384.309	15644
384.390	10793
384.471	8045
384.553	9024
384.634	14378
384.715	13884
384.796	7558
384.877	12260
384.958	47599
385.039	60417
385.120	21281
385.201	8986
385.282	12947
385.363	13057
385.444	12423
385.525	24537
385.606	80046
385.687	71166
385.768	15951
385.849	23350
385.930	90953
386.011	150055
386.092	43490
386.173	8683
386.254	7832
386.335	8034
386.416	10758
386.496	34261
386.577	54833
386.658	20544
386.739	12590
386.820	11187
386.901	10642
386.981	8239
387.062	5415
387.143	14010
387.224	50350
387.304	50608
387.385	17058
387.466	10779
387.547	14359
387.627	9360
387.708	24220
387.789	94770
387.869	119027
387.950	32976
388.031	6184
388.111	6694
388.192	20798
388.273	29791
388.353	16466
388.434	8438
388.514	24246
388.595	92724
388.676	119617
388.756	56239
388.837	47363
388.917	31354
388.998	6418
389.078	6889
389.159	6135
389.239	5299
389.320	9178
389.400	8536
389.480	23810
389.561	56171
389.641	30518
389.722	9714
389.802	15995
389.883	28421
389.963	67599
390.043	46927
390.124	15295
390.204	22758
390.284	59162
390.365	45072
390.445	68184
390.525	169799
390.605	150998
390.686	39401
390.766	12198
390.846	5866
390.927	5076
391.007	4867
391.087	7186
391.167	7309
391.247	5986
391.328	10865
391.408	17535
391.488	13094
391.568	3785
391.648	6719
391.728	10488
391.808	10124
391.888	11943
391.969	31405
392.049	50908
392.129	23799
392.209	28607
392.289	62929
392.369	39343
392.449	32063
392.529	19936
392.609	11896
392.689	21136
392.769	59191
392.849	54979
392.929	38895
393.009	88870
393.089	61307
393.169	29115
393.248	102698
393.328	379033
393.408	411910
393.488	93545
393.568	23115
393.648	14143
393.728	10243
393.807	10641
393.887	10986
393.967	12265
394.047	16319
394.127	23431
394.206	50172
394.286	188088
394.366	565965
394.446	617238
394.525	205211
394.605	54974
394.685	35977
394.764	56000
394.844	84900
394.924	61349
395.003	18984
395.083	13927
395.163	11359
395.242	11214
395.322	11778
395.402	8890
395.481	14532
395.561	41131
395.640	89133
395.720	72591
395.799	102900
395.879	98722
395.958	86887
396.038	281096
396.117	722652
396.197	785673
396.276	336615
396.356	114238
396.435	64611
396.515	39204
396.594	29268
396.673	39723
396.753	125644
396.832	355962
396.912	289308
396.991	76899
397.070	18627
397.150	10816
397.229	8610
397.308	9444
397.388	10125
397.467	8616
397.546	5259
397.625	4138
397.705	7884
397.784	8255
397.863	4082
397.942	3723
398.022	6085
398.101	31059
398.180	82698
398.259	46324
398.338	11534
398.417	7785
398.497	5194
398.576	5567
398.655	2689
398.734	2798
398.813	5297
398.892	30169
398.971	87011
399.050	48704
399.129	5263
399.208	3023
399.287	3869
399.366	3430
399.445	2624
399.524	3903
399.603	3450
399.682	9080
399.761	31508
399.840	92796
399.919	77217
399.998	10480
400.077	3185
400.156	2206
400.235	4666
400.313	3906
400.392	5564
400.471	28127
400.550	44800
400.629	13295
400.708	5215
400.786	7320
400.865	19054
400.944	22113
401.023	9377
401.102	1918
401.180	2157
401.259	3513
401.338	4346
401.416	5915
401.495	5137
401.574	4957
401.652	3559
401.731	6013
401.810	4179
401.888	2376
401.967	2244
402.046	2736
402.124	5854
402.203	7630
402.281	4480
402.360	8698
402.438	24174
402.517	19121
402.596	6101
402.674	4911
402.753	3525
402.831	3025
402.910	3298
402.988	12183
403.066	31124
403.145	20265
403.223	12422
403.302	23546
403.380	18758
403.459	14411
403.537	7254
403.615	3870
403.694	1341
403.772	2638
403.850	948
403.929	2059
404.007	2294
404.085	5303
404.164	4566
404.242	3940
404.320	16993
404.398	53282
404.477	74288
404.555	143373
404.633	130771
404.711	43491
404.789	24223
404.868	6486
404.946	1661
405.024	2439
405.102	1295
405.180	1372
405.258	674
405.336	2683
405.415	2478
405.493	7929
405.571	5476
405.649	1295
405.727	1460
405.805	4588
405.883	4003
405.961	5511
406.039	6884
406.117	2875
406.195	6686
406.273	36893
406.351	113557
406.429	76970
406.507	12654
406.585	4378
406.663	3482
406.740	5299
406.818	4579
406.896	2772
406.974	2739
407.052	12437
407.130	66982
407.208	96764
407.285	21333
407.363	3602
407.441	2287
407.519	3571
407.596	3492
407.674	12132
407.752	31514
407.830	36471
407.907	15093
407.985	3772
408.063	2018
408.141	2155
408.218	6249
408.296	5580
408.373	2010
408.451	3988
408.529	3325
408.606	2171
408.684	926
408.762	1329
408.839	652
408.917	598
408.994	1240
409.072	729
409.149	339
409.227	2655
409.304	3024
409.382	1800
409.459	1601
409.537	3118
409.614	3443
409.692	1785
409.769	1819
409.846	3003
409.924	4859
410.001	4387
410.079	2863
410.156	3538
410.233	3525
410.311	3016
410.388	1996
410.465	3143
410.543	3513
410.620	2753
410.697	2345
410.775	4302
410.852	125
410.929	3586
411.006	4369
411.083	3384
411.161	9472
411.238	11309
411.315	5451
411.392	1749
411.469	4593
411.547	5761
411.624	2154
411.701	3511
411.778	3534
411.855	7948
411.932	4354
412.009	2622
412.086	2060
412.163	2569
412.240	3681
412.317	6262
412.394	5538
412.471	2480
412.548	908
412.625	1860
412.702	3135
412.779	7848
412.856	5902
412.933	2031
413.010	2325
413.087	7088
413.164	24524
413.241	37831
413.318	9211
413.395	5825
413.471	7301
413.548	4743
413.625	2645
413.702	3175
413.779	3172
413.855	1306
413.932	559
414.009	577
414.086	733
414.162	1736
414.239	5878
414.316	26105
414.393	54067
414.469	22579
414.546	1670
414.623	819
414.699	1313
414.776	2493
414.853	1129
414.929	2507
415.006	2257
415.082	3106
415.159	3182
415.236	2295
415.312	2306
415.389	5245
415.465	6765
415.542	4392
415.618	1780
415.695	5040
415.771	3035
415.848	2832
415.924	2325
416.000	2597
416.077	1217
416.153	508
416.230	-1283
416.306	855
416.383	1522
416.459	2030
416.535	894
416.612	1115
416.688	1448
416.764	280
416.841	231
416.917	1831
416.993	1478
417.069	3064
417.146	5148
417.222	7675
417.298	4521
417.374	2228
417.451	2473
417.527	4037
417.603	3463
417.679	2661
417.755	1077
417.831	54
417.908	526
417.984	493
418.060	988
418.136	6020
418.212	8787
418.288	3516
418.364	1896
418.440	1525
418.516	3726
418.592	7546
418.668	12196
418.744	16482
418.820	12085
418.896	3364
418.972	833
419.048	2155
419.124	6736
419.200	5345
419.276	1127
419.352	169
419.428	414
419.504	1884
419.579	2725
419.655	1387
419.731	2432
419.807	9159
419.883	18878
419.959	13037
420.034	3714
420.110	9413
420.186	31792
420.262	29085
420.337	4215
420.413	2941
420.489	1659
420.565	2099
420.640	75
420.716	1573
420.792	-230
420.867	1625
420.943	826
421.019	4136
421.094	3237
421.170	2024
421.245	-542
421.321	1274
421.397	1194
421.472	5263
421.548	13105
421.623	10954
421.699	3365
421.774	2852
421.850	1677
421.925	5566
422.001	3796
422.076	2422
422.152	2732
422.227	6141
422.302	6178
422.378	7499
422.453	15377
422.529	41111
422.604	160137
422.679	320093
422.755	187774
422.830	44781
422.905	12770
422.981	6926
423.056	4356
423.131	3962
423.207	2345
423.282	3901
423.357	7990
423.432	6736
423.508	6325
423.583	14300
423.658	12046
423.733	4792
423.808	4080
423.883	4764
423.959	3236
424.034	2378
424.109	2048
424.184	822
424.259	628
424.334	1035
424.409	199
424.484	403
424.559	1653
424.634	1411
424.709	2301
424.784	3207
424.859	2371
424.934	5728
425.009	22206
425.084	38796
425.159	15510
425.234	2335
425.309	660
425.384	8402
425.459	15720
425.534	6407
425.609	1662
425.683	2165
425.758	978
425.833	1889
425.908	3516
425.983	14488
426.058	37509
426.132	20022
426.207	4246
426.282	7151
426.357	5678
426.431	1515
426.506	1010
426.581	1896
426.655	1801
426.730	1274
426.805	508
426.879	2614
426.954	1976
427.029	7639
427.103	41009
427.178	94818
427.253	47890
427.327	6160
427.402	8733
427.476	20266
427.551	11375
427.625	3687
427.700	2886
427.774	1429
427.849	2782
427.923	1363
427.998	1308
428.072	2404
428.147	6083
428.221	19641
428.296	40152
428.370	21359
428.444	4422
428.519	9178
428.593	17104
428.667	17964
428.742	17811
428.816	17621
428.890	35199
428.965	52082
429.039	24081
429.113	20707
429.188	8487
429.262	2443
429.336	5956
429.410	16531
429.485	13451
429.559	14880
429.633	13075
429.707	3585
429.781	10086
429.855	44936
429.930	63546
430.004	52609
430.078	84959
430.152	72125
430.226	61601
430.300	62153
430.374	10271
430.448	6544
430.522	30157
430.596	81076
430.670	52550
430.744	69299
430.818	108533
430.892	27421
430.966	3099
431.040	1971
431.114	130
431.188	679
431.262	1672
431.336	1691
431.410	8640
431.484	21804
431.557	15021
431.631	1440
431.705	785
431.779	7478
431.853	29466
431.927	22969
432.000	2918
432.074	1458
432.148	2164
432.222	2908
432.295	1306
432.369	1297
432.443	5683
432.516	40556
432.590	93710
432.664	39927
432.737	3467
432.811	539
432.885	-147
432.958	736
433.032	-149
433.106	-717
433.179	-424
433.253	369
433.326	-343
433.400	898
433.473	986
433.547	237
433.620	394
433.694	3139
433.767	3679
433.841	915
433.914	756
433.988	558
434.061	299
434.134	357
434.208	-757
434.281	859
434.355	-619
434.428	858
434.501	1018
434.575	738
434.648	1094
434.721	47
434.795	-614
434.868	-213
434.941	-874
435.014	-487
435.088	-91
435.161	1697
435.234	2244
435.307	4156
435.381	996
435.454	746
435.527	993
435.600	408
435.673	-60
435.746	384
435.819	91
435.892	951
435.966	-804
436.039	330
436.112	815
436.185	-268
436.258	-1342
436.331	-804
436.404	-426
436.477	192
436.550	-655
436.623	744
436.696	642
436.769	188
436.842	323
436.915	1662
436.987	2211
437.060	463
437.133	411
437.206	-203
437.279	614
437.352	290
437.425	-179
437.498	1012
437.570	3528
437.643	3966
437.716	524
437.789	143
437.861	4098
437.934	12374
438.007	5274
438.080	955
438.152	1437
438.225	7551
438.298	52336
438.370	128856
438.443	58207
438.516	11665
438.588	2379
438.661	895
438.734	335
438.806	1375
438.879	1271
438.951	3104
439.024	6194
439.096	1921
439.169	972
439.241	220
439.314	84
439.386	2720
439.459	4236
439.531	6119
439.604	1845
439.676	214
439.749	15
439.821	180
439.893	-643
439.966	706
440.038	1326
440.110	2208
440.183	471
440.255	1071
440.327	2790
440.400	22787
440.472	78474
440.544	54760
440.617	6059
440.689	4705
440.761	4982
440.833	9635
440.905	5007
440.978	481
441.050	210
441.122	774
441.194	-549
441.266	891
441.338	-26
441.411	4268
441.483	22719
441.555	34532
441.627	7380
441.699	4218
441.771	3183
441.843	906
441.915	-606
441.987	29
442.059	503
442.131	927
442.203	2872
442.275	3410
442.347	3082
442.419	1777
442.491	10170
442.563	23682
442.635	15267
442.706	18768
442.778	15134
442.850	1544
442.922	70
442.994	1354
443.066	3190
443.137	2857
443.209	430
443.281	1944
443.353	5253
443.425	18079
443.496	48238
443.568	44129
443.640	14055
443.711	2994
443.783	927
443.855	970
443.926	-47
443.998	1084
444.070	1860
444.141	1797
444.213	3214
444.285	4275
444.356	3000
444.428	2756
444.499	564
444.571	-425
444.642	-462
444.714	830
444.785	2380
444.857	5629
444.928	14238
445.000	7534
445.071	8078
445.143	10295
445.214	3836
445.285	7845
445.357	25240
445.428	46408
445.500	88825
445.571	58836
445.642	22894
445.714	17067
445.785	22246
445.856	5456
445.928	4077
445.999	4317
446.070	2871
446.141	2350
446.213	2494
446.284	1395
446.355	2573
446.426	1568
446.497	-146
446.569	4201
446.640	5629
446.711	3632
446.782	-138
446.853	2390
446.924	2111
446.995	923
447.066	1592
447.138	5177
447.209	2696
447.280	-567
447.351	-938
447.422	-391
447.493	1758
447.564	2630
447.635	3127
447.706	982
447.777	-277
447.847	-297
447.918	127
447.989	2861
448.060	3429
448.131	10079
448.202	7607
448.273	4481
448.344	1017
448.414	480
448.485	409
448.556	116
448.627	366
448.698	385
448.768	-117
448.839	738
448.910	3677
448.981	4388
449.051	547
449.122	891
449.193	-128
449.263	509
449.334	-499
449.405	2017
449.475	5399
449.546	3745
449.616	5632
449.687	4897
449.758	1280
449.828	641
449.899	358
449.969	-70
450.040	10
450.110	1556
450.181	1498
450.251	677
450.322	233
450.392	1731
450.463	-26
450.533	-144
450.604	483
450.674	339
450.744	526
450.815	285
450.885	644
450.955	142
451.026	362
451.096	97
451.166	1373
451.237	6063
451.307	15435
451.377	4938
451.447	-59
451.518	-539
451.588	-1
451.658	769
451.728	3378
451.799	16552
451.869	18465
451.939	3372
452.009	811
452.079	520
452.149	302
452.219	4488
452.289	18820
452.360	12933
452.430	1049
452.500	1091
452.570	1641
452.640	3656
452.710	10193
452.780	16980
452.850	9698
452.920	8780
452.990	2232
453.060	1965
453.129	2391
453.199	4707
453.269	24247
453.339	46518
453.409	68830
453.479	70491
453.549	103251
453.619	105254
453.688	36560
453.758	4744
453.828	1298
453.898	1402
453.968	207
454.037	1040
454.087	515
454.107	288
454.168	-204
454.177	-295
454.247	-292
454.249	-250
454.316	185
454.330	490
454.386	1355
454.411	4178
454.456	8820
454.492	11328
454.525	13608
454.574	6391
454.595	3300
454.655	1397
454.665	1073
454.734	1952
454.736	2077
454.804	4588
454.817	6909
454.873	15958
454.898	16697
454.943	18293
454.979	11577
455.013	5643
455.060	2848
455.082	1612
455.141	3812
455.152	4226
455.221	13441
455.222	13725
455.291	26923
455.303	26910
455.360	25879
455.384	36474
455.430	54318
455.465	40017
455.499	27383
455.546	19835
455.569	16080
455.627	9346
455.638	8188
455.707	846
455.708	861
455.777	597
455.789	707
455.846	1159
455.869	876
455.916	386
455.950	945
455.985	1309
456.031	832
456.054	677
456.112	487
456.124	447
456.193	951
456.193	936
456.262	1134
456.274	1327
456.332	2140
456.355	2301
456.401	2491
456.436	1676
456.470	751
456.516	731
456.540	826
456.597	483
456.609	381
456.678	626
456.678	617
456.747	-199
456.759	-115
456.817	167
456.840	161
456.886	168
456.920	209
456.955	313
457.001	299
457.024	256
457.082	1312
457.093	1517
457.162	2473
457.163	2491
457.232	2823
457.243	2548
457.301	1366
457.324	1101
457.370	758
457.405	633
457.439	457
457.485	573
457.508	725
457.566	1180
457.577	1218
457.646	1294
457.647	1309
457.715	1783
457.727	1936
457.784	2334
457.808	2546
457.853	2983
457.889	3608
457.922	3929
457.969	3202
457.991	3021
458.050	3522
458.060	3563
458.129	4517
458.130	4549
458.198	4545
458.211	4124
458.267	2698
458.292	2473
458.336	2338
458.372	1948
458.405	2036
458.453	2872
458.474	3134
458.533	4404
458.543	4509
458.611	6913
458.614	6972
458.680	5912
458.694	4990
458.749	2889
458.775	2174
458.818	1071
458.855	1412
458.887	1574
458.936	1018
458.955	908
459.016	1307
459.024	1328
459.093	942
459.097	973
459.162	1790
459.177	1982
459.230	2523
459.257	2651
459.299	2760
459.338	2755
459.368	2577
459.418	3131
459.437	3260
459.499	2326
459.505	2236
459.574	1791
459.579	1787
459.643	1978
459.659	1863
459.711	1431
459.740	1628
459.780	2017
459.820	2272
459.849	2395
459.900	2643
459.917	2718
459.981	3135
459.986	3116
460.054	2327
460.061	2296
460.123	2920
460.141	3020
460.191	3094
460.222	3531
460.260	3883
460.302	3985
460.328	3744
460.382	3117
460.397	3264
460.462	4034
460.465	4236
460.534	9014
460.543	9616
460.602	15690
460.623	18397
460.671	26495
460.703	35720
460.739	30862
460.783	19523
460.808	18316
460.864	6029
460.876	4140
460.944	2886
460.945	2864
461.013	2329
461.024	2329
461.081	2899
461.104	3017
461.150	2739
461.184	2750
461.218	3025
461.264	2903
461.286	2633
461.345	2388
461.355	2456
461.423	2521
461.425	2544
461.491	4599
461.505	4915
461.559	9144
461.585	11308
461.628	14379
461.665	17930
461.696	17554
461.745	19404
461.764	18365
461.825	6109
461.832	5639
461.901	3368
461.905	3382
461.969	2707
461.985	2577
462.037	3482
462.065	3821
462.105	4597
462.145	5935
462.173	7350
462.225	9406
462.241	9878
462.305	13918
462.310	13607
462.378	7455
462.385	6377
462.446	3421
462.465	3135
462.514	3316
462.545	3620
462.582	3564
462.625	3592
462.650	3708
462.705	4036
462.718	4217
462.785	4586
462.786	4609
462.854	6256
462.865	6569
462.922	6791
462.945	7035
462.990	6004
463.025	4135
463.058	3360
463.104	3011
463.126	2971
463.184	3033
463.194	3137
463.262	3695
463.264	3716
463.330	3885
463.344	3955
463.398	4943
463.424	5076
463.466	4287
463.504	4315
463.533	4698
463.583	4655
463.601	4777
463.663	5385
463.669	5590
463.737	7840
463.743	8078
463.805	12800
463.823	14055
463.873	18407
463.903	21448
463.940	20251
463.982	19747
464.008	16683
464.062	6850
464.076	6254
464.142	4023
464.144	4003
464.211	4035
464.221	4072
464.279	4288
464.301	4478
464.347	5162
464.381	5497
464.414	6148
464.461	7141
464.482	7025
464.540	6806
464.550	6866
464.617	7002
464.620	6987
464.685	7172
464.699	7291
464.753	8745
464.779	9444
464.820	9949
464.859	10511
464.888	10483
464.938	10092
464.956	10083
465.018	10175
465.023	10105
465.091	8830
465.098	8680
465.158	8561
465.177	8545
465.226	8662
465.257	8717
465.293	8816
465.336	8992
465.361	9954
465.416	12028
465.428	13048
465.495	18414
465.496	18482
465.563	24466
465.575	25523
465.631	25222
465.654	25396
465.698	17504
465.734	9544
465.765	8809
465.813	8311
465.833	8626
465.893	9876
465.900	9796
465.968	9001
465.972	8932
466.035	9912
466.052	10162
466.102	9597
466.131	9226
466.170	9772
466.210	10314
466.237	10594
466.290	11103
466.304	11254
466.369	11796
466.372	11828
466.439	12140
466.449	12173
466.506	14897
466.528	15890
466.573	21542
466.607	25729
466.641	30930
466.687	38074
466.708	38272
466.766	38945
466.775	36431
466.842	16753
466.845	15790
466.909	13684
466.925	13250
466.977	14071
467.004	14532
467.044	14977
467.083	15358
467.111	16504
467.163	18595
467.178	18612
467.242	18496
467.245	18455
467.312	16934
467.321	16701
467.379	16423
467.400	16279
467.446	16745
467.480	17028
467.559	15301
467.638	14256
467.717	13822
467.796	15143
467.875	14576
467.955	16100
468.034	29269
468.113	42638
468.192	47861
468.271	12757
468.350	11808
468.429	12633
468.508	9445
468.588	11854
468.667	12842
468.746	11372
468.825	11212
468.904	11196
468.983	14406
469.062	18286
469.141	17675
469.220	10421
469.299	10881
469.378	12658
469.456	14103
469.535	12039
469.614	12029
469.693	13797
469.772	15251
469.851	20123
469.930	11668
470.009	11199
470.088	9721
470.166	11581
470.245	12881
470.324	13371
470.403	12296
470.482	11616
470.560	10921
470.639	11077
470.718	11955
470.797	11127
470.875	13538
470.954	16280
471.033	15380
471.111	8628
471.190	8449
471.269	8741
471.347	9634
471.426	10029
471.505	11983
471.583	11315
471.662	11460
471.740	9749
471.819	9635
471.898	9532
471.976	8785
472.055	10257
472.133	10940
472.212	14272
472.290	13077
472.369	9360
472.447	9440
472.526	7697
472.604	9284
472.683	9688
472.761	9276
472.839	9049
472.918	9160
472.996	9798
473.075	10211
473.153	10177
473.231	9135
473.310	10222
473.388	9414
473.466	10263
473.545	11585
473.623	12567
473.701	11109
473.780	9609
473.858	8543
473.936	10064
474.014	9049
474.093	12235
474.171	14999
474.249	19837
474.327	10629
474.405	8339
474.484	8508
474.562	8406
474.640	8879
474.718	11147
474.796	10243
474.874	10328
474.952	8884
475.030	9784
475.108	10246
475.187	11905
475.265	11650
475.343	12940
475.421	11287
475.499	9505
475.577	11029
475.655	16612
475.733	25171
475.811	39031
475.889	33108
475.966	15677
476.044	9165
476.122	9799
476.200	9340
476.278	8230
476.356	8077
476.434	8478
476.512	9088
476.590	10596
476.667	9198
476.745	8210
476.823	8281
476.901	8114
476.979	8403
477.056	9037
477.134	8471
477.212	8934
477.290	7854
477.367	7888
477.445	7237
477.523	8205
477.601	8895
477.678	8103
477.756	9449
477.834	9440
477.911	7548
477.989	7510
478.066	6103
478.144	9639
478.222	8253
478.299	9688
478.377	8311
478.454	7449
478.532	6730
478.609	7885
478.687	8204
478.764	7155
478.842	7970
478.919	9112
478.997	6630
479.074	7158
479.152	8368
479.229	11164
479.307	5604
479.384	6105
479.461	6301
479.539	7678
479.616	8694
479.694	6810
479.771	8598
479.848	9602
479.926	11112
480.003	10868
480.080	7419
480.157	6871
480.235	5871
480.312	7719
480.389	8822
480.467	12884
480.544	13776
480.621	8007
480.698	7124
480.775	8505
480.853	8605
480.930	7185
481.007	8203
481.084	9720
481.161	9534
481.238	8287
481.315	6652
481.392	7048
481.470	6277
481.547	7565
481.624	6615
481.701	6701
481.778	6762
481.855	10172
481.932	14746
482.009	21831
482.086	10194
482.163	6224
482.240	7848
482.317	9398
482.393	7143
482.470	7006
482.547	6995
482.624	6548
482.701	6961
482.778	6710
482.855	5638
482.932	6571
483.009	5453
483.085	8477
483.162	8291
483.239	7846
483.316	5480
483.393	6359
483.469	6488
483.546	8468
483.623	8416
483.699	6264
483.776	6741
483.853	8929
483.930	18662
484.006	36911
484.083	56698
484.160	32963
484.236	46888
484.313	32116
484.389	25352
484.466	22150
484.543	21125
484.619	22333
484.696	23686
484.772	24420
484.849	25057
484.925	21970
485.002	22444
485.078	22429
485.155	22529
485.231	20149
485.308	20228
485.384	21777
485.461	29300
485.537	40386
485.614	38927
485.690	20037
485.766	19816
485.843	21658
485.919	25468
485.995	23911
486.072	16888
486.148	17155
486.224	17234
486.301	19334
486.377	21613
486.453	21634
486.530	22827
486.606	29581
486.682	31837
486.758	35925
486.835	39024
486.911	35222
486.987	52100
487.063	45789
487.139	49240
487.215	35935
487.292	21525
487.368	20308
487.444	22567
487.520	24994
487.596	21678
487.672	25364
487.748	35057
487.824	39510
487.900	21766
487.976	22349
488.052	21197
488.128	25617
488.204	21186
488.280	20017
488.356	29056
488.432	47901
488.508	58976
488.584	19616
488.660	17858
488.736	18502
488.812	18915
488.888	24614
488.964	33433
489.039	56561
489.115	67105
489.191	35172
489.267	17427
489.343	17874
489.418	15504
489.494	16197
489.570	14359
489.646	16041
489.722	16096
489.797	18688
489.873	31322
489.949	50621
490.024	31646
490.100	14736
490.176	16058
490.251	17669
490.327	19696
490.403	14151
490.478	14038
490.554	13133
490.629	13180
490.705	13095
490.781	14422
490.856	14230
490.932	16493
491.007	14928
491.083	15175
491.158	15687
491.234	23096
491.309	39850
491.385	32026
491.460	13506
491.536	14642
491.611	13502
491.686	14897
491.762	22007
491.837	36360
491.913	59982
491.988	74565
492.063	75716
492.139	25476
492.214	17020
492.289	11540
492.365	11566
492.440	13462
492.515	14249
492.590	12965
492.666	10941
492.741	17992
492.816	22033
492.891	11993
492.967	12134
493.042	11450
493.117	12663
493.192	15589
493.267	43305
493.342	98124
493.418	95996
493.493	13183
493.568	9392
493.643	10493
493.718	14477
493.793	18819
493.868	18428
493.943	11541
494.018	11383
494.093	9677
494.168	11036
494.243	8962
494.318	8508
494.393	8830
494.468	8843
494.543	8855
494.618	11435
494.693	9148
494.768	10205
494.842	9588
494.917	9148
494.992	10354
495.067	8222
495.142	8803
495.217	10169
495.292	9196
495.366	11491
495.441	13348
495.516	17268
495.591	31791
495.665	84381
495.740	143982
495.815	40516
495.890	14068
495.964	12560
496.039	13945
496.114	12714
496.188	13506
496.263	14088
496.338	13150
496.412	16383
496.487	17054
496.561	17913
496.636	17548
496.710	16591
496.785	18482
496.860	20428
496.934	15863
497.009	17559
497.083	17752
497.158	19353
497.232	23447
497.307	26924
497.381	24759
497.455	29960
497.530	35288
497.604	29409
497.679	34170
497.753	45679
497.827	53165
497.902	51488
497.976	70145
498.050	169294
498.125	369381
498.199	258348
498.273	65020
498.348	58688
498.422	53054
498.496	49831
498.570	44009
498.645	38918
498.719	35791
498.793	39621
498.867	48185
498.941	78245
499.016	191703
499.090	347266
499.164	68727
499.238	22055
499.312	20171
499.386	22836
499.460	20123
499.534	18951
499.609	23071
499.683	29112
499.757	34612
499.831	103508
499.905	253925
499.979	155824
500.053	30999
500.127	29872
500.201	20856
500.275	16081
500.349	14577
500.422	18143
500.496	27832
500.570	67865
500.644	154365
500.718	216004
500.792	25981
500.866	17125
500.940	18398
501.013	15208
501.087	16129
501.161	26271
501.235	40108
501.309	109476
501.382	223962
501.456	130940
501.530	42328
501.603	65345
501.677	17428
501.751	10426
501.825	17625
501.898	42285
501.972	85520
502.046	34378
502.119	18400
502.193	48803
502.266	89267
502.340	33969
502.413	48183
502.487	73743
502.561	34085
502.634	11888
502.708	10955
502.781	9752
502.855	8317
502.928	7856
503.002	7738
503.075	8631
503.149	8155
503.222	9512
503.295	9437
503.369	12889
503.442	27047
503.516	85466
503.589	158167
503.662	76892
503.736	35168
503.809	75982
503.882	57028
503.956	88422
504.029	53965
504.102	23773
504.175	20933
504.249	10634
504.322	12449
504.395	11166
504.468	8672
504.542	8816
504.615	6833
504.688	6789
504.761	6748
504.834	10021
504.907	11269
504.980	16311
505.053	9432
505.127	11272
505.200	14407
505.273	13246
505.346	6451
505.419	6604
505.492	6227
505.565	4793
505.638	5260
505.711	7138
505.784	5066
505.857	6148
505.930	6299
506.003	5780
506.076	7691
506.149	10520
506.221	12100
506.294	16752
506.367	50121
506.440	116299
506.513	36539
506.586	12580
506.659	6766
506.731	7920
506.804	9405
506.877	11945
506.950	8364
507.022	7580
507.095	9686
507.168	10329
507.241	7111
507.313	6532
507.386	6948
507.459	9085
507.531	6562
507.604	4647
507.677	6238
507.749	5394
507.822	9947
507.894	20386
507.967	19138
508.040	11576
508.112	10450
508.185	10204
508.257	10348
508.330	12764
508.402	10248
508.475	10596
508.547	10731
508.620	11898
508.692	15986
508.765	9912
508.837	8256
508.909	7855
508.982	7868
509.054	9881
509.127	8503
509.199	8154
509.271	7766
509.344	7499
509.416	7553
509.488	7751
509.560	8449
509.633	8290
509.705	9361
509.777	10641
509.849	12797
509.922	8425
509.994	8345
510.066	10261
510.138	11802
510.210	22699
510.283	18015
510.355	14252
510.427	11973
510.499	12430
510.571	11859
510.643	12818
510.715	16777
510.787	13369
510.859	11954
510.931	14279
511.003	15794
511.076	13870
511.148	9777
511.219	12172
511.291	19633
511.363	17979
511.435	10622
511.507	9355
511.579	9743
511.651	10587
511.723	10530
511.795	10069
511.867	10189
511.939	14409
512.010	24415
512.082	16390
512.154	10058
512.226	11774
512.298	17534
512.369	22625
512.441	16641
512.513	15341
512.585	13062
512.656	14421
512.728	13331
512.800	11051
512.871	11898
512.943	11325
513.015	9361
513.086	11191
513.158	11585
513.230	12594
513.301	16102
513.373	14807
513.444	11379
513.516	10232
513.588	10415
513.659	11874
513.731	13104
513.802	13876
513.874	25309
513.945	32730
514.016	12612
514.088	10812
514.159	12454
514.231	16251
514.302	19527
514.374	15860
514.445	16790
514.516	29757
514.588	18579
514.659	16952
514.730	26971
514.802	19572
514.873	21246
514.944	22649
515.016	18874
515.087	19017
515.158	24215
515.229	28226
515.301	26043
515.372	34992
515.443	24526
515.514	17971
515.585	13453
515.656	13314
515.728	11447
515.799	11212
515.870	11130
515.941	11385
516.012	12298
516.083	16875
516.154	15658
516.225	18531
516.296	16893
516.367	14966
516.438	15421
516.509	18781
516.580	33107
516.651	100344
516.722	222881
516.793	67803
516.864	22697
516.935	22030
517.006	24249
517.077	40317
517.148	106280
517.219	295375
517.289	315437
517.360	125952
517.431	32119
517.502	14825
517.573	13943
517.643	16326
517.714	17690
517.785	16436
517.856	16097
517.926	20099
517.997	19855
518.068	21967
518.138	30790
518.209	68008
518.280	254093
518.350	557325
518.421	133896
518.492	23872
518.562	17527
518.633	17283
518.703	14451
518.774	20537
518.845	27433
518.915	23037
518.986	16645
519.056	20923
519.127	38544
519.197	69692
519.268	137730
519.338	54418
519.408	19594
519.479	21298
519.549	14358
519.620	12513
519.690	9202
519.760	11286
519.831	10713
519.901	9560
519.971	10791
520.042	11328
520.112	13031
520.182	14198
520.253	14256
520.323	12363
520.393	18987
520.463	23643
520.534	20473
520.604	33603
520.674	14682
520.744	20330
520.814	40686
520.885	33581
520.955	68943
521.025	154385
521.095	31925
521.165	12494
521.235	10643
521.305	9255
521.375	8735
521.445	11731
521.515	13634
521.585	15460
521.655	11350
521.725	12378
521.795	10667
521.865	8977
521.935	15848
522.005	11360
522.075	7873
522.145	10767
522.215	11592
522.285	17168
522.355	25418
522.424	42606
522.494	28370
522.564	18798
522.634	40361
522.704	78050
522.774	19211
522.843	10791
522.913	10008
522.983	11921
523.053	7632
523.122	11828
523.192	18092
523.262	49311
523.331	30390
523.401	9590
523.471	7263
523.540	8684
523.610	5957
523.680	8268
523.749	7601
523.819	11068
523.888	9284
523.958	6875
524.027	7091
524.097	8717
524.166	7172
524.236	7731
524.305	8480
524.375	6793
524.444	6109
524.514	8483
524.583	9546
524.653	11235
524.722	12328
524.791	7478
524.861	8281
524.930	5873
524.999	7443
525.069	12033
525.138	9916
525.207	10572
525.277	7868
525.346	8298
525.415	6965
525.484	8739
525.554	8964
525.623	7992
525.692	7742
525.761	7025
525.830	7078
525.900	7846
525.969	11681
526.038	13656
526.107	22194
526.176	41921
526.245	27466
526.314	21493
526.383	30607
526.452	32770
526.522	63094
526.591	55935
526.660	33094
526.729	15986
526.797	25538
526.867	80009
526.935	238942
527.004	170840
527.073	50685
527.142	11052
527.211	8228
527.280	10710
527.349	9071
527.418	6135
527.487	7295
527.555	5715
527.624	5559
527.693	4393
527.762	6145
527.831	4436
527.899	5073
527.968	6737
528.037	5680
528.106	9903
528.174	14971
528.243	12659
528.312	20860
528.380	18560
528.449	5697
528.518	7205
528.586	3579
528.655	5967
528.723	4837
528.792	5676
528.861	5712
528.929	4628
528.998	5168
529.066	5015
529.135	5145
529.203	4295
529.272	4375
529.340	6334
529.409	5921
529.477	6341
529.545	8433
529.614	10281
529.682	10629
529.751	10268
529.819	12566
529.887	6690
529.956	5211
530.024	6140
530.092	5326
530.161	8385
530.229	9767
530.297	5926
530.365	5298
530.434	4790
530.502	4103
530.570	5998
530.638	3594
530.707	6366
530.775	6287
530.843	5120
530.911	4903
530.979	4867
531.047	4986
531.115	5479
531.183	5137
531.252	5386
531.320	5188
531.388	4816
531.456	5666
531.524	4407
531.592	5653
531.660	6657
531.728	4230
531.796	5095
531.864	4468
531.932	6178
532.000	4236
532.067	6249
532.135	6819
532.203	8548
532.271	9526
532.339	19213
532.407	35104
532.475	15229
532.542	9641
532.610	11877
532.678	23097
532.746	99791
532.814	132160
532.881	21012
532.949	7851
533.017	7556
533.084	6210
533.152	5552
533.220	6342
533.287	5857
533.355	5466
533.423	6085
533.490	4396
533.558	6302
533.625	7484
533.693	7467
533.761	7122
533.828	7757
533.896	8629
533.963	17204
534.031	18077
534.098	21900
534.166	8595
534.233	6881
534.300	8638
534.368	7970
534.435	6719
534.503	8479
534.570	8157
534.637	5956
534.705	6105
534.772	7960
534.840	10665
534.907	26974
534.974	19678
535.041	7983
535.109	8770
535.176	5658
535.243	5453
535.310	6670
535.378	4753
535.445	5023
535.512	4881
535.579	6222
535.646	5420
535.714	7233
535.781	8919
535.848	8676
535.915	8765
535.982	9258
536.049	8022
536.116	9534
536.183	8025
536.250	8516
536.317	7836
536.384	11400
536.451	12213
536.518	12097
536.585	8641
536.652	14147
536.719	15129
536.786	10229
536.853	9614
536.920	17565
536.987	22602
537.053	30468
537.120	97540
537.187	41809
537.254	6790
537.321	6081
537.388	7071
537.454	5148
537.521	5007
537.588	5932
537.654	8798
537.721	9439
537.788	7689
537.855	6870
537.921	7316
537.988	6514
538.055	7924
538.121	6631
538.188	8647
538.254	15649
538.321	21488
538.388	10433
538.454	7176
538.521	7525
538.587	5848
538.654	6324
538.720	6589
538.787	6406
538.853	7665
538.920	9783
538.986	7985
539.053	7882
539.119	7487
539.185	7705
539.252	9926
539.318	14073
539.385	10184
539.451	10086
539.517	10473
539.583	14146
539.650	38626
539.716	54334
539.782	11586
539.849	8107
539.915	7908
539.981	9592
540.047	9008
540.114	8823
540.180	9277
540.246	8697
540.312	14116
540.378	23701
540.444	20502
540.510	39298
540.576	62121
540.643	12817
540.709	5893
540.775	7903
540.841	8810
540.907	15225
540.973	19851
541.039	15363
541.105	12977
541.171	9044
541.237	7323
541.303	9660
541.369	11917
541.435	15127
541.500	19602
541.566	9136
541.632	7150
541.698	7592
541.764	8056
541.830	7673
541.896	6890
541.961	7813
542.027	7361
542.093	8336
542.159	9102
542.224	10667
542.290	16666
542.356	22661
542.421	18835
542.487	11848
542.553	8905
542.618	10338
542.684	7699
542.750	8764
542.815	11246
542.881	26763
542.947	69137
543.012	26698
543.078	6934
543.143	7791
543.209	9095
543.274	8266
543.340	12237
543.405	30800
543.471	27391
543.536	9139
543.602	8526
543.667	6665
543.732	8699
543.798	8272
543.863	8263
543.928	6591
543.994	6859
544.059	8118
544.124	7294
544.190	7364
544.255	7203
544.320	8913
544.386	8622
544.451	12179
544.516	13294
544.581	17635
544.646	53132
544.712	46011
544.777	11229
544.842	11094
544.907	9658
544.972	9325
545.037	8913
545.102	11595
545.168	10215
545.233	10607
545.298	11629
545.363	15535
545.428	16066
545.493	33694
545.558	46164
545.623	14878
545.688	9920
545.753	10614
545.818	9833
545.883	11235
545.947	9378
546.012	12744
546.077	10724
546.142	11426
546.207	11089
546.272	14981
546.337	12748
546.401	11319
546.466	10706
546.531	9634
546.596	12017
546.661	10751
546.725	10121
546.790	9351
546.855	9910
546.919	8976
546.984	10302
547.049	11273
547.113	12797
547.178	10225
547.243	12656
547.307	14144
547.372	14655
547.436	15476
547.501	10400
547.565	12099
547.630	14700
547.695	14296
547.759	16437
547.823	12043
547.888	11758
547.952	10819
548.017	11595
548.081	16862
548.146	20186
548.210	14661
548.274	10778
548.339	10576
548.403	11062
548.468	9588
548.532	9656
548.596	11148
548.660	9540
548.725	12008
548.789	14699
548.853	14463
548.917	13073
548.982	20367
549.046	15393
549.110	10709
549.174	10281
549.238	9928
549.303	9415
549.367	12071
549.431	10055
549.495	10743
549.559	9622
549.623	12515
549.687	14735
549.751	18265
549.815	11930
549.879	12469
549.943	11215
550.007	13415
550.071	13909
550.135	17271
550.199	12184
550.263	12774
550.327	15862
550.391	18747
550.455	12879
550.519	12305
550.582	14781
550.646	20412
550.710	15809
550.774	13223
550.838	13002
550.901	12693
550.965	14350
551.029	14929
551.093	18013
551.156	26140
551.220	51328
551.284	36555
551.347	28021
551.411	65210
551.475	40525
551.538	14453
551.602	12458
551.666	11668
551.729	10834
551.793	12362
551.856	12042
551.920	12734
551.983	11547
552.047	12158
552.110	11065
552.174	12327
552.237	11699
552.301	11597
552.364	11240
552.428	10830
552.491	10783
552.554	12915
552.618	12268
552.681	13095
552.745	14316
552.808	21267
552.871	23311
552.934	15275
552.998	13893
553.061	14194
553.124	14018
553.187	13601
553.251	14923
553.314	16583
553.377	20718
553.440	44287
553.503	146702
553.567	122087
553.630	18380
553.693	12451
553.756	11498
553.819	11296
553.882	10283
553.945	11840
554.008	9569
554.071	9525
554.134	10344
554.197	10148
554.260	10385
554.323	11726
554.386	10977
554.449	10804
554.512	11086
554.575	10943
554.638	11208
554.701	10050
554.764	10174
554.827	9745
554.889	8770
554.952	8354
555.015	9074
555.078	9882
555.141	10022
555.203	9801
555.266	9539
555.329	9781
555.391	8914
555.454	10987
555.517	9301
555.580	9138
555.642	8249
555.705	9745
555.768	9728
555.830	9790
555.893	8695
555.955	9425
556.018	9559
556.080	8455
556.143	8078
556.206	8678
556.268	10803
556.330	10219
556.393	10586
556.455	10845
556.518	18851
556.580	12478
556.643	8630
556.705	9314
556.767	7828
556.830	10123
556.892	11779
556.955	16707
557.017	11057
557.079	9035
557.142	9259
557.204	13902
557.266	24275
557.328	14632
557.391	8512
557.453	9321
557.515	8414
557.577	11668
557.639	10281
557.701	7960
557.764	7461
557.826	8695
557.888	9381
557.950	8743
558.012	8620
558.074	12026
558.136	23491
558.198	31824
558.260	11816
558.322	10074
558.384	9363
558.446	12359
558.508	13559
558.570	17498
558.632	31711
558.694	36616
558.756	37715
558.818	120249
558.880	157495
558.942	37377
559.003	33841
559.065	13983
559.127	10628
559.189	11319
559.251	13746
559.312	20111
559.374	54822
559.436	106288
559.498	30253
559.559	10285
559.621	11479
559.683	14362
559.744	28250
559.806	70442
559.868	53932
559.929	14492
559.991	13759
560.052	21432
560.114	35782
560.176	20619
560.237	30458
560.299	29571
560.360	10695
560.422	9375
560.483	9736
560.545	9915
560.606	9164
560.667	9608
560.729	9314
560.790	9817
560.852	9067
560.913	8800
560.974	9022
561.036	9188
561.097	8882
561.158	8398
561.220	9971
561.281	8953
561.342	9118
561.403	12525
561.465	17115
561.526	39753
561.587	32397
561.648	10738
561.709	10287
561.771	9754
561.832	8954
561.893	9465
561.954	8882
562.015	8983
562.076	9632
562.137	9306
562.198	8768
562.259	10203
562.320	9264
562.381	11558
562.442	14873
562.503	11679
562.564	9540
562.625	9458
562.686	9723
562.747	11183
562.808	8779
562.869	10380
562.930	11741
562.991	12564
563.051	10169
563.112	9582
563.173	10339
563.234	9029
563.294	9401
563.355	9974
563.416	10492
563.477	9809
563.537	10538
563.598	11416
563.659	9601
563.720	10229
563.780	11751
563.841	10452
563.901	10705
563.962	10412
564.023	9691
564.083	10514
564.144	10724
564.204	10262
564.265	11073
564.325	16326
564.386	29710
564.446	17394
564.507	10216
564.567	10015
564.628	10514
564.688	11272
564.749	10168
564.809	14367
564.869	13501
564.930	11067
564.990	10945
565.050	10448
565.111	10848
565.171	10098
565.231	10809
565.292	11828
565.352	10114
565.412	11608
565.472	11743
565.532	12236
565.593	12372
565.653	13243
565.713	13467
565.773	14270
565.833	16179
565.893	17536
565.953	13985
566.013	13967
566.074	15708
566.134	21632
566.194	28408
566.254	25718
566.314	20009
566.374	16614
566.434	17866
566.494	18942
566.554	19130
566.614	20853
566.673	22451
566.733	24336
566.793	24988
566.853	26457
566.913	26843
566.973	27691
567.033	28042
567.092	27783
567.152	26431
567.212	28082
567.272	28724
567.331	31279
567.391	32915
567.451	35416
567.511	40710
567.570	34653
567.630	28688
567.690	28761
567.749	29331
567.809	31454
567.868	36569
567.928	41642
567.988	48874
568.047	58983
568.107	76676
568.166	106791
568.226	154802
568.285	188360
568.345	174110
568.404	154385
568.464	136497
568.523	128993
568.582	131506
568.642	146735
568.701	181286
568.761	251889
568.820	327866
568.879	319865
568.939	270179
568.998	213536
569.057	170961
569.116	136213
569.176	110873
569.235	91142
569.294	75691
569.353	67607
569.413	58265
569.472	51258
569.531	44982
569.590	40077
569.649	36906
569.708	33816
569.767	31694
569.827	31088
569.886	26548
569.945	23669
570.004	23554
570.063	21780
570.122	21548
570.181	21280
570.240	20639
570.299	20713
570.358	19387
570.417	15615
570.475	14770
570.534	16254
570.593	15435
570.652	16407
570.711	15250
570.770	15466
570.829	15138
570.887	15743
570.946	13919
571.005	12029
571.064	12734
571.122	13127
571.181	13359
571.240	11910
571.299	10567
571.357	12683
571.416	12070
571.475	14885
571.533	12208
571.592	12068
571.650	11214
571.709	9581
571.768	10098
571.826	9610
571.885	9365
571.943	9282
572.002	9959
572.060	10602
572.119	8734
572.177	9380
572.236	8878
572.294	8298
572.352	8568
572.411	9585
572.469	8629
572.528	9577
572.586	9573
572.644	11833
572.703	12183
572.761	8685
572.819	8088
572.877	9081
572.936	8228
572.994	9534
573.052	8259
573.110	8457
573.169	8429
573.227	8631
573.285	7670
573.343	8286
573.401	8669
573.459	8104
573.517	7857
573.576	8821
573.634	8239
573.692	8450
573.750	7336
573.808	8444
573.866	9825
573.924	12583
573.982	9745
574.040	8665
574.098	8286
574.155	7881
574.213	6980
574.271	8571
574.329	6847
574.387	7118
574.445	6682
574.503	6511
574.560	6916
574.618	7352
574.676	6443
574.734	7255
574.792	7018
574.849	7377
574.907	5916
574.965	7560
575.022	6510
575.080	6860
575.138	6962
575.195	8066
575.253	7436
575.311	7863
575.368	7054
575.426	7271
575.483	6578
575.541	6900
575.598	6147
575.656	8229
575.713	7222
575.771	6349
575.828	7639
575.886	7697
575.943	8171
576.001	8224
576.058	6717
576.115	8427
576.173	8656
576.230	9675
576.287	10008
576.345	9115
576.402	7143
576.459	8161
576.517	8251
576.574	9378
576.631	8369
576.688	8712
576.746	7402
576.803	8207
576.860	6875
576.917	8376
576.974	7115
577.031	7973
577.089	8371
577.146	8166
577.203	7709
577.260	9048
577.317	8145
577.374	9985
577.431	9121
577.488	9213
577.545	7678
577.602	9920
577.659	8477
577.716	9484
577.773	10089
577.830	8368
577.886	8917
577.943	8368
578.000	8645
578.057	9387
578.114	9548
578.171	11087
578.227	11725
578.284	12331
578.341	11166
578.398	10296
578.454	9795
578.511	10508
578.568	9934
578.625	9407
578.681	7866
578.738	8611
578.794	7948
578.851	7724
578.908	8391
578.964	8385
579.021	8284
579.077	8408
579.134	7722
579.190	8212
579.247	8550
579.303	7615
579.360	7649
579.416	7647
579.473	7503
579.529	7322
579.586	8258
579.642	8156
579.698	8127
579.755	8695
579.811	8153
579.867	8565
579.924	8713
579.980	10378
580.036	10720
580.093	13431
580.149	16171
580.205	16956
580.261	14073
580.317	13668
580.374	12030
580.430	12223
580.486	10431
580.542	10180
580.598	8834
580.619	9143
580.654	9692
580.692	9364
580.710	9219
580.765	8954
580.767	8955
580.823	8191
580.838	8369
580.879	8867
580.911	8783
580.935	8731
580.984	9303
580.991	9397
581.047	9526
581.057	9688
581.103	10424
581.130	10575
581.159	10769
581.203	10910
581.215	10955
581.270	10205
581.276	10158
581.326	9794
581.349	9918
581.382	10112
581.422	10069
581.438	10059
581.494	9813
581.494	9806
581.550	9843
581.567	9756
581.606	9556
581.640	9420
581.661	9359
581.713	9683
581.717	9713
581.773	10531
581.786	10190
581.829	9073
581.859	9149
581.885	9268
581.932	9106
581.940	9066
581.996	9975
582.004	9834
582.052	9069
582.077	9415
582.107	9866
582.150	9959
582.163	9984
582.219	9705
582.223	9689
582.274	9642
582.296	9672
582.330	9691
582.368	9931
582.386	10042
582.441	9909
582.441	9911
582.497	10225
582.514	10847
582.552	12289
582.587	11997
582.608	11791
582.659	11195
582.663	11133
582.719	10292
582.732	10317
582.774	10789
582.805	10926
582.830	10866
582.877	10848
582.885	10861
582.941	10749
582.950	10858
582.996	11482
583.023	11779
583.052	12175
583.095	12772
583.107	12922
583.162	14174
583.168	14213
583.218	14477
583.240	14002
583.273	13155
583.313	13059
583.328	13108
583.384	12665
583.385	12655
583.439	12281
583.458	12015
583.494	11565
583.531	12049
583.549	12246
583.603	11503
583.605	11482
583.660	11934
583.676	11879
583.715	11891
583.748	12178
583.770	12280
583.820	13074
583.825	13154
583.881	12281
583.893	12226
583.936	12095
583.965	12264
583.991	12307
584.038	12077
584.046	12099
584.101	12867
584.110	12985
584.156	13366
584.183	13046
584.211	12622
584.255	12905
584.266	13007
584.321	13886
584.328	13797
584.376	13175
584.400	13652
584.431	14158
584.472	13449
584.486	13232
584.541	14018
584.545	14019
584.596	13881
584.617	14061
584.651	14689
584.689	14939
584.706	14937
584.761	15880
584.762	15878
584.816	15477
584.834	15864
584.871	16534
584.906	15968
584.926	15667
584.978	16074
584.980	16088
585.035	16123
585.051	16312
585.090	17028
585.123	17586
585.145	17938
585.195	17955
585.200	18001
585.254	19478
585.267	20168
585.309	22373
585.340	22699
585.364	22642
585.412	21594
585.419	21344
585.473	21720
585.484	21722
585.528	22513
585.556	23726
585.583	25683
585.628	30580
585.637	32289
585.692	47621
585.700	48953
585.747	54709
585.772	51027
585.801	38664
585.845	27696
585.856	26714
585.910	23969
585.917	23758
585.965	24015
585.989	23807
586.019	23820
586.061	24128
586.074	24191
586.128	25080
586.133	25120
586.183	25873
586.205	26336
586.237	26824
586.277	27421
586.292	27687
586.346	27694
586.349	27790
586.401	28948
586.421	29060
586.455	29930
586.493	32222
586.509	33672
586.564	38735
586.565	38927
586.618	49754
586.637	49354
586.672	42249
586.709	38427
586.727	37154
586.781	34945
586.781	34943
586.835	36418
586.853	36640
586.889	37030
586.925	37646
586.944	38212
586.996	39702
586.998	39729
587.052	41449
587.068	41872
587.106	42915
587.140	44150
587.161	45036
587.212	46906
587.215	46983
587.269	49723
587.284	50170
587.323	51745
587.356	53803
587.377	55152
587.427	57777
587.431	57984
587.485	62242
587.499	63147
587.539	65563
587.571	68169
587.593	70213
587.643	74600
587.648	75081
587.702	80965
587.715	82482
587.755	87013
587.786	90780
587.810	93715
587.858	100191
587.864	101033
587.917	110288
587.930	112822
587.971	122699
588.001	129809
588.025	135968
588.073	148403
588.079	150122
588.133	168707
588.145	172747
588.187	188609
588.217	201587
588.241	214069
588.288	240133
588.295	244030
588.348	279734
588.360	288016
588.402	324099
588.431	351827
588.456	378993
588.503	437005
588.510	447065
588.564	538506
588.575	559233
588.617	657929
588.646	735280
588.671	826912
588.718	1012266
588.725	1050174
588.778	1356029
588.789	1414294
588.832	1680104
588.861	1817883
588.886	1808762
588.932	1683480
588.939	1640693
588.993	1440702
589.004	1423216
589.047	1767828
589.075	1912253
589.100	1820081
589.147	1586651
589.154	1543429
589.207	1213142
589.218	1149898
589.261	1046875
589.290	990081
589.314	1003906
589.361	1053875
589.368	1080118
589.421	1314751
589.433	1362568
589.475	1599869
589.504	1709362
589.528	1655324
589.576	1556612
589.582	1559564
589.635	1677354
589.647	1672150
589.689	1458162
589.718	1288064
589.742	1103849
589.790	752490
589.795	731390
589.849	543798
589.861	502479
589.902	426758
589.932	372049
589.955	341136
590.004	280597
590.009	276722
590.062	236263
590.075	226613
590.115	204707
590.146	188568
590.168	179524
590.218	160090
590.222	158866
590.275	143464
590.289	139409
590.328	130517
590.360	123538
590.381	119488
590.431	110548
590.435	109981
590.488	99922
590.503	97145
590.541	93601
590.574	90618
590.594	88220
590.645	82063
590.647	81878
590.700	76689
590.716	75011
590.753	71743
590.787	68795
590.806	67634
590.859	64637
590.859	64609
590.912	61516
590.930	60462
590.965	58800
591.001	57226
591.018	56503
591.071	54070
591.072	54016
591.124	52163
591.143	51395
591.177	49701
591.214	47938
591.230	47806
591.283	47347
591.285	47301
591.336	46109
591.356	45571
591.389	45000
591.427	44230
591.442	43642
591.495	41479
591.498	41289
591.547	39935
591.569	39305
591.600	38409
591.640	37094
591.653	37080
591.706	37025
591.711	37000
591.759	37218
591.782	37302
591.811	37664
591.853	37991
591.864	37416
591.917	34322
591.924	33863
591.969	33355
591.995	32969
592.022	32852
592.066	32712
592.075	32878
592.127	33705
592.137	33840
592.180	34900
592.208	35429
592.233	33861
592.279	30847
592.285	30646
592.338	28748
592.350	28289
592.390	27511
592.421	26910
592.443	27479
592.491	28637
592.495	28589
592.548	27546
592.562	27235
592.600	26971
592.633	26697
592.653	26498
592.704	25783
592.705	25918
592.775	25311
592.846	24374
592.916	24222
592.987	25245
593.058	25055
593.128	24566
593.199	23195
593.270	22546
593.341	21473
593.411	21449
593.482	21240
593.553	21516
593.623	22088
593.694	21291
593.764	22282
593.835	20677
593.906	20184
593.976	19511
594.047	20094
594.117	22465
594.188	23248
594.258	18823
594.329	18226
594.399	18495
594.470	16938
594.540	17472
594.611	18149
594.681	16970
594.751	17070
594.822	18701
594.892	19047
594.963	18938
595.033	18378
595.103	17837
595.174	18699
595.244	23803
595.314	31560
595.384	19067
595.455	16411
595.525	16691
595.595	17073
595.665	16617
595.736	16131
595.806	16213
595.876	16091
595.946	16217
596.016	16627
596.087	16042
596.157	15702
596.227	16300
596.297	15560
596.367	16286
596.437	18317
596.507	21172
596.577	28563
596.647	18918
596.717	15987
596.787	16063
596.857	16279
596.927	16790
596.997	15546
597.067	17025
597.137	18494
597.207	18012
597.277	15726
597.347	16258
597.417	15170
597.487	15824
597.557	15648
597.626	16701
597.696	17691
597.766	19759
597.836	25492
597.906	18922
597.975	14111
598.045	15400
598.115	14249
598.185	14863
598.254	15409
598.324	16222
598.394	16705
598.464	14913
598.533	16469
598.603	14930
598.672	15320
598.742	15600
598.812	15533
598.881	15620
598.951	14482
599.020	13956
599.090	14322
599.159	14969
599.229	14389
599.299	14411
599.368	13477
599.437	13749
599.507	14388
599.576	15110
599.646	15691
599.715	17564
599.785	14733
599.854	14633
599.924	16110
599.993	16002
600.062	12563
600.132	14227
600.201	14339
600.270	15817
600.340	14527
600.409	14688
600.478	13536
600.547	14807
600.617	14172
600.686	13935
600.755	13657
600.824	13515
600.894	14254
600.963	11844
601.032	12721
601.101	12899
601.170	11502
601.239	12768
601.308	13135
601.378	12248
601.447	11886
601.516	12311
601.585	12024
601.654	13731
601.723	12635
601.792	13364
601.861	12794
601.930	16473
601.999	15577
602.068	12560
602.137	13332
602.206	13365
602.275	13484
602.343	14479
602.412	14661
602.481	13061
602.550	12374
602.619	12863
602.688	13282
602.756	12313
602.825	13790
602.894	13378
602.963	11938
603.032	13194
603.100	12580
603.169	13173
603.238	12872
603.307	12684
603.375	11531
603.444	11814
603.513	11997
603.581	12054
603.650	13339
603.719	12318
603.787	12134
603.856	12313
603.924	12656
603.993	13225
604.061	12659
604.130	12726
604.198	13065
604.267	13235
604.335	12653
604.404	12588
604.472	12859
604.541	13184
604.609	13542
604.678	13541
604.746	13194
604.815	12906
604.883	13526
604.951	13510
605.020	12623
605.088	14419
605.156	13929
605.225	13193
605.293	13698
605.361	14432
605.429	12908
605.498	14005
605.566	13606
605.634	14070
605.702	13320
605.771	14020
605.839	14411
605.907	13621
605.975	14444
606.043	13289
606.111	12678
606.180	14660
606.248	17432
606.316	20448
606.384	15037
606.452	16654
606.520	17257
606.588	14677
606.656	12431
606.724	12914
606.792	12549
606.860	12301
606.928	11157
606.996	10909
607.064	10372
607.132	10804
607.200	10859
607.267	11268
607.335	11005
607.403	11231
607.471	11946
607.539	11042
607.607	11011
607.674	10604
607.742	11411
607.810	11084
607.878	10175
607.946	10708
608.013	10665
608.081	11112
608.149	11937
608.216	10741
608.284	11942
608.352	11292
608.419	11579
608.487	16246
608.555	13413
608.622	10407
608.690	10512
608.757	11956
608.825	11845
608.893	12548
608.960	13540
609.028	14905
609.095	17930
609.163	13432
609.230	11127
609.298	11491
609.365	9757
609.432	10415
609.500	10687
609.567	12393
609.635	13051
609.702	12596
609.769	14194
609.837	13445
609.904	12056
609.971	12496
610.039	15607
610.106	19450
610.173	35194
610.241	81233
610.308	97324
610.375	58304
610.442	20454
610.509	13036
610.577	12694
610.644	10910
610.711	10536
610.778	11881
610.845	11857
610.912	12278
610.980	14680
611.047	21564
611.114	19024
611.181	12429
611.248	10599
611.315	11804
611.382	11926
611.449	11626
611.516	12236
611.583	12420
611.650	12568
611.717	12112
611.784	12034
611.851	13884
611.918	15401
611.984	18748
612.051	27258
612.118	55490
612.185	142018
612.252	127643
612.319	26069
612.386	16452
612.452	14427
612.519	13985
612.586	19098
612.653	17469
612.719	13835
612.786	12994
612.853	11631
612.919	11161
612.986	12632
613.053	11954
613.120	10776
613.186	10300
613.253	11068
613.319	11186
613.386	12825
613.453	11652
613.519	12070
613.586	13757
613.652	19446
613.719	16667
613.785	16023
613.852	12226
613.918	11810
613.985	14994
614.051	21638
614.118	45586
614.184	58566
614.250	17062
614.317	11276
614.383	11306
614.449	10334
614.516	10845
614.582	12001
614.648	10976
614.715	10822
614.781	10908
614.847	11833
614.914	11716
614.980	12138
615.046	12278
615.112	13570
615.179	14323
615.245	16882
615.311	23458
615.377	44119
615.443	62885
615.509	32858
615.575	19278
615.642	17096
615.708	16734
615.774	18766
615.840	23910
615.906	30372
615.972	52377
616.038	107847
616.104	168492
616.170	222031
616.236	240445
616.302	51881
616.368	26936
616.434	20378
616.500	17743
616.565	17806
616.631	19967
616.697	18292
616.763	17944
616.829	22510
616.895	38777
616.961	43764
617.026	22159
617.092	13221
617.158	13642
617.224	11430
617.289	11754
617.355	11440
617.421	11889
617.487	11913
617.552	11562
617.618	9966
617.684	10794
617.749	11435
617.815	9637
617.880	9811
617.946	9710
618.012	9902
618.077	10879
618.143	10771
618.208	10792
618.274	10857
618.339	11707
618.405	9994
618.470	10541
618.536	9770
618.601	12326
618.667	10429
618.732	9937
618.798	10336
618.863	10179
618.928	9067
618.994	11376
619.059	11385
619.124	16099
619.190	13467
619.255	9917
619.320	10045
619.386	10675
619.451	9095
619.516	10128
619.581	9511
619.647	9854
619.712	9866
619.777	9718
619.842	9380
619.907	10014
619.972	9125
620.038	10512
620.103	9772
620.168	8441
620.233	9134
620.298	9200
620.363	9100
620.428	9488
620.493	9432
620.558	9150
620.623	9719
620.688	8714
620.753	8998
620.818	9446
620.883	9022
620.948	10007
621.013	9058
621.078	10321
621.143	8798
621.207	11817
621.272	9600
621.337	11214
621.402	11027
621.467	14190
621.532	16588
621.596	12714
621.661	10950
621.726	10602
621.791	10575
621.855	11130
621.920	11516
621.985	11782
622.049	14249
622.114	13358
622.179	12626
622.243	12725
622.308	11834
622.373	13433
622.437	12178
622.502	11771
622.566	11503
622.631	11357
622.695	11891
622.760	11828
622.824	11170
622.889	11680
622.953	13320
623.018	17025
623.082	19372
623.147	11996
623.211	11367
623.276	12210
623.340	10928
623.404	10305
623.469	10387
623.533	11754
623.597	9990
623.662	10798
623.726	9874
623.790	9545
623.854	9475
623.919	9589
623.983	10874
624.047	10369
624.111	10158
624.176	10327
624.240	10385
624.304	12531
624.368	10194
624.432	9803
624.496	10694
624.560	11610
624.625	12092
624.689	10764
624.753	9892
624.817	10074
624.881	9799
624.945	10400
625.009	8955
625.073	9341
625.137	10524
625.201	12743
625.265	14003
625.329	10065
625.393	10495
625.456	10898
625.520	11257
625.584	12609
625.648	16018
625.712	23299
625.776	50371
625.839	66478
625.903	32637
625.967	13520
626.031	20067
626.095	36416
626.158	15776
626.222	8750
626.286	7951
626.349	8194
626.413	7753
626.477	9528
626.540	7822
626.604	7148
626.668	8266
626.731	8073
626.795	8390
626.858	8499
626.922	7776
626.986	7654
627.049	6780
627.113	8306
627.176	7762
627.240	7326
627.303	7214
627.366	7761
627.430	7349
627.493	7655
627.557	7576
627.620	8481
627.684	7511
627.747	7530
627.810	5833
627.874	7557
627.937	6074
628.000	8639
628.064	8254
628.127	6187
628.190	7202
628.253	7483
628.317	6367
628.380	7300
628.443	5889
628.506	7008
628.569	7318
628.632	7136
628.696	6632
628.759	5643
628.822	6445
628.885	6449
628.948	5707
629.011	5856
629.074	6416
629.137	6324
629.200	5588
629.263	7360
629.326	5214
629.389	5760
629.452	5993
629.515	7093
629.578	5983
629.641	6493
629.704	5938
629.767	6812
629.830	5856
629.892	6285
629.955	5158
630.018	7085
630.081	5984
630.144	8181
630.207	5947
630.269	6793
630.332	6572
630.395	7291
630.458	5323
630.520	4965
630.583	7052
630.646	5322
630.708	4530
630.771	5498
630.834	5201
630.896	5555
630.959	4883
631.021	5276
631.084	5131
631.146	6383
631.209	7997
631.272	6339
631.334	4602
631.397	4785
631.459	4665
631.522	5813
631.584	5418
631.646	5929
631.709	5151
631.771	7548
631.834	5532
631.896	5639
631.958	4129
632.021	5577
632.083	3727
632.145	5290
632.208	4615
632.270	4653
632.332	4495
632.395	4629
632.457	4676
632.519	4810
632.581	5521
632.643	3882
632.706	5565
632.768	4244
632.830	4870
632.892	4755
632.954	4303
633.016	4800
633.078	4228
633.141	4810
633.203	3843
633.265	4650
633.327	4051
633.389	4063
633.451	4934
633.513	6231
633.575	5692
633.637	6610
633.698	5643
633.760	4644
633.822	4209
633.884	5079
633.946	4256
634.008	4312
634.070	6087
634.132	6827
634.193	6214
634.255	5462
634.317	3805
634.379	5232
634.441	4805
634.502	4473
634.564	4823
634.626	5028
634.687	4959
634.749	4172
634.811	4424
634.873	3078
634.934	4345
634.996	4320
635.057	3458
635.119	4050
635.181	5063
635.242	4400
635.304	3006
635.365	6047
635.427	3794
635.488	4761
635.550	3822
635.611	5399
635.673	3022
635.734	4938
635.796	3917
635.857	5262
635.918	3545
635.980	4931
636.041	3994
636.102	5305
636.164	5510
636.225	4609
636.286	3243
636.348	5046
636.409	4192
636.470	3135
636.531	4097
636.593	4274
636.654	4876
636.715	3994
636.776	3538
636.838	3745
636.899	4315
636.960	4247
637.021	3203
637.082	3358
637.143	3650
637.204	3140
637.265	2349
637.326	3994
637.387	3758
637.448	3164
637.509	3891
637.570	3367
637.631	3434
637.692	2812
637.753	2203
637.814	3070
637.875	3159
637.936	4446
637.997	3263
638.058	2947
638.119	3642
638.179	3049
638.240	3177
638.301	3109
638.362	2436
638.423	3175
638.483	3839
638.544	2267
638.605	2811
638.666	2622
638.726	3544
638.787	3015
638.848	2653
638.908	3255
638.969	2322
639.030	3197
639.090	2470
639.151	1750
639.211	3529
639.272	4107
639.332	7745
639.393	6082
639.453	2300
639.514	3032
639.574	2840
639.635	2531
639.695	2261
639.756	2524
639.816	2956
639.877	3275
639.937	6190
639.997	9173
640.058	3349
640.118	2304
640.178	3869
640.239	2765
640.299	2815
640.359	2558
640.420	3231
640.480	2672
640.540	2694
640.600	3373
640.661	3017
640.721	2015
640.781	5745
640.841	3457
640.901	2978
640.961	3199
641.021	2955
641.082	3186
641.142	4567
641.202	4726
641.262	2590
641.322	3225
641.382	2244
641.442	2462
641.502	1666
641.562	3330
641.622	1973
641.682	2811
641.742	2584
641.802	3371
641.861	2922
641.921	2676
641.981	4459
642.041	3645
642.101	4172
642.161	2916
642.221	1963
642.280	2876
642.340	1984
642.400	1274
642.460	2694
642.519	2441
642.579	2156
642.639	2482
642.698	572
642.758	4082
642.818	2047
642.877	1898
642.937	2835
642.997	2825
643.056	4630
643.116	1914
643.175	3551
643.235	2656
643.294	1870
643.354	2495
643.414	2650
643.473	4397
643.532	4150
643.592	5654
643.651	8020
643.711	14291
643.770	25732
643.830	53677
643.889	150638
643.948	60442
644.008	7319
644.067	3952
644.126	3281
644.186	3170
644.245	3227
644.304	1312
644.363	3784
644.423	1733
644.482	2254
644.541	3118
644.600	1004
644.659	3910
644.719	2734
644.778	4431
644.837	5489
644.896	9814
644.955	23261
645.014	14467
645.073	5328
645.132	2623
645.191	3695
645.250	1956
645.309	2812
645.368	1892
645.427	3137
645.486	2005
645.545	6441
645.604	2689
645.663	2294
645.722	2266
645.781	2392
645.840	3238
645.898	2799
645.957	5148
646.016	5684
646.075	11673
646.134	20977
646.192	48840
646.251	107630
646.310	24598
646.369	4348
646.427	3700
646.486	2412
646.545	2434
646.603	2493
646.662	2099
646.721	2453
646.779	2003
646.838	909
646.896	2640
646.955	2639
647.014	4043
647.072	4783
647.131	14350
647.189	11169
647.248	1994
647.306	2178
647.365	2786
647.423	185
647.481	2982
647.540	505
647.598	1941
647.657	1396
647.715	2342
647.773	1172
647.832	2946
647.890	637
647.948	1197
648.007	2761
648.065	1168
648.123	1702
648.181	3039
648.240	3380
648.298	3574
648.356	1661
648.414	1889
648.472	2164
648.531	2251
648.589	1888
648.647	1461
648.705	1381
648.763	1806
648.821	1669
648.879	1524
648.937	1400
648.995	2255
649.053	1985
649.111	2778
649.169	5419
649.227	9325
649.285	14647
649.343	44115
649.401	38589
649.459	13038
649.516	11446
649.574	7130
649.632	16902
649.690	28129
649.748	10934
649.806	7200
649.863	15299
649.921	13241
649.979	9430
650.037	2826
650.094	900
650.152	1525
650.210	1426
650.268	1972
650.325	863
650.383	1884
650.440	642
650.498	2100
650.556	1445
650.613	184
650.671	2052
650.728	1331
650.786	1385
650.843	1959
650.901	-82
650.958	1387
651.016	1322
651.073	2190
651.131	478
651.188	1051
651.246	1160
651.303	807
651.360	1525
651.418	1059
651.475	1402
651.532	208
651.590	2322
651.647	298
651.704	900
651.762	1359
651.819	637
651.876	1672
651.933	1334
651.990	1480
652.048	279
652.105	601
652.162	1097
652.219	942
652.276	2043
652.333	1226
652.390	-647
652.448	1461
652.505	858
652.562	1785
652.619	2756
652.676	4431
652.733	6297
652.790	1907
652.847	-679
652.904	1250
652.961	188
653.017	303
653.074	1907
653.131	606
653.188	89
653.245	959
653.302	833
653.359	83
653.415	1385
653.472	1063
653.529	922
653.586	689
653.642	967
653.699	1280
653.756	-462
653.813	12
653.869	699
653.926	7
653.983	490
654.039	1095
654.096	888
654.152	1629
654.209	269
654.266	758
654.322	393
654.379	1716
654.435	1534
654.492	1994
654.548	1463
654.605	4362
654.661	3608
654.717	1728
654.774	997
654.830	903
654.887	820
654.943	752
655.000	1495
655.056	883
655.112	1433
655.168	637
655.225	790
655.281	1554
655.337	1185
655.394	4149
655.450	3922
655.506	3382
655.562	3776
655.618	5619
655.675	1036
655.731	1349
655.787	367
655.843	1352
655.899	548
655.955	2079
656.011	1479
656.067	-332
656.123	1324
656.179	1861
656.235	2605
656.291	589
656.347	1773
656.403	1278
656.459	1149
656.515	1413
656.571	990
656.627	1519
656.683	444
656.739	1993
656.795	937
656.850	305
656.906	1574
656.962	1931
657.018	306
657.074	684
657.129	1317
657.185	1230
657.241	1111
657.297	804
657.352	1333
657.408	276
657.464	1979
657.519	1117
657.575	-8
657.630	717
657.686	838
657.742	458
657.797	196
657.853	104
657.908	1915
657.964	381
658.019	334
658.075	1059
658.130	1375
658.186	-198
658.241	1073
658.297	-404
658.352	646
658.407	1280
658.463	751
658.518	1143
658.573	1323
658.629	643
658.684	189
658.739	1114
658.795	-200
658.850	470
658.905	173
658.960	722
659.016	35
659.071	530
659.126	1193
659.181	857
659.236	1770
659.291	3870
659.346	1092
659.401	1298
659.457	2046
659.512	3695
659.567	2266
659.622	519
659.677	753
659.732	321
659.787	1273
659.842	462
659.897	1934
659.952	863
660.007	3
660.061	609
660.116	-169
660.171	-566
660.226	1169
660.281	1793
660.336	-349
660.391	1824
660.445	-280
660.500	1275
660.555	1035
660.610	76
660.664	1362
660.719	-121
660.774	502
660.828	1171
660.883	196
660.938	1469
660.992	20
661.047	973
661.101	681
661.156	562
661.211	-45
661.265	943
661.320	-310
661.374	1087
661.429	206
661.483	560
661.538	-203
661.592	361
661.647	343
661.701	862
661.755	565
661.810	1362
661.864	249
661.919	106
661.973	1038
662.027	1205
662.081	-501
662.136	567
662.190	223
662.244	1043
662.299	826
662.353	1340
662.407	440
662.461	1018
662.515	150
662.569	668
662.624	1351
662.678	658
662.732	724
662.786	837
662.840	751
662.894	729
662.948	120
663.002	275
663.056	339
663.110	-265
663.164	-90
663.218	836
663.272	161
663.326	1193
663.380	628
663.434	190
663.488	41
663.542	1309
663.595	615
663.649	272
663.703	1022
663.757	942
663.811	103
663.864	188
663.918	652
663.972	510
664.026	169
664.079	499
664.133	829
664.187	1802
664.240	144
664.294	555
664.348	-247
664.401	321
664.455	556
664.508	363
664.562	562
664.615	465
664.669	138
664.722	271
664.776	515
664.829	451
664.883	603
664.936	-45
664.990	817
665.043	908
665.097	388
665.150	1485
665.203	741
665.257	549
665.310	385
665.363	385
665.417	665
665.470	482
665.523	-205
665.576	323
665.630	461
665.683	242
665.736	519
665.789	1019
665.842	533
665.895	-35
665.949	1004
666.002	803
666.055	570
666.108	608
666.161	472
666.214	651
666.267	941
666.320	1306
666.373	875
666.426	415
666.479	482
666.532	788
666.585	1268
666.638	1463
666.691	966
666.744	1266
666.796	1291
666.849	1499
666.902	738
666.955	644
667.008	305
667.060	306
667.113	13
667.166	876
667.219	537
667.271	-700
667.324	149
667.377	647
667.430	1063
667.482	1128
667.535	1640
667.587	776
667.640	810
667.693	1095
667.745	1209
667.798	3185
667.850	1106
667.903	614
667.955	-286
668.008	605
668.060	990
668.113	1491
668.165	652
668.218	866
668.270	967
668.322	1057
668.375	35
668.427	1903
668.479	321
668.532	1420
668.584	823
668.636	925
668.689	1187
668.741	521
668.793	32
668.845	875
668.898	1129
668.950	875
669.002	1059
669.054	739
669.106	279
669.158	1595
669.211	436
669.263	1075
669.315	2275
669.367	3442
669.419	2346
669.471	2093
669.523	2871
669.575	4632
669.627	3288
669.679	1757
669.731	1714
669.783	1770
669.835	2355
669.886	1338
669.938	1849
669.990	1466
670.042	1870
670.094	1735
670.146	3040
670.197	3030
670.249	3790
670.301	5538
670.353	8411
670.404	11974
670.456	17808
670.508	29002
670.560	43701
670.611	69946
670.663	114879
670.715	228180
670.766	479821
670.818	269366
670.869	43288
670.921	14370
670.972	9272
671.024	5904
671.075	4897
671.127	3393
671.178	2228
671.230	2998
671.281	2426
671.333	2420
671.384	2251
671.436	2084
671.487	2199
671.538	2380
671.590	2614
671.641	3421
671.692	3921
671.744	6340
671.795	6483
671.846	2917
671.897	1605
671.949	1651
672.000	1424
672.051	621
672.102	1182
672.153	1554
672.204	213
672.256	1353
672.307	678
672.358	1257
672.409	1363
672.460	1210
672.511	621
672.562	1262
672.613	371
672.664	637
672.715	1210
672.766	1224
672.817	915
672.868	326
672.919	586
672.970	496
673.021	309
673.071	442
673.122	175
673.173	338
673.224	995
673.275	478
673.326	254
673.376	611
673.427	-280
673.478	1042
673.528	1242
673.579	1296
673.630	618
673.680	1227
673.731	379
673.782	220
673.832	116
673.883	623
673.934	226
673.984	-356
674.035	52
674.085	563
674.136	1365
674.186	130
674.237	895
674.287	2139
674.338	1475
674.388	981
674.438	74
674.489	448
674.539	536
674.589	860
674.640	343
674.690	536
674.740	444
674.791	735
674.841	287
674.891	636
674.942	35
674.992	890
675.042	-22
675.092	300
675.142	-341
675.193	877
675.243	-193
675.293	640
675.343	100
675.393	252
675.443	1073
675.493	-148
675.543	-9
675.593	-25
675.643	1185
675.693	630
675.743	23
675.793	214
675.843	40
675.893	544
675.943	111
675.993	226
676.043	-198
676.093	583
676.142	-820
676.192	769
676.242	97
676.292	417
676.341	-391
676.391	-17
676.441	-233
676.491	891
676.540	-315
676.590	434
676.640	-61
676.689	1100
676.739	-693
676.789	99
676.838	838
676.888	827
676.937	-460
676.987	301
677.037	-425
677.086	-376
677.136	372
677.185	-272
677.235	-834
677.284	259
677.333	-1108
677.383	-257
677.432	-418
677.482	30
677.531	336
677.580	-60
677.630	390
677.679	485
677.728	242
677.778	471
677.827	-319
677.876	-332
677.925	-14
677.975	-140
678.024	407
678.073	-377
678.122	342
678.171	270
678.220	-265
678.269	349
678.319	72
678.368	247
678.417	-898
678.466	-129
678.515	845
678.564	-256
678.613	-63
678.662	282
678.711	40
678.760	575
678.809	-138
678.857	-91
678.906	-154
678.955	336
679.004	3
679.053	-369
679.102	-535
679.151	-163
679.199	138
679.248	181
679.297	-590
679.346	271
679.394	-142
679.443	-394
679.492	-667
679.540	-31
679.589	-342
679.638	60
679.686	-290
679.735	-471
679.784	-300
679.832	340
679.881	-232
679.929	-231
679.978	-113
680.026	-668
680.075	272
680.123	-907
680.172	-625
680.220	-60
680.268	427
680.317	248
680.365	-1063
680.414	-153
680.462	-181
680.510	-200
680.559	-426
680.607	201
680.655	-532
680.703	-385
680.752	-1113
680.800	-539
680.848	-688
680.896	-794
680.945	-949
680.993	-631
681.041	-1143
681.089	-196
681.137	265
681.185	-20
681.233	-173
681.258	-182
681.281	-200
681.329	-618
681.377	-944
681.380	-891
681.425	-93
681.473	-405
681.502	-399
681.521	-411
681.569	137
681.617	-93
681.624	-145
681.665	-556
681.713	-380
681.745	-179
681.761	-92
681.809	-579
681.857	313
681.867	181
681.904	-321
681.952	563
681.989	-4
682.000	-183
682.048	281
682.096	-104
682.111	-172
682.143	-347
682.191	-124
682.233	550
682.239	638
682.286	-49
682.334	-304
682.354	-166
682.382	2
682.430	-193
682.476	-947
682.477	-971
682.525	-345
682.572	-383
682.598	-275
682.620	-196
682.667	398
682.715	142
682.720	65
682.763	-758
682.810	221
682.841	-19
682.857	-134
682.905	-471
682.952	128
682.963	160
683.000	203
683.047	190
683.085	806
683.095	948
683.142	25
683.190	-148
683.206	-242
683.237	-390
683.284	-69
683.328	-388
683.332	-418
683.379	95
683.426	-184
683.449	80
683.473	309
683.521	-356
683.568	801
683.571	772
683.615	292
683.662	882
683.693	397
683.709	122
683.757	-300
683.804	215
683.814	172
683.851	1
683.898	274
683.936	95
683.945	37
683.992	506
684.039	281
684.057	358
684.086	481
684.133	281
684.179	-268
684.180	-289
684.227	825
684.274	441
684.300	502
684.321	473
684.368	248
684.415	1173
684.422	1039
684.462	340
684.509	325
684.543	1007
684.556	1214
684.603	363
684.649	180
684.665	407
684.696	932
684.743	166
684.786	623
684.790	650
684.837	604
684.883	828
684.908	802
684.930	834
684.977	589
685.023	1606
685.029	1570
685.070	1113
685.117	1152
685.150	844
685.164	727
685.210	1580
685.257	1418
685.272	1115
685.303	481
685.350	1068
685.393	1457
685.396	1487
685.443	1474
685.490	1569
685.514	1480
685.536	1359
685.583	1154
685.629	1197
685.636	1170
685.675	1029
685.722	590
685.757	1403
685.768	1655
685.815	1011
685.861	1105
685.878	1179
685.908	1347
685.954	1121
686.000	1851
686.000	1859
686.047	1296
686.093	2001
686.121	1917
686.139	1888
686.185	1635
686.232	1751
686.242	1766
686.278	1635
686.324	1491
686.363	1254
686.370	1237
686.416	1389
686.463	1821
686.484	1754
686.509	1616
686.555	1610
686.601	1452
686.606	1466
686.647	1578
686.693	1261
686.727	1012
686.739	959
686.785	1328
686.831	1657
686.848	1545
686.877	1314
686.923	1512
686.969	1851
686.969	1853
687.015	1776
687.061	1233
687.090	1427
687.107	1497
687.153	1479
687.199	1223
687.211	1132
687.245	1003
687.291	1390
687.332	1515
687.336	1533
687.382	2303
687.428	1650
687.453	2011
687.474	2187
687.520	1051
687.565	1713
687.574	1690
687.611	1740
687.657	1296
687.695	1528
687.702	1599
687.748	1840
687.794	2435
687.816	2722
687.839	2869
687.885	1901
687.931	1841
687.937	1863
687.976	1988
688.022	1726
688.058	1760
688.067	1774
688.113	1689
688.158	1703
688.179	1681
688.204	1742
688.249	2129
688.295	2132
688.300	2069
688.340	1533
688.386	2203
688.421	1853
688.431	1749
688.477	1912
688.522	1756
688.542	1902
688.567	2162
688.613	1968
688.658	1841
688.663	1804
688.703	1522
688.749	2003
688.784	2085
688.794	2078
688.839	2270
688.884	1556
688.905	1518
688.930	1531
688.975	2146
689.020	2006
689.026	1991
689.065	2059
689.110	2450
689.146	2349
689.155	2274
689.201	2359
689.246	2045
689.267	1966
689.291	2013
689.336	2000
689.381	2311
689.388	2363
689.426	2405
689.471	2252
689.509	1941
689.516	1933
689.561	2602
689.606	2160
689.630	2279
689.651	2255
689.696	2018
689.741	2075
689.750	2024
689.785	2084
689.830	1950
689.871	2088
689.875	2099
689.920	2292
689.965	2282
689.992	2135
690.010	2036
690.054	2391
690.099	2054
690.112	2199
690.144	2505
690.189	2271
690.233	1894
690.233	1898
690.278	1895
690.323	2118
690.354	2237
690.367	2342
690.412	2619
690.457	2939
690.474	2974
690.501	2849
690.546	2769
690.590	2462
690.595	2462
690.635	2649
690.680	2369
690.716	2422
690.724	2479
690.769	2827
690.813	3366
690.836	3383
690.857	3678
690.902	4714
690.946	5785
690.957	6016
690.991	8154
691.035	11092
691.077	14450
691.080	14548
691.124	14888
691.168	14748
691.198	14519
691.213	13243
691.257	10159
691.301	6878
691.318	5690
691.346	5172
691.390	4113
691.434	3137
691.439	3028
691.478	3005
691.522	3126
691.559	2942
691.567	2929
691.611	2938
691.655	2924
691.680	2889
691.699	2779
691.743	2984
691.787	2480
691.800	2384
691.831	2385
691.875	2789
691.919	2794
691.921	2790
691.964	2778
692.008	2830
692.041	2552
692.052	2504
692.096	2941
692.139	3121
692.162	3025
692.183	2978
692.227	3215
692.271	3100
692.282	3211
692.315	3349
692.359	3263
692.402	2892
692.403	2900
692.447	2938
692.490	3432
692.523	3502
692.534	3520
692.578	3469
692.622	3335
692.643	3317
692.666	3150
692.709	3261
692.753	2591
692.763	2656
692.797	3224
692.840	3197
692.884	3191
692.884	3200
692.928	3292
692.971	3544
693.004	3516
693.015	3504
693.059	3490
693.102	3536
693.124	3667
693.146	3823
693.189	3617
693.233	3668
693.245	3737
693.276	4101
693.320	4155
693.363	4368
693.365	4360
693.407	4556
693.450	5349
693.485	5331
693.493	5399
693.537	6384
693.580	6938
693.605	7221
693.624	7834
693.667	9430
693.710	11267
693.725	11833
693.753	16228
693.797	23531
693.840	31632
693.845	32419
693.883	33347
693.926	33035
693.966	32937
693.970	32123
694.013	23592
694.056	15105
694.086	9369
694.099	8903
694.142	7176
694.185	5818
694.206	5009
694.229	4891
694.272	4846
694.315	4660
694.326	4635
694.358	4789
694.401	4813
694.444	4671
694.446	4677
694.487	4706
694.530	4309
694.566	3801
694.573	3761
694.616	3958
694.659	3966
694.686	3778
694.702	3658
694.745	3666
694.787	3446
694.806	3352
694.830	3359
694.873	3473
694.916	3439
694.926	3439
694.959	3421
695.002	3333
695.044	3111
695.046	3110
695.087	3563
695.130	3546
695.166	3698
695.172	3711
695.215	3483
695.258	3634
695.286	3352
695.301	3300
695.343	3624
695.386	3854
695.406	3880
695.428	3669
695.471	3246
695.514	2843
695.526	2723
695.556	2973
695.599	3470
695.641	3870
695.646	3874
695.684	3535
695.726	3439
695.766	3365
695.769	3386
695.811	3295
695.854	3408
695.886	3356
695.896	3306
695.938	3146
695.981	2807
696.005	2700
696.023	2838
696.065	3118
696.108	3516
696.125	3577
696.150	3536
696.192	3615
696.235	3532
696.245	3551
696.277	3863
696.319	4165
696.361	4417
696.365	4420
696.404	4057
696.446	3791
696.485	3414
696.488	3450
696.530	3713
696.572	4121
696.604	4405
696.614	4360
696.656	3969
696.698	3727
696.724	3570
696.740	3670
696.783	3737
696.825	3906
696.844	3942
696.867	3803
696.909	3628
696.951	3317
696.964	3262
696.992	3380
697.034	3451
697.076	3413
697.083	3427
697.118	3528
697.160	3347
697.202	3394
697.203	3383
697.244	3474
697.286	3492
697.323	3434
697.327	3470
697.369	3687
697.411	3984
697.442	4162
697.453	4143
697.494	3918
697.536	3858
697.562	3724
697.578	3711
697.620	3788
697.661	3697
697.682	3726
697.703	3807
697.744	3729
697.786	3864
697.801	3843
697.828	4102
697.869	4499
697.911	4993
697.921	5074
697.952	4908
697.994	4704
698.035	4512
698.040	4472
698.077	4173
698.118	3780
698.160	3447
698.160	3432
698.201	3413
698.243	3385
698.279	3356
698.284	3384
698.325	3529
698.367	3641
698.399	3744
698.408	3780
698.449	3877
698.491	3933
698.518	3989
698.532	4095
698.573	4355
698.614	4627
698.638	4756
698.656	4645
698.697	4355
698.738	4063
698.757	3907
698.779	3926
698.820	3949
698.862	3964
698.877	3958
698.903	4057
698.944	4189
698.985	4331
698.996	4356
699.026	4461
699.067	4593
699.116	4737
699.235	4012
699.354	4982
699.474	4483
699.593	5197
699.713	4673
699.832	4005
699.951	4410
700.070	4146
700.190	4406
700.309	3689
700.428	4512
700.547	3554
700.667	3616
700.786	4505
700.905	4460
701.024	4448
701.143	4479
701.262	3562
701.381	3109
701.500	3664
701.619	3648
701.738	4059
701.857	3733
701.976	3753
702.095	3719
702.214	4092
702.333	3294
702.452	3699
702.571	3942
702.690	3778
702.809	3872
702.928	3710
703.047	3039
703.165	3365
703.284	3628
703.403	3926
703.522	3947
703.640	4765
703.759	5415
703.878	6309
703.997	3500
704.115	3296
704.234	3319
704.353	3359
704.471	4026
704.590	3180
704.708	3355
704.827	3736
704.946	3136
705.064	3451
705.183	2997
705.301	4277
705.420	5912
705.538	6273
705.656	5258
705.775	6152
705.893	11279
706.012	19524
706.130	5815
706.249	5118
706.367	5156
706.485	4561
706.604	5072
706.722	5262
706.840	5657
706.958	6440
707.077	5783
707.195	4900
707.313	5117
707.431	4425
707.549	4269
707.668	4387
707.786	4802
707.904	4028
708.022	3826
708.140	4625
708.258	3514
708.376	4479
708.494	4719
708.612	5135
708.730	6586
708.848	7046
708.966	5881
709.084	5457
709.202	5219
709.320	5511
709.438	5967
709.556	5127
709.674	4886
709.791	5948
709.909	5238
710.027	5645
710.145	5422
710.263	5475
710.380	4706
710.498	5950
710.616	6124
710.733	4710
710.851	5169
710.969	5842
711.086	5587
711.204	4770
711.322	5792
711.439	5408
711.557	4779
711.674	5210
711.792	5104
711.909	6071
712.027	6785
712.144	4875
712.262	5008
712.379	4980
712.497	7256
712.614	8462
712.732	6703
712.849	6476
712.966	6458
713.084	7933
713.201	6878
713.318	6739
713.436	6688
713.553	6439
713.670	6394
713.787	6988
713.905	7305
714.022	6192
714.139	6190
714.256	6879
714.373	6993
714.490	8537
714.608	11506
714.725	37476
714.842	62696
714.959	9126
715.076	6092
715.193	5585
715.310	5326
715.427	5271
715.544	5435
715.661	4349
715.778	5765
715.895	5352
716.011	5992
716.128	5222
716.245	6406
716.362	6397
716.479	5783
716.596	5053
716.713	5575
716.829	5267
716.946	5684
717.063	4504
717.180	4272
717.296	4920
717.413	4916
717.530	4645
717.646	4307
717.763	5600
717.880	4445
717.996	4086
718.113	4745
718.229	4390
718.346	4065
718.462	4412
718.579	4694
718.695	6634
718.812	6283
718.928	5820
719.045	5290
719.161	4298
719.277	4159
719.394	4561
719.510	4816
719.626	4380
719.743	5404
719.859	4835
719.975	5935
720.092	10150
720.208	28530
720.324	9273
720.440	5169
720.557	4932
720.673	6606
720.789	8636
720.905	19372
721.021	10592
721.137	4585
721.253	4996
721.369	4982
721.486	4587
721.602	6621
721.718	5082
721.834	3412
721.950	4208
722.066	3535
722.181	3708
722.297	4428
722.413	4274
722.529	4144
722.645	3891
722.761	2980
722.877	3445
722.993	2706
723.108	4231
723.224	3438
723.340	3334
723.456	2939
723.571	3547
723.687	3230
723.803	3309
723.918	3209
724.034	3583
724.150	3710
724.265	3783
724.381	7234
724.497	11110
724.612	3262
724.728	3309
724.843	2643
724.959	3676
725.074	6375
725.190	8780
725.305	3481
725.421	3520
725.536	3546
725.651	3138
725.767	3610
725.882	2321
725.997	2695
726.113	2962
726.228	2677
726.343	3417
726.459	1871
726.574	2890
726.689	2628
726.804	3023
726.920	3030
727.035	3713
727.150	2828
727.265	2496
727.380	3918
727.495	3181
727.610	2543
727.725	2630
727.841	3492
727.956	8320
728.071	9159
728.186	2602
728.301	1623
728.416	2952
728.531	3188
728.645	2855
728.760	3333
728.875	2449
728.990	2616
729.105	3030
729.220	2638
729.335	2515
729.449	2157
729.564	2550
729.679	2222
729.794	1335
729.908	2442
730.023	1998
730.138	2280
730.253	1457
730.367	2110
730.482	1950
730.596	2138
730.711	2353
730.826	2648
730.940	2326
731.055	2057
731.169	1967
731.284	1658
731.398	1506
731.513	2272
731.627	2468
731.742	2674
731.856	3468
731.970	2044
732.085	2295
732.199	2896
732.313	3163
732.428	4269
732.542	11039
732.656	10228
732.771	2856
732.885	2477
732.999	2119
733.113	2630
733.227	2728
733.342	2265
733.456	1859
733.570	1511
733.684	2094
733.798	1897
733.912	2132
734.026	1498
734.140	1517
734.254	2295
734.368	4091
734.482	6049
734.596	2618
734.710	1887
734.824	1436
734.938	1269
735.052	1492
735.166	1988
735.280	1902
735.393	2171
735.507	2686
735.621	3275
735.735	4594
735.849	2577
735.962	2120
736.076	2716
736.190	2408
736.303	3043
736.417	4086
736.531	2009
736.644	2013
736.758	1014
736.872	1320
736.985	1711
737.099	1490
737.212	1405
737.326	1780
737.439	2098
737.553	1358
737.666	2079
737.780	1096
737.893	864
738.007	1415
738.120	1206
738.233	976
738.347	1966
738.460	1624
738.573	2009
738.687	2530
738.800	2382
738.913	1835
739.026	2346
739.140	2329
739.253	1947
739.366	1902
739.479	1251
739.592	1215
739.705	1484
739.818	1192
739.932	761
740.045	2082
740.158	1522
740.271	1537
740.384	1805
740.497	2135
740.610	2225
740.723	1709
740.836	2018
740.949	2219
741.062	2026
741.174	2321
741.287	2311
741.400	1471
741.513	1371
741.626	1536
741.739	2125
741.851	1567
741.964	1095
742.077	1131
742.189	2351
742.302	2420
742.415	2329
742.527	1795
742.640	2165
742.753	1089
742.865	920
742.978	1296
743.090	1295
743.203	863
743.316	1510
743.428	1405
743.541	1444
743.653	690
743.766	1495
743.878	1398
743.990	2413
744.103	2678
744.215	2429
744.327	871
744.440	1666
744.552	1655
744.664	1141
744.777	762
744.889	1037
745.001	879
745.113	1072
745.226	979
745.338	1186
745.450	1324
745.562	1329
745.674	966
745.786	1295
745.898	1065
746.010	1310
746.122	1429
746.234	1631
746.347	1097
746.459	1646
746.570	1106
746.682	1848
746.794	3421
746.906	1705
747.018	1393
747.130	1257
747.242	1225
747.354	1311
747.466	1777
747.577	1435
747.689	987
747.801	950
747.913	-33
748.024	827
748.136	1331
748.248	780
748.359	515
748.471	615
748.583	1087
748.694	1027
748.806	1658
748.918	1676
749.029	1552
749.141	992
749.252	1424
749.364	1134
749.475	1958
749.587	1591
749.698	1191
749.809	1193
749.921	433
750.032	1285
750.144	1001
750.255	752
750.366	635
750.478	1405
750.589	758
750.700	1478
750.811	1605
750.923	1443
751.034	2442
751.145	3433
751.256	456
751.367	972
751.479	1144
751.590	963
751.701	1149
751.812	347
751.923	409
752.034	1030
752.145	916
752.256	1012
752.367	471
752.478	921
752.589	1367
752.700	686
752.811	1215
752.922	375
753.032	1219
753.143	234
753.254	1291
753.365	1118
753.476	841
753.586	131
753.697	1206
753.808	841
753.919	184
754.029	706
754.140	918
754.251	168
754.361	1051
754.472	872
754.582	664
754.693	732
754.804	482
754.914	208
755.025	964
755.135	1534
755.246	1133
755.356	665
755.466	500
755.577	1146
755.687	859
755.798	1034
755.908	498
756.018	635
756.129	807
756.239	1695
756.349	238
756.460	1053
756.570	904
756.680	407
756.790	1830
756.900	1233
757.011	1069
757.121	1238
757.231	661
757.341	1219
757.451	1235
757.561	767
757.671	294
757.781	676
757.891	1749
758.001	810
758.111	1593
758.221	707
758.331	895
758.441	763
758.551	1684
758.661	1734
758.771	1388
758.880	1221
758.990	462
759.100	1952
759.210	1862
759.320	1294
759.429	1539
759.539	1677
759.649	2323
759.758	1167
759.868	2108
759.978	1237
760.087	2032
760.197	1374
760.307	2471
760.416	703
760.526	1328
760.635	2005
760.745	2214
760.854	2033
760.964	1698
761.073	1968
761.182	1958
761.292	2384
761.401	2313
761.511	1897
761.620	2766
761.729	1701
761.839	1892
761.948	2092
762.057	1274
762.166	2357
762.276	1258
762.385	3405
762.494	2676
762.603	2365
762.712	2593
762.822	3942
762.931	2415
763.040	2529
763.149	3116
763.258	2830
763.367	2830
763.476	3167
763.585	3690
763.694	4223
763.803	4114
763.912	4566
764.021	3853
764.130	5189
764.238	5134
764.347	4617
764.456	5890
764.565	6516
764.674	6849
764.783	7100
764.891	6224
765.000	9450
765.109	10045
765.217	11549
765.326	13727
765.435	16865
765.543	20319
765.652	25868
765.761	32556
765.869	46998
765.978	71563
766.086	117504
766.195	214850
766.303	423131
766.412	652821
766.520	596432
766.629	442763
766.737	208009
766.846	112532
766.954	71295
767.062	51001
767.171	39229
767.279	28997
767.387	21358
767.496	18272
767.604	15878
767.712	14014
767.820	12413
767.928	11411
768.037	10100
768.145	9448
768.253	9776
768.361	8466
768.469	9119
768.577	9151
768.685	9259
768.793	10374
768.901	11559
769.009	13129
769.117	15089
769.225	19741
769.333	28157
769.441	45547
769.549	82572
769.657	166745
769.765	387230
769.873	558400
769.981	413958
770.088	169533
770.196	76120
770.304	45642
770.412	31613
770.519	22258
770.627	17254
770.735	13633
770.842	11862
770.950	10144
771.058	8640
771.165	8212
771.273	6429
771.380	6949
771.488	5936
771.595	5489
771.703	4859
771.810	4369
771.918	3862
772.025	3955
772.133	3412
772.240	3687
772.348	3410
772.455	2918
772.562	2785
772.670	4279
772.777	3301
772.884	3025
772.991	2601
773.099	1947
773.206	1921
773.313	2467
773.420	2628
773.528	2057
773.635	1664
773.742	1600
773.849	2555
773.956	2147
774.063	1653
774.170	1674
774.277	2856
774.384	1507
774.491	2178
774.598	1358
774.705	2354
774.812	1561
774.919	1641
775.026	1274
775.133	2178
775.239	1367
775.346	1287
775.453	1157
775.560	1317
775.667	1825
775.773	896
775.880	1863
775.987	116
776.093	1521
776.200	1083
776.307	1250
776.413	1742
776.520	810
776.627	1492
776.733	877
776.840	319
776.946	2179
777.053	2418
777.159	6086
777.266	2698
777.372	5597
777.478	4584
777.585	1569
777.691	1294
777.798	1610
777.904	2165
778.010	2405
778.117	2288
778.223	1047
778.329	464
778.435	1086
778.542	987
778.648	1305
778.754	1178
778.860	792
778.966	1423
779.072	628
779.178	704
779.284	1314
779.391	640
779.497	-100
779.603	2750
779.708	3462
779.815	8517
779.920	28712
780.026	73518
780.132	16385
780.238	2029
780.344	1158
780.450	1297
780.556	1021
780.661	592
780.767	653
780.873	519
780.979	1198
781.085	769
781.190	676
781.296	669
781.402	317
781.507	681
781.613	778
781.719	105
781.824	637
781.930	1071
782.035	293
782.141	698
782.246	179
782.352	913
782.457	581
782.563	560
782.668	819
782.773	941
782.879	83
782.984	625
783.090	1183
783.195	1585
783.300	969
783.405	861
783.511	554
783.616	290
783.721	1117
783.826	24
783.932	242
784.037	1023
784.142	709
784.247	730
784.352	659
784.457	782
784.562	457
784.667	1209
784.772	226
784.877	-24
784.982	835
785.087	9
785.192	1172
785.297	673
785.402	1
785.507	-109
785.611	591
785.716	845
785.821	448
785.926	460
786.031	163
786.135	1239
786.240	1087
786.345	-349
786.450	606
786.554	353
786.659	-117
786.763	-440
786.868	42
786.973	979
787.077	411
787.182	-488
787.286	565
787.391	584
787.495	421
787.600	303
787.704	-313
787.809	-98
787.913	225
788.017	-467
788.122	468
788.226	304
788.330	-141
788.435	346
788.539	252
788.643	-103
788.747	-90
788.852	417
788.956	277
789.060	171
789.164	398
789.268	-15
789.372	350
789.476	45
789.580	569
789.684	-66
789.788	414
789.892	-889
789.996	352
790.100	-158
790.204	-303
790.308	-83
790.412	417
790.516	-334
790.620	425
790.724	365
790.828	237
790.931	45
791.035	1249
791.139	448
791.242	-155
791.346	504
791.450	102
791.554	-11
791.657	-1014
791.761	1080
791.864	-451
791.968	511
792.072	290
792.175	287
792.279	-349
792.382	205
792.486	-17
792.589	-80
792.693	532
792.796	-488
792.899	267
793.003	-91
793.106	-382
793.209	-489
793.313	1629
793.416	-660
793.519	713
793.623	724
793.726	649
793.829	-93
793.932	871
794.035	55
794.138	347
794.242	-6
794.345	937
794.448	2003
794.551	3837
794.654	14408
794.757	36149
794.860	9240
794.963	276
795.066	-388
795.169	1414
795.272	-96
795.375	-105
795.477	-767
795.580	279
795.683	-927
795.786	-135
795.889	-662
795.991	-144
796.094	539
796.197	-272
796.300	-23
796.402	-703
796.505	-786
796.608	211
796.710	237
796.813	-214
796.915	188
797.018	195
797.120	-70
797.223	-585
797.326	306
797.428	-243
797.530	-459
797.633	196
797.735	368
797.838	384
797.940	869
798.042	-675
798.145	-206
798.247	882
798.349	-59
798.452	-159
798.554	-576
798.656	-705
798.758	71
798.860	-379
798.962	-451
799.065	-345
799.167	-264
799.269	147
799.371	-641
799.473	-196
799.575	-596
799.677	214
799.779	927
799.881	-1037
799.983	840
800.085	-346
800.187	-380
800.289	-974
800.390	-173
800.492	420
800.594	29
800.696	-514
800.798	-241
800.899	-121
801.001	-407
801.103	-1132
801.205	-613
801.306	-267
801.408	-342
801.509	-263
801.611	-83
801.713	-531
801.814	-1368
801.916	-600
802.017	86
802.119	-380
802.220	-389
802.322	-1292
802.423	762
802.525	-287
802.626	-254
802.727	203
802.829	-964
802.930	-1514
803.031	334
803.133	-997
803.234	-826
803.335	-534
803.436	-1201
803.538	-43
803.639	-1041
803.740	27
803.841	-127
803.942	14
804.043	-552
804.144	-318
804.245	-126
804.346	-1141
804.447	-120
804.548	-535
804.649	305
804.750	-185
804.851	-553
804.952	-708
805.053	22
805.154	-1189
805.255	-326
805.355	-612
805.456	283
805.557	-1575
805.658	-963
805.758	-662
805.859	-24
805.960	-585
806.061	-399
806.161	-770
806.262	-254
806.362	-216
806.463	-351
806.564	-26
806.664	-1197
806.765	-690
806.865	-165
806.966	-192
807.066	-549
807.166	154
807.267	230
807.367	-1261
807.468	-259
807.568	-1013
807.668	-69
807.769	-86
807.869	-150
807.969	-70
808.069	-648
808.170	-857
808.270	-1084
808.370	-715
808.470	-292
808.570	-672
808.670	-468
808.770	-601
808.870	-986
808.970	-108
809.070	-794
809.170	-750
809.271	-280
809.370	-612
809.470	-149
809.570	-313
809.670	-380
809.770	-608
809.870	-893
809.970	-614
810.070	-400
810.169	262
810.269	-1129
810.369	-42
810.469	-59
810.568	-690
810.668	-470
810.768	-467
810.867	-480
810.967	-562
811.066	5
811.166	-891
811.265	-350
811.365	-1205
811.464	-881
811.564	-105
811.663	194
811.763	-944
811.862	-281
811.962	692
812.061	-873
812.160	-929
812.260	-697
812.359	-558
812.458	-368
812.557	719
812.657	1810
812.756	576
812.855	-507
812.954	-837
813.053	-235
813.153	-423
813.252	-1561
813.351	-400
813.450	-493
813.549	-41
813.648	-55
813.747	-904
813.846	-632
813.945	-348
814.044	-655
814.143	-773
814.242	190
814.341	-1331
814.439	-974
814.538	-148
814.637	-278
814.736	-217
814.835	-61
814.933	-651
815.032	-107
815.131	150
815.229	-406
815.328	123
815.427	-409
815.525	186
815.624	813
815.722	145
815.821	332
815.919	-340
816.018	-936
816.116	624
816.215	1016
816.313	390
816.412	543
816.510	137
816.609	1168
816.707	-161
816.805	116
816.904	220
817.002	568
817.100	1698
817.198	1897
817.296	1644
817.395	1716
817.493	3469
817.591	3498
817.689	5183
817.787	7107
817.885	12575
817.983	24983
818.081	53950
818.179	130942
818.277	307023
818.375	333947
818.473	103891
818.571	33148
818.669	19526
818.767	16155
818.865	16709
818.963	19882
819.061	28359
819.158	49472
819.256	104789
819.354	227852
819.452	472003
819.549	396911
819.647	129125
819.745	45877
819.842	25652
819.940	16761
820.038	11644
820.135	9291
820.233	7056
820.330	5560
820.428	2959
820.525	3718
820.623	3110
820.720	1652
820.818	1668
820.915	2833
821.012	2098
821.110	1295
821.207	1663
821.304	1032
821.402	720
821.499	1648
821.596	1406
821.693	1313
821.791	814
821.888	619
821.985	1924
822.082	1017
822.179	1070
822.276	288
822.373	758
822.470	313
822.567	87
822.664	-1131
822.761	143
822.858	-578
822.955	-1243
823.052	572
823.149	-645
823.246	58
823.343	-927
823.440	25
823.536	-760
823.633	-458
823.730	-405
823.827	-290
823.923	-1369
824.020	1078
824.117	-802
824.213	-442
824.310	-42
824.407	-375
824.503	-496
824.600	-540
824.696	-808
824.793	98
824.889	-1121
824.986	-548
825.082	27
825.179	-646
825.275	-258
825.371	-626
825.468	300
825.564	-1319
825.660	-297
825.757	-538
825.853	85
825.949	-917
826.045	-1294
826.142	-904
826.238	-1275
826.334	-368
826.430	-1055
826.526	382
826.622	-653
826.718	-1031
826.814	-1526
826.910	-843
827.006	-290
827.102	-905
827.198	-126
827.294	-1248
827.390	-671
827.486	104
827.582	-1497
827.678	-1190
827.774	-594
827.869	-729
827.965	539
828.061	-1687
828.157	-1035
828.252	-846
828.348	-365
828.444	-217
828.539	-942
828.635	-610
828.731	-984
828.826	-1183
828.922	-549
829.017	-1091
829.113	-614
829.208	-726
829.304	-1722
829.399	-151
829.495	-1211
829.590	-375
829.685	-1370
829.781	-526
829.876	-839
829.971	-1467
830.066	-1124
830.162	-1236
830.257	-895
830.352	-1318
830.447	-365
830.543	-1401
830.638	-1835
830.733	-374
830.828	-1096
830.923	-1032
831.018	-520
831.113	-1084
831.208	-1752
831.303	-302
831.398	-692
831.493	-1098
831.588	-352
831.683	-1294
831.778	-798
831.873	-536
831.967	-55
832.062	-1478
832.157	-1799
832.252	264
832.346	-1287
832.441	-749
832.536	-482
832.631	459
832.725	8
832.820	-1638
832.914	-1052
833.009	-1670
833.104	-1053
833.198	-513
833.293	-1701
833.387	-807
833.482	-1195
833.576	-1563
833.670	-841
833.765	-1395
833.859	-1371
833.954	-969
834.048	-1026
834.142	-867
834.237	-316
834.331	-1760
834.425	-1336
834.519	-1485
834.613	-359
834.708	-1217
834.802	-1092
834.896	-1537
834.990	-1376
835.084	-181
835.178	-1272
835.272	-1084
835.366	-1310
835.460	-807
835.554	-1393
835.648	-903
835.742	-1441
835.836	-471
835.930	-1161
836.024	-1419
836.117	-566
836.211	-373
836.305	-360
836.399	179
836.493	-1404
836.586	-748
836.680	-1472
836.774	-1142
836.867	-226
836.961	-1193
837.055	-1170
837.148	-968
837.242	-1116
837.335	-783
837.429	-746
837.522	-1346
837.616	-944
837.709	-994
837.803	-189
837.896	-971
837.989	-505
838.083	-1097
838.176	-176
838.269	59
838.363	142
838.456	-1162
838.549	-1040
838.642	-1415
838.735	326
838.829	-95
838.922	-993
839.015	-966
839.108	-1677
839.201	-311
839.294	-582
839.387	-578
839.480	-1555
839.573	-741
839.666	-1234
839.759	-367
839.852	-1126
839.945	-156
840.038	-1048
840.131	-1311
840.223	-702
840.316	-649
840.409	-1506
840.502	-1063
840.594	-222
840.687	-1864
840.780	-975
840.873	-1206
840.965	-773
841.058	-859
841.150	-565
841.243	-603
841.336	-103
841.428	-952
841.521	-1497
841.613	-2098
841.706	-1205
841.798	-1117
841.890	-938
841.983	-2395
842.075	-706
842.167	-1454
842.260	-1595
842.352	20
842.444	-270
842.537	-94
842.629	506
842.721	-565
842.813	-1185
842.905	-1065
842.997	-800
843.090	-1615
843.182	-530
843.274	-461
843.366	2571
843.458	4124
843.550	4457
843.642	264
843.734	-1590
843.826	-745
843.918	-807
844.009	-519
844.101	-370
844.193	-1415
844.285	-1799
844.377	-1123
844.469	-31
844.560	-502
844.652	-743
844.744	-902
844.835	-526
844.927	-390
845.019	-1240
845.110	-1149
845.202	-1158
845.293	-982
845.385	-1971
845.476	-1577
845.568	-377
845.659	-1014
845.751	-511
845.842	-1381
845.934	-872
846.025	-1480
846.116	-848
846.208	-493
846.299	-1575
846.390	-484
846.482	-1297
846.573	-544
846.664	-801
846.755	-902
846.846	-895
846.937	-1892
847.029	-981
847.120	-1014
847.211	-2189
847.302	-359
847.393	-1851
847.484	-1168
847.575	-1650
847.666	-1272
847.757	-1037
847.847	-1171
847.938	-1213
848.029	-884
848.120	-1390
848.211	-1418
848.302	-864
848.392	-1515
848.483	-593
848.574	-1348
848.664	-1314
848.755	-1804
848.846	-1060
848.936	-1932
849.027	-876
849.118	-838
849.208	-858
849.299	-1341
849.389	-438
849.480	-722
849.570	-482
849.661	-370
849.751	1036
849.841	-568
849.932	-624
850.022	-1260
850.112	-698
850.203	-1726
850.293	-1279
850.383	-784
850.474	-1644
850.564	-2203
850.654	-1276
850.744	-1602
850.834	-819
850.924	-1401
851.014	-1063
851.104	-1373
851.194	-357
851.284	136
851.374	-1239
851.464	-1937
851.554	-818
851.644	-993
851.734	-481
851.824	-983
851.914	-1485
852.004	333
852.094	283
852.183	-1165
852.273	-1294
852.363	-1009
852.452	-1165
852.542	-1059
852.632	-1469
852.721	-1269
852.811	-1391
852.901	-914
852.990	-1908
853.080	-889
853.169	-1583
853.259	-1820
853.348	-1543
853.438	-1021
853.527	-643
853.617	-1283
853.706	-493
853.795	-544
853.885	2527
853.974	4285
854.063	8323
854.152	16105
854.242	8134
854.331	-135
854.420	-1167
854.509	-964
854.598	-1007
854.687	-1077
854.777	-1227
854.866	-1906
854.955	-718
855.044	-1177
855.133	-1420
855.222	-1225
855.311	-1917
855.400	-825
855.488	-1032
855.577	-1829
855.666	-1063
855.755	-514
855.844	-1155
855.933	-761
856.021	-740
856.110	-1007
856.199	-1512
856.288	-1479
856.376	-1505
856.465	-2149
856.554	-1793
856.642	-1641
856.731	-1346
856.819	-874
856.908	-1350
856.996	-1553
857.085	-1445
857.173	-1264
857.262	-1335
857.350	-1102
857.438	-816
857.527	-1191
857.615	-1751
857.703	-1367
857.792	-1089
857.880	-1803
857.968	-1723
858.056	-1915
858.145	-1722
858.233	-1444
858.321	-1673
858.409	-1302
858.497	-1539
858.585	-1415
858.673	-1362
858.761	-1596
858.849	-1294
858.937	-1658
859.025	-1216
859.113	-1331
859.201	-1311
859.289	-1036
859.377	-1453
859.465	-1195
859.552	-2194
859.640	-2044
859.728	-1045
859.816	-1375
859.903	-1359
859.991	-2401
860.079	-1258
860.166	-1570
860.254	-1465
860.342	-1503
860.429	-1330
860.517	-1833
860.604	-1223
860.692	-1336
860.779	-1618
860.867	-1571
860.954	-1449
861.042	-1270
861.129	-1148
861.216	-985
861.304	-2147
861.391	-1255
861.478	-1835
861.565	-566
861.653	-1623
861.740	-1302
861.827	-1456
861.914	-1227
862.001	-1562
862.089	-982
862.176	-1697
862.263	-1864
862.350	-1217
862.437	-1133
862.524	-1423
862.611	-1191
862.698	-1280
862.785	-943
862.871	-1112
862.958	-1071
863.045	-1106
863.132	-1723
863.219	-1070
863.306	-1960
863.392	-1213
863.479	-1860
863.566	-1037
863.652	-1226
863.739	-1163
863.826	-1461
863.912	-1825
863.999	-2251
864.086	-2143
864.172	-2041
864.259	-1492
864.345	-1595
864.432	-1722
864.518	-1129
864.604	-2180
864.691	-1379
864.777	-1740
864.863	-1244
864.950	-1708
865.036	-1712
865.122	-1348
865.209	-1123
865.295	-923
865.381	-1143
865.467	-1466
865.553	-1274
865.639	-1802
865.726	-1315
865.812	-694
865.898	1751
865.984	2415
866.070	4823
866.156	8650
866.242	2867
866.328	-1216
866.414	-1406
866.499	-1614
866.585	-2002
866.671	-1946
866.757	-1485
866.843	-958
866.928	-1225
867.014	-1395
867.100	-742
867.186	-1424
867.271	-746
867.357	-1302
867.442	-1576
867.528	-1074
867.614	-1206
867.699	-1195
867.785	-716
867.870	-1295
867.956	-1020
868.041	-666
868.127	-955
868.212	-1156
868.297	-751
868.383	-622
868.468	-1337
868.553	-477
868.639	-242
868.724	-787
868.809	122
868.894	-1257
868.979	-1483
869.065	-900
869.150	-2376
869.235	-1355
869.320	-2529
869.405	-1957
869.490	-1367
869.575	-1334
869.660	-1363
869.745	-1446
869.830	-874
869.915	-1497
870.000	-1077
870.085	-1435
870.169	-1548
870.254	-668
870.339	-1860
870.424	-2139
870.509	-1217
870.593	-1487
870.678	-1062
870.763	-1712
870.847	-1161
870.932	-2071
871.016	-1822
871.101	-2207
871.186	-1140
871.270	-1568
871.355	-1129
871.439	-1346
871.523	-1223
871.608	-1514
871.692	-1837
871.777	-1417
871.861	-656
871.945	-1428
872.030	-1324
872.114	-1324
872.198	-1412
872.282	-1498
872.367	-1914
872.451	-1924
872.535	-1648
872.619	-2250
872.703	-1215
872.787	-1672
872.871	-1211
872.955	-1055
873.039	-2132
873.123	-1215
873.207	-1045
873.291	-1571
873.375	-946
873.459	-994
873.543	-1150
873.627	-1533
873.711	-1135
873.794	-1960
873.878	-2092
873.962	-1933
874.045	-1597
874.129	-1595
874.137	-1561
874.213	-1221
874.245	-1208
874.296	-1187
874.352	-1771
874.380	-2058
874.460	-1457
874.464	-1433
874.547	-1712
874.568	-1642
874.631	-1435
874.676	-1050
874.714	-741
874.784	-1096
874.798	-1164
874.881	-769
874.892	-857
874.965	-1471
874.999	-1404
875.048	-1304
875.107	-1387
875.131	-1426
875.215	-1252
875.215	-1251
875.298	-907
875.323	-1013
875.381	-1288
875.430	-1373
875.465	-1401
875.538	-1828
875.548	-1893
875.631	-1212
875.646	-1280
875.714	-1668
875.753	-1702
875.798	-1668
875.861	-1278
875.881	-1182
875.964	-1386
875.968	-1372
876.047	-1031
876.076	-1082
876.130	-1157
876.183	-1390
876.213	-1552
876.291	-1461
876.296	-1453
876.379	-1256
876.398	-1131
876.462	-753
876.506	-1264
876.545	-1680
876.613	-1154
876.628	-1059
876.711	-463
876.721	-498
876.794	-721
876.828	-1092
876.877	-1590
876.935	-1084
876.960	-838
877.043	-620
877.043	-620
877.125	-750
877.150	-779
877.208	-862
877.258	-817
877.291	-731
877.365	-289
877.374	-245
877.456	12
877.472	-86
877.539	-464
877.579	-483
877.622	-447
877.687	-361
877.704	-411
877.787	13
877.794	-79
877.869	-728
877.901	-734
877.952	-920
878.008	-1052
878.034	-1016
878.115	-828
878.117	-827
878.199	-1120
878.222	-1049
878.282	-776
878.329	-261
878.364	68
878.437	-680
878.447	-774
878.529	-1164
878.544	-1113
878.611	-987
878.651	-1145
878.694	-1026
878.758	-688
878.776	-740
878.858	-1277
878.865	-1242
878.941	-573
878.972	-679
879.023	-939
879.078	-959
879.105	-790
879.185	-532
879.187	-534
879.269	-997
879.292	-1162
879.351	-1551
879.399	-1264
879.433	-1060
879.506	-961
879.516	-917
879.598	-915
879.613	-857
879.680	-719
879.720	-886
879.762	-1102
879.827	-905
879.844	-850
879.926	-793
879.933	-813
880.007	-999
880.040	-1094
880.089	-911
880.147	-344
880.171	-341
880.253	-897
880.254	-899
880.335	-49
880.360	-34
880.417	-248
880.467	230
880.499	753
880.574	1514
880.580	1513
880.662	728
880.680	586
880.744	-165
880.787	-422
880.825	-330
880.893	-523
880.907	-516
880.989	33
881.000	21
881.070	-249
881.106	-150
881.152	-244
881.213	-889
881.233	-1017
881.315	-877
881.319	-892
881.396	-817
881.426	-736
881.478	-827
881.532	-803
881.559	-795
881.639	-1113
881.641	-1109
881.722	-934
881.745	-843
881.803	-567
881.852	-539
881.885	-673
881.958	-546
881.966	-494
882.047	-433
882.064	-340
882.129	171
882.171	319
882.210	355
882.277	349
882.291	283
882.372	-158
882.383	-198
882.454	-242
882.489	-282
882.535	-345
882.596	-635
882.616	-692
882.697	-567
882.702	-565
882.778	-227
882.808	-164
882.859	-490
882.914	-492
882.940	-352
883.020	-699
883.021	-695
883.102	-371
883.127	-277
883.183	-538
883.233	-387
883.264	-87
883.339	-115
883.345	-150
883.426	-599
883.445	-576
883.507	-439
883.551	-424
883.587	-282
883.657	-424
883.668	-469
883.749	-850
883.763	-828
883.830	-484
883.869	-417
883.910	-334
883.975	-241
883.991	-252
884.072	156
884.081	90
884.152	-86
884.187	45
884.233	129
884.292	425
884.314	394
884.394	-383
884.398	-407
884.475	-216
884.504	-239
884.555	-160
884.610	-24
884.636	-180
884.716	-352
884.716	-343
884.797	117
884.821	202
884.877	159
884.927	-75
884.958	-173
885.033	-4
885.038	6
885.118	-116
885.139	-166
885.199	-143
885.244	120
885.279	231
885.350	69
885.359	68
885.439	-85
885.456	-142
885.520	-365
885.561	-298
885.600	-116
885.667	89
885.680	158
885.760	552
885.773	610
885.840	287
885.878	18
885.920	65
885.984	159
886.000	181
886.080	246
886.089	240
886.160	-35
886.195	-177
886.240	-270
886.300	-189
886.320	-19
886.400	458
886.406	477
886.480	155
886.511	-27
886.560	-58
886.616	137
886.640	243
886.720	446
886.722	440
886.800	548
886.827	613
886.879	377
886.932	165
886.959	414
887.038	972
887.039	972
887.119	273
887.143	31
887.198	134
887.248	232
887.278	133
887.354	-313
887.358	-295
887.437	252
887.459	338
887.517	375
887.564	327
887.596	258
887.669	344
887.676	381
887.755	604
887.774	629
887.835	468
887.880	425
887.914	276
887.985	-89
887.994	-57
888.073	145
888.090	193
888.153	711
888.195	1000
888.232	649
888.300	139
888.311	294
888.391	1173
888.405	1334
888.470	784
888.510	404
888.549	470
888.615	679
888.628	650
888.708	367
888.720	314
888.787	268
888.825	223
888.866	292
888.930	398
888.945	502
889.024	1033
889.035	1101
889.103	1415
889.140	1528
889.182	1181
889.245	695
889.261	673
889.340	531
889.349	506
889.419	351
889.454	280
889.498	249
889.559	207
889.577	371
889.656	1061
889.664	1126
889.735	943
889.768	847
889.814	848
889.873	845
889.978	1180
890.083	930
890.187	372
890.292	561
890.397	992
890.501	715
890.606	502
890.710	146
890.815	1027
890.919	631
891.024	453
891.128	649
891.233	772
891.337	694
891.442	290
891.546	413
891.650	696
891.755	763
891.859	1217
891.963	1129
892.068	532
892.172	189
892.276	968
892.380	961
892.484	280
892.589	223
892.693	209
892.797	1029
892.901	1248
893.005	138
893.109	129
893.213	179
893.317	648
893.421	948
893.525	-134
893.629	145
893.733	578
893.837	1055
893.941	547
894.045	1017
894.148	927
894.252	1725
894.356	544
894.460	1718
894.564	704
894.667	411
894.771	612
894.875	759
894.978	545
895.082	545
895.186	210
895.289	895
895.393	1317
895.496	637
895.600	777
895.703	743
895.807	544
895.910	-121
896.014	-103
896.117	733
896.221	177
896.324	1383
896.427	129
896.531	960
896.634	-58
896.737	917
896.840	536
896.944	675
897.047	149
897.150	255
897.253	919
897.356	577
897.460	692
897.563	612
897.666	723
897.769	1239
897.872	239
897.975	386
898.078	936
898.181	298
898.284	421
898.387	739
898.490	387
898.593	824
898.695	597
898.798	-265
898.901	422
899.004	650
899.107	-63
899.209	1467
899.312	265
899.415	153
899.518	731
899.620	138
899.723	446
899.826	1011
899.928	61
900.031	157
900.133	350
900.236	525
900.338	580
900.441	1521
900.543	-328
900.646	87
900.748	472
900.851	639
900.953	1069
901.055	414
901.158	517
901.260	215
901.362	557
901.465	131
901.567	324
901.669	948
901.771	-23
901.873	-223
901.976	-262
902.078	508
902.180	544
902.282	399
902.384	-94
902.486	72
902.588	496
902.690	301
902.792	848
902.894	805
902.996	180
903.098	783
903.200	-23
903.302	-22
903.404	-45
903.505	1000
903.607	688
903.709	-134
903.811	336
903.913	785
904.014	477
904.116	607
904.218	343
904.319	237
904.421	566
904.523	365
904.624	51
904.726	168
904.827	-74
904.929	465
905.030	-303
905.132	353
905.233	-574
905.335	413
905.436	45
905.537	730
905.639	-145
905.740	473
905.841	217
905.943	677
906.044	255
906.145	301
906.247	74
906.348	791
906.449	711
906.550	-202
906.651	382
906.752	286
906.854	-153
906.955	734
907.056	672
907.157	326
907.258	576
907.359	27
907.460	940
907.561	868
907.662	107
907.762	200
907.863	917
907.964	294
908.065	236
908.166	610
908.267	-551
908.367	22
908.468	564
908.569	990
908.670	-57
908.770	578
908.871	-338
908.971	519
909.072	322
909.173	238
909.273	433
909.374	-13
909.474	175
909.575	9
909.675	-529
909.776	232
909.876	1305
909.977	-258
910.077	220
910.177	285
910.278	377
910.378	953
910.478	474
910.579	50
910.679	-203
910.779	1207
910.879	-330
910.980	1022
911.080	-197
911.180	206
911.280	-245
911.380	-86
911.480	141
911.580	49
911.680	134
911.780	986
911.880	-241
911.980	607
912.080	67
912.180	-243
912.280	1015
912.380	32
912.480	-88
912.580	31
912.679	502
912.779	421
912.879	611
912.979	375
913.078	493
913.178	477
913.278	669
913.377	92
913.477	-26
913.577	-393
913.676	410
913.776	-54
913.875	-189
913.975	429
914.074	101
914.174	-459
914.273	-266
914.373	240
914.472	257
914.572	-115
914.671	-416
914.770	70
914.870	67
914.969	-949
915.068	-107
915.167	143
915.267	-31
915.366	-538
915.465	-265
915.564	-695
915.663	-36
915.763	356
915.862	647
915.961	38
916.060	327
916.159	793
916.258	-96
916.357	-192
916.456	54
916.555	207
916.654	-141
916.752	-429
916.851	349
916.950	-241
917.049	-581
917.148	-219
917.247	202
917.345	-420
917.444	211
917.543	-263
917.642	-21
917.740	542
917.839	-109
917.937	-743
918.036	437
918.135	72
918.233	-662
918.332	-540
918.430	-85
918.529	-137
918.627	234
918.726	-217
918.824	-622
918.923	675
919.021	83
919.119	-418
919.218	-415
919.316	-404
919.414	-48
919.512	-707
919.611	51
919.709	-193
919.807	-432
919.905	-141
920.003	323
920.102	964
920.200	374
920.298	-187
920.396	-182
920.494	-315
920.592	12
920.690	-43
920.788	135
920.886	-338
920.984	890
921.082	-365
921.180	231
921.277	290
921.375	-589
921.473	-221
921.571	607
921.669	482
921.766	-580
921.864	603
921.962	718
922.060	-226
922.157	887
922.255	-46
922.352	296
922.450	58
922.548	-613
922.645	551
922.743	-452
922.840	-173
922.938	-29
923.035	340
923.133	650
923.230	-538
923.327	-326
923.425	18
923.522	321
923.619	522
923.717	742
923.814	571
923.911	-378
924.008	374
924.106	-113
924.203	-66
924.300	683
924.397	-6
924.494	-297
924.591	247
924.688	560
924.786	481
924.883	-457
924.979	-554
925.077	115
925.173	318
925.270	-112
925.367	-225
925.464	35
925.561	676
925.658	194
925.755	696
925.852	293
925.948	-226
926.045	261
926.142	-32
926.239	585
926.335	632
926.432	-26
926.529	531
926.625	810
926.722	-458
926.818	317
926.915	176
927.011	23
927.108	940
927.204	631
927.301	-115
927.397	-213
927.494	252
927.590	-108
927.687	464
927.783	-408
927.879	-169
927.976	150
928.072	-468
928.168	232
928.264	1087
928.361	584
928.457	469
928.553	133
928.649	-220
928.745	-283
928.841	304
928.937	-165
929.033	274
929.129	106
929.225	-37
929.321	4
929.417	184
929.513	-388
929.609	-347
929.705	-454
929.801	-39
929.897	527
929.993	375
930.089	21
930.184	-14
930.280	-960
930.376	185
930.471	-47
930.567	291
930.663	-15
930.758	20
930.854	-541
930.950	-159
931.045	-146
931.141	-221
931.236	245
931.332	134
931.427	-727
931.523	-338
931.618	188
931.714	-345
931.809	-203
931.905	355
932.000	-153
932.095	-879
932.191	559
932.286	245
932.381	128
932.476	-674
932.572	620
932.667	479
932.762	85
932.857	-151
932.952	85
933.047	430
933.142	13
933.237	-464
933.332	521
933.427	156
933.522	-225
933.617	-327
933.712	33
933.807	-336
933.902	-338
933.997	191
934.092	229
934.187	344
934.282	-129
934.376	-702
934.471	-312
934.566	397
934.661	692
934.755	499
934.850	148
934.945	-189
935.039	221
935.134	329
935.228	671
935.323	-141
935.417	-180
935.512	-581
935.606	-648
935.701	24
935.795	-108
935.890	-43
935.984	-198
936.079	-606
936.173	518
936.267	-240
936.362	-115
936.456	-69
936.550	317
936.644	118
936.738	151
936.833	197
936.927	140
937.021	-237
937.115	-269
937.209	209
937.303	263
937.397	-572
937.491	-276
937.585	18
937.679	-628
937.773	-628
937.867	152
937.961	-505
938.055	-163
938.149	-228
938.243	-406
938.337	172
938.430	92
938.524	-187
938.618	348
938.712	575
938.805	99
938.899	-384
938.993	815
939.086	-330
939.180	-35
939.274	301
939.367	343
939.461	259
939.554	-930
939.648	205
939.741	-259
939.835	-200
939.928	135
940.022	-387
940.115	264
940.208	-692
940.302	546
940.395	25
940.488	-1403
940.582	223
940.675	299
940.768	-71
940.861	-601
940.954	-202
941.048	309
941.141	-63
941.234	-592
941.327	-156
941.420	1598
941.513	-268
941.606	-262
941.699	-168
941.792	-91
941.885	-508
941.978	197
942.071	-42
942.164	-1267
942.257	-565
942.349	-1214
942.442	141
942.535	-388
942.628	329
942.721	-99
942.813	-1080
942.906	443
942.999	-409
943.091	43
943.184	16
943.277	89
943.369	231
943.462	426
943.554	16
943.647	-447
943.739	-408
943.832	-110
943.924	-1028
944.017	-562
944.109	-285
944.201	198
944.294	-10
944.386	-47
944.478	234
944.571	-164
944.663	-767
944.755	239
944.847	-754
944.940	277
945.032	-368
945.124	-608
945.216	-483
945.308	-313
945.400	-564
945.492	-181
945.584	459
945.676	281
945.768	-232
945.860	57
945.952	-221
946.044	-311
946.136	-437
946.228	77
946.320	-172
946.412	-119
946.503	-820
946.595	-431
946.687	-316
946.779	-450
946.870	20
946.962	-301
947.054	-505
947.145	-175
947.237	-804
947.329	-404
947.420	-490
947.512	423
947.603	-1002
947.695	-514
947.786	-1087
947.878	-1033
947.969	-402
948.061	598
948.152	624
948.243	-439
948.335	-383
948.426	-457
948.517	-921
948.609	308
948.700	-11
948.791	-501
948.882	-755
948.973	-462
949.065	-1043
949.156	-730
949.247	-625
949.338	-88
949.429	-233
949.520	-896
949.611	-1100
949.702	-535
949.793	-162
949.884	38
949.975	-894
950.066	-60
950.157	101
950.247	-764
950.338	-95
950.429	-644
950.520	-156
950.611	-70
950.701	-684
950.792	-25
950.883	-411
950.973	-820
951.064	-126
951.155	28
951.245	-253
951.336	-402
951.427	-595
951.517	116
951.608	-744
951.698	-725
951.788	-988
951.879	61
951.969	-1125
952.060	-385
952.150	-289
952.240	53
952.331	-1045
952.421	-104
952.511	-122
952.602	100
952.692	-608
952.782	-976
952.872	-423
952.962	351
953.052	303
953.143	-718
953.233	-87
953.323	-197
953.413	-1147
953.503	-870
953.593	-582
953.683	-381
953.773	-388
953.863	-1266
953.953	-520
954.042	-688
954.132	-546
954.222	789
954.312	490
954.402	-728
954.492	165
954.581	304
954.671	-270
954.761	-943
954.850	719
954.940	62
955.030	-243
955.119	-588
955.209	-798
955.298	-369
955.388	113
955.477	280
955.567	-297
955.656	-307
955.746	350
955.835	-1143
955.925	221
956.014	-547
956.103	-246
956.193	354
956.282	-400
956.371	-1269
956.461	288
956.550	-587
956.639	420
956.728	-1201
956.817	387
956.906	-593
956.995	-1428
957.085	-682
957.174	-568
957.263	23
957.352	-1157
957.441	-811
957.530	-330
957.619	-141
957.708	126
957.796	-851
957.885	-714
957.974	-530
958.063	-167
958.152	-686
958.241	-133
958.329	-870
958.418	-710
958.507	-414
958.596	277
958.684	-994
958.773	-618
958.861	-82
958.950	-355
959.039	4
959.127	-455
959.216	-286
959.304	-7
959.393	-40
959.481	-493
959.570	-311
959.658	-625
959.746	158
959.835	281
959.923	303
960.011	136
960.100	-387
960.188	-1321
960.276	-366
960.365	-540
960.453	-786
960.541	-1501
960.629	-249
960.717	-440
960.805	-462
960.893	-949
960.981	-1093
961.069	111
961.158	-890
961.245	-617
961.333	-720
961.421	-1275
961.509	-1027
961.597	-395
961.685	24
961.773	-666
961.861	-1259
961.949	-682
962.036	-1011
962.124	-1610
962.212	-493
962.299	-399
962.387	-680
962.475	-301
962.562	-1404
962.650	-336
962.738	-192
962.825	-306
962.913	-784
963.000	-775
963.088	-238
963.175	-976
963.263	-750
963.350	-801
963.438	-915
963.525	-313
963.612	674
963.700	453
963.787	3003
963.874	1304
963.962	-804
964.049	-459
964.136	-792
964.223	-378
964.310	-717
964.398	-920
964.485	-1296
964.572	-742
964.659	308
964.746	588
964.833	-673
964.920	-361
965.007	-617
965.094	-922
965.181	-808
965.268	-991
965.355	-136
965.441	-1419
965.528	-824
965.615	-168
965.702	255
965.789	-1266
965.875	-30
965.962	-754
966.049	-1311
966.136	-732
966.222	-695
966.309	-878
966.395	-1339
966.482	439
966.569	-411
966.655	-1174
966.742	-454
966.828	-805
966.915	38
967.001	-693
967.087	-642
967.174	-954
967.260	253
967.347	-569
967.433	184
967.519	1358
967.605	395
967.692	-90
967.778	-35
967.864	-583
967.950	-694
968.036	-1682
968.123	-778
968.209	-1331
968.295	-1182
968.381	-570
968.467	-856
968.553	-995
968.639	248
968.725	-632
968.811	-235
968.897	-939
968.983	-1018
969.069	-626
969.154	77
969.240	-149
969.326	-891
969.412	-1259
969.497	-967
969.583	-676
969.669	-362
969.755	-1400
969.840	-1089
969.926	175
970.012	-808
970.097	-505
970.183	-775
970.268	-1260
970.354	-626
970.439	-685
970.525	1079
970.610	-728
970.696	-29
970.781	-241
970.866	-1195
970.952	-397
971.037	-1551
971.122	-751
971.208	-1326
971.293	-1420
971.378	-1115
971.463	7
971.549	86
971.634	-777
971.719	-1220
971.804	-341
971.889	-429
971.974	-602
972.059	-1701
972.144	-700
972.229	-200
972.314	-1584
972.399	-542
972.484	-650
972.569	-893
972.654	-726
972.739	802
972.824	-176
972.908	-849
972.993	-384
973.078	-1224
973.163	-451
973.247	-963
973.332	-2049
973.417	-259
973.501	-1308
973.586	-818
973.671	-1851
973.755	-821
973.840	-706
973.924	-365
974.009	-1351
974.093	-1487
974.178	-89
974.262	-39
974.346	-834
974.431	-730
974.515	-940
974.600	-829
974.684	-145
974.768	-836
974.852	-418
974.937	-1241
975.021	-850
975.105	-398
975.189	-879
975.273	-355
975.358	-1299
975.442	-1184
975.526	-724
975.610	-1642
975.694	-1236
975.778	-121
975.862	-1212
975.946	-1972
976.030	508
976.114	-1789
976.198	-155
976.281	-1804
976.365	-901
976.449	-1240
976.533	-177
976.617	-1233
976.700	-889
976.784	-1475
976.868	-1540
976.951	-1165
977.035	-1106
977.119	-522
977.202	-1217
977.286	-710
977.369	-1239
977.453	-588
977.536	-1512
977.620	-1136
977.703	-392
977.787	-1465
977.870	-455
977.953	-416
978.037	-1377
978.120	-305
978.203	-760
978.287	-788
978.370	-1529
978.453	-341
978.536	-1467
978.620	-429
978.703	-787
978.786	-527
978.869	-859
978.952	-1587
979.035	-838
979.118	-825
979.201	-1753
979.284	-552
979.367	-812
979.450	-548
979.533	-600
979.616	-946
979.699	-1623
979.782	-1171
979.865	-1204
979.948	-331
980.030	-808
980.113	-746
980.196	-1170
980.279	-1290
980.361	-715
980.444	-883
980.526	-704
980.609	-577
980.692	-1362
980.774	-1537
980.857	-1383
980.939	-879
981.022	-930
981.104	-1351
981.187	-1467
981.269	-964
981.352	-802
981.434	-905
981.516	-1447
981.599	-220
981.681	-1190
981.763	-995
981.846	-739
981.928	-1183
982.010	-833
982.092	-1317
982.174	-1137
982.256	-610
982.339	-570
982.421	-1403
982.503	-523
982.585	-1140
982.667	-1324
982.749	-922
982.831	-1015
982.913	-1181
982.995	-572
983.077	-1279
983.158	-87
983.240	-1121
983.322	-1077
983.404	-223
983.486	-1373
983.568	-1105
983.649	-1427
983.731	-996
983.813	-1136
983.894	-765
983.976	-1166
984.058	-2132
984.139	-1415
984.221	-1461
984.302	-461
984.384	-1443
984.465	-1279
984.547	-1094
984.628	-1481
984.710	-690
984.791	-1154
984.872	-951
984.954	-1414
985.035	-876
985.116	-2104
985.198	-1177
985.279	-14
985.360	-689
985.441	-1492
985.522	-402
985.604	-689
985.685	-2697
985.766	-136
985.847	-1273
985.928	-1294
986.009	-330
986.090	-717
986.171	-1165
986.252	-1962
986.333	-848
986.414	-908
986.495	-368
986.576	-1310
986.656	-1729
986.737	-1620
986.818	-1809
986.899	-589
986.980	-1242
987.060	-1548
987.141	-1006
987.222	-1665
987.302	-1309
987.383	-306
987.464	-2000
987.544	-1258
987.625	-1063
987.705	-1369
987.786	-1659
987.866	-1654
987.947	-692
988.027	-1592
988.108	-884
988.188	-1429
988.268	-1283
988.349	-900
988.429	-1344
988.509	-1380
988.589	-1854
988.670	-1922
988.750	-83
988.830	-1659
988.910	-446
988.990	-823
989.070	-980
989.151	-1402
989.231	-1942
989.311	-765
989.391	-1340
989.471	-579
989.551	-1132
989.631	-1645
989.711	-1368
989.791	-1419
989.870	-1621
989.950	-591
990.030	-1238
990.110	-944
990.190	-978
990.269	-1359
990.349	-1909
990.429	-1188
990.509	-894
990.588	-1495
990.668	-1209
990.747	-1730
990.827	-2004
990.907	-962
990.986	-898
991.066	-1413
991.145	-1377
991.225	-1217
991.304	-1286
991.383	-1465
991.463	-776
991.542	-1681
991.622	-1183
991.701	-663
991.780	-1626
991.859	-1153
991.939	-804
992.018	-1469
992.097	-1118
992.176	-852
992.256	-1186
992.335	-2196
992.414	-1084
992.493	-1428
992.572	-586
992.651	-475
992.730	-1359
992.809	-571
992.888	-1002
992.967	-1831
993.046	-980
993.125	-868
993.203	-1392
993.282	-645
993.361	-1305
993.440	-819
993.519	-1134
993.597	-1274
993.676	-1504
993.755	-1155
993.834	-1240
993.912	-2084
993.991	-1016
994.069	-1634
994.148	-1479
994.226	-1626
994.305	-987
994.384	-1389
994.462	-400
994.540	-1761
994.619	-1534
994.697	-786
994.776	-794
994.854	-934
994.932	-944
995.011	-1119
995.089	-2034
995.167	-937
995.245	-1486
995.324	-1667
995.402	-1224
995.480	-1377
995.558	-1141
995.636	-1648
995.714	-1850
995.792	-348
995.870	-1620
995.948	-558
996.026	-1884
996.104	-2022
996.182	-479
996.260	-1642
996.338	-450
996.416	-1522
996.494	-1562
996.572	-1100
996.649	-1329
996.727	-1649
996.805	-987
996.883	-1493
996.960	-2106
997.038	-1089
997.116	-1374
997.193	-1941
997.271	-279
997.348	-2026
997.426	-1678
997.504	-1623
997.581	-1115
997.658	-1284
997.736	-2163
997.813	-2048
997.891	-540
997.968	-1332
998.046	-1927
998.123	-995
998.200	-1527
998.277	-1972
998.355	-1534
998.432	-2645
998.509	-1258
998.586	-1232
998.663	-1430
998.741	-1538
998.818	-1280
998.895	-1555
998.972	-1715
999.049	-1278
999.126	-1674
999.203	-616
999.280	-2006
999.357	-1214
999.434	-1033
999.511	-1149
999.587	-1275
999.664	-1999
999.741	-1568
999.818	-621
999.895	-844
999.971	-1413
1000.048	-1784
1000.125	-1626
1000.202	-2255
1000.278	-1926
1000.355	-1818
1000.431	-1402
1000.508	-2195
1000.584	-1973
1000.661	-1018
1000.738	-2324
1000.814	-1248
1000.890	-1661
1000.967	-1703
1001.043	-1248
1001.120	-1568
1001.196	-1899
1001.272	-2148
1001.349	-1324
1001.425	-1806
1001.501	-1356
1001.577	-1254
1001.654	-1803
1001.730	-1062
1001.806	-1384
1001.882	-2177
1001.958	-1558
1002.034	-1139
1002.110	-1311
1002.186	-1814
1002.262	-1999
1002.338	-1865
1002.414	-1879
1002.490	-1096
1002.566	-1131
1002.642	-2132
1002.718	-1678
1002.794	-1584
1002.870	-2414
1002.945	-1597
1003.021	-2088
1003.097	-2064
1003.173	-1004
1003.248	-1421
1003.324	-1491
1003.400	-1247
1003.475	-1732
1003.551	-1571
1003.626	-1708
1003.702	-2222
1003.777	-1364
1003.853	-1581
1003.928	-1654
1004.004	-1509
1004.079	-1539
1004.155	-1728
1004.230	-2366
1004.305	-1022
1004.381	-1764
1004.456	-1136
1004.531	-2000
1004.607	-1916
1004.682	-1254
1004.757	-1093
1004.832	-1911
1004.907	-2408
1004.982	-1563
1005.057	-1946
1005.133	-1723
1005.208	-1755
1005.283	-1533
1005.358	-1393
1005.433	-1029
1005.508	-700
1005.583	-2320
1005.657	-2320
1005.732	-804
1005.807	-2185
1005.882	-1305
1005.957	-1484
1006.032	-1012
1006.106	-2093
1006.181	-1226
1006.256	-1295
1006.331	-2278
1006.405	-1652
1006.480	-1369
1006.554	-1811
1006.629	-1200
1006.704	-2472
1006.778	-1087
1006.853	-1585
1006.927	-2373
1007.002	-2791
1007.076	-2322
1007.150	-1080
1007.225	-2109
1007.299	-1752
1007.373	-2652
1007.448	-2124
1007.522	-1303
1007.596	-1729
1007.671	-1095
1007.745	-1069
1007.819	-1284
1007.893	-2134
1007.967	-1741
1008.041	-2833
1008.115	-1358
1008.190	-1972
1008.264	-2364
1008.338	-3162
1008.412	-1830
1008.486	-1740
1008.560	-2907
1008.633	-1833
1008.707	-2321
1008.781	-1902
1008.855	-2514
1008.929	-1527
1009.003	-2442
1009.076	-1734
1009.150	-1833
1009.224	-1382
1009.298	-1503
1009.371	-2119
1009.445	-1695
1009.519	-1670
1009.592	-2226
1009.666	-1806
1009.739	-948
1009.813	-2734
1009.886	-2025
1009.960	-3117
1010.033	-850
1010.107	-1429
1010.180	-2807
1010.253	-1176
1010.327	-2427
1010.400	-2374
1010.473	-2213
1010.547	-1003
1010.620	-1776
1010.693	-1949
1010.766	-2508
1010.840	-1881
1010.913	-1489
1010.986	-2291
1011.059	-1721
1011.132	-1738
1011.205	-1683
1011.278	-2160
1011.351	-2276
1011.424	-2487
1011.497	-1843
1011.570	-1996
1011.643	-1256
1011.716	-1885
1011.789	-616
1011.862	-1317
1011.934	-1618
1012.007	-2588
1012.080	-1669
1012.153	-1993
1012.225	-1020
1012.298	-1609
1012.371	-2173
1012.443	-1180
1012.516	-2136
1012.588	-1568
1012.661	-1946
1012.733	-2444
1012.806	-1334
1012.879	-1688
1012.951	-2240
1013.023	-2601
1013.096	-2475
1013.168	-1823
1013.241	-1541
1013.313	-1421
1013.385	-2382
1013.458	-1360
1013.530	-737
1013.602	-2411
1013.674	-1512
1013.746	-2652
1013.819	-2640
1013.891	-1193
1013.963	-1660
1014.035	-2199
1014.107	-1853
1014.179	-1956
1014.251	-2568
1014.323	-1245
1014.395	-1938
1014.467	-3251
1014.539	-1450
1014.611	-2602
1014.683	-1675
1014.754	-1494
1014.826	-2040
1014.898	-1565
1014.970	-2283
1015.042	-1716
1015.113	-1672
1015.185	-1870
1015.257	-2894
1015.328	-1874
1015.400	-1947
1015.471	-1978
1015.543	-3094
1015.615	-1336
1015.686	-1764
1015.757	-1981
1015.829	-1713
1015.901	-971
1015.972	-2068
1016.043	-2226
1016.115	-2651
1016.186	-1629
1016.257	-2290
1016.328	-1205
1016.400	-1490
1016.471	-2741
1016.542	-2441
1016.613	-1319
1016.685	-1993
1016.756	-1152
1016.827	-1570
1016.898	-2737
1016.969	-2239
1017.040	-1865
1017.111	-2026
1017.182	-1292
1017.253	-1770
1017.324	-2988
1017.395	-1435
1017.466	-1402
1017.537	-2009
1017.608	-1772
1017.678	-2220
1017.749	-1466
1017.820	-2762
1017.891	-2023
1017.961	-1359
1018.032	-1290
1018.103	-2048
1018.173	-2116
1018.244	-2220
1018.315	-2358
1018.385	-1881
1018.456	-1777
1018.526	-2043
1018.597	-2208
1018.667	-2241
1018.738	-1974
1018.808	-1639
1018.878	-1939
1018.949	-2047
1019.019	-2697
1019.089	-2237
1019.160	-936
1019.230	-1718
1019.300	-1730
1019.371	-1734
1019.441	-722
1019.511	-1923
1019.581	-2115
1019.651	-2277
1019.721	-1404
1019.791	-1110
1019.861	-1687
1019.931	-2057
1020.001	-2100
1020.071	-1701
1020.141	-1864
1020.211	-2246
1020.281	-2152
1020.351	-2109
1020.421	-1049
1020.491	-1545
1020.560	-2127
1020.630	-1272
1020.700	-1460
1020.770	-2349
1020.839	-1246
1020.909	-1214
1020.979	-2513
1021.048	-1085
1021.118	-1806
1021.187	-1329
1021.257	-1588
1021.326	-1593
1021.396	-2071
1021.465	-1447
1021.535	-1723
1021.604	-2632
1021.674	-1756
1021.743	-2346
1021.812	-2534
1021.882	-2375
1021.951	-1814
1022.020	-1405
1022.089	-1341
1022.159	-2407
1022.228	-1300
1022.297	-2308
1022.366	-1583
1022.435	-1626
1022.504	-1631
1022.573	-2201
1022.642	-1001
1022.711	-2214
1022.781	-2000
1022.849	-1225
1022.918	-1355
1022.987	-2249
1023.056	-2361
1023.125	-1401
1023.194	-1770
1023.263	-2339
1023.331	-1391
1023.400	-2169
1023.469	-1743
1023.538	-895
1023.606	-1615
1023.675	-1717
1023.744	-2086
1023.812	-2717
1023.881	-1483
1023.949	-1950
1024.018	-1964
1024.086	-1890
1024.155	-2048
1024.223	-2195
1024.292	-2586
1024.360	-1160
1024.429	-1630
1024.497	-2687
1024.565	-1187
1024.634	-1696
1024.702	-1278
1024.770	-1288
1024.838	-1547
1024.907	-1093
1024.975	-2773
1025.043	-1706
1025.111	-2495
1025.179	-1872
1025.247	-1384
1025.315	-1870
1025.383	-1913
1025.451	-2362
1025.519	-1422
1025.587	-1577
1025.655	-1359
1025.723	-2117
1025.791	-1433
1025.859	-2024
1025.927	-1094
1025.995	-2257
1026.062	-1734
1026.130	-1448
1026.198	-1994
1026.266	-2211
1026.333	-1608
1026.401	-735
1026.469	-1374
1026.536	-1615
1026.604	-1789
1026.671	-1733
1026.739	-1917
1026.806	-1217
1026.874	-1790
1026.941	-1530
1027.009	-1587
1027.076	-2974
1027.144	-1132
1027.211	-1885
1027.278	-2117
1027.345	-1611
1027.413	-2314
1027.480	-2074
1027.547	-1285
1027.614	-1912
1027.682	-1836
1027.749	-1475
1027.816	-1673
1027.883	-1951
1027.950	-1544
1028.017	-2239
1028.084	-1353
1028.151	-2399
1028.218	-2107
1028.285	-1620
1028.352	-1260
1028.419	-1655
1028.486	-2017
1028.553	-1482
1028.619	-2375
1028.686	-852
1028.753	-2038
1028.820	-1583
1028.886	-1900
1028.953	-1183
1029.020	-1541
1029.086	-1246
1029.153	-917
1029.220	-1772
1029.286	-1522
1029.353	-1605
1029.419	-980
1029.486	-1600
1029.552	-2349
1029.619	-1277
1029.685	-1639
1029.751	-1781
1029.818	-1682
1029.884	-2500
1029.951	-768
1030.017	-966
1030.083	-1513
1030.149	-973
1030.216	-1707
1030.282	-1842
1030.348	-1319
1030.414	-1027
1030.480	-1339
1030.546	-2136
1030.612	-1595
1030.678	-1821
1030.744	-1111
1030.810	-1212
1030.876	-1853
1030.942	-1474
1031.008	-2005
1031.074	-1673
1031.140	-1264
1031.206	-1650
1031.272	-2130
1031.337	-1435
1031.403	-1664
1031.469	-1958
1031.534	-1256
1031.600	-1105
1031.666	-1514
1031.731	-2077
1031.797	-1871
1031.863	-2022
1031.928	-1788
1031.994	-1179
1032.059	-2017
1032.125	-1356
1032.190	-1948
1032.256	-1781
1032.321	-1785
1032.386	-1933
1032.452	-1574
1032.517	-2058
1032.582	-2467
1032.647	-1961
1032.713	-1974
1032.778	-1455
1032.843	-1501
1032.908	-1880
1032.974	-1202
1033.039	-871
1033.104	-2707
1033.169	-2173
1033.234	-2477
1033.299	-1176
1033.364	-1406
1033.429	-2682
1033.494	-2192
1033.559	-1916
1033.624	-1672
1033.688	-1552
1033.753	-2086
1033.818	-1981
1033.883	-1612
1033.948	-2015
1034.013	-2119
1034.077	-847
1034.142	-1423
1034.207	-1968
1034.271	-1933
1034.336	-1942
1034.400	-1842
1034.465	-1916
1034.530	-1788
1034.594	-1565
1034.658	-2339
1034.723	-2527
1034.787	-2236
1034.852	-2187
1034.916	-2449
1034.981	-2554
1035.045	-1621
1035.109	-1502
1035.173	-1735
1035.238	-2297
1035.302	-2279
1035.366	-2309
1035.430	-2141
1035.495	-2143
1035.559	-1487
1035.623	-2173
1035.687	-1987
1035.751	-1867
1035.815	-1373
1035.879	-2089
1035.943	-1141
1036.007	-1933
1036.071	-2076
1036.135	-1989
1036.198	-2356
1036.262	-1864
1036.326	-2343
1036.390	-1924
1036.454	-1995
1036.517	-1921
1036.581	-1726
1036.645	-2080
1036.709	-1330
1036.772	-2204
1036.836	-1465
1036.900	-1912
1036.963	-2249
1037.026	-1754
1037.090	-1923
1037.154	-1278
1037.217	-1579
1037.280	-1930
1037.344	-2131
1037.407	-1834
1037.471	-1436
1037.534	-2104
1037.597	-1564
1037.661	-1984
1037.724	-2307
1037.787	-1174
1037.850	-1838
1037.913	-2420
1037.977	-1741
1038.040	-1773
1038.103	-2368
1038.166	-1706
1038.229	-668
1038.292	-2092
1038.355	-1596
1038.418	-1565
1038.481	-1652
1038.544	-1883
1038.607	-1564
1038.670	-1827
1038.732	-2022
1038.795	-2441
1038.858	-1623
1038.921	-1841
1038.984	-2691
1039.046	-2716
1039.109	-2234
1039.172	-1950
1039.234	-2391
1039.297	-2211
1039.360	-1966
1039.422	-1995
1039.485	-1849
1039.547	-1867
1039.610	-1440
1039.672	-2356
1039.734	-2701
1039.797	-2009
1039.859	-1837
1039.922	-1863
1039.984	-1734
1040.046	-2025
1040.109	-2450
1040.171	-1431
1040.233	-2023
1040.295	-1901
1040.358	-2959
1040.420	-2203
1040.482	-1994
1040.544	-1875
1040.606	-1906
1040.668	-2459
1040.730	-2437
1040.792	-1996
1040.854	-2159
1040.916	-2037
1040.978	-2400
1041.040	-1999
1041.102	-2731
1041.164	-1577
1041.225	-2654
1041.287	-2410
1041.349	-2318
1041.411	-2290
1041.472	-2044
1041.534	-1917
1041.596	-2145
1041.657	-1843
1041.719	-1327
1041.781	-2048
1041.842	-2088
1041.904	-1114
1041.965	-1964
1042.027	-1779
1042.088	-1489
1042.150	-2458
1042.211	-2021
1042.272	-2386
1042.334	-1929
1042.395	-2490
1042.456	-3541
1042.518	-2061
1042.579	-2474
1042.640	-1849
1042.701	-1840
1042.763	-2730
1042.824	-2415
1042.885	-1467
1042.946	-2542
1043.007	-2019
1043.068	-2035
1043.129	-2541
1043.190	-2476
1043.251	-1661
1043.312	-2047
1043.373	-2217
1043.434	-2824
1043.495	-2522
1043.556	-1595
1043.616	-1811
1043.677	-2664
1043.738	-1767
1043.799	-2692
1043.859	-1432
1043.920	-2105
1043.981	-2024
1044.041	-2058
1044.102	-2412
1044.162	-1989
1044.223	-2443
1044.284	-2463
1044.344	-3204
1044.405	-2445
1044.465	-1439
1044.525	-2844
1044.586	-1842
1044.646	-2341
1044.707	-1823
1044.767	-2088
1044.827	-1675
1044.887	-1939
1044.948	-2083
1045.008	-1731
1045.068	-2590
1045.128	-1856
1045.188	-2302
1045.249	-1237
1045.309	-2368
1045.369	-2525
1045.429	-2071
1045.489	-2748
1045.549	-1803
1045.609	-2834
1045.669	-3049
1045.729	-1513
1045.789	-2534
1045.848	-2073
1045.908	-1397
1045.968	-1701
1046.028	-1367
1046.088	-2189
1046.147	-1568
1046.207	-2057
1046.267	-1297
1046.326	-1897
1046.386	-953
1046.446	-1658
1046.505	-1133
1046.565	-1246
1046.624	-1816
1046.684	-984
1046.743	-800
1046.803	-1089
1046.862	-722
1046.922	0
