'Start Wavelength	183.907
'End Wavelength	1046.922
'Gate Delay	5.000
'Gate Width (ms)	1.050
'Laser Output Level	0.000
'X Position	0.000
'Y Position	0.000
'Z Position	0.000
'Grid Point Number	1.000
'Shot Number	100.000
183.907	165.000
183.977	321.000
184.047	35
184.116	-65
184.186	876
184.256	586
184.325	3
184.395	-194
184.465	1705
184.534	245
184.604	853
184.674	398
184.743	102
184.813	340
184.883	916
184.952	398
185.022	1110
185.092	522
185.161	266
185.231	957
185.301	909
185.370	946
185.440	828
185.509	-228
185.579	-335
185.649	130
185.718	559
185.788	-203
185.857	256
185.927	184
185.996	629
186.066	234
186.136	561
186.205	617
186.275	251
186.344	635
186.414	102
186.483	294
186.553	1026
186.622	812
186.692	144
186.761	97
186.831	243
186.900	258
186.970	633
187.039	1461
187.109	1749
187.178	1484
187.248	1219
187.317	1236
187.387	480
187.456	1187
187.526	1466
187.595	846
187.664	1507
187.734	882
187.803	989
187.873	1156
187.942	1739
188.012	1947
188.081	499
188.150	1344
188.220	2074
188.289	1297
188.358	1173
188.428	960
188.497	560
188.567	1220
188.636	905
188.705	431
188.775	926
188.844	499
188.913	1164
188.983	1298
189.052	726
189.121	38
189.191	1588
189.260	1626
189.329	2457
189.399	1009
189.468	1023
189.537	778
189.606	757
189.676	1139
189.745	1097
189.814	1588
189.883	1385
189.953	1154
190.022	2629
190.091	6483
190.161	6233
190.230	3069
190.299	1312
190.368	1326
190.437	1447
190.507	1056
190.576	1285
190.645	960
190.714	1460
190.783	1428
190.853	1529
190.922	777
190.991	2113
191.060	761
191.129	844
191.198	2248
191.268	2003
191.337	1483
191.406	1034
191.475	1083
191.544	829
191.613	836
191.682	547
191.752	696
191.821	1563
191.890	1693
191.959	848
192.028	1354
192.097	1391
192.166	1333
192.235	1928
192.304	787
192.373	933
192.442	887
192.511	941
192.580	1228
192.650	1339
192.719	1651
192.788	1486
192.857	1501
192.926	2178
192.995	1604
193.064	2928
193.133	3816
193.202	4800
193.271	3895
193.340	3445
193.409	3900
193.478	4442
193.547	5531
193.615	7824
193.684	7097
193.753	4364
193.822	3878
193.891	2068
193.960	1801
194.029	2576
194.098	2097
194.167	1330
194.236	1762
194.305	1588
194.374	1056
194.443	1589
194.512	1804
194.580	1757
194.649	2640
194.718	2382
194.787	1509
194.856	1875
194.925	1274
194.994	2757
195.062	1852
195.131	1926
195.200	2373
195.269	3337
195.338	1554
195.407	1389
195.475	1535
195.544	3610
195.613	2165
195.682	2185
195.751	2996
195.819	2919
195.888	2884
195.957	3819
196.026	3348
196.094	3287
196.163	2417
196.232	2784
196.301	2390
196.369	2321
196.438	2108
196.507	3122
196.576	1629
196.644	1878
196.713	2262
196.782	1703
196.850	2622
196.919	1986
196.988	1438
197.056	1124
197.125	2526
197.194	2166
197.262	1908
197.331	1898
197.400	1433
197.468	1349
197.537	2055
197.606	2835
197.674	4660
197.743	7722
197.812	3243
197.880	8770
197.949	4452
198.017	7502
198.086	3772
198.155	3618
198.223	3750
198.292	9308
198.360	3692
198.429	3168
198.497	2743
198.566	6824
198.635	6948
198.703	3466
198.772	4306
198.840	11450
198.909	7941
198.977	3869
199.046	2739
199.114	3798
199.183	3167
199.251	2867
199.320	2424
199.388	2388
199.457	2730
199.525	2761
199.594	2614
199.662	2984
199.731	1650
199.799	2650
199.867	2618
199.936	2492
200.004	2529
200.073	3036
200.141	2426
200.210	2317
200.278	2456
200.346	3866
200.415	2917
200.483	3275
200.552	3421
200.620	2543
200.688	2256
200.757	3222
200.825	1964
200.893	3099
200.962	3321
201.030	2981
201.098	3228
201.167	2904
201.235	3501
201.303	3222
201.372	3226
201.440	3082
201.508	3639
201.577	3126
201.645	3390
201.713	3782
201.781	3290
201.850	3556
201.918	2882
201.986	3455
202.055	2823
202.123	2878
202.191	3403
202.259	3089
202.327	3593
202.396	3147
202.464	3689
202.532	4057
202.600	10643
202.669	5017
202.737	3326
202.805	3154
202.873	3368
202.941	3815
203.009	2621
203.078	3214
203.146	3578
203.214	3501
203.282	3398
203.350	3166
203.418	3146
203.487	3427
203.555	2865
203.623	3714
203.691	3310
203.759	2988
203.827	3809
203.895	3138
203.963	2952
204.031	3914
204.099	3484
204.168	3782
204.236	3677
204.304	4017
204.372	4533
204.440	3643
204.508	2859
204.576	3710
204.644	4071
204.712	3652
204.780	3566
204.848	4310
204.916	3541
204.984	3979
205.052	4199
205.120	3598
205.188	4377
205.256	3405
205.324	3967
205.392	3690
205.460	4258
205.528	4537
205.596	4262
205.664	4286
205.732	4431
205.799	14945
205.867	15507
205.935	6020
206.003	4654
206.071	5295
206.139	4656
206.207	4675
206.275	4406
206.343	3967
206.411	4285
206.478	4329
206.546	5399
206.614	4683
206.682	3722
206.750	4186
206.818	4733
206.885	4837
206.953	3769
207.021	4850
207.089	4294
207.157	4256
207.225	5394
207.292	3919
207.360	4721
207.428	4125
207.496	4259
207.563	3936
207.631	4486
207.699	3777
207.767	4667
207.834	4563
207.902	4894
207.970	4923
208.038	4936
208.105	4796
208.173	6059
208.241	6599
208.309	6308
208.376	6975
208.444	10877
208.512	5803
208.579	4607
208.647	5869
208.715	5822
208.782	4929
208.850	4815
208.918	5601
208.985	4502
209.053	5107
209.120	4707
209.188	5150
209.256	4629
209.323	5209
209.391	7641
209.459	6260
209.526	4957
209.594	4946
209.661	5376
209.729	6031
209.796	6292
209.864	5300
209.932	5126
209.999	6399
210.067	6684
210.134	5952
210.202	6045
210.269	7616
210.337	6834
210.404	5497
210.472	5011
210.539	5336
210.607	6534
210.674	6734
210.742	6268
210.809	5786
210.877	7455
210.944	6833
211.012	6478
211.079	6595
211.146	5960
211.214	5490
211.281	6390
211.349	6660
211.416	6529
211.484	7399
211.551	6206
211.618	6924
211.686	6702
211.753	6042
211.821	6848
211.888	6258
211.955	6847
212.023	7070
212.090	7543
212.157	7417
212.225	9122
212.292	15128
212.359	27229
212.427	49255
212.494	21466
212.561	10708
212.629	8797
212.696	8324
212.763	8195
212.831	6980
212.898	7093
212.965	6655
213.032	7428
213.100	8329
213.167	8103
213.234	7208
213.301	7270
213.369	6996
213.436	6665
213.503	6916
213.570	7531
213.638	7620
213.705	7580
213.772	7025
213.839	8356
213.906	7993
213.973	8342
214.041	7133
214.108	7552
214.175	6702
214.242	7099
214.309	7777
214.376	8059
214.444	7700
214.511	9118
214.578	8490
214.645	7524
214.712	8030
214.779	8349
214.846	8365
214.913	9263
214.980	9108
215.048	10085
215.115	9595
215.182	8752
215.249	8068
215.316	8094
215.383	7385
215.450	6393
215.517	6731
215.584	7019
215.651	6892
215.718	7286
215.785	8999
215.852	7999
215.919	8553
215.986	8029
216.053	6673
216.120	7078
216.187	8138
216.254	8121
216.321	7273
216.388	8071
216.455	8527
216.522	8014
216.589	10376
216.656	15662
216.722	14275
216.789	12615
216.856	11765
216.923	10879
216.990	11229
217.057	10602
217.124	12531
217.191	12095
217.258	13952
217.324	16113
217.391	15361
217.458	12054
217.525	11442
217.592	9817
217.659	9433
217.725	10824
217.792	13503
217.859	10047
217.926	8366
217.993	6757
218.059	7573
218.126	6791
218.193	6589
218.260	6357
218.327	5515
218.393	6734
218.460	7226
218.527	5311
218.594	7448
218.660	13398
218.727	12098
218.794	6414
218.860	6058
218.927	5566
218.994	5893
219.061	6240
219.127	7899
219.194	10868
219.261	6070
219.327	6240
219.394	6682
219.461	4472
219.527	6128
219.594	10447
219.661	7062
219.727	5480
219.794	6926
219.860	5469
219.927	7813
219.994	11166
220.060	14724
220.127	10224
220.193	10065
220.260	11420
220.326	16176
220.393	23296
220.460	25069
220.526	16594
220.593	13841
220.659	14649
220.726	17400
220.792	31575
220.859	28558
220.925	36632
220.992	40692
221.058	41283
221.125	35824
221.191	27386
221.258	13945
221.324	11093
221.391	9535
221.457	8638
221.524	10287
221.590	13727
221.657	36063
221.723	20862
221.789	24704
221.856	17995
221.922	11821
221.989	9136
222.055	7991
222.121	6904
222.188	8612
222.254	7590
222.321	6897
222.387	5196
222.453	6115
222.520	6365
222.586	6284
222.652	6722
222.719	5946
222.785	6053
222.851	5413
222.918	5783
222.984	6746
223.050	6200
223.116	5919
223.183	5377
223.249	5581
223.315	4504
223.382	5353
223.448	5114
223.514	5368
223.580	4481
223.647	5032
223.713	5053
223.779	5315
223.845	5698
223.911	4575
223.978	4234
224.044	4964
224.110	4501
224.176	5023
224.242	4571
224.309	4613
224.375	3977
224.441	3861
224.507	4767
224.573	4696
224.639	5457
224.705	4345
224.772	4169
224.838	4844
224.904	4385
224.970	5066
225.036	5314
225.102	5162
225.168	4901
225.234	4444
225.300	5762
225.366	4232
225.432	5313
225.499	4826
225.565	5784
225.631	7237
225.697	7699
225.763	7594
225.829	11154
225.895	11262
225.961	14392
226.027	13115
226.093	12152
226.159	17692
226.225	25785
226.291	55489
226.357	65358
226.423	35061
226.489	22490
226.554	16621
226.620	16363
226.686	21978
226.752	32128
226.818	53471
226.884	91885
226.950	66992
227.016	32528
227.082	19880
227.148	15213
227.214	14852
227.279	13693
227.345	11577
227.411	9636
227.477	8177
227.543	11016
227.609	13642
227.674	11010
227.740	9349
227.806	8740
227.872	8336
227.938	9187
228.003	12483
228.069	7342
228.135	7304
228.201	6643
228.267	6702
228.332	8261
228.398	10972
228.464	7311
228.530	6093
228.595	4679
228.661	7328
228.727	11207
228.792	7914
228.858	6622
228.924	7002
228.990	9475
229.055	8196
229.121	8275
229.187	4801
229.252	6760
229.318	5020
229.384	7306
229.449	7683
229.515	4244
229.581	3915
229.646	6024
229.712	6874
229.777	18605
229.843	13375
229.909	12261
229.974	13024
230.040	10999
230.105	9931
230.171	10030
230.236	14533
230.302	20406
230.368	13943
230.433	10523
230.499	9298
230.564	10989
230.630	7726
230.695	6954
230.761	7537
230.826	6007
230.892	11961
230.957	6426
231.023	6885
231.088	6451
231.154	6658
231.219	7560
231.284	11473
231.350	10209
231.415	6993
231.481	6514
231.546	6126
231.612	5748
231.677	5012
231.742	5539
231.808	6417
231.873	5466
231.939	5530
232.004	11434
232.069	10075
232.135	6798
232.200	5982
232.265	4703
232.331	5427
232.396	5427
232.461	4168
232.527	4274
232.592	5904
232.657	5319
232.723	10596
232.788	7133
232.853	4781
232.918	5575
232.984	5203
233.049	5277
233.114	8902
233.179	7051
233.245	13811
233.310	12844
233.375	5691
233.440	6179
233.506	6259
233.571	5922
233.636	5402
233.701	4890
233.766	12153
233.832	10431
233.897	6357
233.962	6289
234.027	7195
234.092	7311
234.157	7360
234.222	7879
234.288	12104
234.353	28687
234.418	22148
234.483	14554
234.548	10783
234.613	9252
234.678	10078
234.743	11624
234.808	31296
234.873	16792
234.938	9871
235.004	9089
235.069	8639
235.134	7915
235.199	8333
235.264	7165
235.329	7003
235.394	7242
235.459	8878
235.524	8522
235.589	7745
235.654	7308
235.719	6351
235.784	7295
235.849	9193
235.913	16006
235.978	18074
236.043	16694
236.108	10252
236.173	10065
236.238	10378
236.303	8584
236.368	9387
236.433	15965
236.498	22489
236.563	20444
236.627	46168
236.692	126252
236.757	84316
236.822	38735
236.887	27101
236.952	23357
237.017	20585
237.081	22430
237.146	33171
237.211	65188
237.276	132795
237.341	163743
237.405	77221
237.470	35243
237.535	24092
237.600	16865
237.664	15500
237.729	13424
237.794	22264
237.859	34917
237.923	21943
237.988	13169
238.053	18465
238.118	16187
238.182	45492
238.247	27479
238.312	17963
238.376	12487
238.441	11438
238.506	10157
238.570	6424
238.635	7507
238.700	7375
238.764	8344
238.829	21499
238.893	18798
238.958	13037
239.023	11214
239.087	7589
239.152	9010
239.216	6789
239.281	7413
239.346	7669
239.410	7915
239.475	10506
239.539	40748
239.604	21313
239.668	9352
239.733	7266
239.797	8421
239.862	15281
239.926	26404
239.991	11029
240.055	6983
240.120	6890
240.184	7074
240.249	6580
240.313	7195
240.378	7573
240.442	26063
240.507	30509
240.571	10893
240.635	20573
240.700	16942
240.764	8199
240.829	7174
240.893	5931
240.957	7189
241.022	25440
241.086	31500
241.151	13832
241.215	7428
241.279	12495
241.344	17390
241.408	10710
241.472	9686
241.537	10972
241.601	9669
241.665	9069
241.730	9105
241.794	10599
241.858	9315
241.922	9592
241.987	10070
242.051	9228
242.115	9521
242.179	8330
242.244	7633
242.308	8773
242.372	9892
242.436	12662
242.501	9163
242.565	8701
242.629	7620
242.693	8485
242.757	8102
242.822	8422
242.886	9309
242.950	10032
243.014	9173
243.078	11939
243.142	10115
243.206	10466
243.271	11898
243.335	14489
243.399	21797
243.463	93647
243.527	149507
243.591	40932
243.655	18773
243.719	12726
243.783	14754
243.847	26597
243.911	27938
243.975	31283
244.040	17390
244.104	12866
244.168	9881
244.232	17172
244.296	22610
244.360	25790
244.424	13219
244.488	10556
244.552	9357
244.615	7495
244.679	8111
244.743	12442
244.807	10589
244.871	8671
244.935	7240
244.999	7129
245.063	7978
245.127	10395
245.191	22176
245.255	15828
245.319	13436
245.383	10031
245.446	9457
245.510	7538
245.574	8988
245.638	8520
245.702	10550
245.766	24033
245.829	12377
245.893	11240
245.957	9673
246.021	11244
246.085	10669
246.149	14231
246.212	37508
246.276	43872
246.340	17882
246.404	13624
246.467	17231
246.531	23069
246.595	13765
246.659	12636
246.722	11465
246.786	14713
246.850	18721
246.913	19632
246.977	10191
247.041	10757
247.104	12012
247.168	13131
247.232	34569
247.295	62220
247.359	23648
247.423	15861
247.486	24975
247.550	14414
247.614	13256
247.677	15009
247.741	10583
247.804	10962
247.868	12769
247.932	34659
247.995	51715
248.059	17959
248.122	12594
248.186	16584
248.249	31863
248.313	110533
248.376	86502
248.440	55868
248.503	20484
248.567	19832
248.630	30030
248.694	36858
248.757	55571
248.821	104532
248.884	50567
248.948	61938
249.011	77741
249.075	125766
249.138	83907
249.202	34628
249.265	24054
249.328	27782
249.392	22779
249.455	18948
249.519	16455
249.582	20311
249.645	32934
249.709	22369
249.772	20344
249.835	17059
249.899	17417
249.962	16312
250.025	16514
250.089	48562
250.152	43997
250.215	22594
250.279	19689
250.342	20153
250.405	20353
250.468	20665
250.532	28071
250.595	48317
250.658	193550
250.721	204233
250.785	74275
250.848	39264
250.911	25813
250.974	25118
251.038	41032
251.101	62436
251.164	33879
251.227	37711
251.290	37510
251.354	68808
251.417	242117
251.480	175645
251.543	179275
251.606	379086
251.669	229013
251.732	105248
251.795	103083
251.859	118064
251.922	241504
251.985	108218
252.048	51729
252.111	38002
252.174	37192
252.237	73974
252.300	127200
252.363	176731
252.426	272966
252.489	103877
252.552	59999
252.615	41173
252.678	47774
252.741	106765
252.804	172912
252.867	290007
252.930	148791
252.993	79907
253.056	47628
253.119	36641
253.182	32411
253.245	60125
253.308	36024
253.371	35157
253.434	30687
253.497	31650
253.559	59544
253.622	34625
253.685	45558
253.748	35569
253.811	20752
253.874	29439
253.937	24194
254.000	21265
254.062	46413
254.125	54566
254.188	58013
254.251	36729
254.314	21140
254.376	42311
254.439	36443
254.502	29740
254.565	47820
254.628	61277
254.690	33307
254.753	19652
254.816	17642
254.878	20108
254.941	49559
255.004	35218
255.067	18066
255.129	17059
255.192	10689
255.255	10681
255.317	13635
255.380	9195
255.443	8300
255.505	9238
255.568	9086
255.631	9550
255.693	10456
255.756	8034
255.819	8806
255.881	7910
255.944	8411
256.006	8486
256.069	9219
256.132	8702
256.194	14685
256.257	31429
256.319	22591
256.382	18704
256.444	14376
256.507	12336
256.569	12253
256.632	15151
256.694	25822
256.757	90058
256.819	180317
256.882	64511
256.944	28543
257.007	21210
257.069	22304
257.132	16780
257.194	15248
257.257	15258
257.319	16897
257.381	23230
257.444	63643
257.506	244641
257.569	186795
257.631	73098
257.693	42103
257.756	24573
257.818	19673
257.880	14745
257.943	13911
258.005	12931
258.067	12682
258.130	11953
258.192	16342
258.254	26021
258.317	15267
258.379	14101
258.441	40087
258.503	26681
258.566	47692
258.628	37808
258.690	13467
258.753	16038
258.815	22967
258.877	13686
258.939	11107
259.001	11927
259.064	10308
259.126	14308
259.188	16069
259.250	12926
259.312	14714
259.375	27478
259.437	16603
259.499	11260
259.561	10499
259.623	13029
259.685	12942
259.747	14137
259.809	48914
259.872	58254
259.934	112227
259.996	71653
260.058	22480
260.120	12536
260.182	10205
260.244	9779
260.306	9049
260.368	10464
260.430	11038
260.492	30161
260.554	33494
260.616	21106
260.678	66452
260.740	52901
260.802	16299
260.864	14254
260.926	11967
260.988	12832
261.050	14934
261.112	45598
261.174	86141
261.236	41112
261.298	17910
261.359	36697
261.421	32750
261.483	13231
261.545	12246
261.607	8487
261.669	10839
261.731	26887
261.793	40791
261.854	17996
261.916	13576
261.978	15748
262.040	14245
262.102	10785
262.164	19291
262.225	12476
262.287	11150
262.349	31733
262.411	17546
262.472	11027
262.534	27773
262.596	34598
262.658	12730
262.719	9560
262.781	18406
262.843	39133
262.904	16799
262.966	15861
263.028	23240
263.090	137539
263.151	210190
263.213	62833
263.275	33529
263.336	14725
263.398	12599
263.459	9065
263.521	11973
263.583	28677
263.644	15101
263.706	8862
263.767	6980
263.829	6529
263.891	6034
263.952	6402
264.014	6373
264.075	24167
264.137	38134
264.198	14953
264.260	8107
264.321	9119
264.383	34557
264.444	56564
264.506	16113
264.567	12219
264.629	34600
264.690	51335
264.752	16566
264.813	11372
264.875	9358
264.936	11524
264.998	8376
265.059	8807
265.120	11903
265.182	23848
265.243	118110
265.305	75204
265.366	21294
265.427	13001
265.489	10522
265.550	7310
265.611	11944
265.673	10889
265.734	9764
265.795	8781
265.857	9502
265.918	13558
265.979	37812
266.040	182972
266.102	100935
266.163	33390
266.224	23835
266.286	12900
266.347	9702
266.408	10235
266.469	10595
266.530	8246
266.592	7627
266.653	19727
266.714	23180
266.775	8837
266.836	7080
266.898	8268
266.959	15971
267.020	9423
267.081	7122
267.142	7921
267.203	6065
267.264	5690
267.326	8913
267.387	6824
267.448	6287
267.509	7626
267.570	7229
267.631	6743
267.692	6362
267.753	8266
267.814	7187
267.875	22708
267.936	31820
267.997	22350
268.058	16212
268.119	9292
268.180	8909
268.241	6852
268.302	6418
268.363	6321
268.424	7712
268.485	8574
268.546	6098
268.607	5684
268.668	5414
268.729	5603
268.790	7707
268.851	9393
268.912	27111
268.972	22032
269.033	11372
269.094	7803
269.155	6196
269.216	6688
269.277	7462
269.338	6383
269.398	7308
269.459	8792
269.520	11205
269.581	14804
269.642	15070
269.702	11122
269.763	9096
269.824	8328
269.885	13093
269.945	15078
270.006	8012
270.067	6019
270.128	5687
270.188	7687
270.249	6832
270.310	5691
270.370	7287
270.431	7448
270.492	6226
270.553	8362
270.613	19221
270.674	31277
270.734	12110
270.795	7956
270.856	13432
270.916	10100
270.977	7396
271.038	9143
271.098	9764
271.159	18354
271.219	12413
271.280	8218
271.340	7192
271.401	12332
271.462	20545
271.522	12025
271.583	8707
271.643	9196
271.704	9178
271.764	12594
271.825	30691
271.885	101685
271.946	91773
272.006	31649
272.066	66112
272.127	74183
272.187	20307
272.248	15182
272.308	22576
272.369	66197
272.429	25498
272.489	27168
272.550	21920
272.610	25154
272.671	14658
272.731	21335
272.791	25801
272.852	14685
272.912	13447
272.972	8601
273.033	10115
273.093	15755
273.153	13787
273.214	10935
273.274	14069
273.334	68156
273.394	78081
273.455	27804
273.515	43132
273.575	69588
273.635	25587
273.696	50458
273.756	75014
273.816	25874
273.876	17265
273.936	50744
273.997	53212
274.057	17267
274.117	15899
274.177	29645
274.237	121682
274.297	71040
274.358	53362
274.418	71064
274.478	40230
274.538	18710
274.598	19652
274.658	59503
274.718	56194
274.778	20821
274.838	15456
274.898	45707
274.958	83031
275.018	88016
275.078	41902
275.138	19049
275.198	12083
275.258	10254
275.318	14006
275.378	24632
275.438	21251
275.498	16609
275.558	57317
275.618	85345
275.678	47043
275.738	34714
275.798	25296
275.858	14598
275.918	9508
275.978	12649
276.038	9854
276.098	9667
276.157	26177
276.217	48431
276.277	20250
276.337	15464
276.397	10631
276.457	12110
276.517	9049
276.576	7956
276.636	7823
276.696	14647
276.756	34843
276.815	17935
276.875	10521
276.935	12906
276.995	9590
277.055	7055
277.114	7167
277.174	19657
277.234	40530
277.293	16221
277.353	9610
277.413	8671
277.472	10448
277.532	9243
277.592	11491
277.651	43855
277.711	46882
277.771	24118
277.830	81275
277.890	42535
277.950	60829
278.009	114052
278.069	34127
278.128	49556
278.188	46644
278.248	27553
278.307	66417
278.367	28042
278.426	13785
278.486	10569
278.545	8853
278.605	8534
278.664	8873
278.724	11535
278.783	48973
278.843	73609
278.902	19666
278.962	14345
279.021	14029
279.081	16997
279.140	15026
279.199	15703
279.259	16079
279.318	17059
279.378	21922
279.437	40829
279.496	135220
279.556	342606
279.615	170441
279.675	53296
279.734	36178
279.793	59258
279.853	67947
279.912	25499
279.971	18344
280.031	17654
280.090	40073
280.149	48260
280.208	58893
280.268	262176
280.327	151508
280.386	43679
280.445	43913
280.505	31320
280.564	17842
280.623	16417
280.682	30975
280.742	31190
280.801	12577
280.860	10754
280.919	10094
280.978	9382
281.037	8630
281.097	7869
281.156	7409
281.215	9043
281.274	15578
281.333	63055
281.392	28044
281.451	9820
281.510	7971
281.569	7589
281.628	6240
281.688	7210
281.747	8795
281.806	7672
281.865	6337
281.924	6198
281.983	5897
282.042	5054
282.101	5098
282.160	4879
282.219	5800
282.278	8957
282.337	29112
282.396	13685
282.454	7629
282.513	15489
282.572	41401
282.631	16714
282.690	8073
282.749	6550
282.808	9514
282.867	9595
282.926	7644
282.985	6081
283.043	5824
283.102	6064
283.161	8869
283.220	31691
283.279	42881
283.338	12509
283.396	9180
283.455	9152
283.514	9044
283.573	13829
283.631	9701
283.690	7501
283.749	7694
283.808	20587
283.866	16110
283.925	7267
283.984	7828
284.043	12455
284.101	10444
284.160	9638
284.219	14304
284.277	11009
284.336	21927
284.395	61366
284.453	34382
284.512	15293
284.570	20831
284.629	15586
284.688	13939
284.746	15117
284.805	17885
284.863	22329
284.922	26463
284.981	32581
285.039	47873
285.098	89196
285.156	251625
285.215	486353
285.273	389751
285.332	181473
285.390	94719
285.449	55592
285.507	38659
285.566	28845
285.624	23427
285.683	19234
285.741	15011
285.799	14756
285.858	14517
285.916	13476
285.975	10598
286.033	9198
286.091	8267
286.150	7880
286.208	10034
286.267	11252
286.325	10538
286.383	16563
286.442	10824
286.500	7566
286.558	6659
286.616	6824
286.675	10330
286.733	8761
286.791	9018
286.850	10080
286.908	15655
286.966	18631
287.024	8920
287.083	6621
287.141	6509
287.199	7721
287.257	11282
287.315	8569
287.374	12581
287.432	26328
287.490	13326
287.548	11705
287.606	8750
287.664	9489
287.723	16578
287.781	18166
287.839	15434
287.897	18560
287.955	25274
288.013	40364
288.071	93480
288.129	370114
288.187	584254
288.245	239343
288.303	95702
288.361	56928
288.419	39982
288.477	26397
288.535	18761
288.593	16490
288.651	13488
288.709	10978
288.767	10573
288.825	9742
288.883	9062
288.941	8239
288.999	8013
289.057	7502
289.115	7895
289.173	7654
289.231	7684
289.289	7764
289.346	7736
289.404	9172
289.462	14040
289.520	12761
289.578	7058
289.636	5344
289.694	4983
289.751	6133
289.809	5443
289.867	5942
289.925	8521
289.983	8117
290.040	5307
290.098	6286
290.156	7454
290.214	7720
290.271	5879
290.329	5642
290.387	4296
290.444	4867
290.502	4298
290.560	4885
290.617	6208
290.675	5732
290.733	5406
290.790	5843
290.848	4810
290.906	6978
290.963	6116
291.021	6363
291.078	6273
291.136	9141
291.194	37472
291.251	45930
291.309	11623
291.366	7113
291.424	5923
291.481	5821
291.539	5341
291.596	5020
291.654	3856
291.711	4312
291.769	7354
291.826	13065
291.884	6901
291.941	4918
291.999	5523
292.056	6911
292.114	5790
292.171	5248
292.228	5713
292.286	7397
292.343	15447
292.401	16215
292.458	8599
292.515	7655
292.573	8268
292.630	9079
292.687	7525
292.745	7434
292.802	16200
292.859	36933
292.917	48105
292.974	20241
293.031	9770
293.089	7123
293.146	6105
293.203	5610
293.260	5270
293.318	9966
293.375	14580
293.432	8429
293.489	6584
293.546	7555
293.604	12037
293.661	44856
293.718	78498
293.775	31546
293.832	17279
293.889	12840
293.947	11104
294.004	9586
294.061	10783
294.118	27806
294.175	56757
294.232	59795
294.289	21633
294.346	15558
294.403	12598
294.460	10038
294.517	8715
294.574	9235
294.631	7714
294.688	11943
294.745	37266
294.802	114307
294.859	89830
294.916	31144
294.973	18361
295.030	15921
295.087	12777
295.144	11142
295.201	9190
295.258	8281
295.315	12951
295.372	48988
295.429	60023
295.486	24768
295.542	21291
295.599	65745
295.656	73171
295.713	57945
295.770	56877
295.827	20219
295.883	12892
295.940	12932
295.997	20009
296.054	15973
296.111	9289
296.167	7860
296.224	6712
296.281	6617
296.338	7003
296.394	8487
296.451	11263
296.508	39100
296.564	48797
296.621	36400
296.678	92554
296.734	86883
296.791	31273
296.848	19622
296.904	22667
296.961	46420
297.018	76554
297.074	42968
297.131	19389
297.187	16549
297.244	25198
297.301	100421
297.357	109193
297.414	33349
297.470	17851
297.527	12880
297.583	9849
297.640	9797
297.696	7940
297.753	7429
297.809	6608
297.866	6479
297.922	7070
297.979	6370
298.035	8955
298.092	17386
298.148	46256
298.204	30683
298.261	18814
298.317	47117
298.374	88645
298.430	37033
298.486	21202
298.543	15906
298.599	14942
298.656	17957
298.712	38012
298.768	86915
298.824	45070
298.881	17738
298.937	11564
298.993	10668
299.050	12539
299.106	11171
299.162	8867
299.218	9808
299.275	8116
299.331	10536
299.387	27244
299.443	84906
299.500	55024
299.556	19925
299.612	13228
299.668	11985
299.724	10519
299.780	9333
299.837	10729
299.893	21691
299.949	68656
300.005	55123
300.061	69459
300.117	94290
300.173	37293
300.229	20116
300.285	26047
300.341	23493
300.397	12667
300.453	9461
300.510	9249
300.566	8305
300.622	10038
300.678	22618
300.734	44436
300.790	60065
300.845	63354
300.901	35885
300.957	54056
301.013	33425
301.069	13810
301.125	12478
301.181	12745
301.237	9048
301.293	6860
301.349	6666
301.405	6872
301.461	9261
301.516	11173
301.572	13094
301.628	18275
301.684	16048
301.740	33828
301.796	38066
301.851	28981
301.907	46393
301.963	42217
302.019	104101
302.074	221678
302.130	163309
302.186	68255
302.242	32921
302.297	22571
302.353	26028
302.409	43812
302.464	31156
302.520	34372
302.576	83325
302.631	70796
302.687	35805
302.743	18651
302.798	13040
302.854	9846
302.910	12159
302.965	15324
303.021	22705
303.076	20397
303.132	28823
303.187	27127
303.243	14146
303.299	9399
303.354	8622
303.410	8572
303.465	8369
303.521	7350
303.576	8521
303.632	11079
303.687	31433
303.743	72638
303.798	42577
303.853	18236
303.909	14345
303.964	11288
304.020	18488
304.075	20801
304.130	21774
304.186	36850
304.241	33773
304.297	27270
304.352	14657
304.358	14267
304.407	11105
304.449	10399
304.463	10169
304.518	10064
304.539	10046
304.573	10028
304.629	11567
304.630	11773
304.684	21885
304.720	49234
304.739	62762
304.794	64015
304.811	53464
304.850	28430
304.902	16012
304.905	15257
304.960	13608
304.992	14125
305.015	14363
305.071	11235
305.083	10644
305.126	8576
305.173	7738
305.181	7637
305.236	7778
305.264	8226
305.292	8654
305.347	10728
305.354	10725
305.402	10944
305.445	13497
305.457	14134
305.512	16278
305.535	15518
305.567	14780
305.622	17287
305.626	18289
305.678	39976
305.716	75657
305.733	87618
305.788	71165
305.807	62494
305.843	50237
305.897	75402
305.898	75662
305.953	57397
305.988	37737
306.008	27740
306.063	18758
306.078	16776
306.118	12487
306.168	9523
306.173	9277
306.228	8832
306.259	8145
306.283	7820
306.338	8954
306.349	9336
306.393	10878
306.440	12824
306.448	13227
306.503	13712
306.530	16089
306.558	23121
306.613	52773
306.620	55234
306.668	63080
306.711	72822
306.723	73093
306.778	45042
306.801	33224
306.833	21847
306.888	13412
306.892	13023
306.943	10302
306.982	9502
306.997	9521
307.052	10075
307.072	10841
307.107	14203
307.162	21942
307.163	22038
307.217	34552
307.253	43199
307.272	43803
307.327	37647
307.343	33777
307.381	27775
307.434	26441
307.436	27324
307.491	60073
307.524	82257
307.546	82893
307.600	58702
307.614	50006
307.655	31205
307.704	20094
307.710	20561
307.765	32129
307.795	43913
307.819	53424
307.874	75268
307.885	75067
307.929	54512
307.975	38517
307.984	40004
308.038	58561
308.065	75265
308.093	130254
308.148	281837
308.156	310611
308.202	423836
308.246	445443
308.257	423420
308.312	226965
308.336	156407
308.366	118978
308.421	71581
308.426	67605
308.475	45154
308.517	33549
308.530	31420
308.585	27544
308.607	26435
308.639	28403
308.694	34062
308.697	34892
308.748	74584
308.787	108021
308.803	103970
308.857	64950
308.877	51679
308.912	45515
308.967	43456
308.967	43460
309.021	56842
309.058	69578
309.076	90466
309.130	167279
309.148	200063
309.185	349081
309.238	598568
309.239	599501
309.293	568473
309.328	489756
309.348	416435
309.402	203647
309.418	150890
309.457	107991
309.508	66176
309.511	64917
309.566	53780
309.598	49655
309.620	51981
309.674	61694
309.688	64302
309.729	58674
309.778	47510
309.783	46589
309.837	36694
309.868	32532
309.892	42491
309.946	71928
309.959	79709
310.001	95085
310.049	104169
310.055	100176
310.109	55658
310.139	32540
310.163	26698
310.218	18405
310.229	17055
310.272	16027
310.319	15124
310.326	15010
310.381	15061
310.409	14855
310.435	14580
310.489	14302
310.499	14260
310.543	16044
310.589	18215
310.598	18072
310.652	16676
310.679	15771
310.706	13529
310.760	8917
310.769	8242
310.814	7786
310.859	7369
310.868	7535
310.923	8595
310.948	9164
310.977	10345
311.031	12582
311.038	12878
311.085	11836
311.128	10541
311.139	10498
311.193	10406
311.218	10345
311.247	9519
311.301	7875
311.308	7674
311.356	8770
311.398	9830
311.410	9546
311.464	7990
311.488	7303
311.518	7547
311.572	8070
311.578	8133
311.626	11193
311.668	13839
311.680	14534
311.734	17491
311.758	18757
311.788	17713
311.842	15758
311.847	15528
311.896	23653
311.937	30804
311.950	29584
312.004	23714
312.027	21078
312.058	17369
312.112	10769
312.117	10098
312.165	10347
312.207	10544
312.297	20166
312.386	13774
312.476	12736
312.566	21115
312.656	10413
312.745	8670
312.835	11654
312.925	12044
313.015	13741
313.104	15121
313.194	8709
313.284	8413
313.374	11959
313.463	9416
313.553	8399
313.643	7454
313.732	7641
313.822	7346
313.912	9101
314.001	10487
314.091	14498
314.180	20275
314.270	14392
314.360	18868
314.449	13441
314.539	7848
314.628	8428
314.718	12799
314.808	17574
314.897	7544
314.987	7642
315.076	10994
315.166	16704
315.255	17393
315.345	15251
315.434	16962
315.524	15631
315.613	14974
315.703	15390
315.792	15632
315.881	22706
315.971	14489
316.060	34741
316.150	71345
316.239	70746
316.328	19759
316.418	7997
316.507	8803
316.597	11029
316.686	11845
316.775	36957
316.865	75093
316.954	10532
317.043	6231
317.133	7735
317.222	7036
317.311	7340
317.400	6233
317.490	11711
317.579	10872
317.668	7775
317.757	11566
317.847	18569
317.936	40322
318.025	27978
318.114	15016
318.203	13008
318.293	23435
318.382	42491
318.471	32952
318.560	66113
318.649	138315
318.738	21685
318.828	15799
318.917	15638
319.006	30679
319.095	89041
319.184	176879
319.273	69578
319.362	28475
319.451	12324
319.540	12127
319.629	29445
319.718	38232
319.807	20636
319.896	66580
319.985	206737
320.074	51444
320.163	23195
320.252	46168
320.341	31694
320.430	23223
320.519	25543
320.608	13173
320.697	12498
320.786	11541
320.875	13906
320.964	19131
321.053	28445
321.142	42520
321.230	36714
321.319	40111
321.408	83982
321.497	32106
321.586	32499
321.675	68757
321.764	51526
321.852	33898
321.941	47282
322.030	24307
322.119	41282
322.207	94704
322.296	93813
322.385	40853
322.474	37762
322.562	100492
322.651	45934
322.740	38417
322.829	65742
322.917	99084
323.006	35687
323.095	27091
323.183	30498
323.272	38973
323.361	94765
323.449	274591
323.538	77599
323.626	214914
323.715	93971
323.804	50988
323.892	195648
323.981	72662
324.069	25549
324.158	120995
324.246	80947
324.335	20914
324.424	25885
324.512	10848
324.601	14698
324.689	29224
324.778	54941
324.866	68433
324.954	14839
325.043	13484
325.131	43911
325.220	85393
325.308	91273
325.397	64734
325.485	28689
325.574	8310
325.662	8695
325.750	9134
325.839	7635
325.927	7830
326.015	12984
326.104	41940
326.192	48344
326.280	8456
326.369	10109
326.457	13796
326.545	22931
326.634	9088
326.722	7064
326.810	6848
326.898	6574
326.987	9032
327.075	25859
327.163	36009
327.251	16664
327.340	18248
327.428	20167
327.516	6886
327.604	9760
327.692	11890
327.781	20804
327.869	37874
327.957	17971
328.045	12310
328.133	7499
328.221	18025
328.309	9430
328.397	7585
328.485	9980
328.574	15358
328.662	50645
328.750	41578
328.838	18551
328.926	8303
329.014	7746
329.102	14254
329.190	46631
329.278	21426
329.366	6159
329.454	7201
329.542	8361
329.630	7538
329.718	8693
329.806	9941
329.893	13010
329.981	14087
330.069	22314
330.157	110371
330.245	288887
330.333	129629
330.421	20484
330.509	19841
330.597	63057
330.684	38441
330.772	19714
330.860	36189
330.948	44729
331.036	14464
331.123	5565
331.211	8101
331.299	12106
331.387	40479
331.475	59104
331.562	16404
331.650	7379
331.738	13251
331.825	21943
331.913	7423
332.001	6622
332.089	15604
332.176	41819
332.264	114814
332.352	67176
332.439	15427
332.527	11283
332.614	13146
332.702	18558
332.790	10523
332.877	49345
332.965	88295
333.052	13569
333.140	18691
333.228	37113
333.315	9549
333.403	14002
333.490	64929
333.578	38499
333.665	25388
333.753	16332
333.840	8569
333.928	15060
334.015	61744
334.103	92697
334.190	247965
334.278	46245
334.365	21079
334.452	11948
334.540	8277
334.627	18018
334.715	23679
334.802	58636
334.889	381582
334.977	273701
335.064	21449
335.151	12117
335.239	13613
335.326	22308
335.413	121167
335.501	128591
335.588	15411
335.675	10004
335.762	18393
335.850	30805
335.937	15313
336.024	75465
336.111	332132
336.199	93546
336.286	13171
336.373	8024
336.460	5677
336.547	7308
336.635	12748
336.722	10014
336.809	9421
336.896	16229
336.983	68152
337.070	168150
337.157	222811
337.245	230512
337.332	132063
337.419	15389
337.506	9126
337.593	13724
337.680	63691
337.767	159437
337.854	41084
337.941	53541
338.028	77064
338.115	21490
338.202	24989
338.289	68603
338.376	222180
338.463	54108
338.550	106607
338.637	91454
338.724	48972
338.811	70036
338.898	12175
338.984	9144
339.071	12247
339.158	12269
339.245	32680
339.332	20433
339.419	51509
339.506	39988
339.593	5483
339.679	6590
339.766	5805
339.853	11223
339.940	19234
340.027	7803
340.113	6897
340.200	12390
340.287	9025
340.374	11874
340.460	17539
340.547	7223
340.634	16335
340.720	59538
340.807	27522
340.894	6097
340.980	8628
341.067	6201
341.154	7203
341.240	14041
341.327	24239
341.414	8215
341.500	7855
341.587	7184
341.674	6268
341.760	19047
341.847	20219
341.933	6161
342.020	2667
342.106	4163
342.193	7189
342.279	12856
342.366	10484
342.452	16695
342.539	9680
342.625	26074
342.712	58274
342.798	22155
342.885	8609
342.971	4026
343.058	3931
343.144	5050
343.230	4185
343.317	5329
343.403	4661
343.490	4046
343.576	3996
343.662	4913
343.749	6210
343.835	8858
343.921	20563
344.008	142847
344.094	268043
344.180	47704
344.267	20642
344.353	86783
344.439	89177
344.525	30505
344.612	12478
344.698	12728
344.784	7332
344.870	5017
344.957	5757
345.043	10288
345.129	7998
345.215	16601
345.301	8786
345.387	5292
345.474	3890
345.560	6267
345.646	11541
345.732	7025
345.818	7805
345.904	7258
345.990	8118
346.076	13596
346.162	30864
346.249	8381
346.335	5358
346.421	6658
346.507	38274
346.593	107358
346.679	21632
346.765	7180
346.851	5526
346.937	6427
347.023	4674
347.108	7037
347.194	5881
347.280	6081
347.366	7920
347.452	34728
347.538	133788
347.624	91820
347.710	77373
347.796	13748
347.882	7518
347.967	7918
348.053	13963
348.139	8322
348.225	5269
348.311	5549
348.397	5486
348.482	8011
348.568	8413
348.654	3453
348.740	3015
348.825	4238
348.911	13379
348.997	72476
349.083	121251
349.168	19570
349.254	6994
349.340	6094
349.425	4258
349.511	8287
349.597	10802
349.682	22773
349.768	68285
349.854	28852
349.939	8446
350.025	6329
350.110	5186
350.196	4101
350.282	2781
350.367	5889
350.453	22805
350.538	20100
350.624	8985
350.709	9182
350.795	5083
350.880	5880
350.966	8772
351.051	20120
351.137	14677
351.222	6422
351.308	23015
351.393	54884
351.479	11427
351.564	4644
351.649	5783
351.735	5109
351.820	3988
351.906	5753
351.991	11173
352.076	42952
352.162	51531
352.247	9512
352.332	6671
352.418	13098
352.503	20909
352.588	81602
352.673	58798
352.759	13220
352.844	6523
352.929	8256
353.014	10410
353.100	6973
353.185	8672
353.270	19764
353.355	18052
353.441	6658
353.526	12666
353.611	20949
353.696	20901
353.781	11815
353.866	4925
353.952	6969
354.037	19415
354.122	41100
354.207	34590
354.292	13386
354.377	5154
354.462	5434
354.547	8501
354.632	8690
354.717	12254
354.802	9209
354.887	4407
354.972	4135
355.057	3783
355.142	3977
355.227	6286
355.312	12159
355.397	29705
355.482	64656
355.567	30988
355.652	22336
355.737	27371
355.822	85447
355.907	60983
355.991	8288
356.076	5668
356.161	6404
356.246	4259
356.331	6687
356.416	24624
356.501	151493
356.585	138979
356.670	16279
356.755	9772
356.840	18348
356.924	106929
357.009	329991
357.094	110866
357.179	21255
357.263	14587
357.348	17143
357.433	17326
357.517	14014
357.602	10518
357.687	8494
357.771	16152
357.856	50872
357.941	30838
358.025	90020
358.110	320930
358.195	132826
358.279	17325
358.364	14937
358.448	58411
358.533	144212
358.617	102454
358.702	99500
358.787	34939
358.871	19598
358.956	15417
359.040	5651
359.125	3973
359.209	5820
359.294	25214
359.378	38638
359.462	16290
359.547	11271
359.631	11219
359.716	5561
359.800	6847
359.885	14545
359.969	7317
360.053	5473
360.138	5818
360.222	10382
360.306	19466
360.391	16584
360.475	32340
360.559	63426
360.644	56956
360.728	41581
360.812	87870
360.896	211127
360.981	87568
361.065	43366
361.149	10700
361.233	11108
361.318	9291
361.402	10766
361.486	7800
361.570	5516
361.654	9553
361.739	32793
361.823	149379
361.907	201123
361.991	31154
362.075	18614
362.159	37764
362.243	25075
362.327	16315
362.411	15603
362.495	14161
362.580	9120
362.664	4575
362.748	4394
362.832	4160
362.916	6769
363.000	26794
363.084	136889
363.168	225958
363.252	48981
363.336	15939
363.420	33712
363.503	148828
363.587	158810
363.671	22536
363.755	14375
363.839	18736
363.923	9806
364.007	21136
364.091	27840
364.175	63982
364.258	210746
364.342	98773
364.426	29114
364.510	19847
364.594	23664
364.677	48711
364.761	186605
364.845	122233
364.929	33302
365.013	26544
365.096	24264
365.180	30949
365.264	72641
365.347	222210
365.431	95424
365.515	22949
365.598	8432
365.682	8099
365.766	25391
365.849	30526
365.933	12797
366.017	19451
366.100	17373
366.184	7104
366.267	8709
366.351	4246
366.435	4274
366.518	3648
366.602	4289
366.685	5008
366.769	7280
366.852	20008
366.936	31228
367.019	14366
367.103	17974
367.186	34991
367.270	7882
367.353	3449
367.436	4933
367.520	3618
367.603	7023
367.687	12375
367.770	23227
367.853	14595
367.937	54314
368.020	80954
368.104	18615
368.187	17318
368.270	23763
368.353	22998
368.437	58484
368.520	150467
368.603	72835
368.687	66424
368.770	105773
368.853	25985
368.936	28369
369.020	30726
369.103	10251
369.186	5386
369.269	8183
369.352	16539
369.436	25717
369.519	14225
369.602	6492
369.685	8129
369.768	9690
369.851	7886
369.934	5833
370.018	9219
370.101	20174
370.184	15948
370.267	13619
370.350	21055
370.433	39062
370.516	93835
370.599	101695
370.682	30595
370.765	53466
370.848	76862
370.931	137909
371.014	55484
371.097	10460
371.180	7415
371.263	4648
371.346	2861
371.429	4586
371.511	6287
371.594	14540
371.677	26145
371.760	32805
371.843	26142
371.926	118453
372.009	238178
372.091	73327
372.174	63246
372.257	130501
372.340	52605
372.423	46425
372.505	56340
372.588	22112
372.671	46830
372.754	131247
372.836	67191
372.919	71603
373.002	129447
373.085	34401
373.167	20758
373.250	59746
373.332	127196
373.415	188856
373.498	338454
373.580	125345
373.663	149971
373.746	196855
373.828	44876
373.911	19312
373.993	34738
374.076	131556
374.159	126311
374.241	48644
374.324	108144
374.406	75666
374.489	117694
374.571	277648
374.654	113118
374.736	64200
374.819	186967
374.901	263301
374.983	249826
375.066	41270
375.148	22324
375.231	112155
375.313	194665
375.395	70060
375.478	12302
375.560	7556
375.643	14770
375.725	71946
375.807	239502
375.890	227703
375.972	128188
376.054	66519
376.136	119489
376.219	50668
376.301	79583
376.383	189525
376.465	74703
376.548	38559
376.630	64806
376.712	157250
376.794	72157
376.877	7636
376.959	5102
377.041	9494
377.123	28484
377.205	34049
377.287	5924
377.369	4892
377.452	5261
377.534	5739
377.616	5233
377.698	4782
377.780	4195
377.862	6054
377.944	5591
378.026	3937
378.108	3609
378.190	4371
378.272	3424
378.354	3589
378.436	4516
378.518	18148
378.600	54461
378.682	45103
378.764	72721
378.846	56808
378.928	18399
379.010	20652
379.091	10757
379.173	6057
379.255	4535
379.337	10482
379.419	42990
379.501	102902
379.583	43855
379.664	12718
379.746	28322
379.828	71813
379.910	99320
379.991	82999
380.073	15118
380.155	9311
380.237	7128
380.318	5235
380.400	6441
380.482	15854
380.564	24576
380.645	20564
380.727	18863
380.809	11732
380.890	8334
380.972	5703
381.053	5586
381.135	8118
381.217	27668
381.298	69690
381.380	37780
381.461	43041
381.543	166629
381.624	193557
381.706	34217
381.787	16622
381.869	21076
381.951	87330
382.032	260372
382.113	160898
382.195	31797
382.276	19041
382.358	52450
382.439	140186
382.521	173816
382.602	243451
382.684	120305
382.765	190263
382.846	188465
382.928	171229
383.009	96476
383.090	86475
383.172	285377
383.253	390542
383.334	172530
383.416	207910
383.497	105581
383.578	37596
383.659	79740
383.741	289912
383.822	608709
383.903	319129
383.984	147436
384.066	250050
384.147	152897
384.228	30194
384.309	18304
384.390	14870
384.471	9672
384.553	13500
384.634	19545
384.715	18935
384.796	9508
384.877	18353
384.958	65191
385.039	77233
385.120	24220
385.201	12342
385.282	19048
385.363	21703
385.444	16655
385.525	35248
385.606	110606
385.687	95204
385.768	25523
385.849	36130
385.930	126455
386.011	200999
386.092	55293
386.173	12824
386.254	11057
386.335	11713
386.416	13546
386.496	46392
386.577	72535
386.658	33643
386.739	19763
386.820	21396
386.901	17144
386.981	13800
387.062	8122
387.143	20526
387.224	68154
387.304	67171
387.385	22584
387.466	17612
387.547	22540
387.627	13261
387.708	34304
387.789	129471
387.869	156816
387.950	42684
388.031	7571
388.111	12985
388.192	39555
388.273	57918
388.353	30263
388.434	13204
388.514	35936
388.595	131928
388.676	159810
388.756	74330
388.837	60693
388.917	39359
388.998	7735
389.078	7774
389.159	6709
389.239	7225
389.320	11886
389.400	12420
389.480	34885
389.561	78044
389.641	39670
389.722	13965
389.802	22139
389.883	41410
389.963	96516
390.043	74378
390.124	30803
390.204	32028
390.284	77569
390.365	62234
390.445	119409
390.525	294837
390.605	240150
390.686	53690
390.766	14218
390.846	8806
390.927	6307
391.007	6835
391.087	9629
391.167	10244
391.247	9337
391.328	25227
391.408	33873
391.488	22175
391.568	5830
391.648	9191
391.728	12560
391.808	12186
391.888	15974
391.969	41773
392.049	65086
392.129	34262
392.209	40146
392.289	82019
392.369	54511
392.449	54358
392.529	32966
392.609	17849
392.689	29642
392.769	80532
392.849	69964
392.929	57942
393.009	125563
393.089	80091
393.169	34604
393.248	144375
393.328	551806
393.408	582823
393.488	113888
393.568	24647
393.648	14390
393.728	11092
393.807	9609
393.887	11181
393.967	11418
394.047	16664
394.127	23570
394.206	54651
394.286	229998
394.366	751715
394.446	782127
394.525	208327
394.605	49584
394.685	41199
394.764	85536
394.844	138118
394.924	94537
395.003	23569
395.083	14476
395.163	13672
395.242	12266
395.322	13640
395.402	10644
395.481	18569
395.561	62793
395.640	140720
395.720	109889
395.799	160238
395.879	139136
395.958	93662
396.038	338941
396.117	984338
396.197	1040715
396.276	356608
396.356	114942
396.435	71699
396.515	41242
396.594	29523
396.673	45309
396.753	178460
396.832	520861
396.912	397382
396.991	91706
397.070	20537
397.150	11765
397.229	9542
397.308	8412
397.388	9913
397.467	7721
397.546	5720
397.625	5253
397.705	10148
397.784	9540
397.863	5187
397.942	3560
398.022	10342
398.101	56707
398.180	143207
398.259	79547
398.338	17948
398.417	8947
398.497	8193
398.576	7595
398.655	5180
398.734	4137
398.813	9893
398.892	54458
398.971	155275
399.050	80388
399.129	8289
399.208	4556
399.287	4891
399.366	3885
399.445	4572
399.524	4721
399.603	4703
399.682	13141
399.761	52845
399.840	159585
399.919	128504
399.998	17706
400.077	3490
400.156	2875
400.235	7343
400.313	6216
400.392	10976
400.471	37417
400.550	56891
400.629	17849
400.708	8691
400.786	13950
400.865	37002
400.944	37556
401.023	14702
401.102	2745
401.180	3575
401.259	5377
401.338	8245
401.416	9428
401.495	8653
401.574	7779
401.652	6060
401.731	9526
401.810	7518
401.888	3324
401.967	2028
402.046	4571
402.124	8330
402.203	12299
402.281	6830
402.360	13810
402.438	42603
402.517	33162
402.596	11206
402.674	9898
402.753	5949
402.831	4228
402.910	6080
402.988	19706
403.066	45657
403.145	28750
403.223	18285
403.302	33667
403.380	26109
403.459	20134
403.537	11368
403.615	5473
403.694	1463
403.772	1668
403.850	2433
403.929	2660
404.007	3442
404.085	5957
404.164	4609
404.242	4713
404.320	16911
404.398	50898
404.477	85264
404.555	203971
404.633	180327
404.711	46418
404.789	21050
404.868	5161
404.946	2786
405.024	1631
405.102	2372
405.180	986
405.258	1200
405.336	3955
405.415	4400
405.493	12021
405.571	8295
405.649	2120
405.727	3635
405.805	7285
405.883	6150
405.961	8966
406.039	13241
406.117	5060
406.195	10748
406.273	56189
406.351	163684
406.429	105849
406.507	20406
406.585	7597
406.663	5513
406.740	7280
406.818	5744
406.896	3119
406.974	5600
407.052	20188
407.130	98355
407.208	131174
407.285	27929
407.363	4131
407.441	4541
407.519	3677
407.596	5825
407.674	17788
407.752	46963
407.830	53969
407.907	26361
407.985	5839
408.063	3241
408.141	1946
408.218	9932
408.296	9622
408.373	4015
408.451	4379
408.529	4728
408.606	1831
408.684	1015
408.762	827
408.839	1365
408.917	443
408.994	1082
409.072	1287
409.149	678
409.227	3169
409.304	3621
409.382	1194
409.459	1099
409.537	2671
409.614	3558
409.692	1339
409.769	1947
409.846	3556
409.924	6390
410.001	4542
410.079	3758
410.156	3172
410.233	3595
410.311	3413
410.388	2563
410.465	3402
410.543	3629
410.620	1657
410.697	3448
410.775	3313
410.852	1488
410.929	3682
411.006	6647
411.083	3959
411.161	10133
411.238	13327
411.315	9575
411.392	2943
411.469	5111
411.547	5879
411.624	2546
411.701	2704
411.778	5239
411.855	10887
411.932	6126
412.009	3046
412.086	3222
412.163	4872
412.240	7243
412.317	9089
412.394	9055
412.471	3303
412.548	1604
412.625	2151
412.702	6383
412.779	11700
412.856	6842
412.933	2369
413.010	3025
413.087	9315
413.164	33787
413.241	45717
413.318	11644
413.395	7244
413.471	8877
413.548	4520
413.625	4051
413.702	6604
413.779	5382
413.855	901
413.932	678
414.009	852
414.086	1034
414.162	2043
414.239	8388
414.316	36951
414.393	71125
414.469	27593
414.546	2710
414.623	1121
414.699	1166
414.776	2334
414.853	2739
414.929	2911
415.006	3964
415.082	6262
415.159	4711
415.236	3219
415.312	4146
415.389	7136
415.465	9827
415.542	5441
415.618	2695
415.695	6583
415.771	4080
415.848	4770
415.924	4701
416.000	4506
416.077	2583
416.153	-326
416.230	588
416.306	1865
416.383	3516
416.459	2501
416.535	639
416.612	1694
416.688	1425
416.764	1790
416.841	1565
416.917	1780
416.993	3169
417.069	4780
417.146	7187
417.222	10930
417.298	5264
417.374	2877
417.451	3362
417.527	3886
417.603	5515
417.679	3629
417.755	3030
417.831	776
417.908	1049
417.984	983
418.060	1707
418.136	8208
418.212	10849
418.288	3947
418.364	2887
418.440	2340
418.516	6470
418.592	13068
418.668	19926
418.744	21108
418.820	15208
418.896	3796
418.972	1573
419.048	2469
419.124	8463
419.200	6649
419.276	1581
419.352	-492
419.428	1343
419.504	2096
419.579	3831
419.655	2360
419.731	3858
419.807	14212
419.883	24289
419.959	18033
420.034	5194
420.110	13546
420.186	42678
420.262	34708
420.337	6477
420.413	4053
420.489	2347
420.565	2187
420.640	1360
420.716	2240
420.792	168
420.867	1735
420.943	1707
421.019	4894
421.094	3729
421.170	1418
421.245	848
421.321	1606
421.397	1351
421.472	7684
421.548	18992
421.623	13770
421.699	3459
421.774	2996
421.850	1884
421.925	6127
422.001	5090
422.076	2656
422.152	2788
422.227	6377
422.302	5756
422.378	6452
422.453	12780
422.529	38886
422.604	166102
422.679	342557
422.755	178405
422.830	33530
422.905	9151
422.981	3900
423.056	3368
423.131	2731
423.207	2705
423.282	4064
423.357	10812
423.432	7441
423.508	7435
423.583	17819
423.658	14035
423.733	4591
423.808	7052
423.883	6714
423.959	4941
424.034	1417
424.109	2114
424.184	-17
424.259	781
424.334	1276
424.409	490
424.484	633
424.559	2657
424.634	2254
424.709	4489
424.784	5017
424.859	3680
424.934	8177
425.009	31072
425.084	48561
425.159	19444
425.234	2628
425.309	1821
425.384	10353
425.459	17562
425.534	6558
425.609	4439
425.683	2514
425.758	1745
425.833	2531
425.908	5473
425.983	20265
426.058	50748
426.132	24401
426.207	6968
426.282	11391
426.357	11315
426.431	2505
426.506	2643
426.581	2943
426.655	2778
426.730	2124
426.805	1272
426.879	2659
426.954	3371
427.029	12220
427.103	59295
427.178	131676
427.253	64225
427.327	8065
427.402	13238
427.476	28273
427.551	14456
427.625	5271
427.700	5012
427.774	3081
427.849	5184
427.923	2674
427.998	2313
428.072	3278
428.147	9499
428.221	23795
428.296	41920
428.370	18400
428.444	5804
428.519	16170
428.593	32618
428.667	31303
428.742	33319
428.816	28298
428.890	50504
428.965	61895
429.039	35999
429.113	37763
429.188	14252
429.262	2680
429.336	8890
429.410	23670
429.485	20750
429.559	26917
429.633	22691
429.707	5105
429.781	17608
429.855	70783
429.930	91695
430.004	91832
430.078	155172
430.152	115643
430.226	64013
430.300	54056
430.374	8750
430.448	9903
430.522	55910
430.596	141275
430.670	83462
430.744	90604
430.818	140180
430.892	35084
430.966	4142
431.040	2601
431.114	1357
431.188	1482
431.262	3282
431.336	3612
431.410	16028
431.484	39155
431.557	24827
431.631	2511
431.705	1578
431.779	7121
431.853	28828
431.927	21593
432.000	2684
432.074	2159
432.148	6033
432.222	6066
432.295	1342
432.369	1549
432.443	10398
432.516	62131
432.590	134643
432.664	54004
432.737	5826
432.811	7
432.885	728
432.958	1120
433.032	491
433.106	262
433.179	386
433.253	16
433.326	368
433.400	173
433.473	756
433.547	-440
433.620	1424
433.694	4126
433.767	6753
433.841	2769
433.914	978
433.988	477
434.061	1451
434.134	618
434.208	357
434.281	275
434.355	488
434.428	965
434.501	1441
434.575	1285
434.648	1975
434.721	471
434.795	-3
434.868	-218
434.941	-69
435.014	-606
435.088	397
435.161	1313
435.234	3788
435.307	4667
435.381	1728
435.454	888
435.527	607
435.600	847
435.673	357
435.746	467
435.819	331
435.892	-133
435.966	1093
436.039	1397
436.112	1935
436.185	-1074
436.258	-63
436.331	-657
436.404	-183
436.477	-548
436.550	-271
436.623	-546
436.696	910
436.769	1071
436.842	1201
436.915	2231
436.987	3980
437.060	1495
437.133	763
437.206	686
437.279	2012
437.352	541
437.425	641
437.498	1853
437.570	5829
437.643	5067
437.716	1217
437.789	978
437.861	5007
437.934	13291
438.007	6498
438.080	1146
438.152	2645
438.225	11722
438.298	80537
438.370	187073
438.443	76918
438.516	13102
438.588	2570
438.661	35
438.734	1873
438.806	1929
438.879	2664
438.951	3593
439.024	6812
439.096	1642
439.169	1383
439.241	321
439.314	2195
439.386	6054
439.459	11173
439.531	15275
439.604	5093
439.676	840
439.749	121
439.821	-13
439.893	1352
439.966	1725
440.038	3143
440.110	3164
440.183	1262
440.255	814
440.327	5226
440.400	35458
440.472	114950
440.544	75033
440.617	7808
440.689	5089
440.761	6653
440.833	11422
440.905	7460
440.978	542
441.050	523
441.122	961
441.194	454
441.266	672
441.338	867
441.411	4933
441.483	30875
441.555	44269
441.627	9863
441.699	8551
441.771	10464
441.843	2564
441.915	1533
441.987	197
442.059	699
442.131	3106
442.203	6193
442.275	6388
442.347	5085
442.419	3135
442.491	9108
442.563	19964
442.635	19180
442.706	33810
442.778	24785
442.850	2110
442.922	915
442.994	3724
443.066	5620
443.137	3523
443.209	783
443.281	2441
443.353	6958
443.425	19630
443.496	39327
443.568	33112
443.640	12016
443.711	3022
443.783	2091
443.855	1822
443.926	700
443.998	2773
444.070	5283
444.141	3610
444.213	5404
444.285	6033
444.356	7600
444.428	7721
444.499	1980
444.571	-160
444.642	153
444.714	1539
444.785	4862
444.857	9746
444.928	28302
445.000	14672
445.071	17301
445.143	18469
445.214	5095
445.285	13594
445.357	38906
445.428	49117
445.500	84207
445.571	60149
445.642	22612
445.714	27993
445.785	40142
445.856	9953
445.928	5391
445.999	3962
446.070	3182
446.141	2737
446.213	5011
446.284	2538
446.355	5707
446.426	2912
446.497	2326
446.569	7785
446.640	11000
446.711	5296
446.782	2864
446.853	7466
446.924	6670
446.995	2337
447.066	3536
447.138	9632
447.209	5262
447.280	481
447.351	26
447.422	738
447.493	2943
447.564	3801
447.635	4350
447.706	1353
447.777	400
447.847	-47
447.918	579
447.989	3994
448.060	7673
448.131	19453
448.202	13573
448.273	7047
448.344	3342
448.414	1463
448.485	1807
448.556	552
448.627	211
448.698	1211
448.768	-150
448.839	1908
448.910	9177
448.981	7217
449.051	1731
449.122	716
449.193	385
449.263	1443
449.334	1840
449.405	3134
449.475	7507
449.546	5911
449.616	10439
449.687	7411
449.758	2052
449.828	1133
449.899	382
449.969	23
450.040	2151
450.110	5645
450.181	6293
450.251	1789
450.322	1353
450.392	2226
450.463	1837
450.533	-78
450.604	1906
450.674	206
450.744	1641
450.815	305
450.885	1719
450.955	290
451.026	455
451.096	1276
451.166	3472
451.237	12131
451.307	28660
451.377	8671
451.447	1070
451.518	294
451.588	1003
451.658	2048
451.728	6341
451.799	31919
451.869	32081
451.939	5184
452.009	1729
452.079	680
452.149	1973
452.219	8572
452.289	36426
452.360	22810
452.430	3092
452.500	2148
452.570	2711
452.640	5530
452.710	18587
452.780	28213
452.850	14283
452.920	9946
452.990	3574
453.060	2279
453.129	4037
453.199	8067
453.269	43506
453.339	81451
453.409	119454
453.479	127604
453.549	182443
453.619	183070
453.688	60650
453.758	6896
453.828	3911
453.898	2262
453.968	1925
454.037	701
454.087	1289
454.107	1516
454.168	730
454.177	593
454.247	1076
454.249	1130
454.316	1550
454.330	2144
454.386	3849
454.411	8964
454.456	17292
454.492	20683
454.525	23861
454.574	10396
454.595	4600
454.655	3376
454.665	3205
454.734	4991
454.736	5242
454.804	9568
454.817	13921
454.873	30721
454.898	32363
454.943	35525
454.979	24122
455.013	14304
455.060	8382
455.082	5785
455.141	7634
455.152	7949
455.221	26752
455.222	27215
455.291	45910
455.303	45068
455.360	40297
455.384	53252
455.430	73395
455.465	54913
455.499	38886
455.546	32465
455.569	29107
455.627	16257
455.638	14098
455.707	2305
455.708	2325
455.777	2000
455.789	2080
455.846	2343
455.869	2144
455.916	1805
455.950	1924
455.985	1869
456.031	2166
456.054	2358
456.112	1508
456.124	1389
456.193	2180
456.193	2155
456.262	2669
456.274	3242
456.332	5408
456.355	5774
456.401	5927
456.436	4102
456.470	2561
456.516	1255
456.540	650
456.597	1307
456.609	1424
456.678	437
456.678	422
456.747	1118
456.759	1100
456.817	938
456.840	1088
456.886	1424
456.920	1292
456.955	1341
457.001	2218
457.024	2752
457.082	3626
457.093	3695
457.162	6999
457.163	7042
457.232	9238
457.243	8153
457.301	3573
457.324	2435
457.370	824
457.405	1495
457.439	1974
457.485	1018
457.508	722
457.566	2195
457.577	2425
457.646	2189
457.647	2211
457.715	3174
457.727	3147
457.784	2667
457.808	2876
457.853	3330
457.889	3682
457.922	3844
457.969	3210
457.991	3107
458.050	4312
458.060	4413
458.129	5153
458.130	5176
458.198	4728
458.211	4390
458.267	2947
458.292	2508
458.336	2468
458.372	2669
458.405	3140
458.453	3752
458.474	3925
458.533	5646
458.543	5758
458.611	8175
458.614	8185
458.680	5816
458.694	4833
458.749	2551
458.775	2310
458.818	2051
458.855	2022
458.887	2078
458.936	2382
458.955	2368
459.016	2254
459.024	2263
459.093	2537
459.097	2553
459.162	2629
459.177	2760
459.230	3643
459.257	3959
459.299	4191
459.338	4578
459.368	4393
459.418	4126
459.437	4007
459.499	3046
459.505	2988
459.574	2494
459.579	2483
459.643	2892
459.659	2919
459.711	2656
459.740	2965
459.780	3705
459.820	3947
459.849	3850
459.900	4448
459.917	4517
459.981	4155
459.986	4126
460.054	3567
460.061	3565
460.123	4443
460.141	4626
460.191	4766
460.222	4823
460.260	4833
460.302	5410
460.328	5312
460.382	4309
460.397	4327
460.462	4338
460.465	4538
460.534	9941
460.543	10679
460.602	18021
460.623	20823
460.671	28889
460.703	38558
460.739	33281
460.783	19975
460.808	18095
460.864	6877
460.876	5320
460.944	4475
460.945	4447
461.013	3861
461.024	3719
461.081	3998
461.104	4278
461.150	4251
461.184	3784
461.218	3515
461.264	3399
461.286	3436
461.345	3662
461.355	3673
461.423	4634
461.425	4624
461.491	7389
461.505	8183
461.559	18556
461.585	23353
461.628	29964
461.665	37494
461.696	36851
461.745	40378
461.764	36940
461.825	9778
461.832	9048
461.901	5847
461.905	5956
461.969	4430
461.985	3952
462.037	4993
462.065	5772
462.105	9309
462.145	12698
462.173	15184
462.225	20332
462.241	21664
462.305	29717
462.310	28822
462.378	12916
462.385	10419
462.446	4997
462.465	4516
462.514	4630
462.545	5052
462.582	4878
462.625	4712
462.650	5102
462.705	5674
462.718	6102
462.785	8616
462.786	8674
462.854	11425
462.865	12110
462.922	12945
462.945	13294
462.990	10222
463.025	6279
463.058	5218
463.104	4419
463.126	4172
463.184	4408
463.194	4577
463.262	5196
463.264	5233
463.330	6391
463.344	6537
463.398	7185
463.424	7606
463.466	7350
463.504	7092
463.533	7068
463.583	6983
463.601	7486
463.663	8802
463.669	9276
463.737	15407
463.743	15956
463.805	26236
463.823	29159
463.873	40013
463.903	47359
463.940	44095
463.982	41620
464.008	33600
464.062	10762
464.076	9871
464.142	6176
464.144	6092
464.211	5256
464.221	5179
464.279	5838
464.301	6089
464.347	7704
464.381	8896
464.414	10355
464.461	12487
464.482	12053
464.540	11115
464.550	10966
464.617	8996
464.620	8917
464.685	9902
464.699	10153
464.753	11690
464.779	12569
464.820	13302
464.859	13906
464.888	14066
464.938	14083
464.956	13743
465.018	12729
465.023	12649
465.091	10992
465.098	10791
465.158	10023
465.177	9893
465.226	10717
465.257	11064
465.293	10992
465.336	11136
465.361	13268
465.416	17743
465.428	19727
465.495	30446
465.496	30582
465.563	44012
465.575	46391
465.631	46859
465.654	47342
465.698	30171
465.734	13876
465.765	12284
465.813	10699
465.833	10477
465.893	10554
465.900	10566
465.968	10498
465.972	10476
466.035	10826
466.052	10888
466.102	11095
466.131	11225
466.170	11607
466.210	11940
466.237	12273
466.290	12889
466.304	13122
466.369	13970
466.372	14027
466.439	14998
466.449	15107
466.506	18877
466.528	20305
466.573	32833
466.607	42132
466.641	52412
466.687	66592
466.708	67610
466.766	70669
466.775	65284
466.842	23214
466.845	21178
466.909	18059
466.925	17470
466.977	17617
467.004	17698
467.044	17899
467.083	18043
467.111	19464
467.163	22035
467.178	22114
467.242	22261
467.245	22239
467.312	20931
467.321	20722
467.379	20791
467.400	20755
467.446	22705
467.480	24043
467.559	17559
467.638	16481
467.717	17255
467.796	18641
467.875	18284
467.955	22128
468.034	47275
468.113	77429
468.192	90745
468.271	16130
468.350	13555
468.429	14720
468.508	12865
468.588	13583
468.667	15230
468.746	16226
468.825	14742
468.904	13487
468.983	20950
469.062	30435
469.141	29867
469.220	12894
469.299	13936
469.378	15430
469.456	16736
469.535	15423
469.614	14599
469.693	19838
469.772	25114
469.851	34154
469.930	17257
470.009	13920
470.088	13132
470.166	15952
470.245	18753
470.324	18813
470.403	16006
470.482	14266
470.560	13191
470.639	14108
470.718	15478
470.797	14972
470.875	20238
470.954	25603
471.033	23069
471.111	10688
471.190	10760
471.269	10448
471.347	11281
471.426	12787
471.505	14391
471.583	13880
471.662	13759
471.740	12395
471.819	12390
471.898	11434
471.976	11193
472.055	13434
472.133	16466
472.212	21190
472.290	20422
472.369	11279
472.447	11354
472.526	9948
472.604	11880
472.683	11838
472.761	11245
472.839	12481
472.918	12075
472.996	13636
473.075	14793
473.153	14650
473.231	12533
473.310	15090
473.388	13728
473.466	14185
473.545	15290
473.623	18672
473.701	15486
473.780	11751
473.858	10832
473.936	13462
474.014	12698
474.093	18378
474.171	26852
474.249	37259
474.327	15839
474.405	10495
474.484	10397
474.562	11290
474.640	11999
474.718	14186
474.796	12872
474.874	12266
474.952	10585
475.030	11974
475.108	11354
475.187	14367
475.265	14496
475.343	15517
475.421	14831
475.499	12168
475.577	15234
475.655	28141
475.733	52247
475.811	86925
475.889	68758
475.966	29818
476.044	12015
476.122	12460
476.200	14370
476.278	11316
476.356	10990
476.434	11792
476.512	13264
476.590	14866
476.667	12569
476.745	10109
476.823	11696
476.901	11003
476.979	12572
477.056	12230
477.134	11766
477.212	12195
477.290	10011
477.367	10085
477.445	10231
477.523	9822
477.601	10099
477.678	13356
477.756	15716
477.834	16651
477.911	10088
477.989	11480
478.066	9942
478.144	14299
478.222	11970
478.299	13733
478.377	11721
478.454	9780
478.532	9790
478.609	11329
478.687	11221
478.764	9233
478.842	10375
478.919	13150
478.997	10613
479.074	12290
479.152	14908
479.229	20422
479.307	10060
479.384	8664
479.461	9448
479.539	12081
479.616	13270
479.694	12303
479.771	14157
479.848	16752
479.926	21620
480.003	18950
480.080	9598
480.157	9029
480.235	8807
480.312	11117
480.389	17127
480.467	25964
480.544	28702
480.621	12594
480.698	11174
480.775	14098
480.853	13298
480.930	10952
481.007	11700
481.084	15621
481.161	15060
481.238	12844
481.315	9000
481.392	9890
481.470	9600
481.547	11159
481.624	9599
481.701	9954
481.778	11562
481.855	16248
481.932	27325
482.009	43630
482.086	17970
482.163	10300
482.240	12269
482.317	15458
482.393	12682
482.470	11301
482.547	11308
482.624	10253
482.701	10104
482.778	10418
482.855	7884
482.932	8687
483.009	8961
483.085	10549
483.162	12294
483.239	11246
483.316	7833
483.393	8745
483.469	10091
483.546	13416
483.623	13971
483.699	9749
483.776	11034
483.853	14142
483.930	35677
484.006	73081
484.083	112252
484.160	41335
484.236	55490
484.313	38886
484.389	30761
484.466	27981
484.543	26933
484.619	27588
484.696	29501
484.772	33134
484.849	34569
484.925	26050
485.002	25696
485.078	28928
485.155	27657
485.231	25036
485.308	23824
485.384	29927
485.461	46166
485.537	73272
485.614	72500
485.690	25724
485.766	24296
485.843	28945
485.919	34761
485.995	31979
486.072	21538
486.148	22628
486.224	22021
486.301	25992
486.377	29922
486.453	28424
486.530	27545
486.606	38246
486.682	44362
486.758	57750
486.835	67387
486.911	57723
486.987	94336
487.063	70031
487.139	75196
487.215	50889
487.292	26075
487.368	25013
487.444	27522
487.520	32006
487.596	26143
487.672	30498
487.748	44125
487.824	46490
487.900	26688
487.976	27189
488.052	29078
488.128	33544
488.204	27691
488.280	26863
488.356	48350
488.432	93716
488.508	122423
488.584	28602
488.660	21704
488.736	23087
488.812	24951
488.888	32110
488.964	48736
489.039	91628
489.115	109645
489.191	53134
489.267	24806
489.343	23471
489.418	19029
489.494	20026
489.570	18772
489.646	20105
489.722	20808
489.797	26997
489.873	57688
489.949	103662
490.024	60368
490.100	20108
490.176	20980
490.251	23849
490.327	29722
490.403	17351
490.478	16671
490.554	15351
490.629	16293
490.705	16408
490.781	18931
490.856	19721
490.932	21476
491.007	21549
491.083	21033
491.158	22669
491.234	42241
491.309	79445
491.385	62086
491.460	19450
491.536	20229
491.611	17541
491.686	19851
491.762	32663
491.837	59802
491.913	102816
491.988	131798
492.063	133082
492.139	46786
492.214	27456
492.289	14068
492.365	16956
492.440	19290
492.515	20927
492.590	19482
492.666	17571
492.741	30334
492.816	42244
492.891	17064
492.967	14933
493.042	13893
493.117	16822
493.192	23848
493.267	69066
493.342	161143
493.418	161215
493.493	17459
493.568	13424
493.643	15291
493.718	23131
493.793	34078
493.868	28521
493.943	16208
494.018	14657
494.093	14282
494.168	14876
494.243	12038
494.318	12050
494.393	11385
494.468	11985
494.543	11999
494.618	14070
494.693	12539
494.768	14337
494.842	13645
494.917	11914
494.992	12743
495.067	10710
495.142	11679
495.217	12602
495.292	12220
495.366	16237
495.441	18810
495.516	25239
495.591	51571
495.665	140948
495.740	245451
495.815	64813
495.890	19833
495.964	17211
496.039	18605
496.114	16936
496.188	18619
496.263	18036
496.338	18210
496.412	23173
496.487	24595
496.561	24496
496.636	24186
496.710	22732
496.785	25655
496.860	29300
496.934	20714
497.009	22101
497.083	22806
497.158	25380
497.232	31288
497.307	37751
497.381	31932
497.455	43059
497.530	52843
497.604	35981
497.679	43566
497.753	66050
497.827	76120
497.902	65926
497.976	101760
498.050	294839
498.125	692533
498.199	483861
498.273	85551
498.348	72280
498.422	62403
498.496	58919
498.570	51338
498.645	43963
498.719	43360
498.793	52461
498.867	77181
498.941	139016
499.016	362508
499.090	688538
499.164	124692
499.238	27538
499.312	25267
499.386	29720
499.460	26273
499.534	26829
499.609	34818
499.683	50890
499.757	62431
499.831	201424
499.905	505184
499.979	322174
500.053	61476
500.127	56811
500.201	31822
500.275	23875
500.349	23345
500.422	27384
500.496	48540
500.570	126595
500.644	304851
500.718	448944
500.792	48236
500.866	26439
500.940	32857
501.013	24615
501.087	27575
501.161	43879
501.235	80672
501.309	230266
501.382	467168
501.456	277599
501.530	86756
501.603	136590
501.677	32872
501.751	19036
501.825	31422
501.898	83574
501.972	180144
502.046	72001
502.119	35879
502.193	98121
502.266	190363
502.340	69841
502.413	103175
502.487	163339
502.561	78581
502.634	20620
502.708	17978
502.781	15801
502.855	12941
502.928	11642
503.002	12499
503.075	12980
503.149	14390
503.222	14675
503.295	16099
503.369	22889
503.442	56890
503.516	183727
503.589	354290
503.662	173732
503.736	76385
503.809	164730
503.882	120060
503.956	176401
504.029	106218
504.102	35075
504.175	29780
504.249	15972
504.322	21363
504.395	18093
504.468	12471
504.542	14921
504.615	9566
504.688	10674
504.761	11346
504.834	14723
504.907	17669
504.980	25138
505.053	13551
505.127	17911
505.200	22045
505.273	27723
505.346	13596
505.419	11753
505.492	8682
505.565	8559
505.638	8636
505.711	9192
505.784	9883
505.857	8455
505.930	10988
506.003	9456
506.076	13387
506.149	20479
506.221	22603
506.294	30416
506.367	102995
506.440	238456
506.513	74187
506.586	24261
506.659	11690
506.731	11741
506.804	16497
506.877	20907
506.950	14419
507.022	12197
507.095	19359
507.168	19558
507.241	9407
507.313	9389
507.386	11710
507.459	14692
507.531	9676
507.604	9344
507.677	8730
507.749	8570
507.822	15395
507.894	27360
507.967	25530
508.040	14646
508.112	13777
508.185	13815
508.257	12764
508.330	18321
508.402	12750
508.475	15032
508.547	14824
508.620	18263
508.692	29384
508.765	13736
508.837	9104
508.909	10719
508.982	11706
509.054	12662
509.127	10679
509.199	10821
509.271	9078
509.344	9853
509.416	9283
509.488	10037
509.560	11362
509.633	12282
509.705	13269
509.777	15414
509.849	18166
509.922	11535
509.994	10741
510.066	11831
510.138	15219
510.210	27334
510.283	20468
510.355	17891
510.427	14827
510.499	14498
510.571	14508
510.643	16349
510.715	22120
510.787	17304
510.859	16218
510.931	21145
511.003	21640
511.076	17720
511.148	14171
511.219	18530
511.291	33032
511.363	30647
511.435	13138
511.507	12429
511.579	12807
511.651	12708
511.723	12174
511.795	12778
511.867	13993
511.939	26033
512.010	51293
512.082	26505
512.154	14085
512.226	15595
512.298	22448
512.369	28113
512.441	21269
512.513	21238
512.585	17126
512.656	19383
512.728	18902
512.800	15299
512.871	15802
512.943	14591
513.015	12786
513.086	14264
513.158	16572
513.230	17827
513.301	24453
513.373	23196
513.444	14817
513.516	13224
513.588	12655
513.659	16521
513.731	18376
513.802	19491
513.874	38545
513.945	52041
514.016	16442
514.088	14621
514.159	16335
514.231	23305
514.302	25140
514.374	20702
514.445	26393
514.516	53702
514.588	28769
514.659	26875
514.730	45837
514.802	28524
514.873	24947
514.944	26009
515.016	22502
515.087	24066
515.158	36581
515.229	43239
515.301	29904
515.372	36877
515.443	24864
515.514	19160
515.585	14981
515.656	15923
515.728	13372
515.799	13648
515.870	15427
515.941	15994
516.012	16960
516.083	21703
516.154	22095
516.225	26069
516.296	22295
516.367	20736
516.438	21598
516.509	27193
516.580	50194
516.651	159564
516.722	359842
516.793	106184
516.864	34372
516.935	34007
517.006	38153
517.077	65381
517.148	172166
517.219	498234
517.289	543322
517.360	248456
517.431	56134
517.502	22385
517.573	20682
517.643	23035
517.714	23853
517.785	23876
517.856	24130
517.926	26320
517.997	28631
518.068	33911
518.138	47076
518.209	110793
518.280	422937
518.350	942973
518.421	217890
518.492	35338
518.562	27649
518.633	27288
518.703	21365
518.774	28500
518.845	40945
518.915	32491
518.986	23828
519.056	32160
519.127	62892
519.197	124626
519.268	267520
519.338	107259
519.408	32757
519.479	33700
519.549	21213
519.620	17418
519.690	14938
519.760	15409
519.831	15196
519.901	14392
519.971	14365
520.042	17148
520.112	21334
520.182	21377
520.253	20483
520.323	17888
520.393	26569
520.463	32765
520.534	31238
520.604	49072
520.674	22663
520.744	32163
520.814	61204
520.885	53176
520.955	131505
521.025	313065
521.095	61838
521.165	19200
521.235	18014
521.305	13573
521.375	13270
521.445	16325
521.515	19474
521.585	22793
521.655	18180
521.725	18417
521.795	16027
521.865	14857
521.935	28058
522.005	18769
522.075	12902
522.145	15382
522.215	21662
522.285	33242
522.355	54818
522.424	94864
522.494	62112
522.564	29316
522.634	66318
522.704	122378
522.774	29707
522.843	15248
522.913	15104
522.983	17770
523.053	14851
523.122	15680
523.192	28521
523.262	82924
523.331	50520
523.401	13858
523.471	10663
523.540	11279
523.610	8981
523.680	10669
523.749	11861
523.819	18889
523.888	15324
523.958	10171
524.027	10944
524.097	12143
524.166	11214
524.236	13267
524.305	12179
524.375	11039
524.444	9884
524.514	12208
524.583	14623
524.653	20339
524.722	20089
524.791	10832
524.861	10592
524.930	9250
524.999	12025
525.069	17326
525.138	16499
525.207	20503
525.277	11034
525.346	12153
525.415	11089
525.484	12063
525.554	17251
525.623	13336
525.692	10971
525.761	10598
525.830	10138
525.900	12228
525.969	17977
526.038	18578
526.107	24572
526.176	46546
526.245	31829
526.314	31666
526.383	39399
526.452	37436
526.522	75573
526.591	83073
526.660	55401
526.729	23393
526.797	34632
526.867	117461
526.935	347560
527.004	220752
527.073	64838
527.142	14412
527.211	12106
527.280	15528
527.349	12556
527.418	8816
527.487	9977
527.555	8297
527.624	7480
527.693	7400
527.762	8893
527.831	7771
527.899	8585
527.968	8928
528.037	9047
528.106	14129
528.174	25529
528.243	22813
528.312	40081
528.380	33463
528.449	10623
528.518	9433
528.586	6931
528.655	8113
528.723	7086
528.792	8103
528.861	9732
528.929	7617
528.998	6807
529.066	7262
529.135	7210
529.203	7018
529.272	5968
529.340	7722
529.409	9241
529.477	8884
529.545	14416
529.614	16235
529.682	20377
529.751	21383
529.819	21240
529.887	11061
529.956	7762
530.024	8807
530.092	7152
530.161	13063
530.229	16093
530.297	8127
530.365	7539
530.434	5400
530.502	6350
530.570	7153
530.638	5807
530.707	8312
530.775	8012
530.843	7393
530.911	6347
530.979	6801
531.047	6562
531.115	7627
531.183	6415
531.252	9204
531.320	8049
531.388	6707
531.456	7107
531.524	5420
531.592	7601
531.660	9022
531.728	7632
531.796	7114
531.864	7978
531.932	8462
532.000	6865
532.067	8349
532.135	8415
532.203	10831
532.271	12323
532.339	30467
532.407	60325
532.475	23438
532.542	13027
532.610	16347
532.678	32958
532.746	149031
532.814	199836
532.881	32069
532.949	9909
533.017	9092
533.084	8614
533.152	7828
533.220	8766
533.287	9026
533.355	6890
533.423	8091
533.490	7039
533.558	7898
533.625	9097
533.693	9773
533.761	9534
533.828	10913
533.896	11672
533.963	24826
534.031	26560
534.098	32023
534.166	12530
534.233	8805
534.300	10431
534.368	10766
534.435	9092
534.503	8957
534.570	10147
534.637	7980
534.705	7814
534.772	10201
534.840	12062
534.907	29840
534.974	22101
535.041	13057
535.109	16150
535.176	7915
535.243	7946
535.310	8755
535.378	7031
535.445	8445
535.512	7583
535.579	7694
535.646	6942
535.714	9726
535.781	11272
535.848	10723
535.915	11239
535.982	11959
536.049	10879
536.116	11551
536.183	10401
536.250	10829
536.317	10714
536.384	15329
536.451	20172
536.518	18174
536.585	13650
536.652	21491
536.719	26297
536.786	16452
536.853	14696
536.920	29252
536.987	38880
537.053	44998
537.120	146823
537.187	61988
537.254	9804
537.321	10378
537.388	9753
537.454	8144
537.521	7934
537.588	7871
537.654	11638
537.721	11567
537.788	11081
537.855	8631
537.921	9781
537.988	10343
538.055	10649
538.121	10600
538.188	12097
538.254	26867
538.321	38295
538.388	17398
538.454	10046
538.521	9099
538.587	8587
538.654	8343
538.720	8674
538.787	9578
538.853	12871
538.920	16787
538.986	15684
539.053	12231
539.119	12272
539.185	11898
539.252	14780
539.318	21084
539.385	14234
539.451	13701
539.517	13730
539.583	20086
539.650	56970
539.716	82037
539.782	16897
539.849	11258
539.915	11217
539.981	13787
540.047	14163
540.114	13622
540.180	12695
540.246	14026
540.312	24244
540.378	43464
540.444	33142
540.510	56699
540.576	94799
540.643	19363
540.709	9803
540.775	10479
540.841	12696
540.907	24374
540.973	32016
541.039	23427
541.105	20547
541.171	11740
541.237	10537
541.303	12725
541.369	15970
541.435	24717
541.500	32829
541.566	15836
541.632	9866
541.698	10058
541.764	10356
541.830	10300
541.896	11288
541.961	11042
542.027	10351
542.093	11238
542.159	12278
542.224	16957
542.290	25281
542.356	40096
542.421	31623
542.487	16614
542.553	14927
542.618	15763
542.684	10262
542.750	12245
542.815	17624
542.881	42643
542.947	105012
543.012	39341
543.078	9807
543.143	9594
543.209	12306
543.274	12629
543.340	17454
543.405	45431
543.471	41067
543.536	11055
543.602	12082
543.667	10945
543.732	10345
543.798	10783
543.863	11138
543.928	9674
543.994	9429
544.059	11045
544.124	10132
544.190	9861
544.255	9879
544.320	10826
544.386	11995
544.451	19130
544.516	18968
544.581	26169
544.646	78785
544.712	66511
544.777	16476
544.842	16940
544.907	17328
544.972	13550
545.037	12925
545.102	15619
545.168	15058
545.233	15990
545.298	18231
545.363	22564
545.428	23840
545.493	51096
545.558	70386
545.623	22607
545.688	15190
545.753	14837
545.818	13228
545.883	15466
545.947	14682
546.012	18977
546.077	15755
546.142	16010
546.207	16515
546.272	21824
546.337	18401
546.401	17309
546.466	15439
546.531	14446
546.596	16878
546.661	14372
546.725	14208
546.790	13061
546.855	12592
546.919	11724
546.984	13732
547.049	17116
547.113	20632
547.178	15246
547.243	19477
547.307	20327
547.372	26127
547.436	25386
547.501	15053
547.565	17259
547.630	22410
547.695	23336
547.759	30709
547.823	19563
547.888	14573
547.952	14842
548.017	16795
548.081	25504
548.146	35598
548.210	23046
548.274	14698
548.339	13001
548.403	13471
548.468	13697
548.532	12698
548.596	14685
548.660	14863
548.725	17944
548.789	24319
548.853	22656
548.917	20194
548.982	37555
549.046	26320
549.110	14768
549.174	13918
549.238	13870
549.303	12695
549.367	15322
549.431	13724
549.495	14270
549.559	12650
549.623	14836
549.687	19966
549.751	24448
549.815	16223
549.879	16132
549.943	13717
550.007	18209
550.071	18156
550.135	23159
550.199	16170
550.263	16884
550.327	25388
550.391	33095
550.455	16766
550.519	16617
550.582	19909
550.646	26173
550.710	20709
550.774	17893
550.838	16936
550.901	18154
550.965	18878
551.029	19739
551.093	25908
551.156	43777
551.220	100477
551.284	65205
551.347	48909
551.411	137361
551.475	84464
551.538	18717
551.602	15349
551.666	15637
551.729	13769
551.793	16670
551.856	15678
551.920	15984
551.983	15074
552.047	15226
552.110	14316
552.174	14441
552.237	14391
552.301	12946
552.364	14917
552.428	13960
552.491	14138
552.554	15664
552.618	15058
552.681	17788
552.745	20866
552.808	32443
552.871	34135
552.934	22371
552.998	19422
553.061	20214
553.124	16868
553.187	16606
553.251	17737
553.314	20324
553.377	22344
553.440	48225
553.503	155766
553.567	131752
553.630	20423
553.693	15827
553.756	15086
553.819	14212
553.882	14394
553.945	13852
554.008	12374
554.071	12385
554.134	13378
554.197	12410
554.260	12737
554.323	16242
554.386	15059
554.449	13162
554.512	12851
554.575	13365
554.638	14251
554.701	13151
554.764	11954
554.827	12919
554.889	11442
554.952	11487
555.015	9584
555.078	11718
555.141	12998
555.203	11654
555.266	12851
555.329	12637
555.391	12086
555.454	13958
555.517	12078
555.580	11723
555.642	11190
555.705	12931
555.768	12511
555.830	12910
555.893	11265
555.955	12345
556.018	12301
556.080	11865
556.143	11681
556.206	12207
556.268	14579
556.330	15014
556.393	14115
556.455	17981
556.518	35003
556.580	23341
556.643	12131
556.705	12558
556.767	9838
556.830	13952
556.892	17409
556.955	26826
557.017	15214
557.079	13058
557.142	13430
557.204	21237
557.266	39828
557.328	21543
557.391	11849
557.453	11487
557.515	12694
557.577	18191
557.639	15082
557.701	11544
557.764	9850
557.826	12455
557.888	13649
557.950	11867
558.012	10974
558.074	15328
558.136	27157
558.198	34730
558.260	16753
558.322	13733
558.384	13288
558.446	15554
558.508	18356
558.570	25486
558.632	50572
558.694	51976
558.756	43040
558.818	127310
558.880	168009
558.942	39061
559.003	37205
559.065	16363
559.127	12551
559.189	14054
559.251	15365
559.312	22398
559.374	57391
559.436	112548
559.498	32210
559.559	13649
559.621	14667
559.683	18977
559.744	35926
559.806	79136
559.868	60997
559.929	19543
559.991	19946
560.052	26107
560.114	41098
560.176	24043
560.237	36085
560.299	36918
560.360	15385
560.422	14855
560.483	13970
560.545	13892
560.606	13468
560.667	13290
560.729	14177
560.790	13278
560.852	12480
560.913	13855
560.974	11861
561.036	12446
561.097	12395
561.158	13752
561.220	13912
561.281	13542
561.342	14594
561.403	18943
561.465	27393
561.526	68408
561.587	54006
561.648	17579
561.709	14254
561.771	14173
561.832	13662
561.893	14208
561.954	13349
562.015	13267
562.076	13063
562.137	13101
562.198	12890
562.259	13607
562.320	12809
562.381	18119
562.442	23344
562.503	15952
562.564	12844
562.625	13426
562.686	13264
562.747	16022
562.808	13353
562.869	15489
562.930	18645
562.991	16779
563.051	15558
563.112	14556
563.173	13987
563.234	13609
563.294	14042
563.355	13392
563.416	14079
563.477	13815
563.537	15753
563.598	17819
563.659	14950
563.720	15210
563.780	15563
563.841	15690
563.901	15015
563.962	13857
564.023	14536
564.083	15519
564.144	16075
564.204	15582
564.265	17269
564.325	28693
564.386	59499
564.446	30080
564.507	13944
564.567	15040
564.628	14610
564.688	15188
564.749	15600
564.809	21738
564.869	23153
564.930	15519
564.990	14221
565.050	14654
565.111	14646
565.171	14003
565.231	13595
565.292	14947
565.352	14052
565.412	16633
565.472	16156
565.532	17569
565.593	15860
565.653	15383
565.713	17197
565.773	18194
565.833	22323
565.893	23548
565.953	16534
566.013	17479
566.074	20314
566.134	32727
566.194	51759
566.254	41166
566.314	26403
566.374	20554
566.434	21263
566.494	21179
566.554	21053
566.614	22704
566.673	23409
566.733	27095
566.793	26443
566.853	27294
566.913	28491
566.973	29114
567.033	29246
567.092	28337
567.152	28444
567.212	29790
567.272	32276
567.331	34459
567.391	35088
567.451	40348
567.511	51802
567.570	42043
567.630	29050
567.690	30436
567.749	30143
567.809	32771
567.868	37657
567.928	44704
567.988	52148
568.047	59545
568.107	75311
568.166	109140
568.226	162910
568.285	197402
568.345	174638
568.404	149027
568.464	127646
568.523	119083
568.582	121603
568.642	138434
568.701	178118
568.761	258647
568.820	345019
568.879	330510
568.939	264514
568.998	197167
569.057	152042
569.116	121186
569.176	98315
569.235	80302
569.294	68973
569.353	58865
569.413	53021
569.472	45583
569.531	41235
569.590	37382
569.649	34632
569.708	31894
569.767	30932
569.827	32382
569.886	25686
569.945	25003
570.004	23233
570.063	22995
570.122	22699
570.181	24415
570.240	27735
570.299	24499
570.358	22202
570.417	18047
570.475	16326
570.534	19039
570.593	17645
570.652	19807
570.711	17929
570.770	19877
570.829	21228
570.887	19092
570.946	16615
571.005	14784
571.064	14850
571.122	18241
571.181	19578
571.240	15026
571.299	13769
571.357	17292
571.416	17222
571.475	22355
571.533	17940
571.592	16293
571.650	15787
571.709	13159
571.768	12311
571.826	12914
571.885	12400
571.943	12654
572.002	13276
572.060	13519
572.119	11021
572.177	11952
572.236	10302
572.294	11367
572.352	10840
572.411	10931
572.469	10302
572.528	11133
572.586	11478
572.644	14447
572.703	15474
572.761	12153
572.819	10244
572.877	11228
572.936	10202
572.994	10908
573.052	11106
573.110	11664
573.169	10289
573.227	9662
573.285	9690
573.343	10442
573.401	10041
573.459	10255
573.517	9213
573.576	10819
573.634	9608
573.692	11092
573.750	10393
573.808	11644
573.866	14311
573.924	20262
573.982	14763
574.040	10506
574.098	10783
574.155	9657
574.213	9269
574.271	9829
574.329	10210
574.387	9407
574.445	8485
574.503	8847
574.560	8176
574.618	8646
574.676	8771
574.734	8414
574.792	8213
574.849	8387
574.907	8899
574.965	9130
575.022	7772
575.080	8961
575.138	9805
575.195	9460
575.253	10927
575.311	10756
575.368	8967
575.426	8175
575.483	8677
575.541	9935
575.598	9009
575.656	10509
575.713	8042
575.771	8878
575.828	9003
575.886	9226
575.943	9328
576.001	9969
576.058	10579
576.115	11965
576.173	15135
576.230	16442
576.287	14769
576.345	12611
576.402	10615
576.459	12425
576.517	11662
576.574	13810
576.631	13183
576.688	10275
576.746	9855
576.803	11165
576.860	10032
576.917	10563
576.974	9317
577.031	10552
577.089	9814
577.146	10445
577.203	11600
577.260	12993
577.317	14089
577.374	14836
577.431	12336
577.488	11866
577.545	9612
577.602	11357
577.659	10573
577.716	13003
577.773	12501
577.830	9980
577.886	9650
577.943	10028
578.000	10779
578.057	11851
578.114	11107
578.171	12613
578.227	15140
578.284	14479
578.341	13163
578.398	13395
578.454	13962
578.511	16306
578.568	15162
578.625	12061
578.681	10315
578.738	9870
578.794	9326
578.851	10374
578.908	10203
578.964	11132
579.021	10422
579.077	10670
579.134	9915
579.190	9912
579.247	8897
579.303	9566
579.360	9961
579.416	10241
579.473	9417
579.529	9673
579.586	9466
579.642	10662
579.698	10307
579.755	10328
579.811	10829
579.867	11376
579.924	9977
579.980	11679
580.036	13723
580.093	14832
580.149	18537
580.205	18677
580.261	16486
580.317	15052
580.374	16369
580.430	16499
580.486	14601
580.542	13358
580.598	11287
580.619	11614
580.654	12193
580.692	11822
580.710	11659
580.765	10796
580.767	10778
580.823	10806
580.838	10888
580.879	11142
580.911	10366
580.935	9807
580.984	9851
580.991	9871
581.047	10615
581.057	10754
581.103	11414
581.130	11880
581.159	12398
581.203	12873
581.215	12993
581.270	12191
581.276	12112
581.326	11465
581.349	11461
581.382	11433
581.422	11118
581.438	11021
581.494	11315
581.494	11309
581.550	11311
581.567	11135
581.606	10728
581.640	10701
581.661	10723
581.713	11999
581.717	12099
581.773	11165
581.786	10957
581.829	10337
581.859	10688
581.885	10982
581.932	10973
581.940	10974
581.996	11711
582.004	11530
582.052	10561
582.077	10920
582.107	11342
582.150	11621
582.163	11716
582.219	11594
582.223	11562
582.274	11172
582.296	12045
582.330	13531
582.368	12843
582.386	12482
582.441	11516
582.441	11517
582.497	11761
582.514	11845
582.552	12047
582.587	12304
582.608	12439
582.659	11775
582.663	11714
582.719	11529
582.732	11504
582.774	11647
582.805	12005
582.830	12258
582.877	12145
582.885	12135
582.941	12118
582.950	12165
582.996	12308
583.023	12936
583.052	13680
583.095	14074
583.107	14230
583.162	15874
583.168	15986
583.218	16816
583.240	15929
583.273	14481
583.313	14080
583.328	13958
583.384	13131
583.385	13126
583.439	12740
583.458	12478
583.494	12253
583.531	12536
583.549	12692
583.603	12899
583.605	12898
583.660	13316
583.676	13272
583.715	13354
583.748	14187
583.770	14757
583.820	14329
583.825	14270
583.881	13556
583.893	13484
583.936	13184
583.965	13335
583.991	13507
584.038	13709
584.046	13765
584.101	14684
584.110	14600
584.156	13962
584.183	14000
584.211	14136
584.255	14259
584.266	14226
584.321	13636
584.328	13608
584.376	13929
584.400	14404
584.431	14722
584.472	14264
584.486	14190
584.541	15293
584.545	15296
584.596	14771
584.617	14647
584.651	15203
584.689	16137
584.706	16310
584.761	15838
584.762	15837
584.816	15942
584.834	16137
584.871	16304
584.906	16007
584.926	15970
584.978	16896
584.980	16946
585.035	16865
585.051	17224
585.090	17928
585.123	18400
585.145	18801
585.195	19627
585.200	19710
585.254	20406
585.267	21385
585.309	25378
585.340	26100
585.364	25963
585.412	23292
585.419	22751
585.473	21695
585.484	21602
585.528	23122
585.556	24422
585.583	25774
585.628	30407
585.637	31937
585.692	45937
585.700	47027
585.747	51665
585.772	46853
585.801	35138
585.845	25638
585.856	24740
585.910	23205
585.917	23120
585.965	23535
585.989	23292
586.019	23710
586.061	24894
586.074	25026
586.128	24587
586.133	24723
586.183	26786
586.205	26892
586.237	27069
586.277	28014
586.292	28264
586.346	27988
586.349	28012
586.401	28615
586.421	29299
586.455	30894
586.493	33806
586.509	36130
586.564	46957
586.565	47339
586.618	68567
586.637	66174
586.672	49831
586.709	40669
586.727	37543
586.781	33638
586.781	33650
586.835	32910
586.853	32953
586.889	33824
586.925	34489
586.944	34709
586.996	35514
586.998	35565
587.052	37289
587.068	37758
587.106	39050
587.140	40184
587.161	40824
587.212	42224
587.215	42313
587.269	44531
587.284	44981
587.323	46321
587.356	47980
587.377	49102
587.427	50790
587.431	50944
587.485	53402
587.499	54141
587.539	56960
587.571	59423
587.593	61035
587.643	64376
587.648	64821
587.702	70258
587.715	71633
587.755	75661
587.786	78340
587.810	80584
587.858	85726
587.864	86502
587.917	95548
587.930	97634
587.971	106169
588.001	112648
588.025	117834
588.073	127912
588.079	129460
588.133	144916
588.145	148420
588.187	163100
588.217	174907
588.241	185987
588.288	208643
588.295	212378
588.348	245029
588.360	252627
588.402	285279
588.431	310261
588.456	335356
588.503	387782
588.510	397094
588.564	482255
588.575	502313
588.617	600032
588.646	677810
588.671	769529
588.718	965866
588.725	1008834
588.778	1375194
588.789	1453584
588.832	1871271
588.861	2126636
588.886	2253215
588.932	2298326
588.939	2253863
588.993	2017424
589.004	1993113
589.047	2257016
589.075	2303662
589.100	2066946
589.147	1605350
589.154	1549780
589.207	1152011
589.218	1077362
589.261	975711
589.290	924273
589.314	947734
589.361	1019732
589.368	1050982
589.421	1344837
589.433	1413091
589.475	1813586
589.504	2032928
589.528	2072651
589.576	2089933
589.582	2078782
589.635	2044067
589.647	1998088
589.689	1555054
589.718	1253455
589.742	1047092
589.790	665501
589.795	645698
589.849	474525
589.861	436791
589.902	373227
589.932	325312
589.955	295932
590.004	238878
590.009	235482
590.062	199859
590.075	191109
590.115	172853
590.146	159695
590.168	153147
590.218	138068
590.222	137133
590.275	124834
590.289	121431
590.328	114502
590.360	109041
590.381	105285
590.431	96267
590.435	95962
590.488	89945
590.503	88091
590.541	83858
590.574	80333
590.594	78641
590.645	73980
590.647	73888
590.700	69695
590.716	68324
590.753	66198
590.787	64221
590.806	63232
590.859	60311
590.859	60337
590.912	57592
590.930	56772
590.965	55689
591.001	54512
591.018	53839
591.071	51211
591.072	51119
591.124	50261
591.143	49787
591.177	49096
591.214	48255
591.230	47978
591.283	47003
591.285	46899
591.336	46795
591.356	46604
591.389	45605
591.427	44361
591.442	43964
591.495	42141
591.498	41957
591.547	40413
591.569	39591
591.600	39575
591.640	39448
591.653	39400
591.706	39023
591.711	38929
591.759	39870
591.782	40310
591.811	41786
591.853	43530
591.864	42750
591.917	38358
591.924	37687
591.969	37207
591.995	36827
592.022	36501
592.066	35784
592.075	36183
592.127	38372
592.137	38758
592.180	42755
592.208	44947
592.233	41910
592.279	36104
592.285	35878
592.338	33451
592.350	32852
592.390	32100
592.421	31401
592.443	31757
592.491	32413
592.495	32435
592.548	31952
592.562	31772
592.600	30842
592.633	29934
592.653	30055
592.704	30086
592.705	30251
592.775	29913
592.846	29798
592.916	30919
592.987	29712
593.058	29579
593.128	28646
593.199	28415
593.270	27189
593.341	26079
593.411	25883
593.482	26455
593.553	26407
593.623	25503
593.694	26115
593.764	28372
593.835	27053
593.906	24264
593.976	25002
594.047	25851
594.117	28788
594.188	31769
594.258	24040
594.329	23458
594.399	22894
594.470	21636
594.540	22061
594.611	21516
594.681	22571
594.751	22884
594.822	24144
594.892	25850
594.963	25174
595.033	24285
595.103	24018
595.174	25991
595.244	34472
595.314	48906
595.384	27102
595.455	23200
595.525	23316
595.595	22879
595.665	22492
595.736	22046
595.806	22629
595.876	21901
595.946	21625
596.016	21131
596.087	21005
596.157	21119
596.227	21667
596.297	22074
596.367	23674
596.437	24764
596.507	31776
596.577	43410
596.647	27218
596.717	21844
596.787	22377
596.857	21263
596.927	21759
596.997	21159
597.067	21958
597.137	23842
597.207	23212
597.277	20921
597.347	21768
597.417	21272
597.487	21707
597.557	22209
597.626	21652
597.696	23139
597.766	27070
597.836	38702
597.906	27361
597.975	20714
598.045	19462
598.115	19539
598.185	20128
598.254	21457
598.324	21203
598.394	21710
598.464	21031
598.533	21333
598.603	20177
598.672	20282
598.742	20783
598.812	19346
598.881	20380
598.951	19523
599.020	18582
599.090	19130
599.159	19344
599.229	18811
599.299	18473
599.368	18735
599.437	19836
599.507	18573
599.576	19974
599.646	21037
599.715	21296
599.785	19282
599.854	21088
599.924	23559
599.993	21288
600.062	18913
600.132	18091
600.201	19200
600.270	21052
600.340	19300
600.409	18854
600.478	18761
600.547	18600
600.617	20049
600.686	18667
600.755	18490
600.824	19407
600.894	18144
600.963	17227
601.032	16927
601.101	17531
601.170	17390
601.239	17595
601.308	17499
601.378	17305
601.447	16446
601.516	16476
601.585	16954
601.654	17876
601.723	16553
601.792	17521
601.861	17970
601.930	21208
601.999	19638
602.068	17222
602.137	17060
602.206	17166
602.275	17499
602.343	19006
602.412	19542
602.481	16855
602.550	16027
602.619	17347
602.688	16694
602.756	16876
602.825	17023
602.894	16221
602.963	16022
603.032	16791
603.100	16950
603.169	16598
603.238	17026
603.307	16841
603.375	15849
603.444	16059
603.513	15186
603.581	16494
603.650	16043
603.719	15948
603.787	15498
603.856	16660
603.924	16557
603.993	16618
604.061	15908
604.130	16185
604.198	16950
604.267	15947
604.335	16521
604.404	15547
604.472	16107
604.541	16940
604.609	15950
604.678	16558
604.746	15428
604.815	16413
604.883	17000
604.951	16321
605.020	15886
605.088	17037
605.156	17391
605.225	17540
605.293	15683
605.361	16909
605.429	16970
605.498	17210
605.566	17263
605.634	17396
605.702	17761
605.771	17497
605.839	18497
605.907	18059
605.975	17541
606.043	17393
606.111	16982
606.180	17041
606.248	19919
606.316	22619
606.384	17961
606.452	22029
606.520	21028
606.588	18291
606.656	15291
606.724	15758
606.792	16257
606.860	15448
606.928	14107
606.996	14329
607.064	13675
607.132	13798
607.200	14158
607.267	14730
607.335	13982
607.403	14758
607.471	14975
607.539	14650
607.607	14586
607.674	12968
607.742	14475
607.810	15295
607.878	13949
607.946	14502
608.013	14076
608.081	14938
608.149	14651
608.216	14150
608.284	15033
608.352	14617
608.419	15596
608.487	22216
608.555	19104
608.622	14063
608.690	14326
608.757	15109
608.825	14915
608.893	15170
608.960	16492
609.028	20376
609.095	25633
609.163	18361
609.230	15192
609.298	15169
609.365	13284
609.432	14029
609.500	14862
609.567	15133
609.635	16708
609.702	16242
609.769	17198
609.837	19212
609.904	16435
609.971	15033
610.039	17126
610.106	20915
610.173	31771
610.241	67513
610.308	81887
610.375	58486
610.442	21678
610.509	15043
610.577	15258
610.644	14545
610.711	14029
610.778	14282
610.845	14458
610.912	15503
610.980	16740
611.047	23105
611.114	20558
611.181	15240
611.248	12942
611.315	14814
611.382	14276
611.449	14161
611.516	15351
611.583	14306
611.650	15401
611.717	15967
611.784	14779
611.851	16735
611.918	18110
611.984	19942
612.051	26877
612.118	48043
612.185	113213
612.252	97350
612.319	24332
612.386	18342
612.452	16415
612.519	18503
612.586	25542
612.653	22350
612.719	16134
612.786	15646
612.853	14007
612.919	13891
612.986	14996
613.053	13652
613.120	12989
613.186	12948
613.253	14692
613.319	13644
613.386	15078
613.453	13769
613.519	15355
613.586	17507
613.652	23212
613.719	20259
613.785	18522
613.852	16321
613.918	14934
613.985	18565
614.051	25235
614.118	52419
614.184	66334
614.250	18506
614.317	14406
614.383	13519
614.449	12649
614.516	14055
614.582	15153
614.648	15060
614.715	13097
614.781	13375
614.847	14579
614.914	14701
614.980	15644
615.046	15021
615.112	14746
615.179	15750
615.245	19262
615.311	25149
615.377	44380
615.443	56601
615.509	26505
615.575	19053
615.642	18266
615.708	18599
615.774	20320
615.840	25071
615.906	33308
615.972	51181
616.038	101761
616.104	139697
616.170	171123
616.236	179260
616.302	42050
616.368	26480
616.434	21284
616.500	20692
616.565	19840
616.631	22506
616.697	19842
616.763	19819
616.829	24221
616.895	35813
616.961	38605
617.026	22477
617.092	16830
617.158	16558
617.224	15686
617.289	14731
617.355	16294
617.421	16521
617.487	16259
617.552	15877
617.618	14857
617.684	13963
617.749	16336
617.815	14341
617.880	13633
617.946	15482
618.012	14575
618.077	14802
618.143	13713
618.208	14711
618.274	14256
618.339	16219
618.405	13837
618.470	14590
618.536	15260
618.601	18149
618.667	16178
618.732	15281
618.798	14743
618.863	14599
618.928	14567
618.994	16653
619.059	17899
619.124	20844
619.190	18408
619.255	15368
619.320	15153
619.386	14956
619.451	14211
619.516	14329
619.581	14388
619.647	14534
619.712	13993
619.777	14324
619.842	14839
619.907	15190
619.972	15556
620.038	15832
620.103	14597
620.168	14171
620.233	14239
620.298	13335
620.363	13305
620.428	14928
620.493	14765
620.558	14371
620.623	13940
620.688	13519
620.753	14066
620.818	14078
620.883	13620
620.948	13476
621.013	14095
621.078	14471
621.143	13907
621.207	17426
621.272	16312
621.337	17223
621.402	18555
621.467	22581
621.532	27080
621.596	19629
621.661	18230
621.726	16650
621.791	17007
621.855	17649
621.920	18253
621.985	20052
622.049	24297
622.114	22634
622.179	19156
622.243	20902
622.308	18280
622.373	19658
622.437	19326
622.502	18213
622.566	18472
622.631	17905
622.695	18652
622.760	17952
622.824	18302
622.889	18543
622.953	19326
623.018	23390
623.082	25772
623.147	18424
623.211	18213
623.276	17635
623.340	17236
623.404	16159
623.469	16529
623.533	16965
623.597	16063
623.662	16043
623.726	16399
623.790	15886
623.854	15593
623.919	17321
623.983	16135
624.047	16405
624.111	16036
624.176	16346
624.240	17288
624.304	19755
624.368	16847
624.432	17120
624.496	16418
624.560	16808
624.625	17776
624.689	16373
624.753	16055
624.817	16262
624.881	15911
624.945	15635
625.009	15103
625.073	15090
625.137	15089
625.201	17883
625.265	19275
625.329	16162
625.393	16386
625.456	17090
625.520	17694
625.584	20727
625.648	25942
625.712	37361
625.776	84534
625.839	112634
625.903	56202
625.967	21571
626.031	32407
626.095	61077
626.158	26564
626.222	14714
626.286	13897
626.349	13318
626.413	12626
626.477	14321
626.540	12945
626.604	12524
626.668	13374
626.731	13287
626.795	14184
626.858	14055
626.922	12463
626.986	12675
627.049	12281
627.113	12035
627.176	12838
627.240	12588
627.303	12652
627.366	12441
627.430	13014
627.493	12699
627.557	12574
627.620	13333
627.684	12757
627.747	12498
627.810	11989
627.874	12684
627.937	11724
628.000	14006
628.064	12802
628.127	10728
628.190	11397
628.253	12339
628.317	11489
628.380	11593
628.443	10893
628.506	10930
628.569	11230
628.632	10729
628.696	11066
628.759	9929
628.822	10199
628.885	10257
628.948	10704
629.011	11315
629.074	10587
629.137	10182
629.200	10515
629.263	12017
629.326	10161
629.389	10257
629.452	10175
629.515	11082
629.578	10486
629.641	11355
629.704	10954
629.767	9848
629.830	9735
629.892	10253
629.955	9526
630.018	11290
630.081	10681
630.144	12427
630.207	11001
630.269	11885
630.332	12776
630.395	11104
630.458	9815
630.520	9310
630.583	10065
630.646	9242
630.708	8938
630.771	9616
630.834	8919
630.896	8323
630.959	8432
631.021	8876
631.084	9043
631.146	10154
631.209	12719
631.272	9627
631.334	8285
631.397	8443
631.459	7645
631.522	9067
631.584	8842
631.646	9218
631.709	8786
631.771	11271
631.834	10321
631.896	8344
631.958	7462
632.021	7511
632.083	7795
632.145	8771
632.208	8456
632.270	8587
632.332	8193
632.395	7881
632.457	9079
632.519	8408
632.581	7788
632.643	7696
632.706	7896
632.768	7994
632.830	8273
632.892	7918
632.954	7142
633.016	9543
633.078	7914
633.141	7769
633.203	8000
633.265	8042
633.327	8276
633.389	7812
633.451	8892
633.513	9889
633.575	10188
633.637	10586
633.698	8721
633.760	7493
633.822	7067
633.884	7631
633.946	7548
634.008	6965
634.070	7997
634.132	9364
634.193	8810
634.255	8266
634.317	7269
634.379	8160
634.441	7313
634.502	7813
634.564	7736
634.626	7942
634.687	8738
634.749	8016
634.811	6893
634.873	5741
634.934	7199
634.996	7618
635.057	6729
635.119	6213
635.181	6644
635.242	7626
635.304	6254
635.365	8080
635.427	6667
635.488	7282
635.550	6288
635.611	6571
635.673	5224
635.734	7964
635.796	7206
635.857	8516
635.918	6903
635.980	7405
636.041	7630
636.102	7352
636.164	7198
636.225	7879
636.286	6334
636.348	8417
636.409	6861
636.470	6288
636.531	6473
636.593	8657
636.654	9302
636.715	5920
636.776	5322
636.838	5970
636.899	7069
636.960	5354
637.021	5463
637.082	6190
637.143	6936
637.204	5628
637.265	5176
637.326	6533
637.387	6599
637.448	5745
637.509	5960
637.570	5905
637.631	6165
637.692	5381
637.753	5027
637.814	5296
637.875	5325
637.936	6054
637.997	5331
638.058	5439
638.119	6996
638.179	5480
638.240	5330
638.301	5902
638.362	4694
638.423	6359
638.483	5509
638.544	5135
638.605	6037
638.666	5095
638.726	5278
638.787	6021
638.848	4942
638.908	4836
638.969	4699
639.030	5197
639.090	5433
639.151	5365
639.211	5901
639.272	7513
639.332	10276
639.393	8576
639.453	5031
639.514	6245
639.574	4568
639.635	4458
639.695	5545
639.756	4717
639.816	6138
639.877	6371
639.937	9013
639.997	12702
640.058	6120
640.118	4846
640.178	5044
640.239	5140
640.299	5273
640.359	4397
640.420	5376
640.480	4926
640.540	4775
640.600	4724
640.661	4886
640.721	4765
640.781	6691
640.841	5635
640.901	5767
640.961	5097
641.021	5577
641.082	4023
641.142	7527
641.202	7480
641.262	3293
641.322	6428
641.382	4114
641.442	5057
641.502	5187
641.562	5804
641.622	4262
641.682	5075
641.742	5241
641.802	5281
641.861	4405
641.921	5330
641.981	6185
642.041	5268
642.101	6756
642.161	5173
642.221	3795
642.280	4496
642.340	4201
642.400	4174
642.460	5279
642.519	4597
642.579	4781
642.639	4817
642.698	2845
642.758	6374
642.818	4452
642.877	4584
642.937	4170
642.997	5720
643.056	7318
643.116	5491
643.175	4637
643.235	4173
643.294	4627
643.354	5681
643.414	5295
643.473	6066
643.532	5476
643.592	7128
643.651	9247
643.711	14389
643.770	22194
643.830	43316
643.889	118126
643.948	50720
644.008	7489
644.067	5399
644.126	3900
644.186	4653
644.245	5325
644.304	2984
644.363	5333
644.423	3899
644.482	4056
644.541	4705
644.600	3309
644.659	5506
644.719	4807
644.778	5383
644.837	5410
644.896	10007
644.955	19960
645.014	13767
645.073	6985
645.132	5237
645.191	4664
645.250	4546
645.309	5204
645.368	4793
645.427	6027
645.486	4486
645.545	7303
645.604	4740
645.663	4543
645.722	4654
645.781	4671
645.840	4824
645.898	4167
645.957	7020
646.016	6475
646.075	11832
646.134	18317
646.192	37936
646.251	84386
646.310	22545
646.369	5471
646.427	4873
646.486	4038
646.545	3523
646.603	4360
646.662	4669
646.721	4488
646.779	3534
646.838	3269
646.896	4895
646.955	4934
647.014	4965
647.072	5820
647.131	12029
647.189	10466
647.248	3687
647.306	3956
647.365	3493
647.423	1868
647.481	5165
647.540	2331
647.598	4092
647.657	3450
647.715	3933
647.773	3138
647.832	4592
647.890	3676
647.948	3217
648.007	4362
648.065	3420
648.123	3695
648.181	4923
648.240	5305
648.298	5078
648.356	3398
648.414	4555
648.472	4656
648.531	5039
648.589	4270
648.647	3993
648.705	3806
648.763	4377
648.821	3859
648.879	4100
648.937	4252
648.995	4142
649.053	4025
649.111	5626
649.169	7234
649.227	9185
649.285	13349
649.343	34044
649.401	33641
649.459	14223
649.516	14240
649.574	8881
649.632	19856
649.690	34382
649.748	13299
649.806	7929
649.863	14550
649.921	12487
649.979	9564
650.037	4833
650.094	2523
650.152	4248
650.210	2918
650.268	4227
650.325	3640
650.383	3796
650.440	2249
650.498	3804
650.556	2856
650.613	2754
650.671	3299
650.728	3920
650.786	3723
650.843	3886
650.901	1780
650.958	3222
651.016	2891
651.073	3271
651.131	2375
651.188	2696
651.246	3706
651.303	2271
651.360	3745
651.418	2250
651.475	3724
651.532	1686
651.590	3645
651.647	2254
651.704	2951
651.762	2770
651.819	3349
651.876	3553
651.933	3130
651.990	3834
652.048	2022
652.105	2749
652.162	2345
652.219	2599
652.276	3616
652.333	3353
652.390	1204
652.448	3315
652.505	3066
652.562	3592
652.619	3432
652.676	5406
652.733	7558
652.790	3195
652.847	2216
652.904	3430
652.961	1992
653.017	2067
653.074	3516
653.131	2648
653.188	2081
653.245	2727
653.302	3260
653.359	2371
653.415	2888
653.472	2637
653.529	3404
653.586	2084
653.642	1790
653.699	2851
653.756	1956
653.813	2946
653.869	3040
653.926	2540
653.983	2433
654.039	3527
654.096	2171
654.152	2880
654.209	1692
654.266	3701
654.322	2477
654.379	3804
654.435	3295
654.492	4091
654.548	4631
654.605	8548
654.661	6024
654.717	2461
654.774	3268
654.830	3104
654.887	2968
654.943	2391
655.000	4005
655.056	3530
655.112	3370
655.168	2824
655.225	3920
655.281	4085
655.337	4784
655.394	8713
655.450	7890
655.506	6342
655.562	7214
655.618	11072
655.675	3425
655.731	4266
655.787	3582
655.843	3727
655.899	2854
655.955	4492
656.011	3765
656.067	2914
656.123	4108
656.179	4877
656.235	6254
656.291	4154
656.347	5066
656.403	4281
656.459	5435
656.515	5019
656.571	4921
656.627	3811
656.683	2564
656.739	3574
656.795	3224
656.850	3416
656.906	3836
656.962	4390
657.018	1815
657.074	2820
657.129	3131
657.185	3592
657.241	3391
657.297	3052
657.352	3201
657.408	1898
657.464	3161
657.519	3344
657.575	2052
657.630	2627
657.686	2540
657.742	2121
657.797	2317
657.853	2414
657.908	3728
657.964	1973
658.019	2282
658.075	3626
658.130	2661
658.186	2390
658.241	2396
658.297	2410
658.352	1746
658.407	2803
658.463	2032
658.518	3363
658.573	3098
658.629	2327
658.684	1868
658.739	2861
658.795	1335
658.850	2060
658.905	1969
658.960	2891
659.016	2079
659.071	2328
659.126	2672
659.181	2642
659.236	4821
659.291	5830
659.346	3899
659.401	3030
659.457	4259
659.512	5437
659.567	4765
659.622	2519
659.677	1803
659.732	2729
659.787	2330
659.842	2623
659.897	4162
659.952	3729
660.007	2523
660.061	2560
660.116	1345
660.171	2564
660.226	2512
660.281	3619
660.336	1566
660.391	2855
660.445	2946
660.500	2444
660.555	2658
660.610	1829
660.664	2784
660.719	1784
660.774	2592
660.828	2404
660.883	2141
660.938	2446
660.992	1536
661.047	3108
661.101	3040
661.156	2113
661.211	1885
661.265	1822
661.320	2803
661.374	2891
661.429	1543
661.483	3052
661.538	2033
661.592	3043
661.647	1934
661.701	2886
661.755	2620
661.810	2335
661.864	2045
661.919	1696
661.973	2628
662.027	2528
662.081	1762
662.136	2940
662.190	3343
662.244	4059
662.299	2179
662.353	2905
662.407	2232
662.461	2800
662.515	3563
662.569	2912
662.624	3456
662.678	2263
662.732	2565
662.786	2208
662.840	3119
662.894	2549
662.948	2556
663.002	2465
663.056	2754
663.110	1988
663.164	2302
663.218	2191
663.272	2551
663.326	3062
663.380	3002
663.434	2397
663.488	2130
663.542	2884
663.595	2572
663.649	1879
663.703	3223
663.757	3310
663.811	1985
663.864	2514
663.918	2496
663.972	2054
664.026	2993
664.079	1566
664.133	2107
664.187	2724
664.240	2194
664.294	3050
664.348	2832
664.401	3169
664.455	2046
664.508	2436
664.562	2486
664.615	3632
664.669	1899
664.722	2980
664.776	2328
664.829	2233
664.883	2370
664.936	2304
664.990	2687
665.043	3249
665.097	2827
665.150	3929
665.203	2898
665.257	3930
665.310	3762
665.363	3115
665.417	2801
665.470	3227
665.523	3357
665.576	3453
665.630	3113
665.683	3016
665.736	3322
665.789	3390
665.842	2942
665.895	3428
665.949	2925
666.002	2286
666.055	3071
666.108	2814
666.161	2497
666.214	3465
666.267	3684
666.320	3766
666.373	4084
666.426	2883
666.479	2810
666.532	3843
666.585	3340
666.638	5155
666.691	4299
666.744	4566
666.796	4517
666.849	3445
666.902	4234
666.955	3773
667.008	2475
667.060	2384
667.113	2034
667.166	2456
667.219	2916
667.271	3005
667.324	2990
667.377	3024
667.430	3241
667.482	3217
667.535	4044
667.587	3159
667.640	3497
667.693	3613
667.745	3876
667.798	6033
667.850	4003
667.903	2934
667.955	3431
668.008	3516
668.060	4473
668.113	2838
668.165	3957
668.218	2968
668.270	2756
668.322	3681
668.375	3443
668.427	4559
668.479	2609
668.532	2996
668.584	3327
668.636	2613
668.689	3989
668.741	3292
668.793	3021
668.845	2869
668.898	3292
668.950	3710
669.002	3677
669.054	2236
669.106	3167
669.158	3749
669.211	3910
669.263	3761
669.315	3772
669.367	5001
669.419	4073
669.471	5106
669.523	4148
669.575	6909
669.627	6799
669.679	4725
669.731	4063
669.783	3866
669.835	4702
669.886	5695
669.938	4111
669.990	3912
670.042	2927
670.094	4475
670.146	4709
670.197	5582
670.249	7426
670.301	9206
670.353	12717
670.404	19068
670.456	27186
670.508	39053
670.560	57635
670.611	86886
670.663	135602
670.715	263988
670.766	587426
670.818	357543
670.869	58019
670.921	18967
670.972	13462
671.024	9872
671.075	8022
671.127	7086
671.178	5285
671.230	5790
671.281	5128
671.333	5247
671.384	4376
671.436	5299
671.487	5392
671.538	5076
671.590	5161
671.641	5796
671.692	7148
671.744	8702
671.795	8476
671.846	5583
671.897	4767
671.949	4215
672.000	4320
672.051	2853
672.102	4774
672.153	3553
672.204	4152
672.256	3846
672.307	3658
672.358	4002
672.409	4179
672.460	4470
672.511	3101
672.562	3357
672.613	3248
672.664	3364
672.715	4195
672.766	3842
672.817	3179
672.868	3237
672.919	3179
672.970	3059
673.021	3200
673.071	2645
673.122	3134
673.173	3238
673.224	2226
673.275	3005
673.326	3104
673.376	3184
673.427	2600
673.478	3126
673.528	3044
673.579	2800
673.630	2386
673.680	3256
673.731	2745
673.782	2525
673.832	3275
673.883	3530
673.934	3206
673.984	2894
674.035	3462
674.085	3374
674.136	2732
674.186	3834
674.237	4080
674.287	6604
674.338	4746
674.388	3345
674.438	2783
674.489	3036
674.539	3168
674.589	3072
674.640	3517
674.690	2866
674.740	2341
674.791	3800
674.841	3290
674.891	3631
674.942	2948
674.992	2983
675.042	3304
675.092	2271
675.142	2623
675.193	3558
675.243	2261
675.293	2990
675.343	2537
675.393	2826
675.443	3009
675.493	3329
675.543	1700
675.593	2286
675.643	3306
675.693	2793
675.743	2440
675.793	3480
675.843	2134
675.893	2855
675.943	2935
675.993	2522
676.043	2301
676.093	2725
676.142	2286
676.192	3751
676.242	3261
676.292	3052
676.341	2529
676.391	2501
676.441	1528
676.491	1839
676.540	2614
676.590	2458
676.640	2373
676.689	1997
676.739	2454
676.789	2489
676.838	1827
676.888	3226
676.937	1474
676.987	1863
677.037	2856
677.086	2254
677.136	2263
677.185	2698
677.235	2059
677.284	1484
677.333	1509
677.383	2280
677.432	2699
677.482	2808
677.531	2379
677.580	1448
677.630	2024
677.679	1856
677.728	1751
677.778	1963
677.827	1895
677.876	1468
677.925	2151
677.975	2140
678.024	2100
678.073	2130
678.122	2149
678.171	2934
678.220	2197
678.269	2754
678.319	3558
678.368	2339
678.417	2348
678.466	2985
678.515	2632
678.564	2965
678.613	2686
678.662	1909
678.711	1869
678.760	2563
678.809	2050
678.857	2511
678.906	1662
678.955	2735
679.004	2385
679.053	2685
679.102	2261
679.151	2503
679.199	2406
679.248	2296
679.297	1922
679.346	2267
679.394	2565
679.443	2350
679.492	2195
679.540	1893
679.589	2562
679.638	2541
679.686	2538
679.735	1729
679.784	2421
679.832	2063
679.881	1180
679.929	2190
679.978	1756
680.026	2219
680.075	2619
680.123	1349
680.172	1961
680.220	1924
680.268	1914
680.317	1745
680.365	2108
680.414	1665
680.462	1676
680.510	2658
680.559	1467
680.607	1580
680.655	2213
680.703	1274
680.752	1638
680.800	2165
680.848	1745
680.896	1583
680.945	958
680.993	1813
681.041	1950
681.089	2071
681.137	864
681.185	1501
681.233	2605
681.258	2073
681.281	1559
681.329	1705
681.377	1942
681.380	1916
681.425	1237
681.473	1607
681.502	1981
681.521	2219
681.569	2577
681.617	2397
681.624	2335
681.665	1865
681.713	2146
681.745	2064
681.761	2000
681.809	1947
681.857	2816
681.867	2535
681.904	1541
681.952	2411
681.989	2303
682.000	2260
682.048	1937
682.096	1284
682.111	1439
682.143	1722
682.191	2065
682.233	2495
682.239	2550
682.286	1821
682.334	2060
682.354	1802
682.382	1428
682.430	2739
682.476	2145
682.477	2123
682.525	1896
682.572	1284
682.598	1656
682.620	1960
682.667	1745
682.715	2303
682.720	2332
682.763	2513
682.810	1890
682.841	2147
682.857	2277
682.905	2325
682.952	2097
682.963	2103
683.000	2018
683.047	2702
683.085	2231
683.095	2099
683.142	2310
683.190	1887
683.206	2162
683.237	2654
683.284	2573
683.328	2671
683.332	2670
683.379	2181
683.426	1741
683.449	1732
683.473	1700
683.521	2536
683.568	2118
683.571	2113
683.615	1920
683.662	2038
683.693	1682
683.709	1496
683.757	1777
683.804	2023
683.814	2026
683.851	2028
683.898	2970
683.936	2299
683.945	2104
683.992	2230
684.039	1643
684.057	2022
684.086	2679
684.133	1923
684.179	3046
684.180	3074
684.227	2937
684.274	2137
684.300	2704
684.321	3116
684.368	2457
684.415	2596
684.422	2548
684.462	2270
684.509	2554
684.543	2743
684.556	2823
684.603	2788
684.649	2079
684.665	2323
684.696	2799
684.743	2610
684.786	2478
684.790	2464
684.837	2810
684.883	3329
684.908	2773
684.930	2248
684.977	3696
685.023	2646
685.029	2694
685.070	2892
685.117	3334
685.150	2918
685.164	2776
685.210	3593
685.257	3999
685.272	3908
685.303	3614
685.350	3107
685.393	3533
685.396	3568
685.443	3201
685.490	3410
685.514	3315
685.536	3249
685.583	3538
685.629	3680
685.636	3636
685.675	3202
685.722	3416
685.757	3751
685.768	3916
685.815	3943
685.861	3744
685.878	3930
685.908	4128
685.954	3220
686.000	3825
686.000	3835
686.047	4432
686.093	4419
686.121	4920
686.139	5183
686.185	4453
686.232	4031
686.242	4122
686.278	4270
686.324	3893
686.363	3633
686.370	3629
686.416	3490
686.463	3805
686.484	3624
686.509	3350
686.555	4082
686.601	3459
686.606	3534
686.647	4184
686.693	3275
686.727	3501
686.739	3603
686.785	3406
686.831	3772
686.848	3874
686.877	4009
686.923	3682
686.969	3352
686.969	3350
687.015	3439
687.061	3217
687.090	3897
687.107	4236
687.153	3724
687.199	3701
687.211	3595
687.245	3447
687.291	3365
687.332	3818
687.336	3862
687.382	4126
687.428	4252
687.453	4345
687.474	4283
687.520	3475
687.565	3375
687.574	3325
687.611	3405
687.657	3882
687.695	4056
687.702	4079
687.748	4027
687.794	4317
687.816	4221
687.839	4033
687.885	3948
687.931	3828
687.937	3759
687.976	3470
688.022	3791
688.058	3797
688.067	3792
688.113	4120
688.158	3537
688.179	3656
688.204	3881
688.249	3859
688.295	4276
688.300	4268
688.340	4260
688.386	4612
688.421	4488
688.431	4395
688.477	4058
688.522	4057
688.542	4147
688.567	4380
688.613	3971
688.658	4271
688.663	4249
688.703	4007
688.749	4164
688.784	4131
688.794	4139
688.839	4320
688.884	4242
688.905	4327
688.930	4391
688.975	4130
689.020	3949
689.026	3910
689.065	3669
689.110	4100
689.146	3885
689.155	3876
689.201	3798
689.246	3857
689.267	3925
689.291	3949
689.336	4149
689.381	4405
689.388	4411
689.426	4435
689.471	4197
689.509	4464
689.516	4534
689.561	4148
689.606	4064
689.630	4301
689.651	4454
689.696	4307
689.741	4275
689.750	4301
689.785	4574
689.830	4765
689.871	4524
689.875	4470
689.920	4172
689.965	3988
689.992	3868
690.010	3926
690.054	3818
690.099	4175
690.112	4082
690.144	3782
690.189	3911
690.233	3934
690.233	3940
690.278	4185
690.323	4423
690.354	4346
690.367	4330
690.412	4272
690.457	4620
690.474	4732
690.501	4874
690.546	4805
690.590	4912
690.595	4897
690.635	4707
690.680	4779
690.716	4733
690.724	4791
690.769	5025
690.813	5293
690.836	5488
690.857	5888
690.902	6733
690.946	7488
690.957	7681
690.991	9819
691.035	13112
691.077	16828
691.080	16931
691.124	16664
691.168	16375
691.198	16005
691.213	14738
691.257	11692
691.301	8044
691.318	6810
691.346	6354
691.390	5702
691.434	4870
691.439	4801
691.478	4947
691.522	5157
691.559	5141
691.567	5175
691.611	5290
691.655	5297
691.680	5430
691.699	5338
691.743	5240
691.787	4708
691.800	4494
691.831	4415
691.875	5040
691.919	5504
691.921	5492
691.964	5186
692.008	5584
692.041	5357
692.052	5304
692.096	5407
692.139	5464
692.162	5465
692.183	5462
692.227	5283
692.271	5717
692.282	5730
692.315	5785
692.359	5479
692.402	5516
692.403	5528
692.447	5342
692.490	5966
692.523	5821
692.534	5757
692.578	6037
692.622	5862
692.643	5739
692.666	5639
692.709	5491
692.753	5508
692.763	5594
692.797	5860
692.840	5335
692.884	5490
692.884	5504
692.928	5479
692.971	5296
693.004	5642
693.015	5782
693.059	5702
693.102	5795
693.124	5603
693.146	5476
693.189	5669
693.233	5845
693.245	5879
693.276	6091
693.320	6412
693.363	6380
693.365	6375
693.407	6714
693.450	7415
693.485	7615
693.493	7706
693.537	7910
693.580	8437
693.605	8836
693.624	9643
693.667	11405
693.710	13156
693.725	13785
693.753	18082
693.797	25008
693.840	32800
693.845	33529
693.883	33953
693.926	33023
693.966	33111
693.970	32372
694.013	23935
694.056	15507
694.086	9915
694.099	9575
694.142	8437
694.185	7451
694.206	6959
694.229	6946
694.272	6669
694.315	6811
694.326	6709
694.358	6518
694.401	6350
694.444	6277
694.446	6258
694.487	6339
694.530	6277
694.566	6272
694.573	6265
694.616	6351
694.659	6096
694.686	6103
694.702	6032
694.745	5627
694.787	5098
694.806	4985
694.830	5201
694.873	5277
694.916	5733
694.926	5730
694.959	5603
695.002	5732
695.044	5510
695.046	5505
695.087	5711
695.130	5643
695.166	5560
695.172	5575
695.215	5614
695.258	5546
695.286	5640
695.301	5707
695.343	5679
695.386	5777
695.406	5811
695.428	5765
695.471	5294
695.514	5429
695.526	5279
695.556	5051
695.599	5271
695.641	5077
695.646	5059
695.684	5359
695.726	5680
695.766	5824
695.769	5830
695.811	5902
695.854	5919
695.886	5873
695.896	5840
695.938	5673
695.981	5370
696.005	5238
696.023	5332
696.065	5573
696.108	5774
696.125	5869
696.150	5946
696.192	6009
696.235	5875
696.245	5900
696.277	5953
696.319	5849
696.361	5690
696.365	5678
696.404	6019
696.446	6004
696.485	6295
696.488	6309
696.530	6101
696.572	5889
696.604	5741
696.614	5798
696.656	6045
696.698	6255
696.724	6280
696.740	6215
696.783	6128
696.825	6129
696.844	6022
696.867	5979
696.909	5859
696.951	5903
696.964	5895
696.992	5889
697.034	5669
697.076	5524
697.083	5489
697.118	5739
697.160	6091
697.202	6323
697.203	6313
697.244	6113
697.286	5792
697.323	5514
697.327	5548
697.369	5724
697.411	5820
697.442	5910
697.453	5931
697.494	5966
697.536	5958
697.562	5964
697.578	5974
697.620	5936
697.661	5841
697.682	5797
697.703	5825
697.744	5825
697.786	5950
697.801	5930
697.828	6168
697.869	6585
697.911	6924
697.921	6991
697.952	6864
697.994	6700
698.035	6539
698.040	6499
698.077	6362
698.118	6168
698.160	5991
698.160	5971
698.201	5793
698.243	5470
698.279	5269
698.284	5322
698.325	5603
698.367	5932
698.399	6157
698.408	6175
698.449	6159
698.491	6166
698.518	6149
698.532	6072
698.573	5791
698.614	5495
698.638	5312
698.656	5420
698.697	5626
698.738	5842
698.757	5917
698.779	5984
698.820	6103
698.862	6213
698.877	6234
698.903	6445
698.944	6757
698.985	7069
698.996	7137
699.026	6898
699.067	6538
699.116	6092
699.235	6408
699.354	6601
699.474	6355
699.593	7112
699.713	6873
699.832	6497
699.951	6738
700.070	6717
700.190	6028
700.309	7150
700.428	7625
700.547	7131
700.667	6240
700.786	6581
700.905	6408
701.024	6368
701.143	6626
701.262	5720
701.381	5599
701.500	6303
701.619	6304
701.738	5298
701.857	5989
701.976	5317
702.095	5029
702.214	6063
702.333	5796
702.452	6113
702.571	5606
702.690	5171
702.809	5855
702.928	5653
703.047	5238
703.165	6192
703.284	4700
703.403	6209
703.522	5963
703.640	6419
703.759	7179
703.878	10847
703.997	6205
704.115	5810
704.234	4972
704.353	5322
704.471	5064
704.590	4108
704.708	4225
704.827	4531
704.946	5019
705.064	6133
705.183	5247
705.301	6220
705.420	10232
705.538	9474
705.656	7995
705.775	7382
705.893	13115
706.012	21248
706.130	9043
706.249	8640
706.367	8334
706.485	7665
706.604	7716
706.722	7576
706.840	9257
706.958	10774
707.077	8294
707.195	7665
707.313	7553
707.431	6736
707.549	6893
707.668	6745
707.786	5890
707.904	7056
708.022	7213
708.140	6074
708.258	7155
708.376	7145
708.494	6681
708.612	8302
708.730	11541
708.848	11838
708.966	10052
709.084	9551
709.202	9242
709.320	9129
709.438	9386
709.556	8717
709.674	9430
709.791	9681
709.909	8585
710.027	8921
710.145	8572
710.263	8913
710.380	9064
710.498	9076
710.616	8486
710.733	8591
710.851	9955
710.969	9507
711.086	9113
711.204	8772
711.322	7972
711.439	9494
711.557	9040
711.674	8429
711.792	8464
711.909	9170
712.027	9945
712.144	8162
712.262	7691
712.379	9052
712.497	12676
712.614	14274
712.732	12013
712.849	10371
712.966	11741
713.084	13213
713.201	11107
713.318	11098
713.436	10563
713.553	11272
713.670	10992
713.787	12334
713.905	12085
714.022	11068
714.139	9640
714.256	11306
714.373	11772
714.490	11831
714.608	14950
714.725	33891
714.842	50787
714.959	12426
715.076	9676
715.193	8814
715.310	9849
715.427	9470
715.544	9513
715.661	9617
715.778	9964
715.895	11122
716.011	10250
716.128	9778
716.245	9098
716.362	9750
716.479	10423
716.596	9479
716.713	9138
716.829	9744
716.946	9652
717.063	8280
717.180	8634
717.296	8980
717.413	8588
717.530	7757
717.646	8097
717.763	8282
717.880	8241
717.996	7741
718.113	8989
718.229	7961
718.346	7274
718.462	7828
718.579	9061
718.695	10933
718.812	11480
718.928	11073
719.045	9545
719.161	6634
719.277	7280
719.394	6870
719.510	7991
719.626	7645
719.743	9496
719.859	8637
719.975	8346
720.092	11990
720.208	23489
720.324	11027
720.440	7762
720.557	8679
720.673	10699
720.789	16603
720.905	37255
721.021	18102
721.137	7022
721.253	7502
721.369	7534
721.486	8091
721.602	12144
721.718	8053
721.834	5881
721.950	6698
722.066	6551
722.181	6020
722.297	6346
722.413	6259
722.529	6137
722.645	6899
722.761	6196
722.877	6404
722.993	6890
723.108	6097
723.224	5764
723.340	6464
723.456	6394
723.571	6730
723.687	6391
723.803	5996
723.918	5070
724.034	5978
724.150	6230
724.265	6772
724.381	12468
724.497	19359
724.612	7364
724.728	5996
724.843	5322
724.959	7111
725.074	13559
725.190	18622
725.305	6633
725.421	6348
725.536	4623
725.651	4736
725.767	4658
725.882	4629
725.997	4503
726.113	4687
726.228	4861
726.343	5121
726.459	4598
726.574	4916
726.689	5100
726.804	4431
726.920	4672
727.035	4920
727.150	5534
727.265	4843
727.380	5591
727.495	5772
727.610	4329
727.725	5825
727.841	5254
727.956	9112
728.071	10947
728.186	5362
728.301	3364
728.416	4573
728.531	4133
728.645	4778
728.760	4862
728.875	5677
728.990	4899
729.105	5040
729.220	4605
729.335	4548
729.449	4076
729.564	3867
729.679	4391
729.794	3840
729.908	4395
730.023	4847
730.138	3500
730.253	3665
730.367	3740
730.482	3982
730.596	3520
730.711	5241
730.826	3468
730.940	3453
731.055	3785
731.169	3839
731.284	3921
731.398	3313
731.513	3847
731.627	4437
731.742	4658
731.856	5492
731.970	2542
732.085	3733
732.199	3585
732.313	3617
732.428	3994
732.542	9777
732.656	9352
732.771	3843
732.885	3689
732.999	3673
733.113	4963
733.227	4016
733.342	2780
733.456	3018
733.570	3582
733.684	3114
733.798	2668
733.912	2981
734.026	2340
734.140	3263
734.254	4279
734.368	7632
734.482	11185
734.596	3478
734.710	3159
734.824	3194
734.938	2435
735.052	2753
735.166	3903
735.280	3920
735.393	3420
735.507	2882
735.621	4844
735.735	9068
735.849	5291
735.962	2792
736.076	3754
736.190	3905
736.303	4920
736.417	8350
736.531	3756
736.644	3494
736.758	3064
736.872	3251
736.985	2860
737.099	3614
737.212	2389
737.326	3350
737.439	3175
737.553	3117
737.666	2859
737.780	2412
737.893	2965
738.007	2666
738.120	3182
738.233	3305
738.347	2451
738.460	2711
738.573	2632
738.687	2249
738.800	3008
738.913	2841
739.026	2413
739.140	3033
739.253	3058
739.366	2034
739.479	2308
739.592	2859
739.705	2922
739.818	2559
739.932	2747
740.045	2727
740.158	1983
740.271	2506
740.384	3014
740.497	3330
740.610	3512
740.723	2145
740.836	3013
740.949	3694
741.062	3833
741.174	3377
741.287	2007
741.400	3018
741.513	3412
741.626	3848
741.739	2625
741.851	2062
741.964	2453
742.077	2338
742.189	2964
742.302	5646
742.415	5610
742.527	3450
742.640	2368
742.753	2850
742.865	1789
742.978	2168
743.090	2388
743.203	1900
743.316	1743
743.428	1853
743.541	1646
743.653	1841
743.766	2191
743.878	2138
743.990	3369
744.103	5280
744.215	6651
744.327	3201
744.440	2893
744.552	3512
744.664	2522
744.777	2378
744.889	2186
745.001	1853
745.113	1262
745.226	2259
745.338	2155
745.450	2239
745.562	2162
745.674	2162
745.786	1741
745.898	1266
746.010	1702
746.122	1353
746.234	1896
746.347	1827
746.459	2772
746.570	2458
746.682	3947
746.794	8579
746.906	4989
747.018	1550
747.130	1379
747.242	1668
747.354	1530
747.466	2518
747.577	2406
747.689	1946
747.801	1858
747.913	1024
748.024	1691
748.136	1666
748.248	1596
748.359	1909
748.471	1552
748.583	1829
748.694	2174
748.806	3086
748.918	2195
749.029	2155
749.141	1970
749.252	1934
749.364	2325
749.475	3944
749.587	4082
749.698	1710
749.809	2258
749.921	1468
750.032	1428
750.144	1491
750.255	1868
750.366	1169
750.478	1001
750.589	1917
750.700	2180
750.811	1537
750.923	2306
751.034	4264
751.145	4847
751.256	1633
751.367	1502
751.479	1612
751.590	1546
751.701	1292
751.812	1422
751.923	2017
752.034	1556
752.145	1580
752.256	1214
752.367	1379
752.478	1306
752.589	2262
752.700	1354
752.811	2244
752.922	1746
753.032	1786
753.143	1965
753.254	2113
753.365	1945
753.476	1589
753.586	2398
753.697	1334
753.808	1636
753.919	1428
754.029	1957
754.140	1911
754.251	1710
754.361	1460
754.472	1290
754.582	1263
754.693	1765
754.804	1982
754.914	1666
755.025	1161
755.135	1143
755.246	1359
755.356	1260
755.466	2137
755.577	2173
755.687	1728
755.798	1539
755.908	2271
756.018	469
756.129	1426
756.239	1799
756.349	1787
756.460	1111
756.570	1542
756.680	1176
756.790	1316
756.900	2137
757.011	2698
757.121	1847
757.231	1681
757.341	1483
757.451	1195
757.561	1867
757.671	1374
757.781	1421
757.891	2105
758.001	1800
758.111	2689
758.221	1906
758.331	2179
758.441	1955
758.551	2236
758.661	2928
758.771	1865
758.880	2181
758.990	2572
759.100	2455
759.210	1536
759.320	2189
759.429	2375
759.539	3047
759.649	2551
759.758	2351
759.868	2593
759.978	1998
760.087	2356
760.197	2900
760.307	1265
760.416	1972
760.526	1863
760.635	2283
760.745	2880
760.854	1966
760.964	2129
761.073	2769
761.182	2425
761.292	3065
761.401	3523
761.511	2668
761.620	2672
761.729	2789
761.839	3645
761.948	3697
762.057	3647
762.166	2560
762.276	3243
762.385	3605
762.494	2700
762.603	3279
762.712	3322
762.822	3972
762.931	3768
763.040	3274
763.149	3111
763.258	3281
763.367	4971
763.476	3935
763.585	4546
763.694	5536
763.803	5291
763.912	4939
764.021	4648
764.130	5304
764.238	5894
764.347	5493
764.456	5489
764.565	7135
764.674	7497
764.783	7260
764.891	7577
765.000	9680
765.109	9758
765.217	11356
765.326	13660
765.435	17772
765.543	20644
765.652	24987
765.761	32814
765.869	47144
765.978	71232
766.086	122669
766.195	229575
766.303	480621
766.412	831379
766.520	798381
766.629	506174
766.737	212001
766.846	112222
766.954	73069
767.062	52099
767.171	38943
767.279	29667
767.387	22509
767.496	20013
767.604	16997
767.712	14755
767.820	13732
767.928	12393
768.037	10629
768.145	10417
768.253	10254
768.361	9144
768.469	9473
768.577	10104
768.685	10533
768.793	11095
768.901	12000
769.009	13278
769.117	16312
769.225	20938
769.333	29867
769.441	47351
769.549	88233
769.657	186571
769.765	456448
769.873	729061
769.981	503984
770.088	175047
770.196	76987
770.304	45745
770.412	31818
770.519	23594
770.627	17981
770.735	14752
770.842	11854
770.950	9581
771.058	8575
771.165	8565
771.273	7186
771.380	6988
771.488	7155
771.595	5691
771.703	4663
771.810	5738
771.918	5353
772.025	4665
772.133	4225
772.240	4619
772.348	3869
772.455	3872
772.562	3886
772.670	4012
772.777	3451
772.884	3540
772.991	3090
773.099	3691
773.206	3156
773.313	3057
773.420	3375
773.528	3178
773.635	2373
773.742	2692
773.849	2268
773.956	2338
774.063	2935
774.170	2606
774.277	3332
774.384	3349
774.491	2779
774.598	3353
774.705	2680
774.812	2536
774.919	2973
775.026	2674
775.133	2083
775.239	2831
775.346	2264
775.453	2965
775.560	2434
775.667	2414
775.773	2082
775.880	2631
775.987	2420
776.093	2804
776.200	2248
776.307	1924
776.413	2073
776.520	2361
776.627	2398
776.733	2921
776.840	2327
776.946	4834
777.053	6463
777.159	15638
777.266	10042
777.372	13289
777.478	12631
777.585	7439
777.691	2632
777.798	2277
777.904	3299
778.010	3505
778.117	2819
778.223	2142
778.329	1924
778.435	1703
778.542	2227
778.648	1991
778.754	1369
778.860	2156
778.966	1718
779.072	1605
779.178	2372
779.284	2363
779.391	2128
779.497	876
779.603	2686
779.708	4629
779.815	10085
779.920	34832
780.026	85321
780.132	17453
780.238	3262
780.344	1498
780.450	2722
780.556	1580
780.661	1539
780.767	1085
780.873	1325
780.979	1496
781.085	1228
781.190	2026
781.296	1871
781.402	1747
781.507	1116
781.613	1518
781.719	1577
781.824	1247
781.930	1855
782.035	1778
782.141	2435
782.246	1741
782.352	2060
782.457	997
782.563	1590
782.668	1096
782.773	939
782.879	1327
782.984	2091
783.090	1252
783.195	2113
783.300	2336
783.405	1207
783.511	2304
783.616	1781
783.721	1918
783.826	1688
783.932	1278
784.037	2422
784.142	1674
784.247	1573
784.352	1480
784.457	1822
784.562	1799
784.667	1384
784.772	1749
784.877	1569
784.982	2175
785.087	1628
785.192	2052
785.297	907
785.402	1128
785.507	1170
785.611	320
785.716	1901
785.821	844
785.926	303
786.031	760
786.135	1248
786.240	1326
786.345	-72
786.450	1647
786.554	785
786.659	1427
786.763	610
786.868	569
786.973	1470
787.077	564
787.182	1488
787.286	1146
787.391	563
787.495	956
787.600	248
787.704	97
787.809	1040
787.913	298
788.017	1295
788.122	1059
788.226	221
788.330	440
788.435	-264
788.539	366
788.643	406
788.747	940
788.852	475
788.956	1154
789.060	1269
789.164	951
789.268	705
789.372	1113
789.476	655
789.580	891
789.684	1283
789.788	509
789.892	78
789.996	841
790.100	316
790.204	281
790.308	1060
790.412	1286
790.516	1017
790.620	940
790.724	583
790.828	1104
790.931	620
791.035	1433
791.139	357
791.242	705
791.346	1293
791.450	553
791.554	-327
791.657	443
791.761	1136
791.864	561
791.968	1252
792.072	857
792.175	307
792.279	339
792.382	423
792.486	504
792.589	597
792.693	1333
792.796	288
792.899	831
793.003	887
793.106	-418
793.209	662
793.313	1183
793.416	-293
793.519	1076
793.623	640
793.726	1881
793.829	1296
793.932	513
794.035	369
794.138	1183
794.242	1253
794.345	1824
794.448	2270
794.551	5552
794.654	17634
794.757	41822
794.860	10786
794.963	2027
795.066	404
795.169	1257
795.272	-164
795.375	461
795.477	-205
795.580	547
795.683	-757
795.786	439
795.889	-537
795.991	797
796.094	1448
796.197	130
796.300	1046
796.402	-322
796.505	-2
796.608	-206
796.710	569
796.813	-284
796.915	312
797.018	543
797.120	612
797.223	-468
797.326	794
797.428	664
797.530	179
797.633	-280
797.735	1430
797.838	2206
797.940	1470
798.042	-741
798.145	206
798.247	-109
798.349	-237
798.452	538
798.554	-427
798.656	-289
798.758	542
798.860	77
798.962	-365
799.065	707
799.167	-40
799.269	635
799.371	640
799.473	1033
799.575	-99
799.677	1279
799.779	1325
799.881	-527
799.983	674
800.085	282
800.187	64
800.289	116
800.390	372
800.492	334
800.594	-446
800.696	-427
800.798	554
800.899	1
801.001	-530
801.103	107
801.205	182
801.306	-384
801.408	-871
801.509	-687
801.611	-407
801.713	170
801.814	296
801.916	-558
802.017	-30
802.119	197
802.220	319
802.322	-1302
802.423	1997
802.525	51
802.626	736
802.727	363
802.829	310
802.930	-2252
803.031	800
803.133	-264
803.234	-1405
803.335	-166
803.436	-437
803.538	-219
803.639	-702
803.740	174
803.841	-749
803.942	-330
804.043	-201
804.144	-286
804.245	-194
804.346	-50
804.447	-225
804.548	-149
804.649	1268
804.750	-219
804.851	-168
804.952	-419
805.053	-183
805.154	-1005
805.255	129
805.355	-485
805.456	-167
805.557	-825
805.658	-1337
805.758	-285
805.859	384
805.960	-888
806.061	-812
806.161	-267
806.262	-813
806.362	-814
806.463	-1194
806.564	312
806.664	345
806.765	234
806.865	618
806.966	29
807.066	-127
807.166	182
807.267	-250
807.367	-60
807.468	368
807.568	-1143
807.668	486
807.769	-289
807.869	-922
807.969	291
808.069	-357
808.170	-418
808.270	-651
808.370	-338
808.470	-59
808.570	-1713
808.670	199
808.770	-568
808.870	-1393
808.970	553
809.070	-240
809.170	-961
809.271	-279
809.370	1
809.470	-225
809.570	-566
809.670	-748
809.770	-718
809.870	234
809.970	-172
810.070	-495
810.169	-1118
810.269	-1362
810.369	-33
810.469	-2
810.568	-522
810.668	-247
810.768	-1259
810.867	-471
810.967	-330
811.066	-794
811.166	29
811.265	-418
811.365	-1009
811.464	-286
811.564	-102
811.663	-1070
811.763	-406
811.862	-173
811.962	2
812.061	-360
812.160	-597
812.260	29
812.359	-809
812.458	600
812.557	1305
812.657	2146
812.756	291
812.855	56
812.954	28
813.053	-287
813.153	-476
813.252	-989
813.351	-253
813.450	-42
813.549	-992
813.648	-359
813.747	-587
813.846	-39
813.945	147
814.044	-611
814.143	-785
814.242	-80
814.341	-433
814.439	-141
814.538	-716
814.637	153
814.736	-195
814.835	-293
814.933	-324
815.032	81
815.131	-897
815.229	-210
815.328	-485
815.427	-217
815.525	-645
815.624	-636
815.722	-528
815.821	392
815.919	430
816.018	-303
816.116	517
816.215	-220
816.313	-139
816.412	-213
816.510	353
816.609	926
816.707	-5
816.805	656
816.904	715
817.002	597
817.100	1072
817.198	774
817.296	1493
817.395	1498
817.493	2351
817.591	2082
817.689	4402
817.787	5917
817.885	12380
817.983	23763
818.081	53357
818.179	133551
818.277	340832
818.375	359456
818.473	91599
818.571	25912
818.669	15534
818.767	14529
818.865	14167
818.963	16243
819.061	24530
819.158	47714
819.256	105163
819.354	244265
819.452	560617
819.549	438614
819.647	110452
819.745	35825
819.842	20113
819.940	12990
820.038	8757
820.135	7439
820.233	5229
820.330	3507
820.428	2894
820.525	3137
820.623	2805
820.720	1290
820.818	1247
820.915	1766
821.012	2204
821.110	645
821.207	1208
821.304	813
821.402	1089
821.499	1995
821.596	4698
821.693	2845
821.791	656
821.888	398
821.985	1918
822.082	942
822.179	1421
822.276	1882
822.373	568
822.470	832
822.567	560
822.664	-858
822.761	345
822.858	-1158
822.955	-591
823.052	-123
823.149	13
823.246	-284
823.343	121
823.440	167
823.536	-827
823.633	-503
823.730	-710
823.827	-500
823.923	-738
824.020	270
824.117	222
824.213	-46
824.310	594
824.407	-484
824.503	-569
824.600	-879
824.696	-843
824.793	-4
824.889	-1000
824.986	-708
825.082	-18
825.179	44
825.275	-998
825.371	-937
825.468	-1071
825.564	-1370
825.660	-1416
825.757	-784
825.853	286
825.949	-1691
826.045	-396
826.142	-194
826.238	-2085
826.334	54
826.430	-857
826.526	-252
826.622	-600
826.718	-1151
826.814	-1164
826.910	-787
827.006	-1086
827.102	-621
827.198	-445
827.294	-474
827.390	-713
827.486	-145
827.582	-1160
827.678	-1284
827.774	-640
827.869	-1409
827.965	-535
828.061	-1257
828.157	-907
828.252	-1476
828.348	-1509
828.444	-942
828.539	-1504
828.635	-1299
828.731	-1077
828.826	-1432
828.922	-813
829.017	-1181
829.113	-534
829.208	-397
829.304	-1303
829.399	-978
829.495	-1905
829.590	-564
829.685	-937
829.781	-881
829.876	-452
829.971	-1207
830.066	-874
830.162	-1107
830.257	-1091
830.352	-393
830.447	-451
830.543	-601
830.638	-1759
830.733	-316
830.828	-1242
830.923	-100
831.018	-655
831.113	-1608
831.208	-1335
831.303	-1108
831.398	-599
831.493	-1276
831.588	-779
831.683	-1303
831.778	-150
831.873	-542
831.967	-917
832.062	-1544
832.157	-1594
832.252	-235
832.346	-965
832.441	-471
832.536	321
832.631	92
832.725	707
832.820	-651
832.914	-1848
833.009	-915
833.104	-198
833.198	-400
833.293	-1466
833.387	-851
833.482	-1522
833.576	-1219
833.670	-154
833.765	-1048
833.859	-745
833.954	-541
834.048	-1327
834.142	-542
834.237	-1219
834.331	-894
834.425	-782
834.519	-1367
834.613	217
834.708	-1835
834.802	-171
834.896	-1332
834.990	-1493
835.084	-596
835.178	-1076
835.272	-820
835.366	-1204
835.460	-1477
835.554	-293
835.648	-489
835.742	-994
835.836	-840
835.930	-1919
836.024	-891
836.117	-934
836.211	-949
836.305	-299
836.399	325
836.493	-1357
836.586	182
836.680	-1662
836.774	-1391
836.867	-957
836.961	-925
837.055	-1403
837.148	-1173
837.242	-843
837.335	-1241
837.429	-657
837.522	-1161
837.616	-300
837.709	885
837.803	194
837.896	-393
837.989	-1695
838.083	19
838.176	921
838.269	1306
838.363	111
838.456	-2177
838.549	-311
838.642	5
838.735	988
838.829	-90
838.922	-1102
839.015	-1801
839.108	-1851
839.201	-74
839.294	-979
839.387	-440
839.480	-1095
839.573	6
839.666	-476
839.759	-644
839.852	-1238
839.945	-1281
840.038	-1069
840.131	-665
840.223	-685
840.316	-175
840.409	-369
840.502	-2016
840.594	-456
840.687	-2228
840.780	-882
840.873	-1457
840.965	-434
841.058	-75
841.150	1072
841.243	34
841.336	-141
841.428	-1251
841.521	-1778
841.613	-2077
841.706	-77
841.798	-477
841.890	-1181
841.983	-1705
842.075	-1006
842.167	-545
842.260	-1667
842.352	-706
842.444	-825
842.537	1195
842.629	1988
842.721	663
842.813	-1669
842.905	-2057
842.997	-937
843.090	-921
843.182	-148
843.274	972
843.366	4895
843.458	10373
843.550	8367
843.642	432
843.734	-911
843.826	-1081
843.918	375
844.009	-1046
844.101	-102
844.193	-666
844.285	-483
844.377	420
844.469	811
844.560	1142
844.652	1427
844.744	110
844.835	-75
844.927	-655
845.019	-837
845.110	-94
845.202	-670
845.293	-1413
845.385	-1005
845.476	-1111
845.568	-906
845.659	-923
845.751	-1185
845.842	-788
845.934	-582
846.025	-1337
846.116	-1086
846.208	-479
846.299	-1334
846.390	-472
846.482	-332
846.573	-417
846.664	-490
846.755	-1069
846.846	248
846.937	-1878
847.029	-1296
847.120	-1543
847.211	-594
847.302	-570
847.393	-1678
847.484	-945
847.575	-1078
847.666	-1436
847.757	-1481
847.847	-968
847.938	-604
848.029	-1150
848.120	-1453
848.211	-1605
848.302	-1278
848.392	-992
848.483	-656
848.574	-863
848.664	-1255
848.755	-747
848.846	-822
848.936	-920
849.027	-1446
849.118	-1175
849.208	-1345
849.299	-1336
849.389	-1448
849.480	-913
849.570	-107
849.661	148
849.751	797
849.841	440
849.932	-759
850.022	-1047
850.112	-1244
850.203	-817
850.293	-1093
850.383	-591
850.474	-794
850.564	-955
850.654	-742
850.744	-1021
850.834	-1310
850.924	-1217
851.014	-1236
851.104	-1163
851.194	-1242
851.284	-902
851.374	-538
851.464	-1146
851.554	-248
851.644	-64
851.734	-293
851.824	-483
851.914	-488
852.004	-328
852.094	-145
852.183	-294
852.273	-81
852.363	-1181
852.452	-1544
852.542	-1458
852.632	-1712
852.721	-1125
852.811	-1168
852.901	-1293
852.990	-1402
853.080	-1175
853.169	-1680
853.259	-1554
853.348	-902
853.438	-958
853.527	-835
853.617	-1344
853.706	-432
853.795	309
853.885	2745
853.974	6103
854.063	9953
854.152	21236
854.242	10490
854.331	198
854.420	-997
854.509	-821
854.598	-1202
854.687	-1067
854.777	-1083
854.866	-779
854.955	-1104
855.044	-1745
855.133	-1576
855.222	-1156
855.311	-1052
855.400	-570
855.488	-262
855.577	-442
855.666	-817
855.755	-854
855.844	-336
855.933	-1053
856.021	-611
856.110	-563
856.199	-1576
856.288	-503
856.376	-444
856.465	-1419
856.554	-731
856.642	-790
856.731	-811
856.819	-265
856.908	-1282
856.996	-1344
857.085	-1444
857.173	-1378
857.262	-1204
857.350	-806
857.438	-1575
857.527	-1362
857.615	-1512
857.703	-872
857.792	-1205
857.880	-796
857.968	-1160
858.056	-1713
858.145	-702
858.233	-1108
858.321	-1372
858.409	-809
858.497	-1795
858.585	-652
858.673	-1639
858.761	-1124
858.849	-1771
858.937	-1621
859.025	-1102
859.113	-654
859.201	-1501
859.289	-816
859.377	-712
859.465	-1506
859.552	-1263
859.640	-1323
859.728	-1068
859.816	-1496
859.903	-1119
859.991	-1512
860.079	-1315
860.166	-1300
860.254	-1120
860.342	-845
860.429	-1822
860.517	-1764
860.604	-1095
860.692	-669
860.779	-1480
860.867	-1608
860.954	-1293
861.042	-1919
861.129	-1073
861.216	-1608
861.304	-1929
861.391	-2067
861.478	-1710
861.565	-975
861.653	-91
861.740	-1521
861.827	-1203
861.914	-824
862.001	-1494
862.089	-1365
862.176	-1721
862.263	-1126
862.350	-1149
862.437	-1490
862.524	-1335
862.611	-647
862.698	-995
862.785	-1329
862.871	547
862.958	-699
863.045	-1062
863.132	-741
863.219	-1819
863.306	-1180
863.392	-973
863.479	-1122
863.566	-791
863.652	-737
863.739	-1859
863.826	-707
863.912	-808
863.999	-1412
864.086	-1828
864.172	-1874
864.259	-1353
864.345	-405
864.432	-928
864.518	-1604
864.604	-1334
864.691	-2098
864.777	-499
864.863	-818
864.950	-1262
865.036	-1654
865.122	-941
865.209	-1070
865.295	-1777
865.381	-1451
865.467	-256
865.553	-300
865.639	-1548
865.726	-708
865.812	82
865.898	1945
865.984	3202
866.070	7490
866.156	11520
866.242	2923
866.328	-497
866.414	-1345
866.499	-1320
866.585	-306
866.671	-1010
866.757	-512
866.843	-173
866.928	-963
867.014	-1610
867.100	-910
867.186	-1586
867.271	-630
867.357	-729
867.442	-51
867.528	-842
867.614	-864
867.699	975
867.785	-525
867.870	991
867.956	2246
868.041	1724
868.127	697
868.212	364
868.297	1315
868.383	-20
868.468	-137
868.553	672
868.639	46
868.724	866
868.809	859
868.894	-347
868.979	-1563
869.065	-1794
869.150	-1676
869.235	-1492
869.320	-1147
869.405	-1269
869.490	-631
869.575	-1495
869.660	-1827
869.745	-1046
869.830	-1565
869.915	-1054
870.000	-1742
870.085	-1211
870.169	-843
870.254	-468
870.339	-1277
870.424	-1512
870.509	-904
870.593	-1478
870.678	-1539
870.763	-1568
870.847	-861
870.932	-1426
871.016	-259
871.101	-520
871.186	-1131
871.270	-1228
871.355	-1431
871.439	-977
871.523	-1358
871.608	-754
871.692	-1038
871.777	-1430
871.861	-1176
871.945	-2115
872.030	-755
872.114	-1577
872.198	-1310
872.282	-1580
872.367	-1090
872.451	-1178
872.535	-1561
872.619	-2093
872.703	-1263
872.787	-1576
872.871	-2011
872.955	-1576
873.039	-2125
873.123	-1774
873.207	-303
873.291	-1355
873.375	-1786
873.459	-1248
873.543	-1367
873.627	-1439
873.711	-1884
873.794	-1576
873.878	-1283
873.962	-2292
874.045	-1009
874.129	-1682
874.137	-1643
874.213	-1251
874.245	-1197
874.296	-1106
874.352	-1260
874.380	-1337
874.460	-1016
874.464	-1003
874.547	-1997
874.568	-1727
874.631	-957
874.676	-1365
874.714	-1711
874.784	-766
874.798	-568
874.881	-83
874.892	-198
874.965	-1078
874.999	-1403
875.048	-1818
875.107	-1341
875.131	-1166
875.215	-1175
875.215	-1175
875.298	-1348
875.323	-1184
875.381	-797
875.430	-861
875.465	-901
875.538	-1424
875.548	-1505
875.631	-1632
875.646	-1552
875.714	-1079
875.753	-828
875.798	-603
875.861	-1084
875.881	-1234
875.964	-1248
875.968	-1255
876.047	-1249
876.076	-1208
876.130	-1208
876.183	-1416
876.213	-1513
876.291	-469
876.296	-400
876.379	-1730
876.398	-1557
876.462	-952
876.506	-1019
876.545	-1096
876.613	-743
876.628	-671
876.711	-1220
876.721	-1213
876.794	-1045
876.828	-921
876.877	-802
876.935	-802
876.960	-758
877.043	-52
877.043	-53
877.125	-410
877.150	-519
877.208	-416
877.258	-337
877.291	-389
877.365	29
877.374	84
877.456	65
877.472	58
877.539	-11
877.579	315
877.622	597
877.687	184
877.704	131
877.787	-491
877.794	-475
877.869	-507
877.901	-350
877.952	-39
878.008	-84
878.034	-110
878.115	-917
878.117	-930
878.199	-690
878.222	-589
878.282	-468
878.329	-741
878.364	-801
878.437	-575
878.447	-572
878.529	-1531
878.544	-1398
878.611	-684
878.651	-728
878.694	-716
878.758	-500
878.776	-472
878.858	-454
878.865	-422
878.941	-155
878.972	-397
879.023	-640
879.078	-850
879.105	-841
879.185	-676
879.187	-677
879.269	-421
879.292	-417
879.351	-483
879.399	-846
879.433	-1045
879.506	-404
879.516	-322
879.598	-514
879.613	-516
879.680	-584
879.720	-696
879.762	-646
879.827	-562
879.844	-579
879.926	-358
879.933	-353
880.007	-302
880.040	-323
880.089	-293
880.147	-244
880.171	-245
880.253	-16
880.254	-17
880.335	350
880.360	442
880.417	1015
880.467	1823
880.499	2482
880.574	4306
880.580	4255
880.662	1426
880.680	1009
880.744	27
880.787	-607
880.825	-734
880.893	-1094
880.907	-1103
880.989	-632
881.000	-545
881.070	-437
881.106	-692
881.152	-804
881.213	-650
881.233	-559
881.315	57
881.319	53
881.396	-402
881.426	-564
881.478	-570
881.532	-156
881.559	-63
881.639	-352
881.641	-354
881.722	-211
881.745	-294
881.803	-241
881.852	-50
881.885	-54
881.958	-534
881.966	-578
882.047	-183
882.064	-127
882.129	-32
882.171	-309
882.210	2
882.277	875
882.291	836
882.372	140
882.383	99
882.454	-177
882.489	-274
882.535	-134
882.596	-391
882.616	-537
882.697	-944
882.702	-949
882.778	-340
882.808	-250
882.859	-467
882.914	-304
882.940	-242
883.020	-847
883.021	-843
883.102	285
883.127	317
883.183	-105
883.233	-238
883.264	-181
883.339	-188
883.345	-210
883.426	-288
883.445	-377
883.507	-571
883.551	-468
883.587	-238
883.657	-136
883.668	-143
883.749	66
883.763	-14
883.830	-347
883.869	-225
883.910	-86
883.975	4
883.991	54
884.072	-56
884.081	-34
884.152	-50
884.187	-123
884.233	-121
884.292	-125
884.314	-212
884.394	-444
884.398	-474
884.475	-741
884.504	-680
884.555	-216
884.610	-157
884.636	-134
884.716	347
884.716	355
884.797	189
884.821	189
884.877	190
884.927	-45
884.958	-42
885.033	-5
885.038	-2
885.118	253
885.139	247
885.199	77
885.244	-91
885.279	-93
885.350	1
885.359	19
885.439	12
885.456	4
885.520	-72
885.561	-88
885.600	-194
885.667	-381
885.680	-320
885.760	132
885.773	171
885.840	293
885.878	339
885.920	258
885.984	184
886.000	246
886.080	577
886.089	602
886.160	120
886.195	-121
886.240	138
886.300	403
886.320	514
886.400	843
886.406	874
886.480	411
886.511	139
886.560	489
886.616	845
886.640	792
886.720	645
886.722	636
886.800	688
886.827	614
886.879	292
886.932	-18
886.959	119
887.038	446
887.039	455
887.119	614
887.143	615
887.198	406
887.248	229
887.278	216
887.354	109
887.358	142
887.437	761
887.459	912
887.517	683
887.564	479
887.596	455
887.669	413
887.676	428
887.755	502
887.774	507
887.835	698
887.880	908
887.914	717
887.985	79
887.994	75
888.073	217
888.090	233
888.153	656
888.195	841
888.232	721
888.300	615
888.311	640
888.391	670
888.405	681
888.470	810
888.510	844
888.549	758
888.615	632
888.628	690
888.708	971
888.720	1012
888.787	1017
888.825	999
888.866	1138
888.930	1274
888.945	1107
889.024	254
889.035	138
889.103	519
889.140	673
889.182	867
889.245	1177
889.261	1092
889.340	633
889.349	574
889.419	1403
889.454	1817
889.498	1658
889.559	1410
889.577	1332
889.656	952
889.664	908
889.735	854
889.768	820
889.814	895
889.873	983
889.978	664
890.083	1269
890.187	1093
890.292	616
890.397	706
890.501	661
890.606	356
890.710	540
890.815	992
890.919	907
891.024	833
891.128	1388
891.233	1479
891.337	858
891.442	109
891.546	1194
891.650	774
891.755	144
891.859	1602
891.963	1376
892.068	765
892.172	550
892.276	1008
892.380	614
892.484	1002
892.589	745
892.693	-95
892.797	101
892.901	354
893.005	235
893.109	1023
893.213	752
893.317	219
893.421	1039
893.525	436
893.629	-64
893.733	773
893.837	432
893.941	992
894.045	1396
894.148	598
894.252	2077
894.356	1661
894.460	1309
894.564	1002
894.667	220
894.771	108
894.875	696
894.978	869
895.082	504
895.186	-25
895.289	689
895.393	808
895.496	135
895.600	610
895.703	503
895.807	22
895.910	-286
896.014	542
896.117	439
896.221	1032
896.324	196
896.427	1490
896.531	112
896.634	1177
896.737	734
896.840	343
896.944	446
897.047	633
897.150	793
897.253	451
897.356	743
897.460	487
897.563	-177
897.666	514
897.769	839
897.872	515
897.975	786
898.078	753
898.181	485
898.284	259
898.387	-210
898.490	922
898.593	619
898.695	635
898.798	647
898.901	861
899.004	273
899.107	445
899.209	436
899.312	461
899.415	595
899.518	629
899.620	785
899.723	696
899.826	1245
899.928	1805
900.031	1251
900.133	472
900.236	165
900.338	750
900.441	211
900.543	153
900.646	478
900.748	489
900.851	563
900.953	979
901.055	258
901.158	1648
901.260	381
901.362	328
901.465	-220
901.567	780
901.669	185
901.771	271
901.873	177
901.976	663
902.078	-525
902.180	208
902.282	250
902.384	269
902.486	271
902.588	237
902.690	752
902.792	1522
902.894	339
902.996	-294
903.098	319
903.200	569
903.302	1630
903.404	519
903.505	305
903.607	1018
903.709	537
903.811	383
903.913	258
904.014	-205
904.116	358
904.218	1296
904.319	405
904.421	819
904.523	1234
904.624	572
904.726	486
904.827	21
904.929	366
905.030	-261
905.132	79
905.233	1102
905.335	-32
905.436	116
905.537	293
905.639	204
905.740	159
905.841	38
905.943	751
906.044	1552
906.145	325
906.247	176
906.348	-24
906.449	868
906.550	217
906.651	291
906.752	273
906.854	-347
906.955	10
907.056	-377
907.157	479
907.258	447
907.359	293
907.460	590
907.561	502
907.662	553
907.762	788
907.863	244
907.964	-248
908.065	427
908.166	460
908.267	213
908.367	-536
908.468	349
908.569	-81
908.670	607
908.770	696
908.871	15
908.971	1094
909.072	850
909.173	-30
909.273	86
909.374	23
909.474	489
909.575	525
909.675	-531
909.776	136
909.876	618
909.977	-913
910.077	-14
910.177	-310
910.278	55
910.378	-253
910.478	-327
910.579	396
910.679	109
910.779	493
910.879	405
910.980	206
911.080	196
911.180	422
911.280	594
911.380	-306
911.480	6
911.580	-536
911.680	59
911.780	-66
911.880	454
911.980	-372
912.080	-31
912.180	357
912.280	-68
912.380	65
912.480	248
912.580	574
912.679	13
912.779	498
912.879	-94
912.979	-141
913.078	83
913.178	-144
913.278	-161
913.377	430
913.477	-20
913.577	-287
913.676	510
913.776	59
913.875	-183
913.975	-157
914.074	100
914.174	638
914.273	-179
914.373	456
914.472	652
914.572	-269
914.671	-113
914.770	-779
914.870	678
914.969	-303
915.068	236
915.167	-347
915.267	-483
915.366	-343
915.465	-166
915.564	330
915.663	-496
915.763	-633
915.862	168
915.961	-338
916.060	-814
916.159	110
916.258	-451
916.357	140
916.456	-244
916.555	119
916.654	320
916.752	535
916.851	35
916.950	-296
917.049	-17
917.148	-657
917.247	569
917.345	508
917.444	-432
917.543	148
917.642	-517
917.740	-150
917.839	769
917.937	-652
918.036	-68
918.135	-25
918.233	-425
918.332	-221
918.430	-471
918.529	-425
918.627	108
918.726	447
918.824	212
918.923	-8
919.021	-408
919.119	43
919.218	-448
919.316	159
919.414	287
919.512	-414
919.611	-113
919.709	-204
919.807	-7
919.905	83
920.003	-749
920.102	100
920.200	640
920.298	-131
920.396	437
920.494	-476
920.592	264
920.690	609
920.788	67
920.886	-243
920.984	171
921.082	159
921.180	495
921.277	-224
921.375	336
921.473	-158
921.571	160
921.669	137
921.766	-42
921.864	-18
921.962	625
922.060	-691
922.157	119
922.255	-170
922.352	-261
922.450	809
922.548	37
922.645	-869
922.743	-341
922.840	-617
922.938	-101
923.035	252
923.133	-730
923.230	17
923.327	378
923.425	-338
923.522	89
923.619	428
923.717	-306
923.814	-296
923.911	534
924.008	115
924.106	120
924.203	-756
924.300	-31
924.397	148
924.494	-66
924.591	23
924.688	-633
924.786	-51
924.883	70
924.979	-1
925.077	650
925.173	2
925.270	-191
925.367	-327
925.464	42
925.561	325
925.658	168
925.755	-521
925.852	142
925.948	500
926.045	964
926.142	170
926.239	1266
926.335	409
926.432	744
926.529	595
926.625	1078
926.722	629
926.818	291
926.915	-214
927.011	31
927.108	253
927.204	51
927.301	-395
927.397	420
927.494	286
927.590	244
927.687	-633
927.783	415
927.879	-4
927.976	-109
928.072	-201
928.168	-249
928.264	-23
928.361	758
928.457	-840
928.553	-464
928.649	-24
928.745	-561
928.841	206
928.937	266
929.033	453
929.129	368
929.225	-249
929.321	-609
929.417	-579
929.513	331
929.609	530
929.705	-471
929.801	276
929.897	-395
929.993	-1185
930.089	28
930.184	-209
930.280	-287
930.376	-73
930.471	-361
930.567	-788
930.663	389
930.758	-999
930.854	-405
930.950	-47
931.045	-240
931.141	137
931.236	-444
931.332	-598
931.427	-152
931.523	-330
931.618	-516
931.714	-2
931.809	-520
931.905	-470
932.000	593
932.095	9
932.191	-524
932.286	-789
932.381	-1220
932.476	-612
932.572	-1138
932.667	-142
932.762	224
932.857	-99
932.952	165
933.047	-559
933.142	-493
933.237	-107
933.332	-543
933.427	151
933.522	-291
933.617	-1035
933.712	236
933.807	-693
933.902	-890
933.997	-541
934.092	-507
934.187	-448
934.282	96
934.376	113
934.471	167
934.566	311
934.661	313
934.755	-133
934.850	-534
934.945	776
935.039	-235
935.134	10
935.228	-78
935.323	-39
935.417	-570
935.512	487
935.606	-760
935.701	-31
935.795	-149
935.890	29
935.984	457
936.079	-1028
936.173	392
936.267	403
936.362	-147
936.456	-305
936.550	-539
936.644	-348
936.738	-196
936.833	37
936.927	-359
937.021	252
937.115	-188
937.209	-983
937.303	758
937.397	-367
937.491	142
937.585	166
937.679	-783
937.773	-388
937.867	-804
937.961	-370
938.055	-48
938.149	-148
938.243	173
938.337	15
938.430	-1239
938.524	-290
938.618	164
938.712	1388
938.805	151
938.899	-417
938.993	265
939.086	-765
939.180	787
939.274	2283
939.367	600
939.461	-612
939.554	-95
939.648	-267
939.741	-74
939.835	307
939.928	-434
940.022	-168
940.115	-138
940.208	-223
940.302	-637
940.395	-376
940.488	-789
940.582	-48
940.675	-303
940.768	426
940.861	-553
940.954	-132
941.048	-621
941.141	-219
941.234	634
941.327	1491
941.420	1815
941.513	888
941.606	166
941.699	-260
941.792	-660
941.885	-805
941.978	-703
942.071	-573
942.164	-535
942.257	84
942.349	425
942.442	-839
942.535	-594
942.628	-144
942.721	327
942.813	-1138
942.906	-227
942.999	-288
943.091	-1127
943.184	-631
943.277	-816
943.369	-391
943.462	-632
943.554	-577
943.647	-909
943.739	298
943.832	-756
943.924	-886
944.017	309
944.109	-944
944.201	-322
944.294	-72
944.386	-376
944.478	-287
944.571	-466
944.663	-552
944.755	-348
944.847	-865
944.940	-79
945.032	-1600
945.124	-503
945.216	-223
945.308	-240
945.400	-579
945.492	-377
945.584	-766
945.676	-128
945.768	-943
945.860	309
945.952	-718
946.044	31
946.136	-539
946.228	-322
946.320	-628
946.412	0
946.503	-328
946.595	-882
946.687	-1059
946.779	-703
946.870	-554
946.962	-875
947.054	-277
947.145	-580
947.237	-873
947.329	-634
947.420	-1343
947.512	-124
947.603	-1277
947.695	-1271
947.786	-1221
947.878	-53
947.969	-3
948.061	-1042
948.152	-1033
948.243	-376
948.335	-1374
948.426	91
948.517	-389
948.609	-466
948.700	-350
948.791	-447
948.882	-607
948.973	-902
949.065	-641
949.156	-286
949.247	-991
949.338	-993
949.429	-834
949.520	-77
949.611	-1056
949.702	-94
949.793	-908
949.884	-342
949.975	-469
950.066	-1061
950.157	-337
950.247	-601
950.338	-1167
950.429	-614
950.520	-58
950.611	-166
950.701	-120
950.792	-154
950.883	-24
950.973	-392
951.064	-695
951.155	-711
951.245	-650
951.336	-1528
951.427	-877
951.517	-128
951.608	2
951.698	-1254
951.788	-390
951.879	-1004
951.969	-476
952.060	-1559
952.150	-858
952.240	308
952.331	-907
952.421	467
952.511	-1224
952.602	-565
952.692	-1551
952.782	-838
952.872	-1135
952.962	-764
953.052	-1352
953.143	-1077
953.233	-355
953.323	51
953.413	-31
953.503	-290
953.593	-453
953.683	-1007
953.773	-961
953.863	-260
953.953	-1377
954.042	-681
954.132	-1521
954.222	-416
954.312	-783
954.402	-1123
954.492	-245
954.581	626
954.671	-731
954.761	-796
954.850	-351
954.940	-487
955.030	-241
955.119	-1328
955.209	-1342
955.298	-757
955.388	-1105
955.477	-117
955.567	-1129
955.656	-592
955.746	-632
955.835	-1003
955.925	-1099
956.014	-330
956.103	-1552
956.193	-1233
956.282	-625
956.371	-610
956.461	-358
956.550	191
956.639	-789
956.728	-391
956.817	-680
956.906	-784
956.995	-1158
957.085	-857
957.174	-402
957.263	-386
957.352	-918
957.441	-525
957.530	-859
957.619	-253
957.708	-520
957.796	-312
957.885	-696
957.974	-1088
958.063	-436
958.152	-1066
958.241	-1134
958.329	-1252
958.418	-560
958.507	-1022
958.596	-254
958.684	-1609
958.773	-1020
958.861	-679
958.950	-962
959.039	-421
959.127	-351
959.216	-182
959.304	-382
959.393	-169
959.481	-698
959.570	1
959.658	-1298
959.746	-145
959.835	506
959.923	718
960.011	465
960.100	-892
960.188	-63
960.276	-850
960.365	-751
960.453	-114
960.541	-369
960.629	-491
960.717	-441
960.805	-1353
960.893	-1312
960.981	-961
961.069	-583
961.158	-120
961.245	-1154
961.333	-274
961.421	-1007
961.509	-235
961.597	-886
961.685	-1639
961.773	-1364
961.861	-496
961.949	-1713
962.036	-758
962.124	-1048
962.212	-881
962.299	-854
962.387	-1095
962.475	-362
962.562	-596
962.650	-828
962.738	-394
962.825	-626
962.913	-346
963.000	-461
963.088	-732
963.175	-296
963.263	-543
963.350	274
963.438	-589
963.525	235
963.612	252
963.700	2742
963.787	7402
963.874	3457
963.962	-702
964.049	-673
964.136	-1200
964.223	-1089
964.310	-1027
964.398	-1008
964.485	-1026
964.572	-656
964.659	1102
964.746	319
964.833	-850
964.920	-2040
965.007	-1140
965.094	-593
965.181	-546
965.268	-1153
965.355	-745
965.441	-991
965.528	-998
965.615	-1552
965.702	-1045
965.789	-594
965.875	-1266
965.962	-888
966.049	-2137
966.136	-368
966.222	-1746
966.309	-1035
966.395	-2671
966.482	-858
966.569	-604
966.655	-546
966.742	-964
966.828	-1267
966.915	-743
967.001	-1264
967.087	-954
967.174	-802
967.260	-162
967.347	564
967.433	1505
967.519	4716
967.605	1240
967.692	-1243
967.778	-462
967.864	-1332
967.950	-1379
968.036	-1193
968.123	-1132
968.209	-821
968.295	-915
968.381	-605
968.467	-1213
968.553	-1776
968.639	-652
968.725	-1390
968.811	-117
968.897	-909
968.983	-1257
969.069	-1290
969.154	-686
969.240	-199
969.326	-1251
969.412	-1347
969.497	-1006
969.583	-1991
969.669	-1342
969.755	-633
969.840	-1034
969.926	-1568
970.012	-1436
970.097	-881
970.183	-1250
970.268	-278
970.354	186
970.439	1076
970.525	2023
970.610	-338
970.696	-977
970.781	-1162
970.866	-1567
970.952	-634
971.037	-1357
971.122	-1205
971.208	-697
971.293	-1350
971.378	-1231
971.463	-1829
971.549	-1849
971.634	-1556
971.719	-1401
971.804	23
971.889	27
971.974	-1150
972.059	-178
972.144	-1173
972.229	-953
972.314	-1591
972.399	-741
972.484	-1339
972.569	-1171
972.654	-584
972.739	725
972.824	-130
972.908	-501
972.993	-1785
973.078	-1555
973.163	-1394
973.247	-1440
973.332	-1933
973.417	449
973.501	-2250
973.586	-1462
973.671	-1377
973.755	-831
973.840	-956
973.924	-1159
974.009	-1193
974.093	-761
974.178	-536
974.262	576
974.346	25
974.431	-892
974.515	-1178
974.600	-1394
974.684	-964
974.768	-1881
974.852	-1387
974.937	-2221
975.021	-706
975.105	-1061
975.189	-1555
975.273	-1197
975.358	-1423
975.442	-1415
975.526	-1459
975.610	-1239
975.694	-2017
975.778	-644
975.862	-1345
975.946	-2273
976.030	-786
976.114	-1403
976.198	-1841
976.281	-1332
976.365	-827
976.449	-967
976.533	-1115
976.617	-1391
976.700	-1548
976.784	-1207
976.868	-1126
976.951	-1086
977.035	-1831
977.119	-1997
977.202	-2197
977.286	-1396
977.369	-1455
977.453	-716
977.536	-1799
977.620	-965
977.703	-1161
977.787	-1206
977.870	-681
977.953	-480
978.037	-1681
978.120	-680
978.203	-973
978.287	90
978.370	-620
978.453	-786
978.536	-794
978.620	-572
978.703	-474
978.786	-828
978.869	-1563
978.952	-1603
979.035	-1320
979.118	-1509
979.201	-931
979.284	-1197
979.367	-1512
979.450	-1114
979.533	-1580
979.616	-1047
979.699	-1621
979.782	-1521
979.865	-1334
979.948	-1611
980.030	-2394
980.113	-1315
980.196	-2025
980.279	-1719
980.361	-1367
980.444	-1054
980.526	-979
980.609	-1462
980.692	-1242
980.774	-1131
980.857	-2227
980.939	-994
981.022	-1151
981.104	-1641
981.187	-1884
981.269	-1837
981.352	-1594
981.434	-2325
981.516	-2386
981.599	-1279
981.681	-2244
981.763	-838
981.846	-1748
981.928	-1833
982.010	-1777
982.092	-2369
982.174	-1177
982.256	-1827
982.339	-1389
982.421	-2033
982.503	-1893
982.585	-2108
982.667	-1590
982.749	-1326
982.831	-1807
982.913	-2372
982.995	-1747
983.077	-2038
983.158	-1594
983.240	-2477
983.322	-1334
983.404	-851
983.486	-1646
983.568	-502
983.649	-1594
983.731	-1927
983.813	-2404
983.894	-969
983.976	-1813
984.058	-1698
984.139	-1737
984.221	-2254
984.302	-1719
984.384	-1745
984.465	-1410
984.547	-1445
984.628	-1702
984.710	-1086
984.791	-2124
984.872	-1883
984.954	-1247
985.035	-2138
985.116	-1839
985.198	-1763
985.279	-1176
985.360	-1614
985.441	-984
985.522	-2007
985.604	-2169
985.685	-2821
985.766	-839
985.847	-1564
985.928	-1869
986.009	-1545
986.090	-1486
986.171	-1040
986.252	-1571
986.333	-1432
986.414	-2216
986.495	-2162
986.576	-1452
986.656	-1541
986.737	-842
986.818	-2016
986.899	-2161
986.980	-1776
987.060	-1659
987.141	-1909
987.222	-1224
987.302	-1969
987.383	-1820
987.464	-1435
987.544	-1117
987.625	-1545
987.705	-1335
987.786	-1054
987.866	-2103
987.947	-1215
988.027	-1347
988.108	-1824
988.188	-1059
988.268	-1445
988.349	-2143
988.429	-1517
988.509	-1407
988.589	-2024
988.670	-3065
988.750	-490
988.830	-1536
988.910	-2110
988.990	-1391
989.070	-848
989.151	-1216
989.231	-1941
989.311	-1329
989.391	-1579
989.471	-2711
989.551	-1151
989.631	-1921
989.711	-1722
989.791	-2230
989.870	-2047
989.950	-919
990.030	-2552
990.110	-1342
990.190	-2164
990.269	-1849
990.349	-1875
990.429	-1789
990.509	-1795
990.588	-1575
990.668	-1671
990.747	-1392
990.827	-1462
990.907	-1879
990.986	-1678
991.066	-1212
991.145	-1375
991.225	-1737
991.304	-1920
991.383	-1955
991.463	-1527
991.542	-1022
991.622	-1714
991.701	-1178
991.780	-1386
991.859	-1206
991.939	-1213
992.018	-1872
992.097	-2387
992.176	-1676
992.256	-1946
992.335	-2565
992.414	-1176
992.493	-1528
992.572	-1587
992.651	-1487
992.730	-1654
992.809	-2071
992.888	-1824
992.967	-2194
993.046	-1406
993.125	-2479
993.203	-2288
993.282	-1809
993.361	-1281
993.440	-1610
993.519	-2474
993.597	-1633
993.676	-1849
993.755	-1251
993.834	-1019
993.912	-2318
993.991	-1914
994.069	-1755
994.148	-1238
994.226	-1761
994.305	-1842
994.384	-2362
994.462	-2578
994.540	-2517
994.619	-2199
994.697	-1373
994.776	-2063
994.854	-2046
994.932	-2522
995.011	-1408
995.089	-1732
995.167	-1421
995.245	-1149
995.324	-1775
995.402	-2213
995.480	-1698
995.558	-1294
995.636	-2428
995.714	-2311
995.792	-829
995.870	-2332
995.948	-2170
996.026	-1375
996.104	-2137
996.182	-597
996.260	-2064
996.338	-1359
996.416	-1784
996.494	-1480
996.572	-1692
996.649	-2063
996.727	-1988
996.805	-2100
996.883	-1858
996.960	-1429
997.038	-1596
997.116	-2112
997.193	-2610
997.271	-1877
997.348	-2180
997.426	-1451
997.504	-1690
997.581	-1078
997.658	-1836
997.736	-1818
997.813	-2662
997.891	-1361
997.968	-2164
998.046	-1716
998.123	-2586
998.200	-1604
998.277	-2300
998.355	-1277
998.432	-2209
998.509	-650
998.586	-1390
998.663	-1861
998.741	-1409
998.818	-1772
998.895	-2018
998.972	-1405
999.049	-1949
999.126	-2283
999.203	-954
999.280	-1974
999.357	-1918
999.434	-1772
999.511	-1785
999.587	-1655
999.664	-2705
999.741	-1416
999.818	-1376
999.895	-1720
999.971	-2421
1000.048	-1509
1000.125	-1474
1000.202	-1760
1000.278	-1546
1000.355	-1300
1000.431	-2308
1000.508	-2698
1000.584	-1990
1000.661	-868
1000.738	-2738
1000.814	-1921
1000.890	-1766
1000.967	-1363
1001.043	-1808
1001.120	-2306
1001.196	-1272
1001.272	-2575
1001.349	-1870
1001.425	-2181
1001.501	-2240
1001.577	-2489
1001.654	-2154
1001.730	-2589
1001.806	-1981
1001.882	-3153
1001.958	-2120
1002.034	-1704
1002.110	-2619
1002.186	-2072
1002.262	-2543
1002.338	-2168
1002.414	-1051
1002.490	-2063
1002.566	-1691
1002.642	-2263
1002.718	-906
1002.794	-2186
1002.870	-2382
1002.945	-1173
1003.021	-2145
1003.097	-1647
1003.173	-2248
1003.248	-2281
1003.324	-1660
1003.400	-2429
1003.475	-1911
1003.551	-1129
1003.626	-1168
1003.702	-2185
1003.777	-1909
1003.853	-2234
1003.928	-2528
1004.004	-2023
1004.079	-1664
1004.155	-1686
1004.230	-3070
1004.305	-2190
1004.381	-2248
1004.456	-1869
1004.531	-1222
1004.607	-1877
1004.682	-2020
1004.757	-2145
1004.832	-2196
1004.907	-1914
1004.982	-1916
1005.057	-2095
1005.133	-2335
1005.208	-2447
1005.283	-2540
1005.358	-1624
1005.433	-2073
1005.508	-2044
1005.583	-2548
1005.657	-1904
1005.732	-1139
1005.807	-1536
1005.882	-1944
1005.957	-2184
1006.032	-2419
1006.106	-1729
1006.181	-1361
1006.256	-2047
1006.331	-3368
1006.405	-2551
1006.480	-1626
1006.554	-1836
1006.629	-2170
1006.704	-2249
1006.778	-1472
1006.853	-1847
1006.927	-2430
1007.002	-1775
1007.076	-1665
1007.150	-3096
1007.225	-1965
1007.299	-2003
1007.373	-2946
1007.448	-2184
1007.522	-1123
1007.596	-2033
1007.671	-2510
1007.745	-1689
1007.819	-2940
1007.893	-2422
1007.967	-1782
1008.041	-2404
1008.115	-2170
1008.190	-2156
1008.264	-1798
1008.338	-2791
1008.412	-1843
1008.486	-2139
1008.560	-2950
1008.633	-2385
1008.707	-2793
1008.781	-2438
1008.855	-1671
1008.929	-2258
1009.003	-1865
1009.076	-2131
1009.150	-1705
1009.224	-2243
1009.298	-2133
1009.371	-2370
1009.445	-2370
1009.519	-1478
1009.592	-2852
1009.666	-2626
1009.739	-2161
1009.813	-2120
1009.886	-1213
1009.960	-2273
1010.033	-2230
1010.107	-2023
1010.180	-2498
1010.253	-1066
1010.327	-2071
1010.400	-2420
1010.473	-2077
1010.547	-1279
1010.620	-2576
1010.693	-1880
1010.766	-2322
1010.840	-1872
1010.913	-1969
1010.986	-2801
1011.059	-1874
1011.132	-2101
1011.205	-2203
1011.278	-2174
1011.351	-2410
1011.424	-2354
1011.497	-2570
1011.570	-1970
1011.643	-2897
1011.716	-3520
1011.789	-2652
1011.862	-1836
1011.934	-2641
1012.007	-3048
1012.080	-1716
1012.153	-2660
1012.225	-1537
1012.298	-2293
1012.371	-2984
1012.443	-2160
1012.516	-2700
1012.588	-2513
1012.661	-1813
1012.733	-2776
1012.806	-2135
1012.879	-2832
1012.951	-1920
1013.023	-2193
1013.096	-1379
1013.168	-2688
1013.241	-2100
1013.313	-2652
1013.385	-2809
1013.458	-2147
1013.530	-2430
1013.602	-2736
1013.674	-2249
1013.746	-2695
1013.819	-2556
1013.891	-1777
1013.963	-2141
1014.035	-1851
1014.107	-2322
1014.179	-2361
1014.251	-2454
1014.323	-1746
1014.395	-1813
1014.467	-2131
1014.539	-2119
1014.611	-2924
1014.683	-2446
1014.754	-806
1014.826	-3070
1014.898	-887
1014.970	-2698
1015.042	-1907
1015.113	-2453
1015.185	-2421
1015.257	-2529
1015.328	-1767
1015.400	-2563
1015.471	-2174
1015.543	-2159
1015.615	-1737
1015.686	-2178
1015.757	-2066
1015.829	-1820
1015.901	-2668
1015.972	-1969
1016.043	-2635
1016.115	-1790
1016.186	-2267
1016.257	-2840
1016.328	-2237
1016.400	-1971
1016.471	-2359
1016.542	-1807
1016.613	-1757
1016.685	-2637
1016.756	-1969
1016.827	-2841
1016.898	-2764
1016.969	-1359
1017.040	-2877
1017.111	-2695
1017.182	-2630
1017.253	-2307
1017.324	-2393
1017.395	-2670
1017.466	-1686
1017.537	-2270
1017.608	-1979
1017.678	-2155
1017.749	-3392
1017.820	-1780
1017.891	-2661
1017.961	-3019
1018.032	-2135
1018.103	-2857
1018.173	-1616
1018.244	-2259
1018.315	-2798
1018.385	-1971
1018.456	-2289
1018.526	-2739
1018.597	-2406
1018.667	-3020
1018.738	-2051
1018.808	-2283
1018.878	-2816
1018.949	-1999
1019.019	-2145
1019.089	-2258
1019.160	-3379
1019.230	-2700
1019.300	-2150
1019.371	-2868
1019.441	-2064
1019.511	-1988
1019.581	-2403
1019.651	-2389
1019.721	-2365
1019.791	-2513
1019.861	-2245
1019.931	-2206
1020.001	-2386
1020.071	-1174
1020.141	-2761
1020.211	-1238
1020.281	-3060
1020.351	-2188
1020.421	-1576
1020.491	-2755
1020.560	-2450
1020.630	-2993
1020.700	-2182
1020.770	-2410
1020.839	-2734
1020.909	-2164
1020.979	-2368
1021.048	-2259
1021.118	-2369
1021.187	-2516
1021.257	-2803
1021.326	-2543
1021.396	-2616
1021.465	-2284
1021.535	-2567
1021.604	-2480
1021.674	-2521
1021.743	-3691
1021.812	-2546
1021.882	-3276
1021.951	-1748
1022.020	-2116
1022.089	-2224
1022.159	-2378
1022.228	-2063
1022.297	-2213
1022.366	-2439
1022.435	-2711
1022.504	-2136
1022.573	-2662
1022.642	-2501
1022.711	-1809
1022.781	-1894
1022.849	-2607
1022.918	-2722
1022.987	-2456
1023.056	-2024
1023.125	-2895
1023.194	-2667
1023.263	-2713
1023.331	-1754
1023.400	-2588
1023.469	-2713
1023.538	-1269
1023.606	-3418
1023.675	-1783
1023.744	-2873
1023.812	-2618
1023.881	-2721
1023.949	-3147
1024.018	-2101
1024.086	-2140
1024.155	-2136
1024.223	-2230
1024.292	-1778
1024.360	-2595
1024.429	-2873
1024.497	-2917
1024.565	-2035
1024.634	-2332
1024.702	-2187
1024.770	-2338
1024.838	-2621
1024.907	-2886
1024.975	-2104
1025.043	-2164
1025.111	-3054
1025.179	-2677
1025.247	-2214
1025.315	-2923
1025.383	-2598
1025.451	-2585
1025.519	-2491
1025.587	-1988
1025.655	-2725
1025.723	-2592
1025.791	-3016
1025.859	-2824
1025.927	-2325
1025.995	-2730
1026.062	-2960
1026.130	-1880
1026.198	-2792
1026.266	-2252
1026.333	-2377
1026.401	-2234
1026.469	-2262
1026.536	-2844
1026.604	-2438
1026.671	-3932
1026.739	-2722
1026.806	-2716
1026.874	-2649
1026.941	-2442
1027.009	-3276
1027.076	-2917
1027.144	-1686
1027.211	-3006
1027.278	-1720
1027.345	-1924
1027.413	-1915
1027.480	-2161
1027.547	-2078
1027.614	-2426
1027.682	-1828
1027.749	-2145
1027.816	-1823
1027.883	-2339
1027.950	-1664
1028.017	-2852
1028.084	-1540
1028.151	-2789
1028.218	-3294
1028.285	-2447
1028.352	-2543
1028.419	-2725
1028.486	-2782
1028.553	-2627
1028.619	-2456
1028.686	-3105
1028.753	-3017
1028.820	-2505
1028.886	-2379
1028.953	-2002
1029.020	-2226
1029.086	-2432
1029.153	-2507
1029.220	-2442
1029.286	-2347
1029.353	-2524
1029.419	-2531
1029.486	-3330
1029.552	-2859
1029.619	-2382
1029.685	-2086
1029.751	-3420
1029.818	-2000
1029.884	-2470
1029.951	-1841
1030.017	-3085
1030.083	-2641
1030.149	-1964
1030.216	-2624
1030.282	-2360
1030.348	-2262
1030.414	-2722
1030.480	-2105
1030.546	-2678
1030.612	-2175
1030.678	-2353
1030.744	-2175
1030.810	-2978
1030.876	-2027
1030.942	-2938
1031.008	-2223
1031.074	-2758
1031.140	-2114
1031.206	-1972
1031.272	-2648
1031.337	-2889
1031.403	-1313
1031.469	-2386
1031.534	-3381
1031.600	-2858
1031.666	-2057
1031.731	-3454
1031.797	-2614
1031.863	-3365
1031.928	-2111
1031.994	-2643
1032.059	-2459
1032.125	-2087
1032.190	-2381
1032.256	-2506
1032.321	-2898
1032.386	-2398
1032.452	-2081
1032.517	-2600
1032.582	-2796
1032.647	-3468
1032.713	-2840
1032.778	-2490
1032.843	-2705
1032.908	-3027
1032.974	-2846
1033.039	-2996
1033.104	-2089
1033.169	-2860
1033.234	-3114
1033.299	-977
1033.364	-2103
1033.429	-2460
1033.494	-1658
1033.559	-2991
1033.624	-2958
1033.688	-3068
1033.753	-2615
1033.818	-2698
1033.883	-2567
1033.948	-1591
1034.013	-1952
1034.077	-2304
1034.142	-2558
1034.207	-3287
1034.271	-2717
1034.336	-2082
1034.400	-2806
1034.465	-2390
1034.530	-2902
1034.594	-2667
1034.658	-2392
1034.723	-3431
1034.787	-2511
1034.852	-2285
1034.916	-2613
1034.981	-2873
1035.045	-2008
1035.109	-3241
1035.173	-2692
1035.238	-2121
1035.302	-2115
1035.366	-3137
1035.430	-2250
1035.495	-2498
1035.559	-2313
1035.623	-2412
1035.687	-2845
1035.751	-1725
1035.815	-1791
1035.879	-2784
1035.943	-1956
1036.007	-2960
1036.071	-3010
1036.135	-2440
1036.198	-2220
1036.262	-3032
1036.326	-2800
1036.390	-2921
1036.454	-2155
1036.517	-2287
1036.581	-2927
1036.645	-2266
1036.709	-1606
1036.772	-2264
1036.836	-2623
1036.900	-2748
1036.963	-2120
1037.026	-2325
1037.090	-2765
1037.154	-2163
1037.217	-2827
1037.280	-2722
1037.344	-2261
1037.407	-3134
1037.471	-1918
1037.534	-2311
1037.597	-1748
1037.661	-2137
1037.724	-2106
1037.787	-2870
1037.850	-2185
1037.913	-2304
1037.977	-1646
1038.040	-3452
1038.103	-2527
1038.166	-2642
1038.229	-2427
1038.292	-2905
1038.355	-2126
1038.418	-2055
1038.481	-2745
1038.544	-2502
1038.607	-3042
1038.670	-2814
1038.732	-3106
1038.795	-3134
1038.858	-2826
1038.921	-1995
1038.984	-1784
1039.046	-3290
1039.109	-2905
1039.172	-2259
1039.234	-3280
1039.297	-2893
1039.360	-2226
1039.422	-2782
1039.485	-2459
1039.547	-3309
1039.610	-2977
1039.672	-2429
1039.734	-2160
1039.797	-2267
1039.859	-2022
1039.922	-3131
1039.984	-2459
1040.046	-2132
1040.109	-2548
1040.171	-2527
1040.233	-2008
1040.295	-2944
1040.358	-2650
1040.420	-2571
1040.482	-3110
1040.544	-2688
1040.606	-2674
1040.668	-2669
1040.730	-2657
1040.792	-2007
1040.854	-3106
1040.916	-1522
1040.978	-2385
1041.040	-1955
1041.102	-2017
1041.164	-1797
1041.225	-2697
1041.287	-2744
1041.349	-2936
1041.411	-2707
1041.472	-1751
1041.534	-2697
1041.596	-3528
1041.657	-3043
1041.719	-2997
1041.781	-2476
1041.842	-2452
1041.904	-2895
1041.965	-2729
1042.027	-2238
1042.088	-1673
1042.150	-2676
1042.211	-2851
1042.272	-3072
1042.334	-2206
1042.395	-2114
1042.456	-2825
1042.518	-2285
1042.579	-2236
1042.640	-2796
1042.701	-2209
1042.763	-2513
1042.824	-2429
1042.885	-2122
1042.946	-2861
1043.007	-2373
1043.068	-2750
1043.129	-2597
1043.190	-2751
1043.251	-2341
1043.312	-2521
1043.373	-3067
1043.434	-2320
1043.495	-2380
1043.556	-2247
1043.616	-2428
1043.677	-2646
1043.738	-2506
1043.799	-1891
1043.859	-3026
1043.920	-2376
1043.981	-2710
1044.041	-2644
1044.102	-1816
1044.162	-1659
1044.223	-2806
1044.284	-2954
1044.344	-2373
1044.405	-2486
1044.465	-1845
1044.525	-2804
1044.586	-1854
1044.646	-2254
1044.707	-2455
1044.767	-1943
1044.827	-2832
1044.887	-2582
1044.948	-2127
1045.008	-2082
1045.068	-2328
1045.128	-2027
1045.188	-2001
1045.249	-1924
1045.309	-2158
1045.369	-2744
1045.429	-2559
1045.489	-2093
1045.549	-1749
1045.609	-2726
1045.669	-1779
1045.729	-1658
1045.789	-2352
1045.848	-1761
1045.908	-1471
1045.968	-1655
1046.028	-1886
1046.088	-1395
1046.147	-1621
1046.207	-1985
1046.267	-2347
1046.326	-1784
1046.386	-1765
1046.446	-1576
1046.505	-1380
1046.565	-1558
1046.624	-1730
1046.684	-1595
1046.743	-1384
1046.803	-1109
1046.862	-396
1046.922	0
