'Start Wavelength	183.907
'End Wavelength	1046.922
'Gate Delay	5.000
'Gate Width (ms)	1.050
'Laser Output Level	0.000
'X Position	0.000
'Y Position	0.000
'Z Position	0.000
'Grid Point Number	1.000
'Shot Number	100.000
183.907	626.000
183.977	190.000
184.047	125
184.116	589
184.186	516
184.256	654
184.325	-82
184.395	382
184.465	739
184.534	382
184.604	-173
184.674	86
184.743	333
184.813	844
184.883	438
184.952	688
185.022	439
185.092	63
185.161	279
185.231	255
185.301	553
185.370	459
185.440	433
185.509	-104
185.579	737
185.649	394
185.718	410
185.788	290
185.857	211
185.927	-141
185.996	413
186.066	327
186.136	349
186.205	532
186.275	193
186.344	-258
186.414	294
186.483	42
186.553	689
186.622	390
186.692	593
186.761	699
186.831	448
186.900	435
186.970	868
187.039	1150
187.109	1018
187.178	1020
187.248	808
187.317	394
187.387	1051
187.456	1316
187.526	541
187.595	959
187.664	532
187.734	1040
187.803	780
187.873	1406
187.942	1092
188.012	380
188.081	381
188.150	899
188.220	1125
188.289	1065
188.358	896
188.428	825
188.497	-325
188.567	489
188.636	675
188.705	773
188.775	688
188.844	575
188.913	639
188.983	499
189.052	363
189.121	829
189.191	960
189.260	886
189.329	881
189.399	433
189.468	432
189.537	297
189.606	555
189.676	1012
189.745	1277
189.814	1175
189.883	1023
189.953	1355
190.022	1740
190.091	2068
190.161	1402
190.230	1071
190.299	341
190.368	539
190.437	786
190.507	632
190.576	704
190.645	791
190.714	951
190.783	688
190.853	810
190.922	674
190.991	528
191.060	879
191.129	862
191.198	273
191.268	584
191.337	1243
191.406	373
191.475	31
191.544	1323
191.613	722
191.682	405
191.752	766
191.821	889
191.890	356
191.959	-73
192.028	1124
192.097	1137
192.166	706
192.235	233
192.304	885
192.373	997
192.442	906
192.511	578
192.580	778
192.650	868
192.719	888
192.788	1141
192.857	566
192.926	1104
192.995	1436
193.064	1428
193.133	1696
193.202	1596
193.271	2338
193.340	2127
193.409	1768
193.478	2171
193.547	2340
193.615	3237
193.684	2206
193.753	1947
193.822	1853
193.891	681
193.960	1164
194.029	1151
194.098	1614
194.167	1450
194.236	961
194.305	529
194.374	1279
194.443	1552
194.512	702
194.580	894
194.649	1413
194.718	1188
194.787	1243
194.856	873
194.925	1529
194.994	683
195.062	1334
195.131	1057
195.200	1440
195.269	1845
195.338	1387
195.407	679
195.475	396
195.544	1660
195.613	1310
195.682	1100
195.751	1799
195.819	1825
195.888	1066
195.957	1933
196.026	1472
196.094	1389
196.163	1708
196.232	1738
196.301	1400
196.369	1422
196.438	976
196.507	1196
196.576	1026
196.644	1138
196.713	716
196.782	827
196.850	615
196.919	703
196.988	1048
197.056	1281
197.125	984
197.194	850
197.262	988
197.331	1281
197.400	775
197.468	1040
197.537	996
197.606	1093
197.674	1612
197.743	2098
197.812	1628
197.880	2694
197.949	1349
198.017	2508
198.086	1607
198.155	1268
198.223	2275
198.292	2347
198.360	1044
198.429	1275
198.497	1534
198.566	2518
198.635	1386
198.703	2126
198.772	1078
198.840	3097
198.909	2474
198.977	2154
199.046	2058
199.114	1176
199.183	1291
199.251	1296
199.320	1338
199.388	1036
199.457	392
199.525	1036
199.594	852
199.662	1273
199.731	880
199.799	1132
199.867	1463
199.936	1260
200.004	1558
200.073	1174
200.141	1190
200.210	1294
200.278	1555
200.346	1851
200.415	2241
200.483	2618
200.552	1250
200.620	926
200.688	1332
200.757	1114
200.825	1769
200.893	1241
200.962	1677
201.030	1192
201.098	2015
201.167	1643
201.235	1151
201.303	1758
201.372	1067
201.440	1954
201.508	2095
201.577	2063
201.645	1349
201.713	660
201.781	1270
201.850	1813
201.918	1430
201.986	1947
202.055	1478
202.123	919
202.191	1955
202.259	798
202.327	1692
202.396	1661
202.464	1666
202.532	1207
202.600	3297
202.669	964
202.737	376
202.805	2099
202.873	893
202.941	1817
203.009	1394
203.078	2352
203.146	1744
203.214	1713
203.282	1324
203.350	1464
203.418	1879
203.487	1901
203.555	1248
203.623	1245
203.691	1323
203.759	1570
203.827	1406
203.895	1584
203.963	2117
204.031	2161
204.099	1589
204.168	1828
204.236	1848
204.304	1660
204.372	1996
204.440	1427
204.508	1680
204.576	1843
204.644	730
204.712	1729
204.780	1707
204.848	1920
204.916	1957
204.984	1499
205.052	2133
205.120	1746
205.188	2099
205.256	1788
205.324	1628
205.392	1765
205.460	1684
205.528	1773
205.596	1208
205.664	1977
205.732	2158
205.799	3977
205.867	3335
205.935	1831
206.003	2381
206.071	2121
206.139	2176
206.207	1859
206.275	1801
206.343	2190
206.411	1489
206.478	2174
206.546	2440
206.614	2441
206.682	1957
206.750	2091
206.818	2759
206.885	2582
206.953	2263
207.021	2271
207.089	1874
207.157	973
207.225	3080
207.292	1337
207.360	2535
207.428	2455
207.496	1715
207.563	1994
207.631	2466
207.699	2050
207.767	2249
207.834	2084
207.902	2133
207.970	2353
208.038	2269
208.105	2456
208.173	2526
208.241	2887
208.309	3649
208.376	3131
208.444	3843
208.512	2340
208.579	2185
208.647	3604
208.715	3268
208.782	2551
208.850	2655
208.918	2411
208.985	2243
209.053	2313
209.120	2162
209.188	2705
209.256	2828
209.323	2920
209.391	2594
209.459	2692
209.526	2502
209.594	3369
209.661	2498
209.729	2990
209.796	3104
209.864	2849
209.932	2087
209.999	2293
210.067	2873
210.134	2121
210.202	3255
210.269	3422
210.337	3466
210.404	2599
210.472	2743
210.539	3336
210.607	3390
210.674	3252
210.742	3286
210.809	2350
210.877	3938
210.944	2506
211.012	2619
211.079	3473
211.146	2441
211.214	2656
211.281	3964
211.349	3377
211.416	3078
211.484	3113
211.551	2959
211.618	2334
211.686	3039
211.753	3167
211.821	2948
211.888	2892
211.955	2998
212.023	3242
212.090	3004
212.157	2813
212.225	3567
212.292	5408
212.359	8137
212.427	10610
212.494	5198
212.561	3085
212.629	3948
212.696	3953
212.763	3448
212.831	3016
212.898	3117
212.965	2659
213.032	3351
213.100	3260
213.167	4551
213.234	3782
213.301	3263
213.369	3413
213.436	3710
213.503	3502
213.570	3185
213.638	2509
213.705	2330
213.772	3086
213.839	3897
213.906	3419
213.973	4001
214.041	3566
214.108	3731
214.175	4181
214.242	3152
214.309	3248
214.376	4169
214.444	3353
214.511	4312
214.578	4431
214.645	4323
214.712	3929
214.779	4344
214.846	4770
214.913	4923
214.980	5207
215.048	4681
215.115	4879
215.182	4227
215.249	3283
215.316	3531
215.383	3447
215.450	3506
215.517	3079
215.584	3587
215.651	4010
215.718	3317
215.785	3441
215.852	3607
215.919	3247
215.986	3603
216.053	2178
216.120	3587
216.187	3695
216.254	3630
216.321	3785
216.388	4075
216.455	3411
216.522	3564
216.589	4382
216.656	6497
216.722	4868
216.789	5545
216.856	5448
216.923	4582
216.990	4948
217.057	5321
217.124	5792
217.191	6505
217.258	6466
217.324	7258
217.391	7442
217.458	6045
217.525	5409
217.592	4359
217.659	4280
217.725	4733
217.792	5426
217.859	4457
217.926	3567
217.993	3088
218.059	3261
218.126	3205
218.193	3656
218.260	3188
218.327	2923
218.393	3313
218.460	3143
218.527	2212
218.594	3528
218.660	5026
218.727	3977
218.794	2775
218.860	3403
218.927	2640
218.994	2811
219.061	3478
219.127	3483
219.194	4079
219.261	2845
219.327	2704
219.394	2470
219.461	3003
219.527	2924
219.594	3549
219.661	3088
219.727	1910
219.794	3600
219.860	3122
219.927	3917
219.994	4926
220.060	7189
220.127	4754
220.193	5591
220.260	4904
220.326	8309
220.393	11602
220.460	10466
220.526	7686
220.593	6555
220.659	6263
220.726	7605
220.792	11908
220.859	12315
220.925	15807
220.992	15628
221.058	14064
221.125	11563
221.191	7787
221.258	5815
221.324	4567
221.391	4123
221.457	3915
221.524	3597
221.590	6066
221.657	9095
221.723	6314
221.789	7157
221.856	4806
221.922	3690
221.989	3808
222.055	3449
222.121	4086
222.188	4561
222.254	3812
222.321	2644
222.387	2679
222.453	2724
222.520	2194
222.586	2542
222.652	3114
222.719	1931
222.785	3045
222.851	2548
222.918	2825
222.984	3046
223.050	3028
223.116	2574
223.183	2720
223.249	2723
223.315	2486
223.382	2490
223.448	1554
223.514	1941
223.580	2391
223.647	2809
223.713	2716
223.779	2490
223.845	2817
223.911	2598
223.978	2501
224.044	2093
224.110	1439
224.176	2587
224.242	2304
224.309	1422
224.375	2731
224.441	2881
224.507	1751
224.573	2179
224.639	2081
224.705	2167
224.772	2497
224.838	2572
224.904	2624
224.970	2041
225.036	1990
225.102	2537
225.168	2922
225.234	2639
225.300	2877
225.366	1864
225.432	2136
225.499	3210
225.565	2596
225.631	3522
225.697	3622
225.763	4985
225.829	5405
225.895	4861
225.961	5750
226.027	5008
226.093	5353
226.159	7680
226.225	13297
226.291	23199
226.357	23120
226.423	13100
226.489	9411
226.554	6783
226.620	7360
226.686	8935
226.752	13091
226.818	22728
226.884	28914
226.950	21281
227.016	12609
227.082	8784
227.148	6615
227.214	5945
227.279	5886
227.345	5121
227.411	4114
227.477	6161
227.543	10539
227.609	7620
227.674	5248
227.740	3978
227.806	3781
227.872	3155
227.938	4357
228.003	5151
228.069	3201
228.135	2662
228.201	3099
228.267	3222
228.332	3730
228.398	3608
228.464	3380
228.530	2950
228.595	2019
228.661	2572
228.727	4413
228.792	3238
228.858	2722
228.924	2533
228.990	2887
229.055	2900
229.121	2558
229.187	2951
229.252	3756
229.318	2859
229.384	2280
229.449	3374
229.515	1817
229.581	1083
229.646	3001
229.712	3439
229.777	5149
229.843	4193
229.909	4909
229.974	6616
230.040	4430
230.105	4084
230.171	4598
230.236	5527
230.302	6335
230.368	4728
230.433	4396
230.499	3484
230.564	4394
230.630	3890
230.695	3395
230.761	3201
230.826	2510
230.892	4736
230.957	3499
231.023	3439
231.088	3074
231.154	2724
231.219	3881
231.284	3964
231.350	3039
231.415	3293
231.481	3182
231.546	3251
231.612	2981
231.677	2687
231.742	2430
231.808	2676
231.873	2438
231.939	2321
232.004	4343
232.069	2350
232.135	2916
232.200	2815
232.265	2769
232.331	2215
232.396	2547
232.461	2769
232.527	2267
232.592	2603
232.657	2715
232.723	3052
232.788	1830
232.853	1952
232.918	2531
232.984	2144
233.049	2125
233.114	1855
233.179	2852
233.245	4095
233.310	2246
233.375	2133
233.440	1680
233.506	3010
233.571	2712
233.636	2060
233.701	2290
233.766	2595
233.832	2217
233.897	2038
233.962	1847
234.027	2808
234.092	2341
234.157	2585
234.222	2774
234.288	4029
234.353	5518
234.418	5660
234.483	5774
234.548	4112
234.613	4033
234.678	4320
234.743	4574
234.808	8187
234.873	5084
234.938	3722
235.004	3680
235.069	3516
235.134	2949
235.199	3409
235.264	3364
235.329	2574
235.394	3443
235.459	3515
235.524	3564
235.589	3308
235.654	3209
235.719	3094
235.784	2630
235.849	3630
235.913	4302
235.978	4884
236.043	4172
236.108	4376
236.173	3717
236.238	3616
236.303	4051
236.368	3708
236.433	5888
236.498	6140
236.563	8994
236.627	22681
236.692	39549
236.757	26017
236.822	13517
236.887	9799
236.952	8595
237.017	8223
237.081	9187
237.146	13238
237.211	28113
237.276	43295
237.341	42971
237.405	23362
237.470	12685
237.535	8734
237.600	7458
237.664	6096
237.729	6064
237.794	11183
237.859	13667
237.923	7485
237.988	5085
238.053	5339
238.118	5996
238.182	10583
238.247	5821
238.312	4054
238.376	3705
238.441	3498
238.506	4113
238.570	2473
238.635	2939
238.700	3430
238.764	3248
238.829	5965
238.893	4387
238.958	5083
239.023	3639
239.087	4231
239.152	3995
239.216	3077
239.281	3586
239.346	3219
239.410	3703
239.475	3628
239.539	8414
239.604	4250
239.668	4463
239.733	3568
239.797	8893
239.862	14355
239.926	7714
239.991	3994
240.055	3356
240.120	3645
240.184	2942
240.249	2762
240.313	2594
240.378	3303
240.442	6127
240.507	5374
240.571	3061
240.635	4520
240.700	3922
240.764	2380
240.829	1755
240.893	2210
240.957	2462
241.022	5597
241.086	4832
241.151	3020
241.215	2840
241.279	2984
241.344	3415
241.408	4171
241.472	4030
241.537	5031
241.601	4599
241.665	3986
241.730	4104
241.794	4871
241.858	4372
241.922	3768
241.987	4325
242.051	3605
242.115	3823
242.179	3803
242.244	3086
242.308	4438
242.372	4063
242.436	3850
242.501	3407
242.565	4130
242.629	3618
242.693	2820
242.757	3158
242.822	3271
242.886	3785
242.950	3646
243.014	3417
243.078	3878
243.142	3590
243.206	3792
243.271	4073
243.335	4452
243.399	6539
243.463	26949
243.527	27804
243.591	8368
243.655	5278
243.719	3861
243.783	5503
243.847	8686
243.911	7700
243.975	8089
244.040	4093
244.104	4283
244.168	3757
244.232	6121
244.296	7240
244.360	6356
244.424	4243
244.488	3555
244.552	2951
244.615	2441
244.679	3184
244.743	4994
244.807	3166
244.871	2698
244.935	3469
244.999	2613
245.063	2798
245.127	3701
245.191	5516
245.255	4184
245.319	4594
245.383	2884
245.446	3476
245.510	2111
245.574	3723
245.638	2720
245.702	4870
245.766	7089
245.829	3005
245.893	4173
245.957	3460
246.021	4342
246.085	3386
246.149	6065
246.212	12618
246.276	10652
246.340	6086
246.404	4307
246.467	6481
246.531	5608
246.595	4708
246.659	4434
246.722	4432
246.786	5462
246.850	6509
246.913	6433
246.977	3872
247.041	3994
247.104	3676
247.168	5558
247.232	12402
247.295	16013
247.359	5784
247.423	6597
247.486	8050
247.550	4153
247.614	4213
247.677	5186
247.741	3346
247.804	3751
247.868	4476
247.932	12520
247.995	11948
248.059	5747
248.122	4635
248.186	5260
248.249	12920
248.313	31087
248.376	22731
248.440	13453
248.503	6122
248.567	7452
248.630	10281
248.694	12083
248.757	19831
248.821	27459
248.884	14890
248.948	19019
249.011	24715
249.075	33844
249.138	21360
249.202	10016
249.265	7937
249.328	7720
249.392	7274
249.455	6903
249.519	6300
249.582	6930
249.645	11236
249.709	7064
249.772	7420
249.835	6805
249.899	6032
249.962	5681
250.025	6169
250.089	16141
250.152	11898
250.215	7786
250.279	6310
250.342	6714
250.405	5951
250.468	6248
250.532	8096
250.595	14939
250.658	51396
250.721	40236
250.785	17209
250.848	11206
250.911	8261
250.974	8458
251.038	14470
251.101	15152
251.164	9445
251.227	10749
251.290	10063
251.354	21117
251.417	58067
251.480	35051
251.543	48650
251.606	83353
251.669	45696
251.732	25680
251.795	28120
251.859	34602
251.922	53023
251.985	21686
252.048	12663
252.111	9730
252.174	11281
252.237	24064
252.300	31622
252.363	49299
252.426	56337
252.489	21223
252.552	12892
252.615	10339
252.678	14402
252.741	29054
252.804	48093
252.867	61534
252.930	33226
252.993	19086
253.056	13290
253.119	8806
253.182	9040
253.245	12628
253.308	8518
253.371	8276
253.434	6166
253.497	9747
253.559	15020
253.622	9165
253.685	12897
253.748	8152
253.811	5562
253.874	7447
253.937	5724
254.000	5722
254.062	15496
254.125	12792
254.188	16533
254.251	8166
254.314	6727
254.376	11835
254.439	10105
254.502	8354
254.565	14723
254.628	14558
254.690	8241
254.753	4588
254.816	5575
254.878	6501
254.941	14801
255.004	7479
255.067	5229
255.129	5066
255.192	3544
255.255	3428
255.317	4701
255.380	2878
255.443	2766
255.505	2648
255.568	3052
255.631	2866
255.693	4226
255.756	2476
255.819	3648
255.881	3429
255.944	2359
256.006	3051
256.069	2840
256.132	3271
256.194	5206
256.257	5488
256.319	5446
256.382	4720
256.444	5215
256.507	5247
256.569	4608
256.632	5881
256.694	10474
256.757	43334
256.819	56877
256.882	19595
256.944	9661
257.007	7640
257.069	7487
257.132	6218
257.194	5831
257.257	5721
257.319	5818
257.381	10027
257.444	32962
257.506	85702
257.569	55182
257.631	24490
257.693	13948
257.756	8184
257.818	6400
257.880	6543
257.943	5213
258.005	4274
258.067	3692
258.130	4290
258.192	5975
258.254	6971
258.317	4136
258.379	6077
258.441	12189
258.503	7511
258.566	10756
258.628	6586
258.690	3405
258.753	6112
258.815	7626
258.877	4716
258.939	4678
259.001	4558
259.064	4571
259.126	3734
259.188	5085
259.250	5311
259.312	6204
259.375	9214
259.437	4662
259.499	4813
259.561	4320
259.623	4203
259.685	3349
259.747	4738
259.809	10173
259.872	11295
259.934	23640
259.996	15517
260.058	5353
260.120	4272
260.182	3585
260.244	3133
260.306	2399
260.368	3916
260.430	4128
260.492	9988
260.554	8580
260.616	6150
260.678	16209
260.740	7907
260.802	3966
260.864	4337
260.926	3053
260.988	3519
261.050	5309
261.112	15194
261.174	16713
261.236	7420
261.298	5573
261.359	7836
261.421	6163
261.483	3066
261.545	4025
261.607	2514
261.669	3202
261.731	6335
261.793	9240
261.854	3873
261.916	3943
261.978	4936
262.040	3180
262.102	2959
262.164	4079
262.225	3348
262.287	4187
262.349	9803
262.411	4489
262.472	3679
262.534	5233
262.596	5135
262.658	3304
262.719	3019
262.781	4902
262.843	5143
262.904	3754
262.966	4185
263.028	6171
263.090	33716
263.151	35183
263.213	13839
263.275	8497
263.336	4238
263.398	2846
263.459	2502
263.521	4534
263.583	8380
263.644	3977
263.706	2310
263.767	1802
263.829	2662
263.891	2027
263.952	2036
264.014	2272
264.075	9826
264.137	10578
264.198	4281
264.260	2548
264.321	3159
264.383	14173
264.444	15208
264.506	4091
264.567	3802
264.629	13922
264.690	13225
264.752	4968
264.813	4103
264.875	4097
264.936	3610
264.998	4236
265.059	2628
265.120	3791
265.182	13373
265.243	53554
265.305	23252
265.366	8089
265.427	5277
265.489	4045
265.550	3157
265.611	4305
265.673	3745
265.734	2997
265.795	2936
265.857	3069
265.918	4727
265.979	22649
266.040	70614
266.102	30577
266.163	12685
266.224	9403
266.286	4648
266.347	3872
266.408	3775
266.469	2808
266.530	2303
266.592	3589
266.653	7941
266.714	5977
266.775	2903
266.836	2650
266.898	3518
266.959	5351
267.020	3432
267.081	3827
267.142	3011
267.203	2341
267.264	2436
267.326	3588
267.387	2827
267.448	2927
267.509	2808
267.570	1996
267.631	2147
267.692	2120
267.753	3194
267.814	2895
267.875	9291
267.936	9501
267.997	8457
268.058	6161
268.119	3032
268.180	2796
268.241	2415
268.302	2803
268.363	2802
268.424	2766
268.485	3408
268.546	2298
268.607	2477
268.668	2322
268.729	2148
268.790	2766
268.851	4140
268.912	9284
268.972	6586
269.033	3459
269.094	2094
269.155	3105
269.216	2491
269.277	3148
269.338	2750
269.398	3053
269.459	3099
269.520	4316
269.581	4468
269.642	5004
269.702	3546
269.763	3476
269.824	2819
269.885	5047
269.945	4419
270.006	2875
270.067	1690
270.128	2260
270.188	2382
270.249	3203
270.310	2226
270.370	2938
270.431	2710
270.492	2076
270.553	3256
270.613	7713
270.674	8995
270.734	3525
270.795	3119
270.856	4945
270.916	2167
270.977	3094
271.038	4386
271.098	3435
271.159	6051
271.219	3246
271.280	3073
271.340	3057
271.401	2589
271.462	4310
271.522	3733
271.583	3090
271.643	2768
271.704	3489
271.764	3757
271.825	12973
271.885	35794
271.946	22050
272.006	10023
272.066	24288
272.127	19058
272.187	8505
272.248	5540
272.308	8772
272.369	18947
272.429	6447
272.489	8967
272.550	6601
272.610	8474
272.671	4385
272.731	5541
272.791	6086
272.852	3672
272.912	4326
272.972	3106
273.033	3749
273.093	4255
273.153	4604
273.214	3821
273.274	4724
273.334	23450
273.394	19161
273.455	8046
273.515	16561
273.575	17650
273.635	7125
273.696	17054
273.756	18750
273.816	6303
273.876	4919
273.936	10421
273.997	8401
274.057	3164
274.117	3967
274.177	12237
274.237	36420
274.297	14720
274.358	13830
274.418	20077
274.478	10059
274.538	4740
274.598	4666
274.658	10786
274.718	9315
274.778	4258
274.838	3324
274.898	8349
274.958	14582
275.018	23235
275.078	9355
275.138	4838
275.198	3704
275.258	3013
275.318	4253
275.378	7941
275.438	6051
275.498	5040
275.558	11657
275.618	21497
275.678	10984
275.738	10547
275.798	6914
275.858	3928
275.918	2600
275.978	4503
276.038	3162
276.098	3246
276.157	10883
276.217	15018
276.277	6517
276.337	5135
276.397	3761
276.457	4014
276.517	2430
276.576	2300
276.636	2780
276.696	5565
276.756	11969
276.815	4967
276.875	3821
276.935	4300
276.995	3411
277.055	3056
277.114	3004
277.174	9004
277.234	12408
277.293	4507
277.353	3341
277.413	2566
277.472	3743
277.532	3058
277.592	4124
277.651	15304
277.711	10358
277.771	9483
277.830	25318
277.890	10499
277.950	21559
278.009	27703
278.069	9316
278.128	16843
278.188	11899
278.248	10209
278.307	18637
278.367	6623
278.426	4593
278.486	3241
278.545	2665
278.605	3285
278.664	2222
278.724	3862
278.783	18101
278.843	17767
278.902	5139
278.962	5003
279.021	3963
279.081	4575
279.140	4575
279.199	5193
279.259	4811
279.318	3947
279.378	6862
279.437	16412
279.496	44629
279.556	76773
279.615	27667
279.675	11466
279.734	10619
279.793	22804
279.853	21687
279.912	7846
279.971	5836
280.031	5503
280.090	19417
280.149	15679
280.208	19022
280.268	62180
280.327	24953
280.386	9550
280.445	14451
280.505	7656
280.564	5293
280.623	4356
280.682	11494
280.742	7479
280.801	3445
280.860	3003
280.919	3252
280.978	3251
281.037	2375
281.097	2731
281.156	2366
281.215	2289
281.274	6617
281.333	19222
281.392	6108
281.451	3701
281.510	2514
281.569	2129
281.628	2031
281.688	2340
281.747	4298
281.806	2037
281.865	1800
281.924	2845
281.983	1773
282.042	1792
282.101	2004
282.160	2403
282.219	1804
282.278	5018
282.337	10077
282.396	3115
282.454	2572
282.513	6780
282.572	14519
282.631	4542
282.690	2178
282.749	2622
282.808	3153
282.867	2745
282.926	2605
282.985	2620
283.043	2006
283.102	2350
283.161	3083
283.220	12711
283.279	11545
283.338	3130
283.396	2712
283.455	2804
283.514	3881
283.573	4534
283.631	3605
283.690	2617
283.749	3547
283.808	8217
283.866	4545
283.925	3360
283.984	3209
284.043	5005
284.101	4254
284.160	2819
284.219	3940
284.277	3195
284.336	9052
284.395	20793
284.453	9096
284.512	5499
284.570	7550
284.629	5523
284.688	4886
284.746	5031
284.805	6196
284.863	8644
284.922	9594
284.981	12688
285.039	19116
285.098	40164
285.156	102921
285.215	143495
285.273	121401
285.332	63790
285.390	34717
285.449	23012
285.507	15944
285.566	11739
285.624	7898
285.683	6979
285.741	4946
285.799	6301
285.858	4466
285.916	4641
285.975	3414
286.033	2793
286.091	3376
286.150	2286
286.208	3326
286.267	3384
286.325	4325
286.383	5748
286.442	4138
286.500	2419
286.558	3000
286.616	3401
286.675	4167
286.733	2775
286.791	3145
286.850	4554
286.908	6867
286.966	7183
287.024	2202
287.083	2541
287.141	2132
287.199	4055
287.257	3706
287.315	3227
287.374	5130
287.432	9770
287.490	4628
287.548	4018
287.606	2384
287.664	3926
287.723	4269
287.781	4236
287.839	3283
287.897	4619
287.955	5169
288.013	10029
288.071	29685
288.129	116613
288.187	138329
288.245	49144
288.303	22153
288.361	14348
288.419	10310
288.477	7269
288.535	5004
288.593	4241
288.651	2644
288.709	2602
288.767	3336
288.825	1858
288.883	2537
288.941	2512
288.999	2268
289.057	1934
289.115	1908
289.173	2082
289.231	2064
289.289	2438
289.346	2557
289.404	3240
289.462	4411
289.520	3429
289.578	2589
289.636	2145
289.694	2489
289.751	2170
289.809	2195
289.867	2981
289.925	3624
289.983	3076
290.040	3190
290.098	1838
290.156	3284
290.214	3190
290.271	2157
290.329	1635
290.387	953
290.444	1842
290.502	1561
290.560	1874
290.617	2172
290.675	1426
290.733	2622
290.790	2548
290.848	2616
290.906	2302
290.963	1899
291.021	2625
291.078	2617
291.136	4684
291.194	16671
291.251	13597
291.309	4170
291.366	2060
291.424	2403
291.481	1756
291.539	1438
291.596	1613
291.654	1882
291.711	1877
291.769	2765
291.826	3521
291.884	2193
291.941	1671
291.999	2203
292.056	2788
292.114	2579
292.171	2822
292.228	2692
292.286	2999
292.343	5480
292.401	4603
292.458	2569
292.515	2092
292.573	3503
292.630	2973
292.687	2813
292.745	2424
292.802	6685
292.859	13616
292.917	15199
292.974	5985
293.031	3099
293.089	2225
293.146	2661
293.203	2304
293.260	2547
293.318	4023
293.375	4997
293.432	1881
293.489	2369
293.546	1438
293.604	4695
293.661	18095
293.718	23381
293.775	9056
293.832	5007
293.889	4488
293.947	3958
294.004	2735
294.061	4193
294.118	13097
294.175	22328
294.232	17692
294.289	6200
294.346	5134
294.403	5451
294.460	3669
294.517	2537
294.574	2908
294.631	2670
294.688	4556
294.745	17451
294.802	40857
294.859	26321
294.916	9978
294.973	6172
295.030	5461
295.087	4383
295.144	4323
295.201	3347
295.258	3120
295.315	5930
295.372	19203
295.429	16464
295.486	7787
295.542	9286
295.599	27822
295.656	23968
295.713	21437
295.770	16930
295.827	7139
295.883	5522
295.940	5245
295.997	7718
296.054	4853
296.111	3798
296.167	3573
296.224	3370
296.281	3298
296.338	3106
296.394	2641
296.451	5473
296.508	15409
296.564	16482
296.621	15522
296.678	35295
296.734	25351
296.791	10458
296.848	7216
296.904	11292
296.961	20161
297.018	26295
297.074	12513
297.131	7116
297.187	5425
297.244	12690
297.301	39155
297.357	29652
297.414	9893
297.470	6516
297.527	4732
297.583	3914
297.640	3945
297.696	3000
297.753	2517
297.809	2864
297.866	2523
297.922	2537
297.979	2303
298.035	3773
298.092	8449
298.148	16926
298.204	9997
298.261	7910
298.317	21409
298.374	28524
298.430	11498
298.486	6566
298.543	5745
298.599	5862
298.656	7717
298.712	15396
298.768	25446
298.824	11906
298.881	5591
298.937	3995
298.993	4685
299.050	4198
299.106	3711
299.162	4367
299.218	3235
299.275	3257
299.331	5186
299.387	14566
299.443	33686
299.500	22612
299.556	10761
299.612	6514
299.668	7406
299.724	11314
299.780	8121
299.837	5409
299.893	12337
299.949	30932
300.005	22394
300.061	31612
300.117	32267
300.173	12610
300.229	8023
300.285	11566
300.341	8920
300.397	4747
300.453	3889
300.510	3147
300.566	4567
300.622	9864
300.678	26769
300.734	26727
300.790	25911
300.845	22603
300.901	22000
300.957	26050
301.013	12689
301.069	6416
301.125	5889
301.181	5838
301.237	4329
301.293	2910
301.349	3277
301.405	2645
301.461	4203
301.516	3946
301.572	5372
301.628	5615
301.684	5989
301.740	13724
301.796	12754
301.851	11658
301.907	17348
301.963	17199
302.019	46217
302.074	77521
302.130	51091
302.186	22648
302.242	11346
302.297	9669
302.353	12969
302.409	18086
302.464	11629
302.520	15930
302.576	30607
302.631	24809
302.687	12567
302.743	7386
302.798	5761
302.854	5197
302.910	6007
302.965	7587
303.021	10049
303.076	9144
303.132	12656
303.187	10998
303.243	6047
303.299	4876
303.354	5386
303.410	4140
303.465	4545
303.521	3801
303.576	4553
303.632	5889
303.687	15198
303.743	25748
303.798	13905
303.853	7935
303.909	6097
303.964	5440
304.020	8398
304.075	9781
304.130	11431
304.186	16161
304.241	14382
304.297	10332
304.352	6307
304.358	6227
304.407	5575
304.449	5867
304.463	5969
304.518	4730
304.539	4629
304.573	4471
304.629	5606
304.630	5713
304.684	10663
304.720	19784
304.739	24411
304.794	20411
304.811	17533
304.850	10448
304.902	5897
304.905	5624
304.960	6667
304.992	6613
305.015	6544
305.071	6020
305.083	5663
305.126	4380
305.173	4094
305.181	4055
305.236	3113
305.264	3398
305.292	3704
305.347	4859
305.354	4852
305.402	4779
305.445	6002
305.457	6346
305.512	6442
305.535	6206
305.567	5860
305.622	7213
305.626	7683
305.678	16600
305.716	27056
305.733	30881
305.788	22497
305.807	21091
305.843	18861
305.897	26287
305.898	26379
305.953	18662
305.988	13042
306.008	9852
306.063	7318
306.078	6622
306.118	5131
306.168	4374
306.173	4326
306.228	3140
306.259	3259
306.283	3354
306.338	3783
306.349	3943
306.393	4800
306.440	5837
306.448	5960
306.503	4789
306.530	5829
306.558	7584
306.613	13523
306.620	14143
306.668	18356
306.711	23442
306.723	24132
306.778	15041
306.801	12308
306.833	8784
306.888	5253
306.892	5113
306.943	4669
306.982	4494
306.997	4430
307.052	4016
307.072	4120
307.107	4529
307.162	5801
307.163	5815
307.217	7392
307.253	8704
307.272	9038
307.327	8439
307.343	7920
307.381	6737
307.434	7164
307.436	7331
307.491	14283
307.524	19220
307.546	21086
307.600	18199
307.614	16790
307.655	10960
307.704	7103
307.710	7041
307.765	8286
307.795	10327
307.819	12518
307.874	16520
307.885	16697
307.929	15034
307.975	15064
307.984	15818
308.038	25537
308.065	34413
308.093	53444
308.148	111604
308.156	120379
308.202	168434
308.246	180505
308.257	171349
308.312	100869
308.336	74411
308.366	57179
308.421	34014
308.426	32196
308.475	22434
308.517	16790
308.530	15748
308.585	13149
308.607	12117
308.639	11266
308.694	11294
308.697	11435
308.748	16522
308.787	20528
308.803	20556
308.857	16265
308.877	15228
308.912	15087
308.967	16697
308.967	16750
309.021	22844
309.058	29061
309.076	36231
309.130	65599
309.148	78778
309.185	129741
309.238	208043
309.239	208614
309.293	214448
309.328	200674
309.348	174062
309.402	95660
309.418	76006
309.457	54943
309.508	32937
309.511	32270
309.566	25483
309.598	22279
309.620	21980
309.674	22810
309.688	23097
309.729	21538
309.778	18322
309.783	17979
309.837	14685
309.868	13537
309.892	15444
309.946	22686
309.959	24646
310.001	32454
310.049	37346
310.055	35979
310.109	21507
310.139	14111
310.163	11446
310.218	7473
310.229	6748
310.272	5854
310.319	5048
310.326	4970
310.381	4617
310.409	4487
310.435	4254
310.489	3987
310.499	3901
310.543	3856
310.589	3911
310.598	3949
310.652	4401
310.679	4580
310.706	4345
310.760	3377
310.769	3312
310.814	3247
310.859	3087
310.868	3179
310.923	3742
310.948	3998
310.977	3982
311.031	3930
311.038	3922
311.085	4027
311.128	4083
311.139	4017
311.193	3717
311.218	3534
311.247	3368
311.301	3223
311.308	3190
311.356	3513
311.398	3776
311.410	3745
311.464	3651
311.488	3624
311.518	3487
311.572	3144
311.578	3119
311.626	4008
311.668	4757
311.680	4836
311.734	5161
311.758	5286
311.788	5272
311.842	5265
311.847	5264
311.896	6394
311.937	7430
311.950	7401
312.004	7188
312.027	7082
312.058	6080
312.112	4312
312.117	4133
312.165	4430
312.207	4683
312.297	5892
312.386	5398
312.476	4661
312.566	7332
312.656	3960
312.745	3544
312.835	4676
312.925	5289
313.015	3844
313.104	4995
313.194	4133
313.284	3954
313.374	4891
313.463	5226
313.553	4130
313.643	4195
313.732	3595
313.822	4146
313.912	3983
314.001	4804
314.091	5224
314.180	7359
314.270	5624
314.360	6351
314.449	4943
314.539	4152
314.628	4145
314.718	5023
314.808	5441
314.897	4041
314.987	4803
315.076	5089
315.166	5331
315.255	5922
315.345	5911
315.434	4991
315.524	4873
315.613	5756
315.703	6132
315.792	8236
315.881	15251
315.971	7865
316.060	7009
316.150	9404
316.239	9589
316.328	5427
316.418	4231
316.507	4190
316.597	5011
316.686	4532
316.775	6380
316.865	10692
316.954	4409
317.043	3678
317.133	4537
317.222	3567
317.311	3481
317.400	3876
317.490	4592
317.579	4839
317.668	3624
317.757	5029
317.847	9056
317.936	25175
318.025	13978
318.114	7671
318.203	6331
318.293	8202
318.382	13708
318.471	13125
318.560	17365
318.649	39273
318.738	10343
318.828	4867
318.917	4530
319.006	6798
319.095	15154
319.184	45866
319.273	26820
319.362	11487
319.451	4166
319.540	3936
319.629	7805
319.718	11999
319.807	7024
319.896	14981
319.985	54974
320.074	22643
320.163	5591
320.252	7348
320.341	7836
320.430	8278
320.519	7658
320.608	5307
320.697	4511
320.786	4270
320.875	4708
320.964	6249
321.053	8906
321.142	12084
321.230	12937
321.319	10507
321.408	22339
321.497	12624
321.586	9969
321.675	11259
321.764	10985
321.852	8468
321.941	12542
322.030	9599
322.119	10301
322.207	21446
322.296	16408
322.385	10439
322.474	10529
322.562	25319
322.651	16288
322.740	10030
322.829	13460
322.917	13562
323.006	9057
323.095	7966
323.183	6003
323.272	8237
323.361	14540
323.449	38327
323.538	15109
323.626	27128
323.715	18212
323.804	7483
323.892	22638
323.981	15264
324.069	5700
324.158	13326
324.246	14634
324.335	5774
324.424	8220
324.512	4711
324.601	5812
324.689	6277
324.778	9250
324.866	10432
324.954	4228
325.043	3780
325.131	6532
325.220	10504
325.308	11575
325.397	9014
325.485	6855
325.574	3270
325.662	3624
325.750	3714
325.839	4281
325.927	3834
326.015	4604
326.104	4996
326.192	6497
326.280	3390
326.369	3405
326.457	4663
326.545	7053
326.634	5135
326.722	2706
326.810	3792
326.898	3588
326.987	3710
327.075	6907
327.163	7500
327.251	4258
327.340	5192
327.428	6222
327.516	3761
327.604	2827
327.692	3321
327.781	3498
327.869	6132
327.957	4529
328.045	4963
328.133	2580
328.221	3608
328.309	3158
328.397	3600
328.485	3718
328.574	5552
328.662	13802
328.750	9495
328.838	4738
328.926	3594
329.014	3742
329.102	4360
329.190	10301
329.278	8585
329.366	2685
329.454	3293
329.542	4438
329.630	4129
329.718	3614
329.806	4721
329.893	5217
329.981	7173
330.069	10875
330.157	44265
330.245	140690
330.333	90072
330.421	14655
330.509	7124
330.597	16967
330.684	13817
330.772	6469
330.860	8122
330.948	10216
331.036	5812
331.123	3224
331.211	3525
331.299	4604
331.387	8122
331.475	15884
331.562	5656
331.650	3058
331.738	3613
331.825	4265
331.913	3041
332.001	2503
332.089	3904
332.176	6688
332.264	12323
332.352	11031
332.439	4222
332.527	4068
332.614	3034
332.702	4016
332.790	3011
332.877	5818
332.965	12205
333.052	4215
333.140	4359
333.228	7369
333.315	3422
333.403	3676
333.490	7722
333.578	6731
333.665	7685
333.753	5354
333.840	3385
333.928	4147
334.015	7875
334.103	16142
334.190	54382
334.278	17926
334.365	6686
334.452	5834
334.540	4187
334.627	4477
334.715	6417
334.802	9839
334.889	43837
334.977	51059
335.064	10531
335.151	5909
335.239	5457
335.326	6882
335.413	27707
335.501	45734
335.588	7211
335.675	4577
335.762	6150
335.850	11847
335.937	7567
336.024	16204
336.111	56403
336.199	31594
336.286	9244
336.373	5313
336.460	4279
336.547	3628
336.635	4367
336.722	4365
336.809	3824
336.896	4677
336.983	15616
337.070	43051
337.157	62058
337.245	34156
337.332	23748
337.419	3984
337.506	3639
337.593	4095
337.680	12426
337.767	44755
337.854	13848
337.941	13183
338.028	11378
338.115	5230
338.202	6294
338.289	9265
338.376	29027
338.463	11505
338.550	23032
338.637	30805
338.724	6904
338.811	9727
338.898	3323
338.984	2714
339.071	3525
339.158	4747
339.245	9139
339.332	7281
339.419	7001
339.506	6872
339.593	1660
339.679	2243
339.766	2639
339.853	2966
339.940	5445
340.027	2731
340.113	2911
340.200	4210
340.287	3007
340.374	2996
340.460	5615
340.547	3099
340.634	3649
340.720	14408
340.807	10916
340.894	2969
340.980	2812
341.067	2057
341.154	2997
341.240	3711
341.327	8622
341.414	3494
341.500	4281
341.587	2729
341.674	2527
341.760	5645
341.847	6958
341.933	2531
342.020	2035
342.106	1160
342.193	2610
342.279	4558
342.366	3687
342.452	5663
342.539	3439
342.625	5724
342.712	17423
342.798	8295
342.885	4098
342.971	2004
343.058	2090
343.144	1746
343.230	2699
343.317	2592
343.403	2410
343.490	2090
343.576	1849
343.662	1523
343.749	2375
343.835	3839
343.921	6310
344.008	34507
344.094	93695
344.180	24132
344.267	6425
344.353	22690
344.439	27731
344.525	9166
344.612	7314
344.698	7759
344.784	5640
344.870	2482
344.957	2669
345.043	4349
345.129	3313
345.215	5213
345.301	4180
345.387	3126
345.474	2025
345.560	2190
345.646	2661
345.732	2443
345.818	2847
345.904	2287
345.990	1962
346.076	2759
346.162	4772
346.249	3040
346.335	2501
346.421	2660
346.507	9544
346.593	36825
346.679	11358
346.765	3399
346.851	3128
346.937	3190
347.023	2751
347.108	2321
347.194	2711
347.280	2266
347.366	3384
347.452	9901
347.538	44179
347.624	32469
347.710	27319
347.796	5393
347.882	2317
347.967	3177
348.053	4389
348.139	3261
348.225	1460
348.311	3057
348.397	1930
348.482	2735
348.568	3634
348.654	2364
348.740	4215
348.825	5035
348.911	4610
348.997	17000
349.083	42163
349.168	8270
349.254	2701
349.340	3191
349.425	1781
349.511	2896
349.597	4056
349.682	6579
349.768	23550
349.854	14669
349.939	3274
350.025	2493
350.110	3637
350.196	2111
350.282	1577
350.367	1764
350.453	3875
350.538	3539
350.624	3434
350.709	2786
350.795	1814
350.880	2886
350.966	3208
351.051	3951
351.137	2669
351.222	2111
351.308	6593
351.393	20366
351.479	6593
351.564	2297
351.649	2342
351.735	2314
351.820	2233
351.906	2266
351.991	3294
352.076	10616
352.162	20210
352.247	4500
352.332	2770
352.418	4379
352.503	7584
352.588	25766
352.673	24867
352.759	5401
352.844	3332
352.929	3100
353.014	3539
353.100	2764
353.185	3946
353.270	5644
353.355	6818
353.441	2733
353.526	2220
353.611	4890
353.696	6830
353.781	4357
353.866	2602
353.952	2686
354.037	4978
354.122	11163
354.207	10904
354.292	4948
354.377	2616
354.462	2523
354.547	3452
354.632	3170
354.717	4622
354.802	5604
354.887	3976
354.972	2919
355.057	1898
355.142	2176
355.227	3068
355.312	3860
355.397	7524
355.482	17561
355.567	10899
355.652	7418
355.737	7622
355.822	24429
355.907	26477
355.991	4496
356.076	2086
356.161	2251
356.246	2943
356.331	2830
356.416	5706
356.501	40249
356.585	52827
356.670	7831
356.755	4142
356.840	5180
356.924	24680
357.009	98657
357.094	46401
357.179	8349
357.263	6428
357.348	5146
357.433	5115
357.517	5235
357.602	4397
357.687	4113
357.771	5853
357.856	19835
357.941	14913
358.025	21137
358.110	99393
358.195	58325
358.279	8073
358.364	4635
358.448	15043
358.533	45374
358.617	36997
358.702	35256
358.787	15789
358.871	7022
358.956	6269
359.040	2966
359.125	2103
359.209	3290
359.294	8478
359.378	17636
359.462	7127
359.547	3873
359.631	2698
359.716	2271
359.800	3766
359.885	4017
359.969	3030
360.053	2785
360.138	3990
360.222	4437
360.306	5862
360.391	5614
360.475	9390
360.559	20892
360.644	16041
360.728	13510
360.812	20111
360.896	67738
360.981	30113
361.065	15554
361.149	4944
361.233	4610
361.318	2857
361.402	3676
361.486	3886
361.570	2997
361.654	3893
361.739	7154
361.823	37547
361.907	71548
361.991	15445
362.075	7068
362.159	12629
362.243	11105
362.327	12821
362.411	17739
362.495	9601
362.580	4739
362.664	4081
362.748	4098
362.832	5637
362.916	9786
363.000	28448
363.084	69038
363.168	91589
363.252	25073
363.336	7964
363.420	9167
363.503	35729
363.587	55993
363.671	10962
363.755	6096
363.839	7511
363.923	4694
364.007	7071
364.091	9803
364.175	15877
364.258	66827
364.342	63208
364.426	65487
364.510	41856
364.594	15870
364.677	14442
364.761	54712
364.845	49864
364.929	13298
365.013	10515
365.096	6738
365.180	10146
365.264	15285
365.347	65090
365.431	36904
365.515	8125
365.598	3514
365.682	3394
365.766	6973
365.849	10815
365.933	3679
366.017	5475
366.100	6033
366.184	2267
366.267	2503
366.351	2937
366.435	2031
366.518	2589
366.602	2321
366.685	2380
366.769	2487
366.852	6083
366.936	9963
367.019	5836
367.103	5473
367.186	10380
367.270	3819
367.353	1366
367.436	2337
367.520	2738
367.603	3089
367.687	4113
367.770	6546
367.853	5112
367.937	15187
368.020	33318
368.104	8475
368.187	5216
368.270	8451
368.353	8916
368.437	8069
368.520	17795
368.603	14049
368.687	17144
368.770	38946
368.853	11829
368.936	7127
369.020	10729
369.103	4686
369.186	2401
369.269	2944
369.352	4165
369.436	7596
369.519	5142
369.602	2731
369.685	2389
369.768	3227
369.851	2810
369.934	1784
370.018	3437
370.101	5440
370.184	5301
370.267	4816
370.350	5664
370.433	10298
370.516	28791
370.599	43270
370.682	11024
370.765	17062
370.848	22773
370.931	47322
371.014	23088
371.097	4166
371.180	2973
371.263	1974
371.346	1442
371.429	2169
371.511	2737
371.594	4568
371.677	8405
371.760	11072
371.843	8118
371.926	33291
372.009	93183
372.091	36132
372.174	16718
372.257	46218
372.340	24245
372.423	11835
372.505	17228
372.588	8386
372.671	11915
372.754	41731
372.836	28388
372.919	16932
373.002	41273
373.085	14747
373.167	7148
373.250	16465
373.332	44215
373.415	55927
373.498	117832
373.580	53168
373.663	48538
373.746	83801
373.828	21457
373.911	7271
373.993	8287
374.076	32858
374.159	41121
374.241	13126
374.324	34304
374.406	28062
374.489	29862
374.571	99464
374.654	53712
374.736	16834
374.819	56588
374.901	82282
374.983	95772
375.066	21897
375.148	6788
375.231	25544
375.313	61491
375.395	27080
375.478	7395
375.560	3984
375.643	4467
375.725	14110
375.807	67928
375.890	64370
375.972	20476
376.054	11476
376.136	16552
376.219	8658
376.301	17920
376.383	62797
376.465	30868
376.548	11075
376.630	15050
376.712	50005
376.794	32300
376.877	3516
376.959	3186
377.041	2783
377.123	6906
377.205	10933
377.287	2821
377.369	2108
377.452	2023
377.534	1908
377.616	2154
377.698	2474
377.780	1516
377.862	1983
377.944	2940
378.026	2329
378.108	2112
378.190	2254
378.272	1580
378.354	1398
378.436	1563
378.518	3250
378.600	14201
378.682	13211
378.764	23157
378.846	24122
378.928	7062
379.010	8166
379.091	5326
379.173	2569
379.255	2322
379.337	2978
379.419	9996
379.501	36078
379.583	20348
379.664	3508
379.746	7300
379.828	21906
379.910	34089
379.991	33841
380.073	7235
380.155	3719
380.237	2623
380.318	2253
380.400	1735
380.482	3843
380.564	6925
380.645	6884
380.727	6681
380.809	4450
380.890	4088
380.972	2838
381.053	2344
381.135	3425
381.217	7555
381.298	24553
381.380	16206
381.461	8883
381.543	43928
381.624	69487
381.706	15681
381.787	5686
381.869	7153
381.951	20033
382.032	83500
382.113	65647
382.195	12496
382.276	7649
382.358	14544
382.439	46414
382.521	54592
382.602	85232
382.684	41474
382.765	54192
382.846	60898
382.928	52718
383.009	34569
383.090	20756
383.172	68911
383.253	124627
383.334	56535
383.416	68490
383.497	45228
383.578	13489
383.659	19044
383.741	63197
383.822	176798
383.903	116569
383.984	43477
384.066	81284
384.147	61521
384.228	13885
384.309	7435
384.390	6807
384.471	5052
384.553	5101
384.634	6438
384.715	7003
384.796	3873
384.877	5539
384.958	19865
385.039	30755
385.120	12463
385.201	5008
385.282	6259
385.363	7067
385.444	5922
385.525	8646
385.606	36061
385.687	41786
385.768	10260
385.849	10161
385.930	36452
386.011	78577
386.092	29127
386.173	6059
386.254	4515
386.335	4831
386.416	5399
386.496	13268
386.577	28144
386.658	13036
386.739	6690
386.820	6971
386.901	5986
386.981	5380
387.062	3770
387.143	5933
387.224	22334
387.304	28474
387.385	10574
387.466	7177
387.547	8950
387.627	6089
387.708	9660
387.789	40652
387.869	64448
387.950	23054
388.031	4200
388.111	3939
388.192	9982
388.273	14800
388.353	9631
388.434	5404
388.514	9436
388.595	40776
388.676	63566
388.756	31033
388.837	21275
388.917	16504
388.998	4272
389.078	4607
389.159	3353
389.239	3280
389.320	5018
389.400	3820
389.480	10087
389.561	29885
389.641	20335
389.722	5049
389.802	7428
389.883	11682
389.963	34526
390.043	27999
390.124	8146
390.204	8507
390.284	25226
390.365	21834
390.445	22376
390.525	55822
390.605	54855
390.686	20211
390.766	7689
390.846	4137
390.927	3467
391.007	3507
391.087	4071
391.167	4458
391.247	3523
391.328	5274
391.408	8081
391.488	8627
391.568	2811
391.648	3306
391.728	5951
391.808	5910
391.888	6464
391.969	13834
392.049	29365
392.129	16097
392.209	14093
392.289	33993
392.369	24639
392.449	17946
392.529	14031
392.609	8815
392.689	10708
392.769	30943
392.849	35942
392.929	21216
393.009	48734
393.089	46462
393.169	32753
393.248	86285
393.328	325205
393.408	424858
393.488	144654
393.568	36826
393.648	19486
393.728	13274
393.807	10407
393.887	10082
393.967	9929
394.047	11071
394.127	13542
394.206	22894
394.286	71968
394.366	281537
394.446	372476
394.525	132635
394.605	33003
394.685	19491
394.764	26823
394.844	44075
394.924	40741
395.003	13970
395.083	8787
395.163	8858
395.242	7887
395.322	7610
395.402	6992
395.481	8373
395.561	17171
395.640	48231
395.720	46061
395.799	55547
395.879	57748
395.958	39438
396.038	110739
396.117	366014
396.197	472926
396.276	204962
396.356	67794
396.435	38026
396.515	25864
396.594	21755
396.673	31258
396.753	94814
396.832	316996
396.912	295114
396.991	80987
397.070	21656
397.150	11550
397.229	10003
397.308	12091
397.388	23348
397.467	15866
397.546	6427
397.625	4823
397.705	6232
397.784	6156
397.863	4315
397.942	3074
398.022	4070
398.101	11728
398.180	41447
398.259	30246
398.338	8166
398.417	3432
398.497	3217
398.576	3421
398.655	2591
398.734	3169
398.813	3335
398.892	11398
398.971	44021
399.050	30991
399.129	4453
399.208	2803
399.287	2735
399.366	2593
399.445	2725
399.524	2777
399.603	1175
399.682	3506
399.761	10369
399.840	43467
399.919	47656
399.998	8544
400.077	1967
400.156	753
400.235	3138
400.313	1721
400.392	3048
400.471	10016
400.550	21285
400.629	8385
400.708	2711
400.786	2738
400.865	8848
400.944	12452
401.023	6259
401.102	1554
401.180	1447
401.259	1248
401.338	1825
401.416	3059
401.495	3197
401.574	2722
401.652	1281
401.731	2815
401.810	2747
401.888	1967
401.967	1091
402.046	2044
402.124	1954
402.203	3550
402.281	2743
402.360	3513
402.438	11118
402.517	11277
402.596	3120
402.674	2555
402.753	2574
402.831	1672
402.910	1624
402.988	6745
403.066	30448
403.145	25572
403.223	8634
403.302	24899
403.380	22701
403.459	19826
403.537	10086
403.615	3622
403.694	511
403.772	1401
403.850	1498
403.929	1685
404.007	1720
404.085	3447
404.164	4267
404.242	3718
404.320	8516
404.398	36499
404.477	47562
404.555	64012
404.633	73250
404.711	35431
404.789	23505
404.868	5864
404.946	2028
405.024	1531
405.102	1064
405.180	1578
405.258	684
405.336	1525
405.415	1246
405.493	3737
405.571	4637
405.649	1302
405.727	1136
405.805	3109
405.883	1729
405.961	3108
406.039	3414
406.117	1760
406.195	2401
406.273	10752
406.351	48942
406.429	43423
406.507	8286
406.585	2806
406.663	2216
406.740	1824
406.818	1923
406.896	1562
406.974	1486
407.052	3141
407.130	24301
407.208	48203
407.285	14557
407.363	1496
407.441	1758
407.519	1654
407.596	1798
407.674	6926
407.752	29370
407.830	35935
407.907	12208
407.985	3028
408.063	2227
408.141	1190
408.218	3127
408.296	2730
408.373	2608
408.451	1622
408.529	878
408.606	1048
408.684	1199
408.762	964
408.839	350
408.917	457
408.994	1107
409.072	291
409.149	1778
409.227	2695
409.304	3713
409.382	3678
409.459	3547
409.537	5053
409.614	5241
409.692	3088
409.769	3039
409.846	4622
409.924	7268
410.001	5413
410.079	4477
410.156	3377
410.233	3193
410.311	1876
410.388	1488
410.465	1804
410.543	1865
410.620	1462
410.697	1398
410.775	2047
410.852	826
410.929	2052
411.006	2731
411.083	1838
411.161	3155
411.238	5116
411.315	3544
411.392	1203
411.469	1757
411.547	2585
411.624	1089
411.701	994
411.778	1610
411.855	3193
411.932	2639
412.009	1081
412.086	1016
412.163	1675
412.240	2262
412.317	3068
412.394	2269
412.471	1008
412.548	585
412.625	382
412.702	2189
412.779	3832
412.856	3474
412.933	853
413.010	1275
413.087	1932
413.164	8532
413.241	18289
413.318	5465
413.395	2361
413.471	2686
413.548	1628
413.625	380
413.702	1573
413.779	1674
413.855	794
413.932	492
414.009	920
414.086	379
414.162	608
414.239	1404
414.316	9167
414.393	22902
414.469	13285
414.546	1613
414.623	844
414.699	264
414.776	422
414.853	150
414.929	738
415.006	898
415.082	1177
415.159	1176
415.236	1409
415.312	1340
415.389	1115
415.465	2513
415.542	1736
415.618	558
415.695	1708
415.771	982
415.848	546
415.924	1821
416.000	1596
416.077	611
416.153	663
416.230	-705
416.306	34
416.383	162
416.459	271
416.535	-89
416.612	798
416.688	763
416.764	885
416.841	17
416.917	307
416.993	918
417.069	651
417.146	1943
417.222	4032
417.298	2810
417.374	871
417.451	877
417.527	448
417.603	1256
417.679	1174
417.755	1180
417.831	230
417.908	880
417.984	383
418.060	-652
418.136	2188
418.212	3244
418.288	2396
418.364	785
418.440	696
418.516	1940
418.592	2268
418.668	4902
418.744	7070
418.820	6067
418.896	1090
418.972	744
419.048	658
419.124	2028
419.200	2456
419.276	912
419.352	453
419.428	491
419.504	950
419.579	1361
419.655	673
419.731	585
419.807	4496
419.883	6840
419.959	6546
420.034	3164
420.110	2842
420.186	12957
420.262	16891
420.337	3717
420.413	2166
420.489	1244
420.565	1736
420.640	889
420.716	1791
420.792	787
420.867	1848
420.943	851
421.019	2481
421.094	2946
421.170	2468
421.245	1179
421.321	2156
421.397	2398
421.472	6093
421.548	17894
421.623	17269
421.699	5827
421.774	3750
421.850	3758
421.925	5811
422.001	6534
422.076	5983
422.152	7572
422.227	10761
422.302	14858
422.378	20193
422.453	34540
422.529	81519
422.604	222255
422.679	381618
422.755	318973
422.830	149381
422.905	57301
422.981	30848
423.056	18885
423.131	13762
423.207	9645
423.282	7657
423.357	8779
423.432	8110
423.508	6306
423.583	8612
423.658	8743
423.733	4963
423.808	3978
423.883	3923
423.959	4044
424.034	3371
424.109	3806
424.184	2667
424.259	2693
424.334	2344
424.409	1277
424.484	978
424.559	1236
424.634	789
424.709	1379
424.784	2649
424.859	1720
424.934	2174
425.009	8640
425.084	17711
425.159	10612
425.234	1699
425.309	786
425.384	3915
425.459	8345
425.534	4682
425.609	1152
425.683	1105
425.758	722
425.833	1529
425.908	1105
425.983	4504
426.058	16009
426.132	11201
426.207	2331
426.282	3446
426.357	3480
426.431	1201
426.506	1206
426.581	741
426.655	1696
426.730	871
426.805	455
426.879	1659
426.954	1316
427.029	2245
427.103	12599
427.178	44452
427.253	32582
427.327	5236
427.402	2603
427.476	10053
427.551	7529
427.625	2420
427.700	2069
427.774	1488
427.849	1600
427.923	1709
427.998	766
428.072	1240
428.147	3791
428.221	15349
428.296	62750
428.370	57301
428.444	7955
428.519	4653
428.593	8364
428.667	10768
428.742	9573
428.816	10928
428.890	33340
428.965	78993
429.039	34242
429.113	13329
429.188	7270
429.262	1739
429.336	2051
429.410	8499
429.485	7535
429.559	7722
429.633	8515
429.707	2522
429.781	5831
429.855	35069
429.930	77471
430.004	40956
430.078	42397
430.152	50667
430.226	78484
430.300	120465
430.374	30739
430.448	5786
430.522	10493
430.596	40956
430.670	37913
430.744	52535
430.818	107102
430.892	36107
430.966	3889
431.040	2413
431.114	1683
431.188	1143
431.262	1019
431.336	1333
431.410	3172
431.484	9814
431.557	10076
431.631	1713
431.705	1873
431.779	8182
431.853	51573
431.927	62610
432.000	10525
432.074	1860
432.148	1699
432.222	2219
432.295	812
432.369	-54
432.443	1723
432.516	12982
432.590	46883
432.664	30169
432.737	3691
432.811	570
432.885	-495
432.958	606
433.032	862
433.106	103
433.179	270
433.253	377
433.326	598
433.400	-450
433.473	49
433.547	43
433.620	328
433.694	1573
433.767	1994
433.841	698
433.914	325
433.988	77
434.061	-121
434.134	892
434.208	576
434.281	-202
434.355	-290
434.428	367
434.501	-281
434.575	155
434.648	217
434.721	74
434.795	85
434.868	271
434.941	-80
435.014	-410
435.088	499
435.161	951
435.234	1517
435.307	2690
435.381	1372
435.454	1060
435.527	1833
435.600	2637
435.673	2232
435.746	1763
435.819	522
435.892	1489
435.966	419
436.039	635
436.112	1346
436.185	329
436.258	-171
436.331	-349
436.404	221
436.477	192
436.550	-495
436.623	-55
436.696	-79
436.769	1003
436.842	578
436.915	39
436.987	870
437.060	1265
437.133	630
437.206	-187
437.279	967
437.352	524
437.425	-302
437.498	825
437.570	2815
437.643	3367
437.716	804
437.789	334
437.861	919
437.934	4503
438.007	3735
438.080	151
438.152	759
438.225	2082
438.298	16226
438.370	69260
438.443	48664
438.516	9002
438.588	2078
438.661	285
438.734	326
438.806	437
438.879	1447
438.951	1698
439.024	2364
439.096	1794
439.169	622
439.241	371
439.314	268
439.386	1137
439.459	2817
439.531	3473
439.604	1596
439.676	1272
439.749	-329
439.821	-39
439.893	390
439.966	297
440.038	311
440.110	940
440.183	759
440.255	373
440.327	1407
440.400	6453
440.472	36019
440.544	42566
440.617	7826
440.689	2287
440.761	2805
440.833	4715
440.905	4377
440.978	1559
441.050	-231
441.122	1055
441.194	280
441.266	645
441.338	-107
441.411	1967
441.483	8415
441.555	21286
441.627	8279
441.699	2620
441.771	3165
441.843	1096
441.915	1002
441.987	682
442.059	543
442.131	1275
442.203	2370
442.275	2888
442.347	2852
442.419	4813
442.491	21247
442.563	74744
442.635	55303
442.706	16788
442.778	14546
442.850	4384
442.922	1919
442.994	2219
443.066	3011
443.137	4071
443.209	2761
443.281	3485
443.353	8098
443.425	27941
443.496	117333
443.568	168659
443.640	80210
443.711	18221
443.783	4333
443.855	3375
443.926	2336
443.998	2251
444.070	2388
444.141	2120
444.213	2845
444.285	3361
444.356	2631
444.428	2917
444.499	1874
444.571	863
444.642	958
444.714	1906
444.785	2507
444.857	3598
444.928	7904
445.000	8948
445.071	6407
445.143	8563
445.214	6130
445.285	7820
445.357	21959
445.428	69757
445.500	206942
445.571	182150
445.642	95962
445.714	36368
445.785	21493
445.856	10153
445.928	4380
445.999	3878
446.070	3028
446.141	2266
446.213	3846
446.284	2126
446.355	2245
446.426	1622
446.497	1089
446.569	2087
446.640	4340
446.711	3443
446.782	1855
446.853	1329
446.924	1609
446.995	833
447.066	863
447.138	2819
447.209	3570
447.280	512
447.351	-372
447.422	279
447.493	1173
447.564	1745
447.635	2346
447.706	1310
447.777	819
447.847	288
447.918	-252
447.989	1220
448.060	2220
448.131	5086
448.202	6455
448.273	4098
448.344	1855
448.414	1073
448.485	1
448.556	1058
448.627	443
448.698	1310
448.768	104
448.839	925
448.910	1742
448.981	3545
449.051	2046
449.122	401
449.193	584
449.263	705
449.334	801
449.405	1270
449.475	3831
449.546	4849
449.616	3389
449.687	3250
449.758	2378
449.828	1508
449.899	688
449.969	760
450.040	398
450.110	1265
450.181	1853
450.251	1907
450.322	375
450.392	1356
450.463	1293
450.533	1089
450.604	1244
450.674	835
450.744	304
450.815	845
450.885	1273
450.955	1184
451.026	825
451.096	732
451.166	1322
451.237	2795
451.307	9928
451.377	7183
451.447	1947
451.518	-288
451.588	693
451.658	1505
451.728	2442
451.799	7805
451.869	16801
451.939	6201
452.009	1659
452.079	276
452.149	583
452.219	2076
452.289	10122
452.360	14833
452.430	4743
452.500	1976
452.570	2069
452.640	3061
452.710	8211
452.780	17740
452.850	12761
452.920	8959
452.990	5309
453.060	1592
453.129	1739
453.199	2952
453.269	8677
453.339	37601
453.409	66571
453.479	44117
453.549	70681
453.619	83527
453.688	52773
453.758	11011
453.828	2437
453.898	1932
453.968	1382
454.037	1760
454.087	1279
454.107	1070
454.168	1475
454.177	1521
454.247	1018
454.249	1030
454.316	851
454.330	945
454.386	1106
454.411	2443
454.456	4526
454.492	7713
454.525	10583
454.574	7585
454.595	6312
454.655	2950
454.665	2410
454.734	2382
454.736	2451
454.804	3349
454.817	4474
454.873	8459
454.898	10944
454.943	15601
454.979	12002
455.013	8947
455.060	4977
455.082	3221
455.141	3171
455.152	3190
455.221	7351
455.222	7601
455.291	19840
455.303	20454
455.360	21650
455.384	29384
455.430	41192
455.465	39162
455.499	38582
455.546	22305
455.569	14514
455.627	11323
455.638	10820
455.707	4461
455.708	4460
455.777	1397
455.789	1538
455.846	2036
455.869	2119
455.916	2283
455.950	2085
455.985	1894
456.031	1753
456.054	1628
456.112	1574
456.124	1566
456.193	1690
456.193	1674
456.262	1848
456.274	1989
456.332	2624
456.355	2518
456.401	2033
456.436	1882
456.470	1869
456.516	1609
456.540	1458
456.597	1410
456.609	1382
456.678	1405
456.678	1391
456.747	1421
456.759	1381
456.817	1202
456.840	1357
456.886	1636
456.920	1762
456.955	1900
457.001	1595
457.024	1428
457.082	1861
457.093	1921
457.162	2209
457.163	2227
457.232	2661
457.243	2651
457.301	2876
457.324	2512
457.370	1762
457.405	1856
457.439	2034
457.485	2190
457.508	2228
457.566	2433
457.577	2542
457.646	3452
457.647	3480
457.715	5083
457.727	5422
457.784	7986
457.808	9610
457.853	10101
457.889	12435
457.922	14502
457.969	12586
457.991	12951
458.050	13601
458.060	13647
458.129	17457
458.130	17709
458.198	18657
458.211	17109
458.267	14031
458.292	11213
458.336	7940
458.372	6874
458.405	7692
458.453	11210
458.474	13240
458.533	20097
458.543	19980
458.611	26073
458.614	26300
458.680	23911
458.694	20151
458.749	12181
458.775	9376
458.818	5322
458.855	4415
458.887	3758
458.936	3131
458.955	2904
459.016	3001
459.024	3016
459.093	3478
459.097	3493
459.162	3315
459.177	3292
459.230	3382
459.257	3488
459.299	3831
459.338	4096
459.368	3955
459.418	4081
459.437	4099
459.499	3549
459.505	3466
459.574	2849
459.579	2782
459.643	2407
459.659	2485
459.711	2881
459.740	3007
459.780	3135
459.820	3212
459.849	3185
459.900	3319
459.917	3411
459.981	3760
459.986	3734
460.054	4177
460.061	4083
460.123	3703
460.141	3697
460.191	3412
460.222	3455
460.260	3938
460.302	4874
460.328	5012
460.382	4545
460.397	4723
460.462	5429
460.465	5771
460.534	14250
460.543	15362
460.602	33463
460.623	40277
460.671	57973
460.703	74489
460.739	57466
460.783	40223
460.808	42092
460.864	17758
460.876	14413
460.944	4786
460.945	4673
461.013	4323
461.024	4293
461.081	3535
461.104	3329
461.150	3104
461.184	3043
461.218	3368
461.264	3748
461.286	3889
461.345	3873
461.355	3730
461.423	3350
461.425	3336
461.491	4343
461.505	4612
461.559	7373
461.585	8471
461.628	11293
461.665	14503
461.696	13740
461.745	14250
461.764	13416
461.825	8113
461.832	8225
461.901	5390
461.905	5359
461.969	3680
461.985	3518
462.037	3624
462.065	3487
462.105	4208
462.145	5117
462.173	6259
462.225	8681
462.241	9027
462.305	10829
462.310	10570
462.378	7386
462.385	6743
462.446	5702
462.465	5230
462.514	4278
462.545	4371
462.582	4163
462.625	3731
462.650	3820
462.705	4223
462.718	4328
462.785	4671
462.786	4690
462.854	6039
462.865	6224
462.922	5871
462.945	5955
462.990	5609
463.025	4942
463.058	4817
463.104	4333
463.126	4135
463.184	3816
463.194	3776
463.262	3625
463.264	3620
463.330	4250
463.344	4388
463.398	4547
463.424	4666
463.466	4445
463.504	4132
463.533	4376
463.583	4958
463.601	5241
463.663	5931
463.669	5990
463.737	6705
463.743	6776
463.805	10589
463.823	11705
463.873	15879
463.903	18495
463.940	16549
463.982	15110
464.008	13138
464.062	8082
464.076	8084
464.142	5880
464.144	5827
464.211	4758
464.221	4725
464.279	4938
464.301	4933
464.347	4764
464.381	4742
464.414	5076
464.461	5582
464.482	5830
464.540	6518
464.550	6547
464.617	6612
464.620	6604
464.685	8604
464.699	8982
464.753	11725
464.779	13248
464.820	13689
464.859	14220
464.888	13550
464.938	11929
464.956	11788
465.018	11133
465.023	11099
465.091	10670
465.098	10590
465.158	10184
465.177	10106
465.226	10365
465.257	10501
465.293	10718
465.336	10936
465.361	11376
465.416	12276
465.428	12867
465.495	16087
465.496	16154
465.563	22810
465.575	23978
465.631	23309
465.654	23322
465.698	17186
465.734	11514
465.765	11234
465.813	10047
465.833	10000
465.893	10659
465.900	10659
465.968	10699
465.972	10675
466.035	10311
466.052	10224
466.102	9999
466.131	9840
466.170	10571
466.210	11305
466.237	11300
466.290	11224
466.304	11393
466.369	12035
466.372	12072
466.439	12664
466.449	12709
466.506	14054
466.528	14569
466.573	18792
466.607	21891
466.641	26563
466.687	33009
466.708	33095
466.766	33236
466.775	31299
466.842	16602
466.845	15872
466.909	14648
466.925	14351
466.977	14664
467.004	14920
467.044	16465
467.083	17977
467.111	19590
467.163	22531
467.178	22576
467.242	22557
467.245	22490
467.312	20292
467.321	19965
467.379	19496
467.400	19276
467.446	19140
467.480	18982
467.559	16707
467.638	16318
467.717	15993
467.796	16569
467.875	15903
467.955	17456
468.034	25268
468.113	39813
468.192	42375
468.271	15926
468.350	15438
468.429	17301
468.508	16529
468.588	14349
468.667	15289
468.746	15784
468.825	14399
468.904	12297
468.983	15533
469.062	18753
469.141	18697
469.220	12604
469.299	13705
469.378	16484
469.456	21123
469.535	15943
469.614	16153
469.693	16200
469.772	17841
469.851	20763
469.930	15567
470.009	14513
470.088	13337
470.166	14683
470.245	15153
470.324	14938
470.403	14046
470.482	13322
470.560	13364
470.639	12771
470.718	14309
470.797	13825
470.875	15234
470.954	17512
471.033	16500
471.111	11146
471.190	12283
471.269	11479
471.347	11241
471.426	13274
471.505	15982
471.583	16683
471.662	15159
471.740	13801
471.819	13248
471.898	12359
471.976	13300
472.055	13422
472.133	14245
472.212	15708
472.290	14708
472.369	12332
472.447	12135
472.526	11428
472.604	12657
472.683	11924
472.761	12051
472.839	12223
472.918	12089
472.996	10958
473.075	12765
473.153	11564
473.231	11745
473.310	12917
473.388	11011
473.466	12972
473.545	14267
473.623	15485
473.701	13527
473.780	12121
473.858	13290
473.936	13199
474.014	12316
474.093	13458
474.171	16915
474.249	18611
474.327	12425
474.405	11376
474.484	10797
474.562	10647
474.640	9425
474.718	11742
474.796	11640
474.874	10694
474.952	10301
475.030	11433
475.108	12113
475.187	13666
475.265	12570
475.343	14139
475.421	14587
475.499	11585
475.577	11193
475.655	14037
475.733	21791
475.811	28941
475.889	27340
475.966	14192
476.044	10843
476.122	10528
476.200	12656
476.278	10685
476.356	9659
476.434	11008
476.512	10711
476.590	11902
476.667	10869
476.745	8134
476.823	11017
476.901	9334
476.979	10175
477.056	9927
477.134	11183
477.212	10152
477.290	9476
477.367	8921
477.445	9606
477.523	9223
477.601	9041
477.678	8512
477.756	11056
477.834	9927
477.911	8786
477.989	8957
478.066	8613
478.144	9613
478.222	9972
478.299	12236
478.377	10595
478.454	8394
478.532	8035
478.609	7614
478.687	9193
478.764	8665
478.842	8389
478.919	7828
478.997	9107
479.074	8343
479.152	8368
479.229	10624
479.307	7838
479.384	7361
479.461	7881
479.539	7677
479.616	8854
479.694	7114
479.771	8784
479.848	8978
479.926	10681
480.003	10158
480.080	7774
480.157	7941
480.235	6997
480.312	7316
480.389	9047
480.467	12689
480.544	13015
480.621	8540
480.698	8354
480.775	8921
480.853	8800
480.930	8308
481.007	8809
481.084	10340
481.161	13419
481.238	9098
481.315	7495
481.392	7140
481.470	7753
481.547	6885
481.624	8043
481.701	6471
481.778	7714
481.855	8911
481.932	11945
482.009	18051
482.086	9922
482.163	7697
482.240	9759
482.317	12826
482.393	9737
482.470	7607
482.547	7828
482.624	7497
482.701	7456
482.778	6509
482.855	7145
482.932	7036
483.009	6831
483.085	8784
483.162	9887
483.239	8263
483.316	7517
483.393	6847
483.469	7333
483.546	8599
483.623	7572
483.699	6810
483.776	7297
483.853	8899
483.930	14692
484.006	30335
484.083	44788
484.160	47189
484.236	72032
484.313	48565
484.389	36229
484.466	33400
484.543	32778
484.619	33331
484.696	34208
484.772	33944
484.849	33875
484.925	29699
485.002	29799
485.078	30641
485.155	29492
485.231	28095
485.308	29201
485.384	29050
485.461	32642
485.537	40692
485.614	37910
485.690	26579
485.766	26229
485.843	27356
485.919	29847
485.995	27974
486.072	23740
486.148	24737
486.224	23741
486.301	24121
486.377	26970
486.453	26211
486.530	30696
486.606	42774
486.682	42075
486.758	42259
486.835	40855
486.911	37645
486.987	46758
487.063	40871
487.139	43899
487.215	38234
487.292	27846
487.368	28252
487.444	31261
487.520	35073
487.596	35842
487.672	52262
487.748	97052
487.824	106281
487.900	41125
487.976	29698
488.052	28037
488.128	27809
488.204	26021
488.280	23713
488.356	29748
488.432	43906
488.508	45777
488.584	24887
488.660	21867
488.736	21789
488.812	24284
488.888	27717
488.964	31513
489.039	43432
489.115	48265
489.191	31984
489.267	22418
489.343	21908
489.418	20083
489.494	21150
489.570	20011
489.646	19693
489.722	20354
489.797	21697
489.873	29111
489.949	42159
490.024	30119
490.100	18236
490.176	19392
490.251	20386
490.327	20273
490.403	16587
490.478	17449
490.554	15559
490.629	16830
490.705	15335
490.781	17968
490.856	16232
490.932	18298
491.007	16746
491.083	17835
491.158	16197
491.234	22627
491.309	32133
491.385	26136
491.460	14963
491.536	16452
491.611	14880
491.686	15544
491.762	18234
491.837	26767
491.913	37358
491.988	46947
492.063	45586
492.139	21291
492.214	17551
492.289	11783
492.365	14203
492.440	15157
492.515	13671
492.590	14915
492.666	11463
492.741	17573
492.816	19172
492.891	12881
492.967	12681
493.042	11955
493.117	14531
493.192	17249
493.267	39813
493.342	101689
493.418	89857
493.493	15575
493.568	10409
493.643	11903
493.718	13784
493.793	15827
493.868	15335
493.943	10609
494.018	11379
494.093	10500
494.168	10545
494.243	10422
494.318	9423
494.393	10130
494.468	10170
494.543	9670
494.618	10955
494.693	8975
494.768	9077
494.842	10720
494.917	8745
494.992	10338
495.067	9015
495.142	9088
495.217	9663
495.292	9520
495.366	11628
495.441	13416
495.516	14491
495.591	21439
495.665	48429
495.740	76375
495.815	24803
495.890	12851
495.964	11726
496.039	12625
496.114	12391
496.188	17389
496.263	13294
496.338	11345
496.412	13310
496.487	14207
496.561	13563
496.636	14713
496.710	13390
496.785	13791
496.860	15822
496.934	12615
497.009	12295
497.083	14071
497.158	14302
497.232	15375
497.307	18236
497.381	17384
497.455	19889
497.530	22462
497.604	18658
497.679	22048
497.753	31083
497.827	36123
497.902	35668
497.976	45188
498.050	102336
498.125	268359
498.199	160161
498.273	44381
498.348	39768
498.422	34202
498.496	30264
498.570	25691
498.645	22497
498.719	22481
498.793	23636
498.867	30928
498.941	44886
499.016	127888
499.090	229015
499.164	43010
499.238	13449
499.312	12833
499.386	15168
499.460	12615
499.534	12053
499.609	15451
499.683	20758
499.757	22425
499.831	63072
499.905	181949
499.979	92078
500.053	21073
500.127	18176
500.201	12385
500.275	10490
500.349	11697
500.422	13348
500.496	18773
500.570	39782
500.644	106176
500.718	137088
500.792	19058
500.866	12178
500.940	14126
501.013	11193
501.087	12380
501.161	19399
501.235	27597
501.309	67466
501.382	158742
501.456	78312
501.530	29051
501.603	41630
501.677	13113
501.751	9224
501.825	12165
501.898	27560
501.972	59101
502.046	22256
502.119	13343
502.193	31960
502.266	58204
502.340	22218
502.413	34406
502.487	47277
502.561	22696
502.634	9090
502.708	8816
502.781	7964
502.855	6928
502.928	7563
503.002	7467
503.075	6530
503.149	6745
503.222	7713
503.295	8543
503.369	10052
503.442	18157
503.516	54040
503.589	97487
503.662	45824
503.736	23393
503.809	49822
503.882	36922
503.956	65242
504.029	44410
504.102	47598
504.175	49450
504.249	17853
504.322	13013
504.395	9565
504.468	7724
504.542	7490
504.615	6809
504.688	6733
504.761	6342
504.834	7799
504.907	9395
504.980	10394
505.053	8090
505.127	8646
505.200	10629
505.273	9320
505.346	5825
505.419	6488
505.492	5780
505.565	4838
505.638	5872
505.711	6367
505.784	5966
505.857	4686
505.930	6465
506.003	4814
506.076	7063
506.149	8034
506.221	9322
506.294	11070
506.367	32832
506.440	76607
506.513	23146
506.586	8967
506.659	5159
506.731	5380
506.804	7541
506.877	7005
506.950	6757
507.022	5110
507.095	7716
507.168	7804
507.241	5772
507.313	4352
507.386	5320
507.459	6141
507.531	5404
507.604	5239
507.677	5165
507.749	4890
507.822	9804
507.894	22532
507.967	24232
508.040	16254
508.112	13508
508.185	11922
508.257	11210
508.330	12943
508.402	11404
508.475	11045
508.547	11227
508.620	12538
508.692	14479
508.765	11386
508.837	9182
508.909	9549
508.982	10228
509.054	9870
509.127	9148
509.199	8506
509.271	8998
509.344	7867
509.416	9311
509.488	8908
509.560	8688
509.633	9245
509.705	10712
509.777	10387
509.849	12474
509.922	10326
509.994	10146
510.066	10230
510.138	16336
510.210	29389
510.283	23558
510.355	17428
510.427	15940
510.499	14259
510.571	13576
510.643	13823
510.715	16589
510.787	14403
510.859	14088
510.931	14272
511.003	17247
511.076	15245
511.148	14481
511.219	14677
511.291	18856
511.363	17028
511.435	12271
511.507	11591
511.579	12295
511.651	11803
511.723	11316
511.795	11552
511.867	11206
511.939	12767
512.010	19589
512.082	13002
512.154	11482
512.226	13502
512.298	22662
512.369	26936
512.441	20223
512.513	17394
512.585	14742
512.656	15156
512.728	15755
512.800	13995
512.871	13733
512.943	13816
513.015	13494
513.086	12716
513.158	13685
513.230	13605
513.301	15797
513.373	14386
513.444	12505
513.516	11586
513.588	12341
513.659	11987
513.731	13523
513.802	12638
513.874	19422
513.945	22039
514.016	13123
514.088	11885
514.159	12854
514.231	16592
514.302	23901
514.374	19204
514.445	18107
514.516	25148
514.588	17399
514.659	16756
514.730	23355
514.802	17914
514.873	20179
514.944	18090
515.016	16678
515.087	15642
515.158	20269
515.229	22471
515.301	22825
515.372	24984
515.443	16347
515.514	15137
515.585	12639
515.656	12418
515.728	11449
515.799	11288
515.870	11858
515.941	11507
516.012	14873
516.083	18290
516.154	17511
516.225	16438
516.296	15339
516.367	12630
516.438	14531
516.509	16308
516.580	23504
516.651	56456
516.722	120437
516.793	40202
516.864	20295
516.935	19490
517.006	21620
517.077	28729
517.148	57861
517.219	158216
517.289	158714
517.360	81076
517.431	22756
517.502	14481
517.573	13897
517.643	15405
517.714	18100
517.785	16816
517.856	15791
517.926	16912
517.997	17603
518.068	19654
518.138	24140
518.209	39314
518.280	130343
518.350	285235
518.421	68151
518.492	19402
518.562	18020
518.633	19615
518.703	22741
518.774	40121
518.845	79041
518.915	54078
518.986	24356
519.056	20726
519.127	29483
519.197	45262
519.268	87995
519.338	37464
519.408	16652
519.479	17021
519.549	13757
519.620	12266
519.690	11120
519.760	11432
519.831	10997
519.901	10372
519.971	10371
520.042	10796
520.112	11885
520.182	11415
520.253	12441
520.323	12272
520.393	14766
520.463	17146
520.534	14199
520.604	21048
520.674	13113
520.744	15297
520.814	25765
520.885	22458
520.955	44750
521.025	99819
521.095	24237
521.165	11019
521.235	10219
521.305	9564
521.375	10315
521.445	10687
521.515	10295
521.585	12784
521.655	10817
521.725	11605
521.795	9845
521.865	8836
521.935	14623
522.005	11494
522.075	8893
522.145	10027
522.215	10675
522.285	12265
522.355	17565
522.424	26690
522.494	19557
522.564	13013
522.634	23901
522.704	42674
522.774	14030
522.843	8844
522.913	9262
522.983	9339
523.053	8293
523.122	9266
523.192	11618
523.262	25695
523.331	17577
523.401	8840
523.471	7788
523.540	7660
523.610	6949
523.680	7975
523.749	8401
523.819	9821
523.888	8488
523.958	8036
524.027	7992
524.097	8735
524.166	7425
524.236	8142
524.305	8137
524.375	7448
524.444	8450
524.514	8264
524.583	8747
524.653	10793
524.722	9607
524.791	6877
524.861	9017
524.930	7917
524.999	7961
525.069	9180
525.138	8449
525.207	9240
525.277	8207
525.346	7619
525.415	8067
525.484	8022
525.554	9113
525.623	8906
525.692	10011
525.761	8689
525.830	10120
525.900	11626
525.969	18944
526.038	31228
526.107	71833
526.176	153890
526.245	90401
526.314	40239
526.383	93538
526.452	100471
526.522	199792
526.591	119474
526.660	31310
526.729	21052
526.797	30063
526.867	70547
526.935	223899
527.004	377650
527.073	124642
527.142	16108
527.211	11045
527.280	9351
527.349	8110
527.418	6872
527.487	7505
527.555	6537
527.624	6239
527.693	5749
527.762	6793
527.831	5363
527.899	5754
527.968	6301
528.037	5575
528.106	7385
528.174	9495
528.243	8511
528.312	12889
528.380	11724
528.449	5829
528.518	5816
528.586	4753
528.655	5408
528.723	5829
528.792	4794
528.861	5900
528.929	3892
528.998	5356
529.066	5816
529.135	5853
529.203	5265
529.272	6370
529.340	7057
529.409	6459
529.477	6433
529.545	8102
529.614	8068
529.682	9888
529.751	8957
529.819	10344
529.887	7804
529.956	6922
530.024	6758
530.092	6631
530.161	8198
530.229	9297
530.297	7260
530.365	7524
530.434	6610
530.502	7726
530.570	6853
530.638	5679
530.707	7312
530.775	7480
530.843	6865
530.911	6446
530.979	6702
531.047	7179
531.115	6844
531.183	7019
531.252	7214
531.320	6470
531.388	6645
531.456	7815
531.524	6297
531.592	7571
531.660	7593
531.728	7557
531.796	7090
531.864	7160
531.932	7078
532.000	6034
532.067	7184
532.135	7715
532.203	9387
532.271	8939
532.339	13913
532.407	21090
532.475	12523
532.542	10804
532.610	11849
532.678	17057
532.746	57712
532.814	80532
532.881	18131
532.949	9275
533.017	8384
533.084	7040
533.152	6585
533.220	8388
533.287	7824
533.355	7381
533.423	7922
533.490	8066
533.558	7801
533.625	9417
533.693	9424
533.761	9481
533.828	9585
533.896	10063
533.963	15003
534.031	15575
534.098	17172
534.166	11272
534.233	9121
534.300	10461
534.368	10035
534.435	9145
534.503	9055
534.570	10079
534.637	9937
534.705	11522
534.772	13813
534.840	25064
534.907	85521
534.974	63304
535.041	11269
535.109	8813
535.176	7373
535.243	8018
535.310	8127
535.378	7251
535.445	7149
535.512	7768
535.579	7830
535.646	6721
535.714	10197
535.781	13029
535.848	11844
535.915	11630
535.982	12635
536.049	10980
536.116	10905
536.183	8029
536.250	8429
536.317	8561
536.384	9394
536.451	10691
536.518	10384
536.585	8674
536.652	11256
536.719	11897
536.786	8809
536.853	10016
536.920	13382
536.987	14849
537.053	19254
537.120	55516
537.187	29262
537.254	9275
537.321	7344
537.388	8435
537.454	7353
537.521	7682
537.588	7748
537.654	11768
537.721	12638
537.788	10940
537.855	8604
537.921	8336
537.988	8560
538.055	8304
538.121	8264
538.188	9093
538.254	10908
538.321	14182
538.388	9988
538.454	8562
538.521	7995
538.587	8132
538.654	8542
538.720	9077
538.787	8855
538.853	8535
538.920	9935
538.986	9294
539.053	7628
539.119	9093
539.185	8825
539.252	8986
539.318	11371
539.385	11226
539.451	12413
539.517	12900
539.583	12981
539.650	25053
539.716	35153
539.782	11770
539.849	8730
539.915	10014
539.981	8992
540.047	9480
540.114	9707
540.180	9280
540.246	8498
540.312	11797
540.378	15725
540.444	16049
540.510	23118
540.576	40192
540.643	12644
540.709	9164
540.775	8935
540.841	9355
540.907	12538
540.973	16199
541.039	13738
541.105	12810
541.171	10276
541.237	9167
541.303	10254
541.369	10185
541.435	11553
541.500	13812
541.566	9734
541.632	8046
541.698	7729
541.764	8484
541.830	7974
541.896	9175
541.961	9994
542.027	9341
542.093	9836
542.159	9700
542.224	11034
542.290	14181
542.356	15563
542.421	14538
542.487	11196
542.553	11254
542.618	10826
542.684	10019
542.750	9419
542.815	10807
542.881	18185
542.947	40596
543.012	20522
543.078	9313
543.143	8856
543.209	10184
543.274	9553
543.340	11406
543.405	20681
543.471	21151
543.536	9474
543.602	9830
543.667	9208
543.732	9815
543.798	9000
543.863	10162
543.928	9450
543.994	9713
544.059	8333
544.124	8673
544.190	9454
544.255	10003
544.320	8965
544.386	9769
544.451	11606
544.516	12274
544.581	13611
544.646	32940
544.712	31601
544.777	11792
544.842	12098
544.907	11986
544.972	11569
545.037	11169
545.102	12182
545.168	11665
545.233	11867
545.298	13766
545.363	15040
545.428	14885
545.493	21058
545.558	30591
545.623	14098
545.688	13160
545.753	12105
545.818	13007
545.883	12802
545.947	12771
546.012	13619
546.077	13046
546.142	13508
546.207	13645
546.272	16163
546.337	14703
546.401	15464
546.466	14847
546.531	14013
546.596	16178
546.661	13991
546.725	14806
546.790	15372
546.855	15226
546.919	16689
546.984	18177
547.049	18628
547.113	21264
547.178	21333
547.243	24325
547.307	26035
547.372	29584
547.436	29383
547.501	28860
547.565	30532
547.630	29648
547.695	28502
547.759	30561
547.823	28928
547.888	28574
547.952	28737
548.017	31674
548.081	34741
548.146	33795
548.210	32155
548.274	32269
548.339	30678
548.403	28705
548.468	27525
548.532	27933
548.596	28103
548.660	28213
548.725	31660
548.789	34015
548.853	33073
548.917	32865
548.982	34289
549.046	30865
549.110	25289
549.174	25743
549.238	30101
549.303	31032
549.367	32707
549.431	30894
549.495	29524
549.559	29528
549.623	34692
549.687	37156
549.751	38794
549.815	42676
549.879	42079
549.943	40239
550.007	43233
550.071	42066
550.135	40406
550.199	35932
550.263	35813
550.327	35971
550.391	39207
550.455	40368
550.519	40419
550.582	43686
550.646	50801
550.710	49549
550.774	45691
550.838	47595
550.901	48545
550.965	52351
551.029	53503
551.093	59060
551.156	65983
551.220	82846
551.284	76988
551.347	60185
551.411	74022
551.475	64655
551.538	50546
551.602	45781
551.666	44382
551.729	41341
551.793	41160
551.856	42423
551.920	41037
551.983	40465
552.047	39164
552.110	40182
552.174	41446
552.237	40474
552.301	36809
552.364	36370
552.428	35369
552.491	37545
552.554	37691
552.618	37245
552.681	38641
552.745	37804
552.808	40859
552.871	42279
552.934	39650
552.998	36981
553.061	37962
553.124	36191
553.187	37592
553.251	40365
553.314	42679
553.377	45869
553.440	64856
553.503	150577
553.567	147708
553.630	46630
553.693	40474
553.756	38684
553.819	38158
553.882	36306
553.945	36812
554.008	37056
554.071	36513
554.134	36469
554.197	34727
554.260	34236
554.323	35925
554.386	36172
554.449	36218
554.512	36571
554.575	34770
554.638	35101
554.701	34429
554.764	33869
554.827	32676
554.889	30646
554.952	30390
555.015	29470
555.078	29356
555.141	30342
555.203	29415
555.266	29932
555.329	29693
555.391	28302
555.454	29106
555.517	28063
555.580	27020
555.642	26221
555.705	25895
555.768	25873
555.830	24801
555.893	23690
555.955	23503
556.018	22785
556.080	23371
556.143	23437
556.206	23086
556.268	23657
556.330	23646
556.393	21824
556.455	22815
556.518	26218
556.580	22738
556.643	20062
556.705	20008
556.767	18663
556.830	21105
556.892	20214
556.955	21687
557.017	18837
557.079	18211
557.142	18943
557.204	19569
557.266	23725
557.328	18741
557.391	16850
557.453	16050
557.515	16630
557.577	17096
557.639	16612
557.701	16764
557.764	16162
557.826	17117
557.888	18930
557.950	18751
558.012	20487
558.074	27913
558.136	62549
558.198	104036
558.260	30632
558.322	17533
558.384	18214
558.446	21270
558.508	24416
558.570	31465
558.632	41970
558.694	57593
558.756	92475
558.818	290126
558.880	456177
558.942	113601
559.003	112664
559.065	42819
559.127	25476
559.189	26442
559.251	33558
559.312	51726
559.374	138532
559.436	328570
559.498	98248
559.559	26948
559.621	26437
559.683	34171
559.744	61984
559.806	188541
559.868	178917
559.929	33846
559.991	31178
560.052	50946
560.114	113078
560.176	55813
560.237	76312
560.299	83913
560.360	19426
560.422	13715
560.483	12219
560.545	12327
560.606	12275
560.667	11411
560.729	10904
560.790	11093
560.852	11236
560.913	11223
560.974	11355
561.036	9858
561.097	11448
561.158	10375
561.220	11576
561.281	11163
561.342	10539
561.403	12908
561.465	14022
561.526	21214
561.587	19996
561.648	10836
561.709	11327
561.771	10502
561.832	10580
561.893	10006
561.954	10504
562.015	9755
562.076	9919
562.137	10175
562.198	9643
562.259	10864
562.320	10094
562.381	10835
562.442	11887
562.503	11687
562.564	10502
562.625	9864
562.686	10294
562.747	10693
562.808	9929
562.869	10510
562.930	12692
562.991	11669
563.051	11273
563.112	11497
563.173	10602
563.234	9978
563.294	10508
563.355	9274
563.416	10553
563.477	9490
563.537	9996
563.598	11554
563.659	10179
563.720	9403
563.780	10627
563.841	10126
563.901	10295
563.962	11002
564.023	9741
564.083	10222
564.144	10573
564.204	10371
564.265	11045
564.325	12417
564.386	19355
564.446	14488
564.507	9815
564.567	10220
564.628	10307
564.688	9565
564.749	10447
564.809	11951
564.869	11396
564.930	9354
564.990	9937
565.050	10168
565.111	10313
565.171	10926
565.231	10480
565.292	10602
565.352	9753
565.412	10840
565.472	10765
565.532	10461
565.593	10193
565.653	10203
565.713	10718
565.773	11478
565.833	11446
565.893	12466
565.953	10483
566.013	10409
566.074	12481
566.134	13833
566.194	18083
566.254	16112
566.314	13530
566.374	11693
566.434	12321
566.494	11936
566.554	13518
566.614	13366
566.673	13887
566.733	13549
566.793	15029
566.853	14977
566.913	15601
566.973	15673
567.033	16701
567.092	15806
567.152	16057
567.212	15361
567.272	16161
567.331	17256
567.391	17865
567.451	19849
567.511	22386
567.570	20162
567.630	16585
567.690	16617
567.749	16765
567.809	17389
567.868	20871
567.928	22900
567.988	26465
568.047	31596
568.107	41431
568.166	57001
568.226	89632
568.285	112639
568.345	91202
568.404	72868
568.464	62462
568.523	58525
568.582	60551
568.642	69642
568.701	89576
568.761	136259
568.820	196808
568.879	176838
568.939	127216
568.998	93402
569.057	69117
569.116	53677
569.176	43938
569.235	35866
569.294	31562
569.353	27406
569.413	25739
569.472	22957
569.531	20778
569.590	18567
569.649	17643
569.708	16823
569.767	16423
569.827	16714
569.886	14891
569.945	14145
570.004	13597
570.063	12663
570.122	13878
570.181	13561
570.240	14031
570.299	13469
570.358	12399
570.417	11526
570.475	12014
570.534	12494
570.593	11213
570.652	11883
570.711	11569
570.770	11562
570.829	11420
570.887	10353
570.946	10098
571.005	9436
571.064	10552
571.122	9696
571.181	10858
571.240	9361
571.299	9509
571.357	10147
571.416	10409
571.475	10617
571.533	11378
571.592	10322
571.650	10836
571.709	9482
571.768	10035
571.826	9520
571.885	10009
571.943	8518
572.002	9623
572.060	9606
572.119	9127
572.177	8545
572.236	8322
572.294	8039
572.352	9583
572.411	9229
572.469	9052
572.528	7740
572.586	8849
572.644	9366
572.703	9950
572.761	9709
572.819	7597
572.877	8608
572.936	7451
572.994	7621
573.052	7959
573.110	8393
573.169	8919
573.227	8248
573.285	8793
573.343	8212
573.401	7677
573.459	8383
573.517	8080
573.576	8607
573.634	7612
573.692	8534
573.750	8547
573.808	7728
573.866	8508
573.924	10359
573.982	8892
574.040	8325
574.098	7777
574.155	7365
574.213	7572
574.271	8633
574.329	8125
574.387	7323
574.445	7640
574.503	7502
574.560	7624
574.618	7446
574.676	6597
574.734	7019
574.792	8430
574.849	7701
574.907	7017
574.965	7525
575.022	7096
575.080	6767
575.138	7352
575.195	7587
575.253	6826
575.311	7522
575.368	7206
575.426	7454
575.483	7767
575.541	7859
575.598	7264
575.656	7218
575.713	7225
575.771	7034
575.828	6887
575.886	7103
575.943	8077
576.001	8272
576.058	7698
576.115	8087
576.173	9692
576.230	9090
576.287	9247
576.345	8507
576.402	7991
576.459	8590
576.517	8555
576.574	7977
576.631	8495
576.688	7425
576.746	7749
576.803	9184
576.860	8022
576.917	7924
576.974	8474
577.031	7767
577.089	8731
577.146	7283
577.203	7801
577.260	8020
577.317	8875
577.374	8991
577.431	8640
577.488	8349
577.545	7952
577.602	8318
577.659	8695
577.716	9640
577.773	10510
577.830	8451
577.886	8443
577.943	7899
578.000	8276
578.057	8126
578.114	9687
578.171	10846
578.227	12794
578.284	10966
578.341	10775
578.398	8250
578.454	9110
578.511	9514
578.568	9702
578.625	8609
578.681	7972
578.738	7399
578.794	8351
578.851	8751
578.908	8106
578.964	8917
579.021	9108
579.077	7303
579.134	8035
579.190	7656
579.247	8019
579.303	8524
579.360	7754
579.416	8293
579.473	8070
579.529	7946
579.586	7511
579.642	7551
579.698	8808
579.755	8454
579.811	7628
579.867	8410
579.924	9286
579.980	8916
580.036	11008
580.093	12386
580.149	17529
580.205	15801
580.261	13051
580.317	11312
580.374	11064
580.430	11251
580.486	9948
580.542	8986
580.598	9554
580.619	9334
580.654	8963
580.692	9151
580.710	9255
580.765	9533
580.767	9550
580.823	9139
580.838	9201
580.879	9373
580.911	8750
580.935	8306
580.984	9858
580.991	10081
581.047	8866
581.057	9016
581.103	9719
581.130	10318
581.159	10966
581.203	10871
581.215	10851
581.270	10708
581.276	10607
581.326	9637
581.349	9623
581.382	9658
581.422	9932
581.438	10045
581.494	9665
581.494	9663
581.550	9795
581.567	9894
581.606	10123
581.640	9925
581.661	9820
581.713	9632
581.717	9617
581.773	9153
581.786	9386
581.829	10156
581.859	10206
581.885	10296
581.932	9781
581.940	9686
581.996	10362
582.004	10366
582.052	10327
582.077	10104
582.107	9902
582.150	10147
582.163	10192
582.219	10125
582.223	10115
582.274	10246
582.296	10520
582.330	10873
582.368	10831
582.386	10853
582.441	10444
582.441	10443
582.497	10045
582.514	10372
582.552	11410
582.587	11880
582.608	12148
582.659	11287
582.663	11195
582.719	12315
582.732	12137
582.774	11751
582.805	11775
582.830	11774
582.877	11356
582.885	11275
582.941	11743
582.950	11730
582.996	11985
583.023	12728
583.052	13404
583.095	13920
583.107	14115
583.162	15556
583.168	15593
583.218	15803
583.240	15126
583.273	13989
583.313	13818
583.328	13765
583.384	12635
583.385	12632
583.439	12478
583.458	12245
583.494	11972
583.531	12244
583.549	12254
583.603	13127
583.605	13168
583.660	11992
583.676	12311
583.715	13026
583.748	12835
583.770	12773
583.820	13207
583.825	13233
583.881	13046
583.893	13043
583.936	13106
583.965	12872
583.991	12611
584.038	13132
584.046	13250
584.101	13585
584.110	13514
584.156	13087
584.183	13555
584.211	14133
584.255	14406
584.266	14430
584.321	14573
584.328	14506
584.376	14108
584.400	14261
584.431	14523
584.472	14742
584.486	14778
584.541	14371
584.545	14406
584.596	15219
584.617	15388
584.651	15515
584.689	15531
584.706	15650
584.761	16008
584.762	16010
584.816	16591
584.834	16781
584.871	17220
584.906	17258
584.926	17300
584.978	17705
584.980	17718
585.035	18878
585.051	18910
585.090	19068
585.123	19463
585.145	19832
585.195	20403
585.200	20504
585.254	22628
585.267	23310
585.309	25581
585.340	26997
585.364	28138
585.412	28615
585.419	28544
585.473	30897
585.484	31497
585.528	35141
585.556	39302
585.583	44897
585.628	60310
585.637	65849
585.692	123668
585.700	130840
585.747	179951
585.772	165356
585.801	112796
585.845	65953
585.856	57728
585.910	34747
585.917	32105
585.965	28635
585.989	27783
586.019	27774
586.061	27371
586.074	27336
586.128	27323
586.133	27285
586.183	27377
586.205	27724
586.237	28045
586.277	28365
586.292	28667
586.346	29001
586.349	29072
586.401	30297
586.421	30369
586.455	30968
586.493	32237
586.509	33021
586.564	36042
586.565	36152
586.618	43655
586.637	43658
586.672	41297
586.709	40205
586.727	39220
586.781	37779
586.781	37810
586.835	37688
586.853	37722
586.889	37753
586.925	37591
586.944	37774
586.996	39090
586.998	39167
587.052	40566
587.068	41159
587.106	42745
587.140	43202
587.161	43560
587.212	45434
587.215	45598
587.269	47815
587.284	48405
587.323	50040
587.356	51446
587.377	52392
587.427	54409
587.431	54674
587.485	58158
587.499	59061
587.539	61232
587.571	62732
587.593	64653
587.643	69131
587.648	69507
587.702	72963
587.715	73800
587.755	78475
587.786	81940
587.810	84470
587.858	90005
587.864	90888
587.917	99095
587.930	100913
587.971	108482
588.001	114272
588.025	119624
588.073	130473
588.079	132123
588.133	146848
588.145	150223
588.187	165470
588.217	176493
588.241	187037
588.288	208820
588.295	212657
588.348	244429
588.360	251804
588.402	283697
588.431	307084
588.456	331362
588.503	381354
588.510	390457
588.564	467361
588.575	484677
588.617	570091
588.646	633503
588.671	707511
588.718	856884
588.725	889402
588.778	1153843
588.789	1207802
588.832	1468635
588.861	1619912
588.886	1664897
588.932	1643712
588.939	1602023
588.993	1307885
589.004	1276480
589.047	1554117
589.075	1674858
589.100	1676945
589.147	1618291
589.154	1577475
589.207	1250060
589.218	1185269
589.261	1051469
589.290	969233
589.314	965216
589.361	972535
589.368	991821
589.421	1164478
589.433	1201718
589.475	1430753
589.504	1555506
589.528	1556521
589.576	1506980
589.582	1498850
589.635	1509936
589.647	1489622
589.689	1443418
589.718	1389473
589.742	1206740
589.790	849562
589.795	826236
589.849	605709
589.861	555345
589.902	468460
589.932	404568
589.955	373222
590.004	307858
590.009	304009
590.062	257974
590.075	246624
590.115	223894
590.146	205925
590.168	197239
590.218	177009
590.222	176002
590.275	159385
590.289	154927
590.328	146083
590.360	138289
590.381	134061
590.431	123442
590.435	123075
590.488	113287
590.503	110381
590.541	106343
590.574	102484
590.594	100269
590.645	94047
590.647	94017
590.700	88578
590.716	86776
590.753	84368
590.787	81912
590.806	80569
590.859	76160
590.859	76267
590.912	73741
590.930	72796
590.965	71453
591.001	69802
591.018	68898
591.071	65863
591.072	65700
591.124	64033
591.143	63286
591.177	62595
591.214	61707
591.230	61292
591.283	59527
591.285	59327
591.336	58214
591.356	57565
591.389	56882
591.427	55756
591.442	55149
591.495	52689
591.498	52374
591.547	51674
591.569	51308
591.600	51358
591.640	51189
591.653	51114
591.706	50157
591.711	49938
591.759	49151
591.782	48655
591.811	48900
591.853	48897
591.864	48792
591.917	47737
591.924	47476
591.969	47052
591.995	46609
592.022	45943
592.066	44599
592.075	44792
592.127	45394
592.137	45417
592.180	46783
592.208	47423
592.233	46850
592.279	45513
592.285	45378
592.338	43338
592.350	42771
592.390	42650
592.421	42407
592.443	42185
592.491	41381
592.495	41465
592.548	41310
592.562	41170
592.600	40690
592.633	40116
592.653	39855
592.704	38731
592.705	38957
592.775	39106
592.846	40277
592.916	39786
592.987	38718
593.058	38988
593.128	37857
593.199	37762
593.270	35656
593.341	36010
593.411	36622
593.482	36384
593.553	36937
593.623	36385
593.694	36586
593.764	37312
593.835	35794
593.906	34881
593.976	35497
594.047	35085
594.117	37948
594.188	38791
594.258	35864
594.329	34773
594.399	35001
594.470	35328
594.540	35093
594.611	35621
594.681	34700
594.751	34434
594.822	36559
594.892	37621
594.963	36869
595.033	37700
595.103	37154
595.174	38537
595.244	41883
595.314	46527
595.384	41870
595.455	38413
595.525	39980
595.595	40557
595.665	40060
595.736	40132
595.806	40138
595.876	40179
595.946	40415
596.016	40670
596.087	40935
596.157	41282
596.227	41877
596.297	41931
596.367	44515
596.437	46789
596.507	48712
596.577	52611
596.647	49694
596.717	48240
596.787	47828
596.857	48601
596.927	48942
596.997	48504
597.067	49272
597.137	53147
597.207	53068
597.277	52378
597.347	50234
597.417	48561
597.487	47962
597.557	48634
597.626	48853
597.696	50071
597.766	51106
597.836	54360
597.906	50372
597.975	44330
598.045	45874
598.115	46056
598.185	47786
598.254	50880
598.324	55768
598.394	55637
598.464	55963
598.533	55482
598.603	51556
598.672	50831
598.742	51449
598.812	52302
598.881	52712
598.951	53141
599.020	53067
599.090	53450
599.159	55055
599.229	53501
599.299	51591
599.368	53265
599.437	53164
599.507	51556
599.576	49761
599.646	49644
599.715	52029
599.785	48992
599.854	48063
599.924	48441
599.993	47264
600.062	47716
600.132	48198
600.201	49354
600.270	54562
600.340	58890
600.409	59120
600.478	57778
600.547	58144
600.617	59272
600.686	49307
600.755	45452
600.824	43634
600.894	42970
600.963	42446
601.032	42705
601.101	42019
601.170	40864
601.239	40242
601.308	40803
601.378	41418
601.447	39656
601.516	42289
601.585	41877
601.654	42614
601.723	42848
601.792	43275
601.861	45594
601.930	48021
601.999	49570
602.068	47343
602.137	47078
602.206	47776
602.275	48456
602.343	48583
602.412	49277
602.481	49335
602.550	48599
602.619	49126
602.688	51228
602.756	50144
602.825	51532
602.894	51751
602.963	51980
603.032	51883
603.100	54431
603.169	52209
603.238	53873
603.307	54029
603.375	52010
603.444	54074
603.513	54383
603.581	53554
603.650	55657
603.719	54373
603.787	50329
603.856	52604
603.924	53437
603.993	54782
604.061	55310
604.130	58138
604.198	59375
604.267	59628
604.335	61266
604.404	62526
604.472	63352
604.541	62630
604.609	63694
604.678	65550
604.746	65262
604.815	67653
604.883	69029
604.951	67704
605.020	68128
605.088	69075
605.156	66143
605.225	67663
605.293	67997
605.361	68196
605.429	69416
605.498	69662
605.566	69544
605.634	72122
605.702	75011
605.771	75649
605.839	78210
605.907	76666
605.975	75396
606.043	73429
606.111	72808
606.180	73671
606.248	76190
606.316	76748
606.384	73167
606.452	72377
606.520	66133
606.588	68423
606.656	67863
606.724	67948
606.792	65568
606.860	59966
606.928	54235
606.996	51682
607.064	49918
607.132	51543
607.200	52997
607.267	56748
607.335	54948
607.403	58354
607.471	56659
607.539	53924
607.607	55168
607.674	51048
607.742	49299
607.810	48317
607.878	48874
607.946	48856
608.013	50795
608.081	52701
608.149	52660
608.216	53332
608.284	55257
608.352	54212
608.419	56975
608.487	56533
608.555	56072
608.622	55803
608.690	56395
608.757	60465
608.825	63959
608.893	62914
608.960	61783
609.028	60019
609.095	60268
609.163	60424
609.230	55097
609.298	48434
609.365	48400
609.432	51382
609.500	55418
609.567	62388
609.635	70180
609.702	76230
609.769	77672
609.837	68715
609.904	54641
609.971	53087
610.039	57556
610.106	67697
610.173	102640
610.241	222650
610.308	300116
610.375	126550
610.442	69008
610.509	55227
610.577	53296
610.644	52772
610.711	54340
610.778	56673
610.845	57374
610.912	61714
610.980	66662
611.047	71531
611.114	74970
611.181	63107
611.248	61140
611.315	61736
611.382	64233
611.449	66510
611.516	67681
611.583	68573
611.650	68045
611.717	69721
611.784	70007
611.851	72187
611.918	77316
611.984	85468
612.051	109914
612.118	181503
612.185	421141
612.252	620038
612.319	176288
612.386	95049
612.452	86573
612.519	79740
612.586	78748
612.653	79918
612.719	78321
612.786	77979
612.853	73546
612.919	67441
612.986	71349
613.053	67949
613.120	64431
613.186	60439
613.253	61482
613.319	60411
613.386	61365
613.453	62530
613.519	62305
613.586	62982
613.652	65313
613.719	65489
613.785	66043
613.852	64825
613.918	63963
613.985	63401
614.051	69417
614.118	82674
614.184	105201
614.250	71470
614.317	65072
614.383	62965
614.449	63028
614.516	63302
614.582	64040
614.648	63789
614.715	62669
614.781	62295
614.847	61002
614.914	62375
614.980	60562
615.046	58990
615.112	60749
615.179	61967
615.245	64033
615.311	68977
615.377	79994
615.443	100637
615.509	84436
615.575	71908
615.642	68552
615.708	68860
615.774	71796
615.840	77607
615.906	86394
615.972	106615
616.038	164777
616.104	286456
616.170	516701
616.236	879056
616.302	294159
616.368	124709
616.434	98383
616.500	81573
616.565	81132
616.631	91810
616.697	93783
616.763	84617
616.829	98695
616.895	154315
616.961	212263
617.026	134415
617.092	75891
617.158	67815
617.224	66070
617.289	62974
617.355	58810
617.421	57124
617.487	57948
617.552	53979
617.618	54284
617.684	52632
617.749	54269
617.815	52515
617.880	50611
617.946	49991
618.012	50611
618.077	53214
618.143	51314
618.208	49822
618.274	53165
618.339	55527
618.405	49988
618.470	45469
618.536	47736
618.601	47411
618.667	44927
618.732	42184
618.798	41247
618.863	41883
618.928	41112
618.994	40390
619.059	41468
619.124	43947
619.190	44582
619.255	40776
619.320	39563
619.386	40569
619.451	40236
619.516	39552
619.581	38663
619.647	40332
619.712	41189
619.777	39548
619.842	38440
619.907	40653
619.972	39525
620.038	40958
620.103	40008
620.168	39431
620.233	39110
620.298	39957
620.363	39710
620.428	40154
620.493	41967
620.558	42086
620.623	41480
620.688	43035
620.753	42732
620.818	42312
620.883	41916
620.948	42902
621.013	42648
621.078	42435
621.143	42593
621.207	44004
621.272	42280
621.337	43361
621.402	42381
621.467	43659
621.532	46171
621.596	44355
621.661	42638
621.726	40002
621.791	40999
621.855	41837
621.920	41544
621.985	41415
622.049	43428
622.114	43459
622.179	43852
622.243	43915
622.308	46137
622.373	47357
622.437	47882
622.502	44786
622.566	43929
622.631	43925
622.695	44767
622.760	45321
622.824	43759
622.889	43518
622.953	44456
623.018	46647
623.082	52113
623.147	46680
623.211	45420
623.276	44284
623.340	45200
623.404	42635
623.469	42383
623.533	42388
623.597	42633
623.662	41060
623.726	41354
623.790	37150
623.854	36443
623.919	36810
623.983	37366
624.047	37916
624.111	37399
624.176	38019
624.240	38918
624.304	39884
624.368	39111
624.432	38667
624.496	39249
624.560	40355
624.625	41817
624.689	41302
624.753	41282
624.817	41300
624.881	39035
624.945	37345
625.009	35188
625.073	35122
625.137	36290
625.201	39180
625.265	41009
625.329	38359
625.393	37006
625.456	38142
625.520	38025
625.584	39838
625.648	42426
625.712	45316
625.776	59628
625.839	75550
625.903	59573
625.967	34723
626.031	36450
626.095	50806
626.158	48341
626.222	32236
626.286	28337
626.349	27476
626.413	25592
626.477	26066
626.540	26365
626.604	26013
626.668	25799
626.731	24902
626.795	25534
626.858	26234
626.922	25554
626.986	24855
627.049	24426
627.113	25836
627.176	25010
627.240	24477
627.303	23289
627.366	24898
627.430	24288
627.493	23896
627.557	25540
627.620	24435
627.684	23989
627.747	25520
627.810	24402
627.874	23156
627.937	21117
628.000	21578
628.064	23149
628.127	21094
628.190	20209
628.253	18876
628.317	19316
628.380	18868
628.443	17540
628.506	17287
628.569	17963
628.632	16716
628.696	16817
628.759	16333
628.822	16815
628.885	15058
628.948	15976
629.011	15964
629.074	15845
629.137	15965
629.200	15597
629.263	15012
629.326	15011
629.389	14811
629.452	14609
629.515	15326
629.578	14665
629.641	14970
629.704	14666
629.767	15510
629.830	14696
629.892	14278
629.955	14323
630.018	14445
630.081	14446
630.144	15359
630.207	15319
630.269	14844
630.332	15193
630.395	14638
630.458	14575
630.520	13804
630.583	13925
630.646	12886
630.708	12750
630.771	13035
630.834	14427
630.896	13434
630.959	13044
631.021	13972
631.084	13230
631.146	13948
631.209	14256
631.272	13399
631.334	13777
631.397	12510
631.459	12716
631.522	12209
631.584	13760
631.646	13853
631.709	14582
631.771	15344
631.834	15861
631.896	14278
631.958	12627
632.021	13044
632.083	12936
632.145	12969
632.208	13277
632.270	13205
632.332	12617
632.395	11932
632.457	13568
632.519	12609
632.581	12644
632.643	11928
632.706	13043
632.768	11955
632.830	12639
632.892	11933
632.954	12644
633.016	13204
633.078	12333
633.141	12453
633.203	12216
633.265	11809
633.327	11849
633.389	11580
633.451	11862
633.513	13103
633.575	13939
633.637	12730
633.698	12788
633.760	12746
633.822	13059
633.884	12585
633.946	13324
634.008	12979
634.070	13760
634.132	15308
634.193	16659
634.255	14721
634.317	14047
634.379	15174
634.441	14112
634.502	12784
634.564	13272
634.626	12365
634.687	12346
634.749	12045
634.811	11661
634.873	11489
634.934	11695
634.996	10679
635.057	11453
635.119	10756
635.181	11539
635.242	11370
635.304	11060
635.365	11361
635.427	11483
635.488	11151
635.550	10702
635.611	10702
635.673	10373
635.734	11958
635.796	12207
635.857	11876
635.918	13686
635.980	13180
636.041	13948
636.102	14278
636.164	14392
636.225	13858
636.286	12714
636.348	13299
636.409	12152
636.470	10482
636.531	11204
636.593	11048
636.654	11602
636.715	11423
636.776	10471
636.838	9736
636.899	9945
636.960	9998
637.021	9318
637.082	9693
637.143	10057
637.204	8702
637.265	8766
637.326	9764
637.387	9880
637.448	9217
637.509	10274
637.570	9941
637.631	9354
637.692	9040
637.753	8816
637.814	7877
637.875	8467
637.936	9791
637.997	8902
638.058	8978
638.119	9823
638.179	8279
638.240	8762
638.301	8896
638.362	8460
638.423	8135
638.483	10259
638.544	7919
638.605	8651
638.666	7940
638.726	8760
638.787	8520
638.848	9282
638.908	8816
638.969	7543
639.030	8027
639.090	7237
639.151	8192
639.211	8675
639.272	9198
639.332	10081
639.393	10600
639.453	8582
639.514	8134
639.574	8480
639.635	7668
639.695	8009
639.756	7490
639.816	7519
639.877	7474
639.937	8816
639.997	10834
640.058	8713
640.118	7828
640.178	8026
640.239	7253
640.299	7645
640.359	7190
640.420	7773
640.480	8006
640.540	7990
640.600	8922
640.661	8573
640.721	8240
640.781	9602
640.841	9912
640.901	8852
640.961	7967
641.021	7839
641.082	7297
641.142	8521
641.202	7982
641.262	5854
641.322	7412
641.382	6675
641.442	6851
641.502	7202
641.562	6797
641.622	7439
641.682	7579
641.742	7418
641.802	7964
641.861	8052
641.921	6772
641.981	7499
642.041	6499
642.101	7628
642.161	7386
642.221	7026
642.280	6780
642.340	6661
642.400	6400
642.460	7180
642.519	5930
642.579	7289
642.639	7558
642.698	5995
642.758	7436
642.818	6556
642.877	7153
642.937	6786
642.997	7798
643.056	8609
643.116	8422
643.175	7673
643.235	7423
643.294	7697
643.354	7308
643.414	7686
643.473	9050
643.532	11551
643.592	14553
643.651	20481
643.711	32927
643.770	58678
643.830	111626
643.889	320705
643.948	294027
644.008	38073
644.067	15310
644.126	11798
644.186	9247
644.245	8792
644.304	7031
644.363	8006
644.423	7503
644.482	7631
644.541	7079
644.600	6297
644.659	8618
644.719	10139
644.778	11996
644.837	17607
644.896	29030
644.955	69481
645.014	82851
645.073	18095
645.132	9786
645.191	9056
645.250	6864
645.309	7221
645.368	6984
645.427	8285
645.486	10341
645.545	19702
645.604	16328
645.663	7431
645.722	6894
645.781	8258
645.840	7804
645.898	9394
645.957	13232
646.016	16934
646.075	30378
646.134	51689
646.192	102798
646.251	289967
646.310	162951
646.369	21631
646.427	11842
646.486	10415
646.545	8878
646.603	8097
646.662	6317
646.721	6559
646.779	5943
646.838	6094
646.896	7282
646.955	8874
647.014	11135
647.072	17798
647.131	37962
647.189	62776
647.248	13707
647.306	6884
647.365	6479
647.423	4345
647.481	5997
647.540	5013
647.598	5311
647.657	5479
647.715	5464
647.773	5470
647.832	4932
647.890	3883
647.948	4409
648.007	5779
648.065	4507
648.123	4783
648.181	5944
648.240	5931
648.298	7906
648.356	5412
648.414	4785
648.472	5249
648.531	4796
648.589	4784
648.647	4150
648.705	4676
648.763	4744
648.821	4500
648.879	4485
648.937	5344
648.995	6354
649.053	6939
649.111	9598
649.169	14303
649.227	23430
649.285	40501
649.343	100863
649.401	171300
649.459	34884
649.516	15204
649.574	10562
649.632	13868
649.690	25671
649.748	17879
649.806	13237
649.863	23359
649.921	31766
649.979	51436
650.037	15139
650.094	4272
650.152	5520
650.210	5092
650.268	3843
650.325	4358
650.383	5233
650.440	4807
650.498	4578
650.556	4075
650.613	3689
650.671	3532
650.728	3662
650.786	3565
650.843	3447
650.901	4288
650.958	3660
651.016	3671
651.073	3220
651.131	2966
651.188	3452
651.246	3863
651.303	2807
651.360	4508
651.418	2461
651.475	3565
651.532	2340
651.590	3006
651.647	3676
651.704	3824
651.762	3379
651.819	3600
651.876	3313
651.933	2956
651.990	3056
652.048	2478
652.105	3112
652.162	2968
652.219	2592
652.276	3190
652.333	4343
652.390	2914
652.448	3090
652.505	2811
652.562	3684
652.619	3702
652.676	4883
652.733	10152
652.790	5219
652.847	3215
652.904	3982
652.961	3434
653.017	2190
653.074	2582
653.131	2850
653.188	2483
653.245	1631
653.302	2241
653.359	2315
653.415	3526
653.472	2063
653.529	2582
653.586	2866
653.642	2482
653.699	2527
653.756	2550
653.813	3059
653.869	2640
653.926	3019
653.983	2030
654.039	2436
654.096	2246
654.152	2987
654.209	2115
654.266	2888
654.322	2162
654.379	2859
654.435	2949
654.492	2896
654.548	3433
654.605	4279
654.661	4869
654.717	3291
654.774	3143
654.830	3183
654.887	3249
654.943	3052
655.000	3342
655.056	3094
655.112	2571
655.168	2800
655.225	2941
655.281	3763
655.337	2715
655.394	4596
655.450	4693
655.506	4649
655.562	3419
655.618	4729
655.675	3003
655.731	3069
655.787	2166
655.843	3305
655.899	3221
655.955	3103
656.011	2146
656.067	1837
656.123	3296
656.179	3318
656.235	2943
656.291	2752
656.347	2805
656.403	2851
656.459	2951
656.515	2665
656.571	2337
656.627	3652
656.683	2906
656.739	3143
656.795	3073
656.850	2773
656.906	3190
656.962	2695
657.018	2353
657.074	3303
657.129	3564
657.185	3326
657.241	5181
657.297	7877
657.352	4311
657.408	2311
657.464	2924
657.519	2873
657.575	3125
657.630	2117
657.686	2735
657.742	2593
657.797	2764
657.853	2822
657.908	3177
657.964	1563
658.019	1987
658.075	2248
658.130	2135
658.186	1847
658.241	1992
658.297	1980
658.352	2159
658.407	3170
658.463	2380
658.518	2382
658.573	2865
658.629	2511
658.684	2301
658.739	2443
658.795	1978
658.850	2532
658.905	2760
658.960	2893
659.016	1975
659.071	1882
659.126	1732
659.181	2404
659.236	3319
659.291	3516
659.346	3612
659.401	3017
659.457	3704
659.512	5582
659.567	5912
659.622	3051
659.677	2620
659.732	2076
659.787	3365
659.842	2394
659.897	3481
659.952	3181
660.007	2153
660.061	2622
660.116	1391
660.171	1790
660.226	1791
660.281	3197
660.336	2057
660.391	2502
660.445	2085
660.500	1897
660.555	2374
660.610	2015
660.664	3862
660.719	2183
660.774	2197
660.828	2172
660.883	2808
660.938	2445
660.992	1910
661.047	2057
661.101	1803
661.156	1981
661.211	2221
661.265	2078
661.320	2242
661.374	2702
661.429	1893
661.483	2631
661.538	2711
661.592	1230
661.647	2160
661.701	2641
661.755	2816
661.810	2435
661.864	1901
661.919	1532
661.973	2754
662.027	1997
662.081	2007
662.136	1789
662.190	2266
662.244	2434
662.299	2746
662.353	2068
662.407	1770
662.461	2084
662.515	2089
662.569	1978
662.624	2405
662.678	2296
662.732	2053
662.786	1490
662.840	2909
662.894	2273
662.948	2650
663.002	2442
663.056	1964
663.110	2013
663.164	2325
663.218	2619
663.272	1843
663.326	2498
663.380	2177
663.434	2178
663.488	1305
663.542	2451
663.595	1580
663.649	1753
663.703	2443
663.757	2771
663.811	1915
663.864	1846
663.918	2993
663.972	1504
664.026	2433
664.079	1781
664.133	1842
664.187	2148
664.240	1551
664.294	1646
664.348	2239
664.401	2974
664.455	1996
664.508	1856
664.562	2248
664.615	1910
664.669	1825
664.722	2293
664.776	1910
664.829	1591
664.883	2278
664.936	1996
664.990	2570
665.043	2662
665.097	1906
665.150	1684
665.203	2635
665.257	2687
665.310	2692
665.363	1828
665.417	2220
665.470	2741
665.523	2607
665.576	2770
665.630	2454
665.683	1958
665.736	2518
665.789	2521
665.842	2585
665.895	2470
665.949	1850
666.002	1841
666.055	2721
666.108	2639
666.161	3105
666.214	2429
666.267	3056
666.320	2465
666.373	2487
666.426	2612
666.479	1714
666.532	2230
666.585	2617
666.638	2868
666.691	3315
666.744	2179
666.796	2957
666.849	1798
666.902	3210
666.955	2522
667.008	2185
667.060	1949
667.113	1853
667.166	2421
667.219	2539
667.271	2672
667.324	2108
667.377	2861
667.430	2965
667.482	1855
667.535	3646
667.587	2117
667.640	2457
667.693	2034
667.745	3627
667.798	3311
667.850	3073
667.903	2289
667.955	2783
668.008	2102
668.060	3049
668.113	2216
668.165	2657
668.218	3066
668.270	2317
668.322	2941
668.375	2336
668.427	2978
668.479	2207
668.532	2281
668.584	2723
668.636	2290
668.689	2299
668.741	1729
668.793	2188
668.845	2229
668.898	2392
668.950	2289
669.002	2551
669.054	2461
669.106	1924
669.158	2434
669.211	2388
669.263	2362
669.315	3481
669.367	4112
669.419	3633
669.471	3251
669.523	3384
669.575	3700
669.627	3984
669.679	2778
669.731	3083
669.783	2744
669.835	3826
669.886	3457
669.938	3340
669.990	3079
670.042	2683
670.094	2888
670.146	3298
670.197	3732
670.249	4425
670.301	4328
670.353	6665
670.404	8709
670.456	12001
670.508	18697
670.560	29935
670.611	49887
670.663	82322
670.715	147952
670.766	366859
670.818	371403
670.869	76601
670.921	19035
670.972	11800
671.024	8499
671.075	6512
671.127	5390
671.178	4144
671.230	5113
671.281	4181
671.333	3866
671.384	3117
671.436	4653
671.487	4149
671.538	4957
671.590	5613
671.641	7555
671.692	11402
671.744	19199
671.795	28623
671.846	15320
671.897	7478
671.949	4618
672.000	4261
672.051	3131
672.102	3401
672.153	2007
672.204	3515
672.256	2995
672.307	2757
672.358	2648
672.409	3165
672.460	2311
672.511	1936
672.562	1483
672.613	2397
672.664	2339
672.715	1860
672.766	2085
672.817	2331
672.868	1679
672.919	1920
672.970	1229
673.021	2383
673.071	1224
673.122	1829
673.173	1522
673.224	1687
673.275	1691
673.326	2292
673.376	2075
673.427	1410
673.478	1862
673.528	2830
673.579	2187
673.630	1912
673.680	2413
673.731	1934
673.782	1480
673.832	2031
673.883	2193
673.934	1974
673.984	2486
674.035	1329
674.085	1333
674.136	1762
674.186	1749
674.237	2778
674.287	2482
674.338	2861
674.388	2081
674.438	1906
674.489	2467
674.539	2035
674.589	1607
674.640	3271
674.690	2024
674.740	1940
674.791	1894
674.841	2071
674.891	2381
674.942	1846
674.992	1680
675.042	1498
675.092	1524
675.142	1866
675.193	1610
675.243	1404
675.293	1315
675.343	1871
675.393	1809
675.443	2518
675.493	2402
675.543	1124
675.593	2267
675.643	1870
675.693	1488
675.743	1728
675.793	2010
675.843	1237
675.893	1046
675.943	1599
675.993	1282
676.043	1654
676.093	1990
676.142	79
676.192	2301
676.242	2086
676.292	975
676.341	1708
676.391	1870
676.441	1923
676.491	1012
676.540	1169
676.590	1468
676.640	1637
676.689	1042
676.739	1780
676.789	849
676.838	1631
676.888	1653
676.937	911
676.987	1813
677.037	1355
677.086	840
677.136	898
677.185	1526
677.235	1253
677.284	668
677.333	1302
677.383	1729
677.432	605
677.482	953
677.531	1480
677.580	477
677.630	1179
677.679	784
677.728	1213
677.778	910
677.827	1248
677.876	1637
677.925	1463
677.975	1270
678.024	1152
678.073	1647
678.122	2050
678.171	1222
678.220	1649
678.269	1282
678.319	2091
678.368	1857
678.417	1448
678.466	1667
678.515	2071
678.564	1442
678.613	1587
678.662	1183
678.711	1344
678.760	2195
678.809	1508
678.857	1586
678.906	1050
678.955	555
679.004	1547
679.053	1179
679.102	1119
679.151	1683
679.199	1272
679.248	1743
679.297	1312
679.346	745
679.394	951
679.443	597
679.492	1092
679.540	803
679.589	1496
679.638	1831
679.686	1072
679.735	779
679.784	1402
679.832	1993
679.881	749
679.929	1163
679.978	705
680.026	1412
680.075	1529
680.123	2026
680.172	812
680.220	841
680.268	703
680.317	1381
680.365	529
680.414	454
680.462	1462
680.510	406
680.559	1423
680.607	-221
680.655	817
680.703	756
680.752	1331
680.800	654
680.848	721
680.896	1212
680.945	864
680.993	1056
681.041	814
681.089	1098
681.137	1164
681.185	624
681.233	1318
681.258	1031
681.281	740
681.329	899
681.377	501
681.380	555
681.425	1147
681.473	1654
681.502	1491
681.521	1347
681.569	1482
681.617	471
681.624	516
681.665	631
681.713	1469
681.745	1642
681.761	1703
681.809	1001
681.857	1638
681.867	1614
681.904	1435
681.952	1641
681.989	1724
682.000	1725
682.048	1121
682.096	1216
682.111	1364
682.143	1632
682.191	944
682.233	1422
682.239	1471
682.286	1307
682.334	1518
682.354	1298
682.382	953
682.430	2104
682.476	1693
682.477	1667
682.525	1477
682.572	1686
682.598	1371
682.620	1072
682.667	1479
682.715	2137
682.720	2138
682.763	1999
682.810	1784
682.841	1651
682.857	1557
682.905	1605
682.952	2260
682.963	2306
683.000	2347
683.047	2486
683.085	2699
683.095	2748
683.142	2338
683.190	2295
683.206	2254
683.237	2102
683.284	2216
683.328	2013
683.332	1985
683.379	2225
683.426	2469
683.449	2437
683.473	2358
683.521	2556
683.568	2165
683.571	2198
683.615	2483
683.662	2893
683.693	2637
683.709	2469
683.757	2417
683.804	2688
683.814	2777
683.851	3001
683.898	2777
683.936	2486
683.945	2410
683.992	2941
684.039	2291
684.057	2584
684.086	2998
684.133	3354
684.179	3405
684.180	3396
684.227	3190
684.274	4264
684.300	3456
684.321	2709
684.368	3643
684.415	3310
684.422	3296
684.462	3301
684.509	3058
684.543	2895
684.556	2811
684.603	3218
684.649	3514
684.665	3264
684.696	2754
684.743	3747
684.786	3687
684.790	3665
684.837	3924
684.883	3854
684.908	3862
684.930	3915
684.977	4231
685.023	4710
685.029	4685
685.070	4205
685.117	3484
685.150	3928
685.164	4158
685.210	4192
685.257	4267
685.272	4482
685.303	4875
685.350	4376
685.393	4643
685.396	4648
685.443	4450
685.490	4797
685.514	4523
685.536	4303
685.583	4238
685.629	4646
685.636	4641
685.675	4468
685.722	4907
685.757	4445
685.768	4315
685.815	5170
685.861	4664
685.878	4830
685.908	5059
685.954	4989
686.000	5126
686.000	5127
686.047	5325
686.093	5069
686.121	5819
686.139	6331
686.185	5908
686.232	6338
686.242	6393
686.278	5957
686.324	5713
686.363	5319
686.370	5315
686.416	5049
686.463	5205
686.484	5304
686.509	5498
686.555	5441
686.601	5325
686.606	5357
686.647	5363
686.693	5307
686.727	5203
686.739	5198
686.785	5584
686.831	5000
686.848	4941
686.877	4773
686.923	5099
686.969	4973
686.969	4972
687.015	5222
687.061	5571
687.090	5453
687.107	5366
687.153	5789
687.199	5824
687.211	5811
687.245	5620
687.291	5485
687.332	5231
687.336	5237
687.382	5513
687.428	5552
687.453	5860
687.474	5990
687.520	6455
687.565	5669
687.574	5794
687.611	6232
687.657	5548
687.695	5642
687.702	5738
687.748	6326
687.794	6850
687.816	7055
687.839	7378
687.885	8086
687.931	7987
687.937	8100
687.976	7476
688.022	6933
688.058	6023
688.067	5993
688.113	5890
688.158	5837
688.179	6032
688.204	6195
688.249	5942
688.295	5861
688.300	5835
688.340	6064
688.386	6226
688.421	6888
688.431	6992
688.477	6454
688.522	6390
688.542	6294
688.567	6204
688.613	6809
688.658	6247
688.663	6266
688.703	6371
688.749	6504
688.784	6242
688.794	6242
688.839	6460
688.884	6651
688.905	6549
688.930	6282
688.975	6511
689.020	6273
689.026	6305
689.065	6787
689.110	6749
689.146	6746
689.155	6736
689.201	7301
689.246	7144
689.267	7240
689.291	7258
689.336	7028
689.381	6586
689.388	6594
689.426	6825
689.471	6892
689.509	6944
689.516	6951
689.561	6837
689.606	6269
689.630	6517
689.651	6823
689.696	6991
689.741	6748
689.750	6791
689.785	7013
689.830	7145
689.871	7213
689.875	7205
689.920	6807
689.965	7229
689.992	6789
690.010	6593
690.054	7021
690.099	6965
690.112	6951
690.144	6916
690.189	6854
690.233	7053
690.233	7064
690.278	6837
690.323	6905
690.354	7059
690.367	7166
690.412	7861
690.457	7745
690.474	7722
690.501	7659
690.546	7686
690.590	8074
690.595	8099
690.635	8351
690.680	8257
690.716	8312
690.724	8435
690.769	8846
690.813	9834
690.836	9930
690.857	10297
690.902	11335
690.946	12606
690.957	12950
690.991	15909
691.035	19979
691.077	24189
691.080	24675
691.124	33293
691.168	39360
691.198	43869
691.213	42176
691.257	37345
691.301	32149
691.318	30553
691.346	27764
691.390	22407
691.434	16826
691.439	16234
691.478	14697
691.522	12972
691.559	11406
691.567	11342
691.611	10755
691.655	10288
691.680	9860
691.699	9727
691.743	9919
691.787	9529
691.800	9376
691.831	9203
691.875	9127
691.919	9427
691.921	9393
691.964	8864
692.008	9143
692.041	9233
692.052	9340
692.096	9614
692.139	9872
692.162	9975
692.183	9898
692.227	9398
692.271	9355
692.282	9160
692.315	8797
692.359	9077
692.402	8888
692.403	8907
692.447	9635
692.490	9319
692.523	9424
692.534	9414
692.578	9516
692.622	9218
692.643	9138
692.666	9203
692.709	9390
692.753	9500
692.763	9462
692.797	9229
692.840	9067
692.884	8805
692.884	8825
692.928	9120
692.971	9442
693.004	9611
693.015	9706
693.059	9778
693.102	10158
693.124	10293
693.146	10284
693.189	9956
693.233	10039
693.245	9971
693.276	10334
693.320	10902
693.363	11397
693.365	11400
693.407	12108
693.450	12416
693.485	12867
693.493	13156
693.537	14262
693.580	15775
693.605	16552
693.624	17783
693.667	20590
693.710	23296
693.725	24300
693.753	29996
693.797	39061
693.840	49150
693.845	50270
693.883	66228
693.926	81857
693.966	95975
693.970	94933
694.013	82841
694.056	70745
694.086	62585
694.099	58959
694.142	46865
694.185	34836
694.206	28972
694.229	26935
694.272	23102
694.315	19262
694.326	18237
694.358	17449
694.401	16089
694.444	15065
694.446	14971
694.487	14327
694.530	13515
694.566	12897
694.573	12837
694.616	12037
694.659	11506
694.686	11158
694.702	11047
694.745	10503
694.787	10082
694.806	9814
694.830	9787
694.873	9953
694.916	9795
694.926	9754
694.959	9687
695.002	9555
695.044	9550
695.046	9524
695.087	9606
695.130	9529
695.166	9598
695.172	9632
695.215	9462
695.258	9555
695.286	9476
695.301	9565
695.343	9884
695.386	10107
695.406	10244
695.428	10274
695.471	10096
695.514	9899
695.526	9883
695.556	9992
695.599	9992
695.641	10051
695.646	10009
695.684	9940
695.726	10104
695.766	10103
695.769	10112
695.811	9993
695.854	9558
695.886	9412
695.896	9457
695.938	9487
695.981	9448
696.005	9425
696.023	9411
696.065	9190
696.108	9280
696.125	9197
696.150	9258
696.192	9321
696.235	9416
696.245	9425
696.277	9868
696.319	10522
696.361	10961
696.365	10982
696.404	10987
696.446	10825
696.485	10689
696.488	10735
696.530	10976
696.572	11198
696.604	11414
696.614	11338
696.656	10770
696.698	10273
696.724	9914
696.740	10028
696.783	10163
696.825	10564
696.844	10648
696.867	10618
696.909	10472
696.951	10294
696.964	10263
696.992	10235
697.034	9946
697.076	9833
697.083	9764
697.118	10062
697.160	10396
697.202	10858
697.203	10840
697.244	10689
697.286	10427
697.323	10202
697.327	10222
697.369	10075
697.411	10099
697.442	9895
697.453	9883
697.494	9944
697.536	9914
697.562	9915
697.578	9983
697.620	9903
697.661	9951
697.682	9965
697.703	10116
697.744	10289
697.786	10558
697.801	10591
697.828	10805
697.869	11070
697.911	11378
697.921	11435
697.952	11413
697.994	11276
698.035	11128
698.040	11089
698.077	11173
698.118	11125
698.160	11144
698.160	11113
698.201	11064
698.243	11011
698.279	10895
698.284	10936
698.325	11080
698.367	11158
698.399	11242
698.408	11210
698.449	10888
698.491	10557
698.518	10313
698.532	10389
698.573	10537
698.614	10667
698.638	10715
698.656	10784
698.697	10854
698.738	10967
698.757	10976
698.779	11081
698.820	11238
698.862	11372
698.877	11397
698.903	11414
698.944	11383
698.985	11351
698.996	11311
699.026	11264
699.067	11161
699.116	11007
699.235	10645
699.354	10865
699.474	10765
699.593	11706
699.713	13239
699.832	11264
699.951	11116
700.070	11650
700.190	10896
700.309	10591
700.428	10703
700.547	11769
700.667	11174
700.786	10678
700.905	11787
701.024	10246
701.143	12231
701.262	9833
701.381	9536
701.500	10246
701.619	10395
701.738	10396
701.857	10990
701.976	9553
702.095	9912
702.214	9783
702.333	10460
702.452	9471
702.571	10530
702.690	9075
702.809	10106
702.928	9275
703.047	9431
703.165	9463
703.284	9699
703.403	8835
703.522	9464
703.640	11152
703.759	10821
703.878	11412
703.997	13086
704.115	9905
704.234	9842
704.353	8858
704.471	9328
704.590	9314
704.708	8748
704.827	9323
704.946	8333
705.064	9921
705.183	9683
705.301	8741
705.420	11069
705.538	14121
705.656	12424
705.775	11817
705.893	16220
706.012	40378
706.130	27631
706.249	12253
706.367	11172
706.485	11412
706.604	11956
706.722	11404
706.840	12518
706.958	15704
707.077	18547
707.195	13020
707.313	11632
707.431	10891
707.549	9725
707.668	10975
707.786	9964
707.904	10320
708.022	10322
708.140	9772
708.258	8801
708.376	10768
708.494	9775
708.612	10658
708.730	11192
708.848	14635
708.966	13164
709.084	12713
709.202	12017
709.320	11234
709.438	11428
709.556	11456
709.674	11497
709.791	12436
709.909	11760
710.027	10818
710.145	11147
710.263	11967
710.380	12511
710.498	11581
710.616	11437
710.733	10202
710.851	10975
710.969	12202
711.086	11857
711.204	11451
711.322	10464
711.439	10322
711.557	11554
711.674	10865
711.792	11698
711.909	11772
712.027	14153
712.144	13347
712.262	10123
712.379	11222
712.497	12278
712.614	16523
712.732	15029
712.849	12599
712.966	12751
713.084	14656
713.201	14932
713.318	12923
713.436	13642
713.553	13029
713.670	13421
713.787	13820
713.905	14770
714.022	14187
714.139	12559
714.256	14787
714.373	16544
714.490	22052
714.608	35458
714.725	109535
714.842	432267
714.959	176745
715.076	22309
715.193	15628
715.310	13715
715.427	12919
715.544	11806
715.661	11065
715.778	11323
715.895	11378
716.011	12098
716.128	12699
716.245	10978
716.362	11326
716.479	12175
716.596	11388
716.713	10493
716.829	10525
716.946	11041
717.063	10675
717.180	10159
717.296	10189
717.413	9115
717.530	9655
717.646	9594
717.763	10919
717.880	9692
717.996	9194
718.113	9362
718.229	8660
718.346	9126
718.462	9318
718.579	9483
718.695	11666
718.812	14840
718.928	13570
719.045	14834
719.161	9180
719.277	8801
719.394	9498
719.510	9863
719.626	9578
719.743	10916
719.859	12758
719.975	16192
720.092	32896
720.208	133969
720.324	154678
720.440	15921
720.557	10614
720.673	10957
720.789	15530
720.905	22592
721.021	38344
721.137	10475
721.253	9178
721.369	9438
721.486	9769
721.602	11146
721.718	12780
721.834	8843
721.950	8406
722.066	8265
722.181	8283
722.297	8216
722.413	8081
722.529	7434
722.645	7830
722.761	7765
722.877	8698
722.993	7671
723.108	8369
723.224	8355
723.340	8277
723.456	7486
723.571	6999
723.687	7831
723.803	7014
723.918	6840
724.034	7108
724.150	7312
724.265	7902
724.381	8584
724.497	20596
724.612	14219
724.728	6996
724.843	6852
724.959	7996
725.074	8783
725.190	19340
725.305	12636
725.421	8344
725.536	6511
725.651	6084
725.767	6205
725.882	7006
725.997	6271
726.113	6096
726.228	6508
726.343	5750
726.459	5697
726.574	6323
726.689	6526
726.804	5928
726.920	5440
727.035	6130
727.150	6831
727.265	6406
727.380	6220
727.495	6651
727.610	6045
727.725	6278
727.841	7444
727.956	9355
728.071	21859
728.186	10102
728.301	5343
728.416	5719
728.531	5945
728.645	5607
728.760	5180
728.875	5985
728.990	6097
729.105	5817
729.220	6260
729.335	6463
729.449	6035
729.564	5610
729.679	5575
729.794	5214
729.908	5142
730.023	6154
730.138	5069
730.253	4926
730.367	5417
730.482	5436
730.596	5727
730.711	5826
730.826	6602
730.940	7456
731.055	6637
731.169	5956
731.284	5549
731.398	5450
731.513	6114
731.627	6145
731.742	6861
731.856	7500
731.970	7238
732.085	6364
732.199	7900
732.313	11283
732.428	19910
732.542	51391
732.656	110987
732.771	36882
732.885	11123
732.999	8619
733.113	7479
733.227	8475
733.342	6600
733.456	6085
733.570	6457
733.684	5826
733.798	6153
733.912	6157
734.026	5538
734.140	5778
734.254	5529
734.368	7180
734.482	12605
734.596	8821
734.710	5064
734.824	5151
734.938	5004
735.052	5683
735.166	5682
735.280	6622
735.393	5740
735.507	5322
735.621	5531
735.735	7236
735.849	11739
735.962	5840
736.076	5424
736.190	6112
736.303	5810
736.417	9332
736.531	7742
736.644	5705
736.758	5416
736.872	4108
736.985	5137
737.099	5628
737.212	5312
737.326	4948
737.439	4735
737.553	5303
737.666	4661
737.780	5108
737.893	5435
738.007	4880
738.120	4601
738.233	4690
738.347	4761
738.460	5349
738.573	4962
738.687	4725
738.800	4762
738.913	4962
739.026	6036
739.140	5307
739.253	5742
739.366	5418
739.479	4086
739.592	4360
739.705	3952
739.818	3809
739.932	4261
740.045	3685
740.158	5005
740.271	4099
740.384	4798
740.497	4101
740.610	4339
740.723	4755
740.836	4793
740.949	5002
741.062	5530
741.174	6032
741.287	4315
741.400	5062
741.513	3779
741.626	4791
741.739	5080
741.851	4578
741.964	4381
742.077	4568
742.189	5308
742.302	4853
742.415	4583
742.527	4951
742.640	4950
742.753	5188
742.865	4115
742.978	4866
743.090	4412
743.203	4051
743.316	3980
743.428	3497
743.541	4355
743.653	4457
743.766	4163
743.878	4370
743.990	4707
744.103	6278
744.215	4552
744.327	4517
744.440	3934
744.552	5224
744.664	5886
744.777	3696
744.889	4235
745.001	4043
745.113	3911
745.226	4271
745.338	4028
745.450	3840
745.562	3836
745.674	4056
745.786	4358
745.898	3205
746.010	4578
746.122	4069
746.234	3986
746.347	4287
746.459	3674
746.570	3565
746.682	4106
746.794	4076
746.906	4806
747.018	3978
747.130	4039
747.242	3718
747.354	4579
747.466	4289
747.577	4281
747.689	4096
747.801	4469
747.913	3791
748.024	3067
748.136	3660
748.248	3230
748.359	4059
748.471	3638
748.583	3599
748.694	3377
748.806	5031
748.918	4923
749.029	4585
749.141	3707
749.252	4246
749.364	3453
749.475	4622
749.587	6127
749.698	4534
749.809	3529
749.921	3764
750.032	2611
750.144	4033
750.255	3596
750.366	3082
750.478	3403
750.589	3289
750.700	3725
750.811	2810
750.923	4428
751.034	4121
751.145	7848
751.256	4997
751.367	3488
751.479	3862
751.590	3734
751.701	3751
751.812	3790
751.923	3829
752.034	3801
752.145	2965
752.256	3965
752.367	3493
752.478	3451
752.589	3118
752.700	3186
752.811	3665
752.922	3090
753.032	2441
753.143	3691
753.254	3637
753.365	3929
753.476	4502
753.586	3674
753.697	3441
753.808	3837
753.919	2816
754.029	3839
754.140	3463
754.251	3364
754.361	2897
754.472	3948
754.582	3449
754.693	3670
754.804	3572
754.914	3694
755.025	3297
755.135	3383
755.246	3634
755.356	3210
755.466	3785
755.577	3614
755.687	3933
755.798	3258
755.908	3339
756.018	3071
756.129	3680
756.239	3801
756.349	4244
756.460	3240
756.570	3554
756.680	4088
756.790	3964
756.900	4471
757.011	4119
757.121	3611
757.231	3604
757.341	4235
757.451	3805
757.561	3575
757.671	4400
757.781	3641
757.891	3650
758.001	3828
758.111	4463
758.221	4645
758.331	4017
758.441	4982
758.551	4572
758.661	5200
758.771	4549
758.880	4190
758.990	4609
759.100	4382
759.210	5034
759.320	4501
759.429	4605
759.539	4385
759.649	4697
759.758	5114
759.868	5416
759.978	4031
760.087	5051
760.197	6296
760.307	6545
760.416	5944
760.526	5618
760.635	5879
760.745	5599
760.854	5743
760.964	6703
761.073	6695
761.182	6435
761.292	5966
761.401	6393
761.511	7095
761.620	6644
761.729	6194
761.839	6741
761.948	6389
762.057	6350
762.166	7257
762.276	7117
762.385	7204
762.494	6819
762.603	7246
762.712	7550
762.822	6913
762.931	8084
763.040	8036
763.149	8665
763.258	8587
763.367	9082
763.476	9124
763.585	9702
763.694	10207
763.803	10984
763.912	10946
764.021	12412
764.130	12369
764.238	11944
764.347	12913
764.456	14776
764.565	15396
764.674	17166
764.783	18270
764.891	20092
765.000	22335
765.109	24974
765.217	28538
765.326	32274
765.435	39024
765.543	45832
765.652	54745
765.761	70636
765.869	96785
765.978	134117
766.086	200737
766.195	324878
766.303	562344
766.412	878507
766.520	790853
766.629	824312
766.737	611653
766.846	347837
766.954	217186
767.062	145667
767.171	106452
767.279	84588
767.387	61451
767.496	50644
767.604	43476
767.712	35349
767.820	31942
767.928	29830
768.037	26511
768.145	25276
768.253	24321
768.361	22138
768.469	21637
768.577	23277
768.685	23483
768.793	24186
768.901	25919
769.009	29834
769.117	34496
769.225	41960
769.333	56652
769.441	82308
769.549	130629
769.657	234872
769.765	467294
769.873	782296
769.981	718910
770.088	539924
770.196	255978
770.304	142406
770.412	94102
770.519	65732
770.627	50981
770.735	38899
770.842	32779
770.950	27270
771.058	24161
771.165	21781
771.273	19588
771.380	17891
771.488	15574
771.595	16091
771.703	13786
771.810	13558
771.918	11645
772.025	12104
772.133	10904
772.240	10795
772.348	10408
772.455	10424
772.562	9498
772.670	9590
772.777	8488
772.884	8998
772.991	8499
773.099	8241
773.206	7653
773.313	7699
773.420	7812
773.528	7368
773.635	7220
773.742	6948
773.849	5539
773.956	6803
774.063	7017
774.170	6194
774.277	6312
774.384	6292
774.491	5916
774.598	6088
774.705	6422
774.812	6556
774.919	6253
775.026	6220
775.133	5846
775.239	5716
775.346	4853
775.453	5513
775.560	4857
775.667	5864
775.773	5403
775.880	5127
775.987	4797
776.093	5432
776.200	5225
776.307	4955
776.413	4657
776.520	4493
776.627	5021
776.733	4513
776.840	4532
776.946	4742
777.053	4630
777.159	5402
777.266	4957
777.372	4924
777.478	5158
777.585	5359
777.691	3737
777.798	4579
777.904	4769
778.010	4463
778.117	6294
778.223	4628
778.329	3625
778.435	4105
778.542	4420
778.648	4504
778.754	3613
778.860	3312
778.966	4018
779.072	3950
779.178	4183
779.284	3483
779.391	4215
779.497	4104
779.603	5533
779.708	6884
779.815	11392
779.920	27076
780.026	99953
780.132	92871
780.238	10662
780.344	5110
780.450	5407
780.556	4121
780.661	3680
780.767	3611
780.873	3146
780.979	3487
781.085	3338
781.190	3422
781.296	2872
781.402	2599
781.507	2579
781.613	3479
781.719	3355
781.824	3461
781.930	2952
782.035	3485
782.141	3372
782.246	2829
782.352	3101
782.457	2399
782.563	2718
782.668	2685
782.773	3728
782.879	2917
782.984	3004
783.090	3232
783.195	3837
783.300	4441
783.405	2983
783.511	2560
783.616	3241
783.721	3519
783.826	3381
783.932	3345
784.037	3204
784.142	2752
784.247	3129
784.352	3110
784.457	3799
784.562	3003
784.667	2870
784.772	2893
784.877	2547
784.982	3268
785.087	2725
785.192	2893
785.297	2751
785.402	2782
785.507	2622
785.611	2209
785.716	2801
785.821	1849
785.926	2176
786.031	1834
786.135	2575
786.240	2556
786.345	2259
786.450	2063
786.554	3316
786.659	2472
786.763	1945
786.868	2506
786.973	2088
787.077	1440
787.182	1728
787.286	2352
787.391	2192
787.495	2396
787.600	2475
787.704	2257
787.809	2029
787.913	1638
788.017	2245
788.122	2139
788.226	1965
788.330	2051
788.435	2362
788.539	2318
788.643	1457
788.747	1066
788.852	1620
788.956	1639
789.060	1790
789.164	1962
789.268	1220
789.372	1571
789.476	1804
789.580	1968
789.684	1518
789.788	1892
789.892	2227
789.996	2029
790.100	2557
790.204	2235
790.308	2094
790.412	1794
790.516	1781
790.620	2944
790.724	3001
790.828	2531
790.931	1112
791.035	1608
791.139	1896
791.242	2824
791.346	1406
791.450	2540
791.554	1417
791.657	1893
791.761	2336
791.864	1810
791.968	2759
792.072	1224
792.175	1959
792.279	1273
792.382	1863
792.486	2024
792.589	1293
792.693	2493
792.796	2164
792.899	1588
793.003	2383
793.106	1218
793.209	1524
793.313	1943
793.416	2359
793.519	2112
793.623	1880
793.726	3970
793.829	3115
793.932	1917
794.035	1396
794.138	1955
794.242	2458
794.345	2782
794.448	4283
794.551	6342
794.654	15657
794.757	48645
794.860	51160
794.963	7312
795.066	2734
795.169	2421
795.272	2630
795.375	1684
795.477	2154
795.580	2182
795.683	1079
795.786	2490
795.889	939
795.991	2053
796.094	1669
796.197	1411
796.300	1928
796.402	1350
796.505	1361
796.608	998
796.710	1664
796.813	1880
796.915	1555
797.018	1242
797.120	2252
797.223	1199
797.326	2381
797.428	1737
797.530	1632
797.633	1218
797.735	1515
797.838	1652
797.940	4205
798.042	2560
798.145	1291
798.247	1246
798.349	881
798.452	996
798.554	1633
798.656	1115
798.758	1510
798.860	1416
798.962	1328
799.065	1007
799.167	1663
799.269	1204
799.371	1790
799.473	2092
799.575	2035
799.677	2577
799.779	1853
799.881	1275
799.983	2454
800.085	1772
800.187	1279
800.289	719
800.390	1095
800.492	1261
800.594	1285
800.696	555
800.798	1687
800.899	960
801.001	1834
801.103	1305
801.205	1517
801.306	749
801.408	1263
801.509	664
801.611	1229
801.713	1333
801.814	897
801.916	1097
802.017	993
802.119	748
802.220	1477
802.322	861
802.423	2494
802.525	1877
802.626	1427
802.727	1704
802.829	2076
802.930	280
803.031	1654
803.133	951
803.234	1281
803.335	822
803.436	767
803.538	1553
803.639	380
803.740	135
803.841	826
803.942	964
804.043	1171
804.144	514
804.245	916
804.346	1025
804.447	186
804.548	1486
804.649	2656
804.750	1848
804.851	972
804.952	1424
805.053	447
805.154	1051
805.255	602
805.355	569
805.456	777
805.557	532
805.658	744
805.758	1268
805.859	1244
805.960	252
806.061	1397
806.161	272
806.262	1042
806.362	956
806.463	1198
806.564	1130
806.664	1076
806.765	1252
806.865	1533
806.966	1444
807.066	624
807.166	774
807.267	813
807.367	657
807.468	1472
807.568	214
807.668	1080
807.769	1106
807.869	977
807.969	869
808.069	780
808.170	450
808.270	599
808.370	662
808.470	608
808.570	1293
808.670	1544
808.770	684
808.870	996
808.970	922
809.070	1001
809.170	428
809.271	460
809.370	403
809.470	961
809.570	269
809.670	408
809.770	791
809.870	1267
809.970	1588
810.070	1189
810.169	1265
810.269	606
810.369	1153
810.469	1350
810.568	1186
810.668	684
810.768	292
810.867	1080
810.967	654
811.066	1627
811.166	868
811.265	1455
811.365	832
811.464	338
811.564	662
811.663	-133
811.763	619
811.862	657
811.962	1042
812.061	454
812.160	748
812.260	1578
812.359	886
812.458	186
812.557	2406
812.657	3937
812.756	5144
812.855	1853
812.954	1202
813.053	810
813.153	828
813.252	529
813.351	998
813.450	1279
813.549	559
813.648	1176
813.747	865
813.846	1101
813.945	1445
814.044	1089
814.143	1071
814.242	641
814.341	1541
814.439	1192
814.538	1264
814.637	1454
814.736	1160
814.835	1871
814.933	820
815.032	1655
815.131	1847
815.229	1872
815.328	2215
815.427	1815
815.525	2172
815.624	2567
815.722	2090
815.821	2242
815.919	2440
816.018	2290
816.116	3047
816.215	3434
816.313	3568
816.412	3364
816.510	3830
816.609	4317
816.707	4347
816.805	4283
816.904	3740
817.002	4211
817.100	4896
817.198	5621
817.296	6656
817.395	7124
817.493	8402
817.591	9502
817.689	12164
817.787	15764
817.885	22087
817.983	35018
818.081	59599
818.179	120370
818.277	250169
818.375	458940
818.473	350874
818.571	145833
818.669	71488
818.767	48931
818.865	40555
818.963	41297
819.061	48279
819.158	69158
819.256	113439
819.354	208365
819.452	405249
819.549	580412
819.647	398521
819.745	191898
819.842	99162
819.940	62794
820.038	41671
820.135	31306
820.233	23861
820.330	18781
820.428	14759
820.525	13005
820.623	10722
820.720	9168
820.818	8560
820.915	8537
821.012	6842
821.110	6539
821.207	5086
821.304	5301
821.402	4818
821.499	4860
821.596	4935
821.693	3609
821.791	4216
821.888	2913
821.985	4306
822.082	4503
822.179	4565
822.276	2690
822.373	1907
822.470	2350
822.567	2843
822.664	2464
822.761	2715
822.858	2663
822.955	1751
823.052	2065
823.149	910
823.246	1975
823.343	1869
823.440	1787
823.536	767
823.633	1360
823.730	1956
823.827	1775
823.923	1256
824.020	2512
824.117	1717
824.213	1155
824.310	2394
824.407	1190
824.503	2354
824.600	1231
824.696	1221
824.793	1875
824.889	1343
824.986	1266
825.082	817
825.179	1466
825.275	283
825.371	1490
825.468	1878
825.564	721
825.660	1250
825.757	1051
825.853	1129
825.949	1208
826.045	-40
826.142	908
826.238	338
826.334	503
826.430	762
826.526	959
826.622	39
826.718	277
826.814	277
826.910	1405
827.006	1236
827.102	393
827.198	710
827.294	281
827.390	1159
827.486	925
827.582	108
827.678	82
827.774	620
827.869	571
827.965	736
828.061	562
828.157	31
828.252	1095
828.348	340
828.444	473
828.539	654
828.635	1521
828.731	1082
828.826	645
828.922	692
829.017	390
829.113	525
829.208	784
829.304	-165
829.399	1365
829.495	1438
829.590	555
829.685	717
829.781	1127
829.876	1383
829.971	669
830.066	282
830.162	-320
830.257	294
830.352	949
830.447	1024
830.543	888
830.638	375
830.733	739
830.828	431
830.923	385
831.018	453
831.113	1526
831.208	670
831.303	436
831.398	233
831.493	86
831.588	902
831.683	-298
831.778	170
831.873	591
831.967	754
832.062	454
832.157	293
832.252	1081
832.346	1133
832.441	969
832.536	768
832.631	1038
832.725	2520
832.820	1671
832.914	-135
833.009	318
833.104	538
833.198	379
833.293	1457
833.387	773
833.482	467
833.576	554
833.670	498
833.765	197
833.859	522
833.954	785
834.048	86
834.142	274
834.237	-252
834.331	931
834.425	275
834.519	470
834.613	333
834.708	11
834.802	-245
834.896	49
834.990	775
835.084	-92
835.178	1215
835.272	170
835.366	147
835.460	143
835.554	-70
835.648	-171
835.742	-185
835.836	1172
835.930	-276
836.024	191
836.117	439
836.211	-258
836.305	175
836.399	685
836.493	1227
836.586	490
836.680	48
836.774	-142
836.867	223
836.961	-530
837.055	52
837.148	-45
837.242	384
837.335	473
837.429	3
837.522	400
837.616	308
837.709	776
837.803	2120
837.896	762
837.989	591
838.083	1334
838.176	539
838.269	2054
838.363	2152
838.456	332
838.549	817
838.642	453
838.735	2175
838.829	2239
838.922	847
839.015	-142
839.108	-514
839.201	570
839.294	124
839.387	757
839.480	178
839.573	264
839.666	531
839.759	731
839.852	390
839.945	578
840.038	-167
840.131	124
840.223	349
840.316	505
840.409	496
840.502	101
840.594	37
840.687	-361
840.780	271
840.873	66
840.965	-232
841.058	-105
841.150	31
841.243	2097
841.336	940
841.428	629
841.521	-84
841.613	-192
841.706	580
841.798	27
841.890	232
841.983	-501
842.075	-232
842.167	-292
842.260	-213
842.352	700
842.444	606
842.537	1106
842.629	2762
842.721	2977
842.813	-2
842.905	-179
842.997	699
843.090	50
843.182	323
843.274	1545
843.366	3633
843.458	6778
843.550	12933
843.642	6524
843.734	803
843.826	627
843.918	706
844.009	-35
844.101	-215
844.193	-724
844.285	2
844.377	6
844.469	-44
844.560	49
844.652	638
844.744	-363
844.835	-562
844.927	487
845.019	650
845.110	558
845.202	778
845.293	-248
845.385	-93
845.476	-507
845.568	566
845.659	-181
845.751	251
845.842	60
845.934	-260
846.025	-54
846.116	750
846.208	148
846.299	-633
846.390	271
846.482	6
846.573	359
846.664	458
846.755	915
846.846	683
846.937	419
847.029	-249
847.120	-746
847.211	175
847.302	730
847.393	-511
847.484	171
847.575	138
847.666	-442
847.757	-504
847.847	-246
847.938	629
848.029	-393
848.120	-190
848.211	32
848.302	-215
848.392	-507
848.483	-442
848.574	-302
848.664	-1003
848.755	963
848.846	-360
848.936	-273
849.027	-372
849.118	-301
849.208	-488
849.299	587
849.389	711
849.480	958
849.570	2108
849.661	6575
849.751	10849
849.841	16260
849.932	4925
850.022	-219
850.112	386
850.203	-491
850.293	954
850.383	-999
850.474	-586
850.564	-93
850.654	706
850.744	-1
850.834	6
850.924	376
851.014	-317
851.104	335
851.194	575
851.284	-599
851.374	462
851.464	-524
851.554	-77
851.644	504
851.734	1029
851.824	906
851.914	988
852.004	646
852.094	1442
852.183	1356
852.273	317
852.363	-435
852.452	-659
852.542	107
852.632	-835
852.721	601
852.811	-1071
852.901	-74
852.990	416
853.080	127
853.169	-143
853.259	-584
853.348	-363
853.438	-67
853.527	538
853.617	574
853.706	2489
853.795	3975
853.885	9350
853.974	21403
854.063	39286
854.152	69720
854.242	98245
854.331	30965
854.420	5603
854.509	1908
854.598	1012
854.687	724
854.777	800
854.866	429
854.955	277
855.044	-410
855.133	-131
855.222	-60
855.311	-1200
855.400	580
855.488	-618
855.577	269
855.666	266
855.755	641
855.844	434
855.933	1208
856.021	1771
856.110	-138
856.199	430
856.288	-195
856.376	-297
856.465	-679
856.554	353
856.642	-377
856.731	-312
856.819	695
856.908	-573
856.996	-182
857.085	-542
857.173	-9
857.262	-240
857.350	-221
857.438	-370
857.527	-349
857.615	-172
857.703	141
857.792	-565
857.880	-838
857.968	-50
858.056	-862
858.145	-84
858.233	-34
858.321	-779
858.409	-369
858.497	-648
858.585	-312
858.673	589
858.761	-302
858.849	-408
858.937	-90
859.025	-791
859.113	-6
859.201	-706
859.289	1159
859.377	-779
859.465	311
859.552	573
859.640	-543
859.728	-20
859.816	-674
859.903	225
859.991	-485
860.079	-410
860.166	-286
860.254	-161
860.342	-201
860.429	-570
860.517	-1227
860.604	0
860.692	-322
860.779	-698
860.867	-719
860.954	-813
861.042	-10
861.129	862
861.216	410
861.304	-681
861.391	-959
861.478	-78
861.565	120
861.653	-219
861.740	-835
861.827	114
861.914	-345
862.001	-110
862.089	-447
862.176	-158
862.263	-1045
862.350	-796
862.437	-720
862.524	-465
862.611	-1096
862.698	-345
862.785	-83
862.871	-361
862.958	-910
863.045	-381
863.132	-161
863.219	-723
863.306	-967
863.392	-156
863.479	-389
863.566	408
863.652	-461
863.739	-212
863.826	-326
863.912	-679
863.999	-971
864.086	-627
864.172	-613
864.259	145
864.345	-228
864.432	-224
864.518	-806
864.604	-605
864.691	-96
864.777	-735
864.863	423
864.950	-476
865.036	-96
865.122	431
865.209	568
865.295	457
865.381	394
865.467	77
865.553	1323
865.639	1055
865.726	2976
865.812	5198
865.898	10101
865.984	18539
866.070	26346
866.156	51342
866.242	49021
866.328	11787
866.414	2593
866.499	1139
866.585	1044
866.671	603
866.757	606
866.843	856
866.928	479
867.014	178
867.100	1088
867.186	173
867.271	485
867.357	335
867.442	1084
867.528	1337
867.614	155
867.699	113
867.785	206
867.870	505
867.956	704
868.041	875
868.127	270
868.212	643
868.297	1205
868.383	592
868.468	675
868.553	1158
868.639	795
868.724	1516
868.809	2810
868.894	2764
868.979	1294
869.065	200
869.150	421
869.235	-183
869.320	-331
869.405	-138
869.490	-366
869.575	-1113
869.660	199
869.745	-134
869.830	-569
869.915	-405
870.000	-413
870.085	-39
870.169	-62
870.254	-56
870.339	-286
870.424	-765
870.509	3
870.593	107
870.678	582
870.763	-327
870.847	-332
870.932	-230
871.016	615
871.101	-131
871.186	-95
871.270	-27
871.355	-41
871.439	134
871.523	261
871.608	-266
871.692	196
871.777	198
871.861	787
871.945	-456
872.030	629
872.114	-705
872.198	-309
872.282	-1071
872.367	39
872.451	115
872.535	-743
872.619	172
872.703	-185
872.787	796
872.871	134
872.955	-451
873.039	-745
873.123	-302
873.207	-634
873.291	-193
873.375	-624
873.459	-127
873.543	-488
873.627	-815
873.711	-293
873.794	2
873.878	-235
873.962	734
874.045	-553
874.129	-356
874.137	-343
874.213	-223
874.245	-233
874.296	-238
874.352	-246
874.380	-256
874.460	89
874.464	104
874.547	-738
874.568	-734
874.631	-788
874.676	-534
874.714	-269
874.784	-51
874.798	-23
874.881	1341
874.892	1117
874.965	-368
874.999	-548
875.048	-853
875.107	-360
875.131	-134
875.215	-32
875.215	-32
875.298	-783
875.323	-537
875.381	153
875.430	99
875.465	-2
875.538	446
875.548	529
875.631	-459
875.646	-354
875.714	-35
875.753	-444
875.798	-813
875.861	-361
875.881	-251
875.964	-423
875.968	-421
876.047	-354
876.076	-269
876.130	-126
876.183	-421
876.213	-540
876.291	75
876.296	108
876.379	-453
876.398	-464
876.462	-396
876.506	-305
876.545	-331
876.613	-20
876.628	104
876.711	221
876.721	242
876.794	198
876.828	114
876.877	28
876.935	-104
876.960	-178
877.043	-59
877.043	-60
877.125	32
877.150	179
877.208	398
877.258	395
877.291	513
877.365	186
877.374	92
877.456	429
877.472	353
877.539	395
877.579	544
877.622	572
877.687	479
877.704	535
877.787	875
877.794	869
877.869	443
877.901	672
877.952	1177
878.008	331
878.034	-150
878.115	-367
878.117	-363
878.199	467
878.222	413
878.282	34
878.329	-92
878.364	-10
878.437	223
878.447	186
878.529	75
878.544	-78
878.611	-353
878.651	-118
878.694	6
878.758	257
878.776	389
878.858	663
878.865	649
878.941	198
878.972	212
879.023	436
879.078	143
879.105	-119
879.185	-77
879.187	-66
879.269	210
879.292	238
879.351	36
879.399	264
879.433	688
879.506	759
879.516	666
879.598	-85
879.613	-178
879.680	-16
879.720	245
879.762	127
879.827	-722
879.844	-651
879.926	962
879.933	972
880.007	-151
880.040	-260
880.089	104
880.147	166
880.171	32
880.253	106
880.254	107
880.335	1152
880.360	1260
880.417	1067
880.467	801
880.499	1126
880.574	3268
880.580	3316
880.662	2301
880.680	1786
880.744	843
880.787	711
880.825	265
880.893	115
880.907	230
880.989	751
881.000	770
881.070	-248
881.106	-615
881.152	-203
881.213	257
881.233	186
881.315	-418
881.319	-417
881.396	278
881.426	322
881.478	-7
881.532	158
881.559	380
881.639	484
881.641	470
881.722	-443
881.745	-528
881.803	299
881.852	440
881.885	194
881.958	145
881.966	174
882.047	630
882.064	643
882.129	42
882.171	-168
882.210	83
882.277	264
882.291	307
882.372	1181
882.383	1149
882.454	616
882.489	444
882.535	110
882.596	103
882.616	310
882.697	677
882.702	695
882.778	-98
882.808	-305
882.859	318
882.914	674
882.940	373
883.020	-136
883.021	-128
883.102	181
883.127	371
883.183	539
883.233	464
883.264	438
883.339	353
883.345	322
883.426	-500
883.445	-534
883.507	155
883.551	502
883.587	263
883.657	-113
883.668	-39
883.749	671
883.763	733
883.830	276
883.869	-96
883.910	172
883.975	806
883.991	672
884.072	-40
884.081	-150
884.152	200
884.187	532
884.233	323
884.292	-150
884.314	4
884.394	689
884.398	723
884.475	530
884.504	395
884.555	390
884.610	290
884.636	125
884.716	-156
884.716	-148
884.797	489
884.821	666
884.877	585
884.927	519
884.958	755
885.033	1420
885.038	1374
885.118	255
885.139	-16
885.199	327
885.244	649
885.279	527
885.350	227
885.359	299
885.439	970
885.456	1052
885.520	613
885.561	376
885.600	531
885.667	735
885.680	601
885.760	31
885.773	-94
885.840	474
885.878	740
885.920	509
885.984	379
886.000	533
886.080	966
886.089	1018
886.160	187
886.195	-149
886.240	570
886.300	1375
886.320	1081
886.400	-84
886.406	-165
886.480	672
886.511	1056
886.560	462
886.616	-174
886.640	113
886.720	739
886.722	753
886.800	537
886.827	507
886.879	844
886.932	1053
886.959	923
887.038	636
887.039	650
887.119	1389
887.143	1623
887.198	1376
887.248	1147
887.278	1159
887.354	934
887.358	905
887.437	392
887.459	239
887.517	661
887.564	1030
887.596	769
887.669	80
887.676	186
887.755	1370
887.774	1708
887.835	934
887.880	324
887.914	789
887.985	1478
887.994	1354
888.073	518
888.090	294
888.153	720
888.195	1038
888.232	755
888.300	160
888.311	272
888.391	1148
888.405	1283
888.470	631
888.510	267
888.549	1020
888.615	2250
888.628	2000
888.708	405
888.720	170
888.787	916
888.825	1265
888.866	916
888.930	387
888.945	592
889.024	1669
889.035	1809
889.103	1557
889.140	1419
889.182	1504
889.245	1553
889.261	1353
889.340	438
889.349	326
889.419	1225
889.454	1689
889.498	734
889.559	-619
889.577	-191
889.656	1706
889.664	1888
889.735	1263
889.768	956
889.814	1439
889.873	2071
889.978	910
890.083	1743
890.187	766
890.292	1769
890.397	581
890.501	1881
890.606	1001
890.710	1783
890.815	734
890.919	1538
891.024	679
891.128	2338
891.233	447
891.337	1319
891.442	802
891.546	1885
891.650	974
891.755	1900
891.859	1084
891.963	1727
892.068	81
892.172	2049
892.276	994
892.380	1044
892.484	286
892.589	1458
892.693	1061
892.797	962
892.901	-567
893.005	1071
893.109	1512
893.213	1420
893.317	869
893.421	1915
893.525	758
893.629	1323
893.733	595
893.837	1451
893.941	764
894.045	1455
894.148	-44
894.252	2416
894.356	1646
894.460	2106
894.564	426
894.667	1402
894.771	536
894.875	1283
894.978	-312
895.082	1163
895.186	684
895.289	2123
895.393	-75
895.496	1208
895.600	231
895.703	2410
895.807	-729
895.910	1993
896.014	723
896.117	1258
896.221	486
896.324	1409
896.427	598
896.531	1183
896.634	1014
896.737	1969
896.840	785
896.944	499
897.047	241
897.150	1858
897.253	19
897.356	1258
897.460	-648
897.563	1292
897.666	573
897.769	1585
897.872	25
897.975	1266
898.078	-364
898.181	1761
898.284	-294
898.387	1324
898.490	996
898.593	1347
898.695	355
898.798	1570
898.901	656
899.004	1548
899.107	577
899.209	1386
899.312	951
899.415	1872
899.518	-43
899.620	1382
899.723	209
899.826	1324
899.928	84
900.031	1044
900.133	904
900.236	1278
900.338	212
900.441	1377
900.543	3
900.646	387
900.748	668
900.851	1048
900.953	1088
901.055	1563
901.158	326
901.260	1602
901.362	534
901.465	575
901.567	626
901.669	1602
901.771	-482
901.873	1280
901.976	1056
902.078	1042
902.180	27
902.282	1202
902.384	255
902.486	893
902.588	1009
902.690	1660
902.792	958
902.894	1184
902.996	90
903.098	1452
903.200	618
903.302	1746
903.404	-227
903.505	1359
903.607	598
903.709	818
903.811	627
903.913	2421
904.014	78
904.116	1199
904.218	11
904.319	1305
904.421	802
904.523	1343
904.624	1626
904.726	1807
904.827	-74
904.929	850
905.030	202
905.132	1290
905.233	959
905.335	1647
905.436	41
905.537	1371
905.639	552
905.740	1700
905.841	233
905.943	2138
906.044	57
906.145	1580
906.247	645
906.348	1085
906.449	241
906.550	884
906.651	452
906.752	811
906.854	276
906.955	1816
907.056	748
907.157	1669
907.258	674
907.359	2061
907.460	850
907.561	798
907.662	624
907.762	1523
907.863	70
907.964	1480
908.065	67
908.166	1051
908.267	176
908.367	988
908.468	700
908.569	1545
908.670	1242
908.770	1462
908.871	692
908.971	1189
909.072	307
909.173	1835
909.273	218
909.374	1594
909.474	305
909.575	1568
909.675	-28
909.776	1311
909.876	888
909.977	1458
910.077	91
910.177	1307
910.278	1067
910.378	386
910.478	529
910.579	1738
910.679	384
910.779	1770
910.879	-31
910.980	1459
911.080	840
911.180	1148
911.280	452
911.380	1134
911.480	602
911.580	1392
911.680	-319
911.780	1197
911.880	1195
911.980	747
912.080	757
912.180	1125
912.280	269
912.380	1654
912.480	-722
912.580	1428
912.679	633
912.779	1392
912.879	-101
912.979	1110
913.078	248
913.178	792
913.278	771
913.377	1684
913.477	-302
913.577	755
913.676	481
913.776	1733
913.875	294
913.975	1166
914.074	710
914.174	2039
914.273	465
914.373	1411
914.472	277
914.572	1358
914.671	356
914.770	914
914.870	384
914.969	463
915.068	844
915.167	976
915.267	673
915.366	898
915.465	294
915.564	845
915.663	537
915.763	1439
915.862	472
915.961	2014
916.060	660
916.159	1002
916.258	46
916.357	1132
916.456	502
916.555	1332
916.654	647
916.752	1624
916.851	812
916.950	1834
917.049	1039
917.148	1748
917.247	-425
917.345	755
917.444	453
917.543	1231
917.642	217
917.740	1765
917.839	64
917.937	1040
918.036	608
918.135	1828
918.233	240
918.332	1743
918.430	-171
918.529	1777
918.627	735
918.726	1039
918.824	542
918.923	1255
919.021	-959
919.119	464
919.218	-44
919.316	939
919.414	436
919.512	1017
919.611	166
919.709	905
919.807	63
919.905	869
920.003	448
920.102	1638
920.200	-106
920.298	1597
920.396	419
920.494	1834
920.592	174
920.690	1408
920.788	631
920.886	2161
920.984	696
921.082	2227
921.180	571
921.277	1359
921.375	152
921.473	1429
921.571	713
921.669	1288
921.766	632
921.864	1150
921.962	401
922.060	1586
922.157	610
922.255	1998
922.352	358
922.450	1938
922.548	494
922.645	2131
922.743	1046
922.840	2534
922.938	2118
923.035	3416
923.133	1071
923.230	3243
923.327	1767
923.425	3372
923.522	1754
923.619	2603
923.717	1871
923.814	3061
923.911	1688
924.008	2474
924.106	1680
924.203	2899
924.300	869
924.397	2174
924.494	2129
924.591	1895
924.688	1963
924.786	2688
924.883	1491
924.979	2581
925.077	1292
925.173	2665
925.270	930
925.367	2414
925.464	1906
925.561	2556
925.658	1960
925.755	3103
925.852	1754
925.948	2584
926.045	1628
926.142	1876
926.239	1508
926.335	2496
926.432	2008
926.529	3545
926.625	1697
926.722	2121
926.818	1444
926.915	1798
927.011	1953
927.108	2797
927.204	913
927.301	2023
927.397	1376
927.494	2413
927.590	1706
927.687	1629
927.783	1021
927.879	2542
927.976	737
928.072	1831
928.168	1598
928.264	3175
928.361	705
928.457	2003
928.553	1119
928.649	2568
928.745	884
928.841	2890
928.937	1326
929.033	3128
929.129	1169
929.225	2032
929.321	1802
929.417	2057
929.513	368
929.609	2649
929.705	426
929.801	2222
929.897	1253
929.993	1825
930.089	1113
930.184	2291
930.280	1203
930.376	2183
930.471	1923
930.567	1806
930.663	797
930.758	1820
930.854	892
930.950	2378
931.045	1899
931.141	2081
931.236	1324
931.332	2501
931.427	1127
931.523	2309
931.618	1823
931.714	2208
931.809	834
931.905	1945
932.000	845
932.095	1398
932.191	886
932.286	1585
932.381	967
932.476	1757
932.572	543
932.667	2056
932.762	1049
932.857	2368
932.952	971
933.047	2210
933.142	1322
933.237	1900
933.332	543
933.427	2169
933.522	279
933.617	1778
933.712	1341
933.807	1516
933.902	1302
933.997	1789
934.092	590
934.187	1619
934.282	1110
934.376	2057
934.471	684
934.566	1792
934.661	293
934.755	1544
934.850	931
934.945	3000
935.039	422
935.134	2156
935.228	1189
935.323	984
935.417	1784
935.512	1650
935.606	-72
935.701	1692
935.795	923
935.890	2388
935.984	1057
936.079	1135
936.173	307
936.267	1802
936.362	-30
936.456	1566
936.550	1230
936.644	2851
936.738	181
936.833	1875
936.927	-154
937.021	1726
937.115	495
937.209	1062
937.303	1576
937.397	1903
937.491	397
937.585	1578
937.679	833
937.773	1993
937.867	254
937.961	1745
938.055	14
938.149	1635
938.243	648
938.337	1070
938.430	-224
938.524	1094
938.618	479
938.712	2698
938.805	334
938.899	1326
938.993	442
939.086	1014
939.180	995
939.274	1431
939.367	865
939.461	1887
939.554	610
939.648	899
939.741	813
939.835	2037
939.928	1067
940.022	1557
940.115	630
940.208	1894
940.302	940
940.395	1805
940.488	870
940.582	1847
940.675	348
940.768	1617
940.861	469
940.954	1576
941.048	861
941.141	349
941.234	-44
941.327	1408
941.420	954
941.513	1723
941.606	970
941.699	2265
941.792	-411
941.885	1300
941.978	667
942.071	1095
942.164	804
942.257	1738
942.349	620
942.442	1750
942.535	-25
942.628	2110
942.721	470
942.813	976
942.906	583
942.999	851
943.091	37
943.184	897
943.277	831
943.369	868
943.462	326
943.554	720
943.647	325
943.739	1146
943.832	-339
943.924	1607
944.017	3
944.109	949
944.201	423
944.294	1380
944.386	170
944.478	1169
944.571	322
944.663	811
944.755	963
944.847	1362
944.940	646
945.032	866
945.124	510
945.216	725
945.308	827
945.400	1852
945.492	860
945.584	1984
945.676	260
945.768	2099
945.860	204
945.952	1367
946.044	650
946.136	1637
946.228	-93
946.320	1674
946.412	-426
946.503	1809
946.595	1147
946.687	1180
946.779	-195
946.870	749
946.962	646
947.054	1640
947.145	479
947.237	882
947.329	652
947.420	1457
947.512	124
947.603	2250
947.695	-647
947.786	1672
947.878	313
947.969	994
948.061	66
948.152	2350
948.243	-365
948.335	847
948.426	-386
948.517	1009
948.609	-144
948.700	1371
948.791	-127
948.882	1573
948.973	107
949.065	1022
949.156	787
949.247	1467
949.338	507
949.429	1125
949.520	225
949.611	737
949.702	-3
949.793	1145
949.884	528
949.975	548
950.066	67
950.157	1096
950.247	70
950.338	322
950.429	-375
950.520	1509
950.611	320
950.701	564
950.792	-137
950.883	1994
950.973	-267
951.064	848
951.155	7
951.245	1195
951.336	-368
951.427	1009
951.517	-439
951.608	1689
951.698	137
951.788	1243
951.879	44
951.969	1190
952.060	-227
952.150	1417
952.240	185
952.331	1160
952.421	-114
952.511	916
952.602	-83
952.692	502
952.782	193
952.872	1153
952.962	-358
953.052	1406
953.143	-1020
953.233	777
953.323	13
953.413	833
953.503	-647
953.593	604
953.683	-47
953.773	625
953.863	240
953.953	878
954.042	-311
954.132	1482
954.222	-154
954.312	1154
954.402	-50
954.492	556
954.581	256
954.671	1337
954.761	-876
954.850	1707
954.940	59
955.030	608
955.119	364
955.209	914
955.298	-158
955.388	748
955.477	799
955.567	876
955.656	-409
955.746	431
955.835	763
955.925	1122
956.014	-667
956.103	337
956.193	-773
956.282	64
956.371	-569
956.461	1005
956.550	-597
956.639	980
956.728	-695
956.817	486
956.906	-755
956.995	1057
957.085	-92
957.174	646
957.263	-517
957.352	485
957.441	-836
957.530	711
957.619	-382
957.708	985
957.796	-356
957.885	270
957.974	5
958.063	893
958.152	-934
958.241	1010
958.329	-557
958.418	893
958.507	-162
958.596	972
958.684	-1105
958.773	1562
958.861	-446
958.950	813
959.039	-357
959.127	1634
959.216	-47
959.304	912
959.393	125
959.481	211
959.570	-836
959.658	1078
959.746	458
959.835	1241
959.923	481
960.011	1186
960.100	-169
960.188	1074
960.276	19
960.365	34
960.453	315
960.541	1188
960.629	-855
960.717	-223
960.805	-919
960.893	743
960.981	84
961.069	1423
961.158	-123
961.245	536
961.333	-390
961.421	759
961.509	-391
961.597	914
961.685	-476
961.773	526
961.861	-718
961.949	1043
962.036	-265
962.124	358
962.212	-30
962.299	-106
962.387	-320
962.475	116
962.562	-36
962.650	1017
962.738	-196
962.825	811
962.913	-214
963.000	131
963.088	-257
963.175	603
963.263	-770
963.350	829
963.438	-1152
963.525	443
963.612	-254
963.700	2478
963.787	1789
963.874	3844
963.962	1082
964.049	77
964.136	-1096
964.223	248
964.310	-1019
964.398	479
964.485	-231
964.572	808
964.659	-687
964.746	1004
964.833	-646
964.920	242
965.007	-767
965.094	550
965.181	-510
965.268	593
965.355	-468
965.441	1134
965.528	-816
965.615	871
965.702	-169
965.789	209
965.875	-1837
965.962	915
966.049	-855
966.136	713
966.222	-535
966.309	790
966.395	-254
966.482	858
966.569	-837
966.655	-144
966.742	-475
966.828	474
966.915	-1214
967.001	385
967.087	-747
967.174	-3
967.260	95
967.347	653
967.433	322
967.519	2004
967.605	1396
967.692	146
967.778	-377
967.864	-77
967.950	-595
968.036	-7
968.123	-769
968.209	144
968.295	-756
968.381	670
968.467	-370
968.553	567
968.639	-696
968.725	414
968.811	-381
968.897	683
968.983	-802
969.069	-152
969.154	-19
969.240	925
969.326	-442
969.412	346
969.497	-1654
969.583	-369
969.669	-746
969.755	502
969.840	-220
969.926	555
970.012	-705
970.097	890
970.183	-352
970.268	1010
970.354	-133
970.439	814
970.525	335
970.610	1555
970.696	277
970.781	710
970.866	-1159
970.952	102
971.037	-575
971.122	498
971.208	-495
971.293	-362
971.378	-1116
971.463	190
971.549	-61
971.634	433
971.719	-382
971.804	318
971.889	-626
971.974	323
972.059	-1296
972.144	512
972.229	-650
972.314	139
972.399	-604
972.484	767
972.569	-768
972.654	1116
972.739	287
972.824	1134
972.908	-18
972.993	-258
973.078	-1362
973.163	212
973.247	-543
973.332	-130
973.417	-496
973.501	282
973.586	-209
973.671	316
973.755	-26
973.840	840
973.924	-79
974.009	117
974.093	-596
974.178	62
974.262	375
974.346	1014
974.431	270
974.515	-225
974.600	-1133
974.684	181
974.768	-275
974.852	314
974.937	-261
975.021	789
975.105	-1720
975.189	595
975.273	-669
975.358	716
975.442	-780
975.526	589
975.610	-181
975.694	1150
975.778	-664
975.862	1310
975.946	-1567
976.030	784
976.114	-533
976.198	703
976.281	-761
976.365	927
976.449	-552
976.533	218
976.617	-165
976.700	494
976.784	-773
976.868	613
976.951	561
977.035	887
977.119	-1055
977.202	211
977.286	-1462
977.369	753
977.453	-668
977.536	747
977.620	-690
977.703	-232
977.787	-50
977.870	1005
977.953	-42
978.037	-147
978.120	-566
978.203	147
978.287	-128
978.370	1618
978.453	-37
978.536	351
978.620	292
978.703	1031
978.786	664
978.869	813
978.952	-465
979.035	1245
979.118	-302
979.201	-11
979.284	-170
979.367	608
979.450	-50
979.533	183
979.616	-768
979.699	500
979.782	203
979.865	978
979.948	-660
980.030	578
980.113	-294
980.196	387
980.279	-705
980.361	42
980.444	387
980.526	259
980.609	82
980.692	784
980.774	-93
980.857	-172
980.939	-12
981.022	1141
981.104	-658
981.187	219
981.269	-432
981.352	564
981.434	-889
981.516	189
981.599	9
981.681	147
981.763	-395
981.846	180
981.928	-395
982.010	436
982.092	-808
982.174	1093
982.256	-991
982.339	665
982.421	-335
982.503	868
982.585	-867
982.667	261
982.749	-1133
982.831	-37
982.913	-1183
982.995	1030
983.077	430
983.158	827
983.240	-659
983.322	726
983.404	-536
983.486	1049
983.568	-769
983.649	-220
983.731	265
983.813	628
983.894	-431
983.976	431
984.058	-970
984.139	658
984.221	-407
984.302	382
984.384	-577
984.465	247
984.547	-230
984.628	653
984.710	-749
984.791	200
984.872	-534
984.954	269
985.035	182
985.116	307
985.198	-782
985.279	593
985.360	-622
985.441	183
985.522	-455
985.604	1352
985.685	-884
985.766	1081
985.847	487
985.928	1600
986.009	-447
986.090	-83
986.171	188
986.252	533
986.333	-137
986.414	1267
986.495	-629
986.576	83
986.656	-912
986.737	281
986.818	589
986.899	172
986.980	-500
987.060	732
987.141	-788
987.222	1112
987.302	-31
987.383	1353
987.464	410
987.544	1595
987.625	172
987.705	971
987.786	-615
987.866	865
987.947	317
988.027	297
988.108	-81
988.188	124
988.268	145
988.349	581
988.429	-1150
988.509	701
988.589	13
988.670	827
988.750	66
988.830	600
988.910	-983
988.990	1089
989.070	104
989.151	476
989.231	-685
989.311	243
989.391	-834
989.471	934
989.551	-667
989.631	-426
989.711	-277
989.791	577
989.870	-51
989.950	926
990.030	-41
990.110	261
990.190	485
990.269	241
990.349	-397
990.429	1146
990.509	18
990.588	-342
990.668	-215
990.747	418
990.827	-809
990.907	978
990.986	-787
991.066	124
991.145	-283
991.225	866
991.304	-715
991.383	1189
991.463	-1004
991.542	463
991.622	-292
991.701	844
991.780	-981
991.859	813
991.939	-484
992.018	965
992.097	-503
992.176	1052
992.256	34
992.335	232
992.414	-722
992.493	447
992.572	-440
992.651	934
992.730	58
992.809	466
992.888	-364
992.967	476
993.046	-292
993.125	517
993.203	-897
993.282	3
993.361	-804
993.440	-445
993.519	-835
993.597	432
993.676	-129
993.755	385
993.834	-833
993.912	109
993.991	-816
994.069	208
994.148	-1031
994.226	698
994.305	-1337
994.384	647
994.462	-606
994.540	225
994.619	-1281
994.697	187
994.776	-1575
994.854	586
994.932	-1026
995.011	720
995.089	-478
995.167	473
995.245	-1225
995.324	-233
995.402	-1309
995.480	831
995.558	-742
995.636	47
995.714	-414
995.792	982
995.870	-687
995.948	781
996.026	-456
996.104	-13
996.182	-603
996.260	149
996.338	-377
996.416	210
996.494	-747
996.572	800
996.649	-1336
996.727	28
996.805	-815
996.883	854
996.960	-378
997.038	234
997.116	-1141
997.193	677
997.271	248
997.348	401
997.426	-894
997.504	95
997.581	-429
997.658	644
997.736	-319
997.813	477
997.891	-385
997.968	-150
998.046	-1211
998.123	-544
998.200	-431
998.277	166
998.355	-697
998.432	156
998.509	-1500
998.586	513
998.663	-525
998.741	240
998.818	-692
998.895	318
998.972	-975
999.049	803
999.126	-1662
999.203	-124
999.280	-627
999.357	-223
999.434	-711
999.511	1049
999.587	-204
999.664	-108
999.741	-1257
999.818	614
999.895	-1220
999.971	-178
1000.048	-714
1000.125	880
1000.202	-1507
1000.278	219
1000.355	-864
1000.431	751
1000.508	-1238
1000.584	-18
1000.661	-480
1000.738	64
1000.814	-1237
1000.890	362
1000.967	-599
1001.043	-658
1001.120	-1090
1001.196	99
1001.272	-592
1001.349	336
1001.425	-1193
1001.501	161
1001.577	-741
1001.654	648
1001.730	-637
1001.806	97
1001.882	-1140
1001.958	526
1002.034	-991
1002.110	-337
1002.186	-1568
1002.262	-231
1002.338	-1710
1002.414	13
1002.490	-966
1002.566	-503
1002.642	-1388
1002.718	284
1002.794	31
1002.870	565
1002.945	-557
1003.021	397
1003.097	-1697
1003.173	-70
1003.248	-1218
1003.324	-266
1003.400	-1159
1003.475	-123
1003.551	-237
1003.626	318
1003.702	-1155
1003.777	-422
1003.853	-1869
1003.928	-273
1004.004	-1626
1004.079	-100
1004.155	-638
1004.230	-898
1004.305	-622
1004.381	-365
1004.456	-1139
1004.531	48
1004.607	-976
1004.682	-85
1004.757	-1749
1004.832	-40
1004.907	-992
1004.982	436
1005.057	-1442
1005.133	-878
1005.208	-532
1005.283	-718
1005.358	-1729
1005.433	-564
1005.508	-1896
1005.583	-329
1005.657	-1301
1005.732	494
1005.807	-910
1005.882	13
1005.957	-1489
1006.032	-234
1006.106	-1642
1006.181	-371
1006.256	-1178
1006.331	-503
1006.405	-1642
1006.480	153
1006.554	-1624
1006.629	-124
1006.704	-1957
1006.778	-353
1006.853	-875
1006.927	5
1007.002	-996
1007.076	73
1007.150	-473
1007.225	-327
1007.299	-1034
1007.373	435
1007.448	-888
1007.522	127
1007.596	-1460
1007.671	-435
1007.745	-870
1007.819	-791
1007.893	-847
1007.967	-52
1008.041	-1828
1008.115	896
1008.190	-1210
1008.264	-551
1008.338	-1433
1008.412	-88
1008.486	-1526
1008.560	-1023
1008.633	-1272
1008.707	-299
1008.781	-853
1008.855	-384
1008.929	-978
1009.003	353
1009.076	-1850
1009.150	-556
1009.224	-1760
1009.298	-192
1009.371	-2022
1009.445	-564
1009.519	-999
1009.592	-719
1009.666	-1470
1009.739	32
1009.813	-1925
1009.886	548
1009.960	-2344
1010.033	241
1010.107	-1198
1010.180	-55
1010.253	-1851
1010.327	-680
1010.400	-1277
1010.473	-1275
1010.547	-728
1010.620	-581
1010.693	-1619
1010.766	-1043
1010.840	-1460
1010.913	-623
1010.986	-1581
1011.059	389
1011.132	-978
1011.205	-548
1011.278	-1919
1011.351	-544
1011.424	-753
1011.497	-591
1011.570	-1753
1011.643	-629
1011.716	-1983
1011.789	-56
1011.862	-1681
1011.934	-565
1012.007	-1679
1012.080	-735
1012.153	-1607
1012.225	237
1012.298	-1453
1012.371	-660
1012.443	-1450
1012.516	-1081
1012.588	-1963
1012.661	-930
1012.733	-1958
1012.806	-740
1012.879	-1709
1012.951	-391
1013.023	-1630
1013.096	-1061
1013.168	-1122
1013.241	-1187
1013.313	-527
1013.385	-1230
1013.458	-1473
1013.530	21
1013.602	-1174
1013.674	3
1013.746	-1409
1013.819	-711
1013.891	-1339
1013.963	-518
1014.035	-1504
1014.107	-915
1014.179	-1074
1014.251	-511
1014.323	-1452
1014.395	-804
1014.467	-1684
1014.539	-620
1014.611	-2289
1014.683	-807
1014.754	-1354
1014.826	-414
1014.898	-1745
1014.970	-1341
1015.042	-1671
1015.113	-409
1015.185	-1345
1015.257	-275
1015.328	-1957
1015.400	-1522
1015.471	-1235
1015.543	-1332
1015.615	-1628
1015.686	-825
1015.757	-2283
1015.829	-548
1015.901	-1830
1015.972	-383
1016.043	-1672
1016.115	-517
1016.186	-1814
1016.257	-914
1016.328	-1231
1016.400	-22
1016.471	-2497
1016.542	-992
1016.613	-904
1016.685	-301
1016.756	-451
1016.827	-839
1016.898	-1649
1016.969	-240
1017.040	-1569
1017.111	-702
1017.182	-1795
1017.253	-549
1017.324	-1524
1017.395	-1235
1017.466	-1184
1017.537	-873
1017.608	-1695
1017.678	-986
1017.749	-2258
1017.820	-191
1017.891	-2041
1017.961	-849
1018.032	-1962
1018.103	-294
1018.173	-1877
1018.244	-1351
1018.315	-2198
1018.385	76
1018.456	-1105
1018.526	-596
1018.597	-1895
1018.667	-882
1018.738	-1762
1018.808	-653
1018.878	-2297
1018.949	-983
1019.019	-1160
1019.089	-530
1019.160	-2171
1019.230	-1559
1019.300	-1780
1019.371	-1491
1019.441	-1512
1019.511	-522
1019.581	-1620
1019.651	-336
1019.721	-1393
1019.791	-1062
1019.861	-2193
1019.931	-820
1020.001	-1735
1020.071	-1685
1020.141	-1458
1020.211	-740
1020.281	-2575
1020.351	-1677
1020.421	-1646
1020.491	-1072
1020.560	-2706
1020.630	-1242
1020.700	-1273
1020.770	-1024
1020.839	-2259
1020.909	-75
1020.979	-1882
1021.048	-529
1021.118	-1920
1021.187	47
1021.257	-2116
1021.326	-315
1021.396	-2206
1021.465	-498
1021.535	-2360
1021.604	-837
1021.674	-2037
1021.743	-698
1021.812	-1379
1021.882	-892
1021.951	-1619
1022.020	-976
1022.089	-1614
1022.159	-191
1022.228	-1384
1022.297	-1229
1022.366	-1794
1022.435	-735
1022.504	-1677
1022.573	-641
1022.642	-1810
1022.711	-1134
1022.781	-794
1022.849	-1044
1022.918	-1844
1022.987	-803
1023.056	-2426
1023.125	-598
1023.194	-1952
1023.263	-809
1023.331	-1133
1023.400	-618
1023.469	-1526
1023.538	-818
1023.606	-2321
1023.675	-611
1023.744	-1351
1023.812	-442
1023.881	-1922
1023.949	-1224
1024.018	-2311
1024.086	-1850
1024.155	-2150
1024.223	-1088
1024.292	-2184
1024.360	-1283
1024.429	-1021
1024.497	-340
1024.565	-1673
1024.634	-863
1024.702	-1026
1024.770	-904
1024.838	-2118
1024.907	-741
1024.975	-1920
1025.043	-1128
1025.111	-1754
1025.179	396
1025.247	-1560
1025.315	-1794
1025.383	-2088
1025.451	-812
1025.519	-1916
1025.587	-981
1025.655	-1957
1025.723	-672
1025.791	-1569
1025.859	-818
1025.927	-1366
1025.995	-1047
1026.062	-1481
1026.130	-555
1026.198	-2151
1026.266	-300
1026.333	-2214
1026.401	-640
1026.469	-2219
1026.536	-473
1026.604	-2332
1026.671	-1721
1026.739	-1787
1026.806	-801
1026.874	-2741
1026.941	-625
1027.009	-2523
1027.076	-1180
1027.144	-1476
1027.211	-1261
1027.278	-2153
1027.345	-1234
1027.413	-1799
1027.480	-1551
1027.547	-2278
1027.614	-678
1027.682	-2261
1027.749	-906
1027.816	-1816
1027.883	-974
1027.950	-2196
1028.017	-1370
1028.084	-1393
1028.151	-855
1028.218	-2465
1028.285	-980
1028.352	-1631
1028.419	-1377
1028.486	-1471
1028.553	-1090
1028.619	-1824
1028.686	-705
1028.753	-2804
1028.820	-1365
1028.886	-1473
1028.953	-1155
1029.020	-1727
1029.086	-1902
1029.153	-2247
1029.220	-1299
1029.286	-2123
1029.353	-668
1029.419	-2059
1029.486	-1653
1029.552	-1798
1029.619	-1106
1029.685	-1062
1029.751	-1160
1029.818	-1337
1029.884	-665
1029.951	-1302
1030.017	-920
1030.083	-2250
1030.149	-1491
1030.216	-1463
1030.282	-794
1030.348	-1735
1030.414	-854
1030.480	-1939
1030.546	-1022
1030.612	-1441
1030.678	-1125
1030.744	-1554
1030.810	-1084
1030.876	-1947
1030.942	-1285
1031.008	-2227
1031.074	-418
1031.140	-2136
1031.206	-983
1031.272	-1920
1031.337	-232
1031.403	-2393
1031.469	-1268
1031.534	-1992
1031.600	-758
1031.666	-2064
1031.731	-1561
1031.797	-2431
1031.863	-1160
1031.928	-2050
1031.994	-622
1032.059	-1422
1032.125	-1309
1032.190	-2689
1032.256	-1492
1032.321	-2611
1032.386	-198
1032.452	-1086
1032.517	-1692
1032.582	-1924
1032.647	-1031
1032.713	-1847
1032.778	-1129
1032.843	-2159
1032.908	-19
1032.974	-1455
1033.039	-640
1033.104	-2189
1033.169	-870
1033.234	-2038
1033.299	-641
1033.364	-1820
1033.429	-972
1033.494	-1399
1033.559	-946
1033.624	-1856
1033.688	-877
1033.753	-2417
1033.818	-646
1033.883	-1683
1033.948	-1346
1034.013	-2097
1034.077	-1360
1034.142	-1076
1034.207	-92
1034.271	-1697
1034.336	-167
1034.400	-1895
1034.465	-84
1034.530	-2367
1034.594	-1144
1034.658	-1675
1034.723	-1037
1034.787	-1331
1034.852	-1123
1034.916	-2347
1034.981	-841
1035.045	-1793
1035.109	-195
1035.173	-1618
1035.238	-129
1035.302	-1765
1035.366	-1210
1035.430	-2242
1035.495	-1228
1035.559	-1561
1035.623	-806
1035.687	-2496
1035.751	-682
1035.815	-2340
1035.879	-742
1035.943	-1619
1036.007	-1534
1036.071	-1502
1036.135	-1139
1036.198	-2614
1036.262	-1059
1036.326	-2077
1036.390	-1095
1036.454	-2277
1036.517	-659
1036.581	-2222
1036.645	-1077
1036.709	-1895
1036.772	-1077
1036.836	-1132
1036.900	-832
1036.963	-2018
1037.026	-1127
1037.090	-2235
1037.154	-1064
1037.217	-1657
1037.280	-1161
1037.344	-1562
1037.407	-921
1037.471	-2239
1037.534	-1625
1037.597	-2073
1037.661	-1376
1037.724	-1461
1037.787	-1404
1037.850	-1089
1037.913	-1101
1037.977	-2054
1038.040	-949
1038.103	-2107
1038.166	-1220
1038.229	-1202
1038.292	-1394
1038.355	-1914
1038.418	-636
1038.481	-2752
1038.544	-137
1038.607	-2113
1038.670	-1721
1038.732	-1511
1038.795	-969
1038.858	-1431
1038.921	-124
1038.984	-2193
1039.046	-1334
1039.109	-1603
1039.172	-866
1039.234	-2102
1039.297	-1199
1039.360	-2879
1039.422	-1025
1039.485	-1401
1039.547	-717
1039.610	-1626
1039.672	-580
1039.734	-1879
1039.797	-925
1039.859	-2587
1039.922	-522
1039.984	-2122
1040.046	-490
1040.109	-1451
1040.171	-1305
1040.233	-1357
1040.295	-980
1040.358	-1909
1040.420	-1290
1040.482	-2118
1040.544	-700
1040.606	-1657
1040.668	-1117
1040.730	-2072
1040.792	-1252
1040.854	-1857
1040.916	-935
1040.978	-1774
1041.040	-166
1041.102	-1889
1041.164	-154
1041.225	-2564
1041.287	-1530
1041.349	-2296
1041.411	-1776
1041.472	-1138
1041.534	-684
1041.596	-2140
1041.657	-1466
1041.719	-2165
1041.781	-724
1041.842	-2137
1041.904	-858
1041.965	-2166
1042.027	-680
1042.088	-2103
1042.150	-964
1042.211	-2083
1042.272	-1098
1042.334	-2189
1042.395	-1436
1042.456	-2405
1042.518	-545
1042.579	-2241
1042.640	-664
1042.701	-1687
1042.763	-253
1042.824	-1473
1042.885	-659
1042.946	-1727
1043.007	-429
1043.068	-1584
1043.129	-1141
1043.190	-2220
1043.251	-416
1043.312	-1939
1043.373	-762
1043.434	-1872
1043.495	-3
1043.556	-1674
1043.616	-944
1043.677	-1620
1043.738	-1056
1043.799	-2614
1043.859	-997
1043.920	-1404
1043.981	-644
1044.041	-2371
1044.102	-625
1044.162	-2238
1044.223	-943
1044.284	-2053
1044.344	-1645
1044.405	-1754
1044.465	-611
1044.525	-1876
1044.586	-1217
1044.646	-1915
1044.707	-903
1044.767	-1777
1044.827	-1241
1044.887	-2053
1044.948	-183
1045.008	-2270
1045.068	-1173
1045.128	-1601
1045.188	-696
1045.249	-1919
1045.309	-569
1045.369	-1573
1045.429	-930
1045.489	-1473
1045.549	-933
1045.609	-2197
1045.669	-598
1045.729	-2116
1045.789	-179
1045.848	-1282
1045.908	-838
1045.968	-1547
1046.028	-554
1046.088	-1775
1046.147	-149
1046.207	-1621
1046.267	-265
1046.326	-1452
1046.386	-555
1046.446	-797
1046.505	-361
1046.565	-1265
1046.624	221
1046.684	-1152
1046.743	554
1046.803	-821
1046.862	501
1046.922	0
