'Start Wavelength	183.907
'End Wavelength	1046.922
'Gate Delay	5.000
'Gate Width (ms)	1.050
'Laser Output Level	0.000
'X Position	0.000
'Y Position	0.000
'Z Position	0.000
'Grid Point Number	1.000
'Shot Number	100.000
183.907	692.000
183.977	159.000
184.047	150
184.116	358
184.186	500
184.256	353
184.325	136
184.395	481
184.465	926
184.534	178
184.604	245
184.674	-293
184.743	113
184.813	920
184.883	248
184.952	-1
185.022	-9
185.092	597
185.161	966
185.231	-6
185.301	9
185.370	813
185.440	-284
185.509	360
185.579	-357
185.649	305
185.718	556
185.788	608
185.857	417
185.927	-4
185.996	378
186.066	371
186.136	161
186.205	168
186.275	388
186.344	270
186.414	496
186.483	321
186.553	1182
186.622	1242
186.692	854
186.761	-174
186.831	235
186.900	238
186.970	305
187.039	1098
187.109	261
187.178	-136
187.248	429
187.317	480
187.387	5
187.456	507
187.526	671
187.595	561
187.664	1050
187.734	489
187.803	122
187.873	220
187.942	163
188.012	314
188.081	-85
188.150	185
188.220	1010
188.289	1357
188.358	708
188.428	633
188.497	-30
188.567	752
188.636	356
188.705	968
188.775	436
188.844	736
188.913	128
188.983	429
189.052	882
189.121	667
189.191	774
189.260	299
189.329	288
189.399	-47
189.468	113
189.537	-151
189.606	-20
189.676	-209
189.745	335
189.814	377
189.883	564
189.953	-190
190.022	114
190.091	-581
190.161	260
190.230	555
190.299	641
190.368	523
190.437	331
190.507	-236
190.576	215
190.645	332
190.714	68
190.783	56
190.853	1298
190.922	986
190.991	1183
191.060	312
191.129	190
191.198	519
191.268	531
191.337	96
191.406	234
191.475	682
191.544	184
191.613	876
191.682	307
191.752	652
191.821	137
191.890	-256
191.959	-89
192.028	-56
192.097	307
192.166	-288
192.235	423
192.304	422
192.373	31
192.442	513
192.511	618
192.580	-15
192.650	581
192.719	239
192.788	-124
192.857	123
192.926	126
192.995	644
193.064	709
193.133	167
193.202	220
193.271	125
193.340	-2
193.409	202
193.478	50
193.547	-100
193.615	752
193.684	-32
193.753	958
193.822	-78
193.891	316
193.960	9
194.029	363
194.098	629
194.167	685
194.236	372
194.305	130
194.374	-9
194.443	142
194.512	-329
194.580	361
194.649	178
194.718	173
194.787	441
194.856	-286
194.925	249
194.994	118
195.062	105
195.131	-301
195.200	105
195.269	477
195.338	497
195.407	1129
195.475	-360
195.544	72
195.613	86
195.682	643
195.751	882
195.819	228
195.888	213
195.957	309
196.026	520
196.094	619
196.163	-107
196.232	-15
196.301	7
196.369	327
196.438	163
196.507	962
196.576	-60
196.644	-45
196.713	-422
196.782	-477
196.850	-3
196.919	165
196.988	96
197.056	382
197.125	312
197.194	276
197.262	-165
197.331	801
197.400	-281
197.468	-280
197.537	797
197.606	103
197.674	1001
197.743	348
197.812	-287
197.880	63
197.949	365
198.017	-68
198.086	-366
198.155	739
198.223	-187
198.292	1030
198.360	307
198.429	172
198.497	218
198.566	416
198.635	664
198.703	243
198.772	286
198.840	-138
198.909	-256
198.977	-154
199.046	577
199.114	-137
199.183	412
199.251	700
199.320	593
199.388	111
199.457	-78
199.525	72
199.594	750
199.662	239
199.731	474
199.799	367
199.867	279
199.936	-74
200.004	1127
200.073	504
200.141	521
200.210	192
200.278	741
200.346	847
200.415	1300
200.483	313
200.552	1060
200.620	716
200.688	455
200.757	448
200.825	207
200.893	-288
200.962	353
201.030	368
201.098	-40
201.167	58
201.235	-517
201.303	-706
201.372	1131
201.440	445
201.508	425
201.577	838
201.645	556
201.713	408
201.781	518
201.850	-207
201.918	375
201.986	-191
202.055	412
202.123	533
202.191	401
202.259	-265
202.327	-192
202.396	426
202.464	480
202.532	-246
202.600	473
202.669	20
202.737	452
202.805	-399
202.873	706
202.941	511
203.009	-166
203.078	850
203.146	582
203.214	536
203.282	19
203.350	-128
203.418	522
203.487	272
203.555	-518
203.623	639
203.691	61
203.759	284
203.827	-60
203.895	562
203.963	494
204.031	391
204.099	936
204.168	-283
204.236	643
204.304	227
204.372	127
204.440	366
204.508	768
204.576	571
204.644	-164
204.712	499
204.780	844
204.848	299
204.916	499
204.984	386
205.052	-501
205.120	94
205.188	-22
205.256	23
205.324	480
205.392	-324
205.460	117
205.528	274
205.596	329
205.664	260
205.732	449
205.799	-646
205.867	71
205.935	-320
206.003	-88
206.071	-127
206.139	-499
206.207	320
206.275	50
206.343	254
206.411	299
206.478	189
206.546	493
206.614	530
206.682	1419
206.750	117
206.818	1349
206.885	791
206.953	65
207.021	1259
207.089	452
207.157	-12
207.225	368
207.292	-126
207.360	396
207.428	-264
207.496	657
207.563	-843
207.631	96
207.699	-23
207.767	238
207.834	466
207.902	-260
207.970	100
208.038	384
208.105	614
208.173	-33
208.241	123
208.309	178
208.376	277
208.444	175
208.512	139
208.579	114
208.647	514
208.715	1058
208.782	441
208.850	-83
208.918	727
208.985	432
209.053	-246
209.120	335
209.188	-139
209.256	198
209.323	269
209.391	30
209.459	1051
209.526	-113
209.594	-195
209.661	216
209.729	196
209.796	367
209.864	955
209.932	347
209.999	1096
210.067	472
210.134	-208
210.202	1286
210.269	1096
210.337	1316
210.404	-82
210.472	268
210.539	74
210.607	61
210.674	106
210.742	-381
210.809	219
210.877	286
210.944	1176
211.012	153
211.079	676
211.146	760
211.214	1442
211.281	1295
211.349	1826
211.416	962
211.484	1152
211.551	164
211.618	846
211.686	621
211.753	-73
211.821	713
211.888	-425
211.955	717
212.023	801
212.090	916
212.157	759
212.225	-46
212.292	447
212.359	441
212.427	1238
212.494	465
212.561	669
212.629	495
212.696	250
212.763	10
212.831	-155
212.898	-65
212.965	366
213.032	-1
213.100	553
213.167	264
213.234	648
213.301	500
213.369	577
213.436	319
213.503	181
213.570	-218
213.638	311
213.705	-72
213.772	-342
213.839	-169
213.906	257
213.973	101
214.041	121
214.108	314
214.175	76
214.242	38
214.309	23
214.376	222
214.444	465
214.511	131
214.578	71
214.645	1041
214.712	1578
214.779	108
214.846	266
214.913	1574
214.980	1756
215.048	1722
215.115	1943
215.182	1494
215.249	1571
215.316	305
215.383	652
215.450	258
215.517	111
215.584	690
215.651	568
215.718	438
215.785	128
215.852	295
215.919	762
215.986	-119
216.053	620
216.120	155
216.187	324
216.254	656
216.321	82
216.388	771
216.455	219
216.522	473
216.589	-24
216.656	375
216.722	90
216.789	-267
216.856	223
216.923	-78
216.990	647
217.057	335
217.124	425
217.191	302
217.258	137
217.324	348
217.391	141
217.458	50
217.525	698
217.592	-54
217.659	-468
217.725	711
217.792	394
217.859	142
217.926	-586
217.993	586
218.059	-228
218.126	-53
218.193	410
218.260	132
218.327	-833
218.393	-195
218.460	71
218.527	613
218.594	190
218.660	-198
218.727	-289
218.794	-746
218.860	108
218.927	408
218.994	-85
219.061	-420
219.127	209
219.194	-100
219.261	401
219.327	-57
219.394	946
219.461	-761
219.527	503
219.594	846
219.661	615
219.727	21
219.794	1361
219.860	902
219.927	2212
219.994	4625
220.060	5478
220.127	6420
220.193	2983
220.260	1645
220.326	1155
220.393	250
220.460	8
220.526	387
220.593	472
220.659	846
220.726	154
220.792	855
220.859	535
220.925	479
220.992	-409
221.058	277
221.125	237
221.191	517
221.258	-402
221.324	520
221.391	-420
221.457	-347
221.524	781
221.590	299
221.657	1219
221.723	60
221.789	410
221.856	622
221.922	94
221.989	443
222.055	603
222.121	411
222.188	2532
222.254	736
222.321	836
222.387	724
222.453	217
222.520	261
222.586	787
222.652	509
222.719	-88
222.785	-538
222.851	152
222.918	378
222.984	206
223.050	-538
223.116	-1069
223.183	600
223.249	-84
223.315	92
223.382	-125
223.448	112
223.514	-12
223.580	696
223.647	-498
223.713	-204
223.779	-644
223.845	261
223.911	-182
223.978	-948
224.044	-470
224.110	-325
224.176	728
224.242	406
224.309	-146
224.375	305
224.441	93
224.507	171
224.573	298
224.639	-341
224.705	-639
224.772	146
224.838	88
224.904	-135
224.970	-209
225.036	-92
225.102	-211
225.168	853
225.234	761
225.300	812
225.366	-213
225.432	-27
225.499	668
225.565	-90
225.631	617
225.697	-179
225.763	280
225.829	-336
225.895	154
225.961	32
226.027	642
226.093	-5
226.159	873
226.225	671
226.291	446
226.357	673
226.423	302
226.489	1259
226.554	-141
226.620	-199
226.686	442
226.752	558
226.818	469
226.884	1071
226.950	547
227.016	1558
227.082	1369
227.148	740
227.214	841
227.279	1356
227.345	2728
227.411	3967
227.477	8539
227.543	9920
227.609	11726
227.674	6996
227.740	3968
227.806	2519
227.872	1626
227.938	1316
228.003	1039
228.069	312
228.135	230
228.201	692
228.267	267
228.332	408
228.398	-88
228.464	252
228.530	-41
228.595	584
228.661	-208
228.727	372
228.792	333
228.858	-301
228.924	-574
228.990	1265
229.055	-412
229.121	356
229.187	317
229.252	62
229.318	161
229.384	557
229.449	-167
229.515	-681
229.581	-595
229.646	1012
229.712	-14
229.777	-17
229.843	291
229.909	464
229.974	580
230.040	-247
230.105	-337
230.171	350
230.236	-322
230.302	0
230.368	521
230.433	483
230.499	364
230.564	509
230.630	-65
230.695	-129
230.761	616
230.826	-531
230.892	1522
230.957	361
231.023	-649
231.088	-166
231.154	-224
231.219	591
231.284	350
231.350	-27
231.415	-542
231.481	453
231.546	90
231.612	227
231.677	-424
231.742	-1116
231.808	658
231.873	-348
231.939	-601
232.004	73
232.069	217
232.135	-614
232.200	152
232.265	1083
232.331	160
232.396	82
232.461	393
232.527	-549
232.592	106
232.657	1675
232.723	289
232.788	-252
232.853	610
232.918	164
232.984	552
233.049	256
233.114	532
233.179	415
233.245	930
233.310	-283
233.375	44
233.440	138
233.506	236
233.571	-34
233.636	-154
233.701	221
233.766	271
233.832	-779
233.897	573
233.962	-440
234.027	1119
234.092	41
234.157	811
234.222	837
234.288	938
234.353	40
234.418	481
234.483	1097
234.548	25
234.613	198
234.678	481
234.743	-552
234.808	676
234.873	-941
234.938	862
235.004	-319
235.069	65
235.134	-524
235.199	476
235.264	496
235.329	-501
235.394	842
235.459	417
235.524	891
235.589	228
235.654	309
235.719	-352
235.784	558
235.849	-125
235.913	-18
235.978	-28
236.043	116
236.108	347
236.173	-572
236.238	23
236.303	3
236.368	17
236.433	968
236.498	-597
236.563	-371
236.627	-162
236.692	646
236.757	-184
236.822	117
236.887	-392
236.952	451
237.017	-629
237.081	-243
237.146	-556
237.211	399
237.276	933
237.341	951
237.405	51
237.470	-14
237.535	464
237.600	397
237.664	760
237.729	-759
237.794	-540
237.859	294
237.923	-759
237.988	375
238.053	103
238.118	-94
238.182	-652
238.247	1456
238.312	133
238.376	320
238.441	-469
238.506	784
238.570	-576
238.635	999
238.700	133
238.764	-52
238.829	773
238.893	-294
238.958	752
239.023	845
239.087	743
239.152	1274
239.216	1242
239.281	1159
239.346	1049
239.410	536
239.475	1144
239.539	2222
239.604	1454
239.668	4132
239.733	6286
239.797	14541
239.862	20204
239.926	15532
239.991	8129
240.055	4021
240.120	2186
240.184	1837
240.249	-277
240.313	1274
240.378	1101
240.442	1417
240.507	766
240.571	1277
240.635	198
240.700	493
240.764	-60
240.829	221
240.893	120
240.957	1126
241.022	591
241.086	1111
241.151	-341
241.215	-470
241.279	419
241.344	-241
241.408	-13
241.472	-250
241.537	621
241.601	941
241.665	-225
241.730	-81
241.794	649
241.858	-93
241.922	275
241.987	-77
242.051	404
242.115	-62
242.179	748
242.244	-800
242.308	642
242.372	569
242.436	-321
242.501	618
242.565	-56
242.629	-584
242.693	823
242.757	-677
242.822	-190
242.886	146
242.950	263
243.014	-837
243.078	620
243.142	-499
243.206	-301
243.271	541
243.335	-273
243.399	991
243.463	-526
243.527	646
243.591	-386
243.655	211
243.719	-401
243.783	1064
243.847	600
243.911	403
243.975	-188
244.040	0
244.104	940
244.168	102
244.232	-137
244.296	-340
244.360	-45
244.424	-672
244.488	-145
244.552	599
244.615	-683
244.679	-16
244.743	483
244.807	-705
244.871	382
244.935	110
244.999	-1072
245.063	282
245.127	352
245.191	9
245.255	130
245.319	-199
245.383	-1185
245.446	1605
245.510	-96
245.574	113
245.638	442
245.702	-297
245.766	1280
245.829	1410
245.893	-80
245.957	-393
246.021	772
246.085	-164
246.149	-7
246.212	1155
246.276	1745
246.340	110
246.404	806
246.467	1091
246.531	-1087
246.595	910
246.659	807
246.722	-90
246.786	619
246.850	228
246.913	-54
246.977	133
247.041	436
247.104	-116
247.168	336
247.232	1177
247.295	2468
247.359	994
247.423	321
247.486	615
247.550	1963
247.614	8
247.677	360
247.741	842
247.804	864
247.868	1785
247.932	848
247.995	2907
248.059	-1
248.122	-222
248.186	996
248.249	1326
248.313	4773
248.376	3087
248.440	1043
248.503	123
248.567	2038
248.630	560
248.694	807
248.757	2287
248.821	4663
248.884	2154
248.948	2104
249.011	2668
249.075	5946
249.138	2862
249.202	661
249.265	-100
249.328	1497
249.392	-246
249.455	565
249.519	673
249.582	636
249.645	2300
249.709	890
249.772	1280
249.835	178
249.899	549
249.962	950
250.025	30
250.089	2295
250.152	1156
250.215	464
250.279	522
250.342	816
250.405	668
250.468	-163
250.532	-137
250.595	1180
250.658	3559
250.721	3656
250.785	-396
250.848	1712
250.911	235
250.974	1803
251.038	1682
251.101	2218
251.164	575
251.227	757
251.290	402
251.354	945
251.417	3701
251.480	1761
251.543	2639
251.606	8763
251.669	3252
251.732	1893
251.795	1619
251.859	1908
251.922	3842
251.985	2045
252.048	1603
252.111	68
252.174	491
252.237	2028
252.300	4014
252.363	2426
252.426	6785
252.489	792
252.552	425
252.615	282
252.678	1689
252.741	4011
252.804	2607
252.867	6496
252.930	3077
252.993	1073
253.056	804
253.119	99
253.182	-395
253.245	639
253.308	926
253.371	177
253.434	696
253.497	1117
253.559	2629
253.622	1514
253.685	981
253.748	156
253.811	-74
253.874	1327
253.937	544
254.000	1520
254.062	1190
254.125	2407
254.188	1436
254.251	1242
254.314	377
254.376	515
254.439	803
254.502	881
254.565	1753
254.628	2994
254.690	1056
254.753	-1
254.816	324
254.878	926
254.941	2325
255.004	1439
255.067	629
255.129	620
255.192	1043
255.255	265
255.317	879
255.380	795
255.443	1840
255.505	1258
255.568	5
255.631	143
255.693	1837
255.756	856
255.819	3206
255.881	1921
255.944	1115
256.006	-306
256.069	430
256.132	-141
256.194	879
256.257	281
256.319	1083
256.382	3238
256.444	3832
256.507	2204
256.569	1253
256.632	1003
256.694	-224
256.757	1779
256.819	1080
256.882	82
256.944	907
257.007	52
257.069	728
257.132	1074
257.194	2068
257.257	885
257.319	76
257.381	39
257.444	1776
257.506	1339
257.569	2396
257.631	2740
257.693	221
257.756	334
257.818	-116
257.880	50
257.943	1282
258.005	272
258.067	379
258.130	391
258.192	1006
258.254	1031
258.317	-349
258.379	1249
258.441	1303
258.503	902
258.566	893
258.628	1750
258.690	525
258.753	1292
258.815	1062
258.877	666
258.939	462
259.001	1389
259.064	981
259.126	35
259.188	281
259.250	1584
259.312	1077
259.375	2053
259.437	1122
259.499	1216
259.561	1355
259.623	875
259.685	665
259.747	1342
259.809	1521
259.872	2012
259.934	2789
259.996	1394
260.058	1654
260.120	982
260.182	681
260.244	1032
260.306	695
260.368	1198
260.430	276
260.492	746
260.554	2911
260.616	720
260.678	1699
260.740	1021
260.802	395
260.864	648
260.926	349
260.988	1510
261.050	1820
261.112	184
261.174	2583
261.236	1120
261.298	1624
261.359	946
261.421	1287
261.483	1798
261.545	1896
261.607	533
261.669	1076
261.731	1902
261.793	2107
261.854	596
261.916	1614
261.978	1067
262.040	1192
262.102	1657
262.164	806
262.225	1484
262.287	1291
262.349	416
262.411	1983
262.472	1256
262.534	928
262.596	1209
262.658	1151
262.719	392
262.781	2308
262.843	507
262.904	2011
262.966	1647
263.028	1227
263.090	1475
263.151	1863
263.213	1405
263.275	935
263.336	917
263.398	1593
263.459	1182
263.521	1498
263.583	1847
263.644	1017
263.706	101
263.767	756
263.829	1768
263.891	1195
263.952	1281
264.014	924
264.075	741
264.137	1206
264.198	1149
264.260	730
264.321	1112
264.383	579
264.444	1023
264.506	1385
264.567	543
264.629	1741
264.690	423
264.752	2069
264.813	1646
264.875	1214
264.936	1973
264.998	1858
265.059	1774
265.120	1892
265.182	1518
265.243	857
265.305	2158
265.366	1545
265.427	1897
265.489	1662
265.550	804
265.611	1598
265.673	795
265.734	593
265.795	1374
265.857	1106
265.918	587
265.979	2065
266.040	709
266.102	1517
266.163	1636
266.224	1048
266.286	1569
266.347	597
266.408	963
266.469	954
266.530	1299
266.592	1106
266.653	1385
266.714	1360
266.775	1257
266.836	677
266.898	1068
266.959	494
267.020	1624
267.081	2418
267.142	1259
267.203	1644
267.264	561
267.326	2118
267.387	732
267.448	569
267.509	1504
267.570	1038
267.631	897
267.692	720
267.753	1314
267.814	180
267.875	993
267.936	1958
267.997	1272
268.058	498
268.119	1308
268.180	885
268.241	423
268.302	710
268.363	1090
268.424	1301
268.485	632
268.546	465
268.607	984
268.668	858
268.729	973
268.790	1489
268.851	1161
268.912	1129
268.972	1979
269.033	1071
269.094	355
269.155	1366
269.216	1232
269.277	1133
269.338	1501
269.398	1974
269.459	153
269.520	1760
269.581	1048
269.642	1031
269.702	656
269.763	1233
269.824	755
269.885	484
269.945	1886
270.006	1561
270.067	1373
270.128	1234
270.188	1312
270.249	511
270.310	643
270.370	2177
270.431	1739
270.492	546
270.553	1532
270.613	2197
270.674	1680
270.734	1077
270.795	961
270.856	930
270.916	347
270.977	2133
271.038	2795
271.098	884
271.159	2425
271.219	1977
271.280	1696
271.340	2193
271.401	1270
271.462	1399
271.522	2408
271.583	1355
271.643	1408
271.704	1558
271.764	2087
271.825	2096
271.885	7048
271.946	5729
272.006	2697
272.066	5684
272.127	9925
272.187	14253
272.248	5227
272.308	2781
272.369	5646
272.429	2432
272.489	1771
272.550	1683
272.610	1689
272.671	1583
272.731	1452
272.791	1372
272.852	2016
272.912	2378
272.972	1172
273.033	1971
273.093	673
273.153	2055
273.214	1359
273.274	1621
273.334	2792
273.394	3229
273.455	1729
273.515	2239
273.575	1660
273.635	1825
273.696	3864
273.756	4118
273.816	2319
273.876	1346
273.936	1650
273.997	3085
274.057	1346
274.117	956
274.177	2230
274.237	5399
274.297	3253
274.358	3026
274.418	3138
274.478	2368
274.538	2305
274.598	1335
274.658	2320
274.718	2105
274.778	2229
274.838	2230
274.898	1640
274.958	3337
275.018	5256
275.078	2897
275.138	1795
275.198	2437
275.258	2669
275.318	2043
275.378	2459
275.438	1327
275.498	2252
275.558	3180
275.618	3426
275.678	3079
275.738	3074
275.798	2524
275.858	1808
275.918	2002
275.978	2321
276.038	2623
276.098	2483
276.157	2695
276.217	4172
276.277	2689
276.337	1925
276.397	2472
276.457	2921
276.517	3224
276.576	1739
276.636	2585
276.696	1799
276.756	2147
276.815	2218
276.875	2764
276.935	1570
276.995	2204
277.055	3807
277.114	3587
277.174	2448
277.234	1825
277.293	1852
277.353	2346
277.413	1736
277.472	2165
277.532	1930
277.592	2111
277.651	3465
277.711	3701
277.771	2687
277.830	5596
277.890	3584
277.950	6211
278.009	9560
278.069	4285
278.128	5034
278.188	3578
278.248	3766
278.307	5311
278.367	3874
278.426	2338
278.486	2583
278.545	2495
278.605	2352
278.664	2061
278.724	1834
278.783	3406
278.843	4667
278.902	2100
278.962	1857
279.021	2084
279.081	2621
279.140	2670
279.199	1788
279.259	2065
279.318	2633
279.378	2804
279.437	7336
279.496	21237
279.556	33148
279.615	13742
279.675	5283
279.734	5173
279.793	9465
279.853	14642
279.912	5737
279.971	3611
280.031	4318
280.090	10783
280.149	11389
280.208	6617
280.268	20422
280.327	11474
280.386	4598
280.445	2720
280.505	2435
280.564	2635
280.623	2244
280.682	2179
280.742	4284
280.801	2439
280.860	1921
280.919	2513
280.978	2245
281.037	1242
281.097	1854
281.156	2508
281.215	2343
281.274	2881
281.333	4625
281.392	1765
281.451	1771
281.510	2888
281.569	1736
281.628	1892
281.688	2378
281.747	2075
281.806	2116
281.865	2200
281.924	2249
281.983	2439
282.042	1798
282.101	1562
282.160	3271
282.219	2088
282.278	2483
282.337	2376
282.396	1628
282.454	2568
282.513	2658
282.572	3126
282.631	1948
282.690	2541
282.749	1521
282.808	2454
282.867	2308
282.926	2030
282.985	2305
283.043	2162
283.102	2471
283.161	2177
283.220	2813
283.279	3044
283.338	2107
283.396	1988
283.455	2747
283.514	2035
283.573	2268
283.631	2556
283.690	1967
283.749	1428
283.808	2833
283.866	3123
283.925	2473
283.984	2594
284.043	2296
284.101	2327
284.160	2252
284.219	3070
284.277	2268
284.336	3153
284.395	3962
284.453	3435
284.512	2218
284.570	2498
284.629	2393
284.688	2560
284.746	3106
284.805	3699
284.863	3137
284.922	3302
284.981	3935
285.039	5765
285.098	9372
285.156	24827
285.215	65150
285.273	44176
285.332	16690
285.390	9601
285.449	5703
285.507	5235
285.566	4228
285.624	3982
285.683	4027
285.741	3558
285.799	2490
285.858	2797
285.916	2951
285.975	2451
286.033	2521
286.091	2733
286.150	2408
286.208	1901
286.267	2935
286.325	2325
286.383	2813
286.442	2883
286.500	2252
286.558	2889
286.616	2136
286.675	2880
286.733	2196
286.791	2466
286.850	2844
286.908	2284
286.966	3131
287.024	2371
287.083	3229
287.141	2715
287.199	2702
287.257	2750
287.315	2001
287.374	2351
287.432	2630
287.490	3081
287.548	2015
287.606	2872
287.664	2883
287.723	2683
287.781	1822
287.839	2989
287.897	2864
287.955	2747
288.013	3188
288.071	3197
288.129	8071
288.187	14129
288.245	4952
288.303	3436
288.361	3426
288.419	2593
288.477	3106
288.535	3362
288.593	2029
288.651	1884
288.709	2215
288.767	2433
288.825	2485
288.883	3369
288.941	2455
288.999	1851
289.057	2635
289.115	2631
289.173	3170
289.231	2622
289.289	2834
289.346	2554
289.404	3165
289.462	3466
289.520	2936
289.578	2522
289.636	2924
289.694	3388
289.751	2857
289.809	2827
289.867	2129
289.925	3343
289.983	3084
290.040	2739
290.098	2858
290.156	2653
290.214	2861
290.271	3535
290.329	4199
290.387	3409
290.444	2512
290.502	2844
290.560	2924
290.617	2807
290.675	2700
290.733	2999
290.790	2487
290.848	2962
290.906	2639
290.963	2647
291.021	2650
291.078	3220
291.136	2868
291.194	3637
291.251	3270
291.309	2391
291.366	2746
291.424	2288
291.481	2915
291.539	3030
291.596	3391
291.654	3103
291.711	3106
291.769	2942
291.826	2032
291.884	3070
291.941	2493
291.999	3148
292.056	3109
292.114	3035
292.171	4191
292.228	3891
292.286	3297
292.343	3154
292.401	3152
292.458	3182
292.515	3673
292.573	3786
292.630	3586
292.687	2167
292.745	2629
292.802	2869
292.859	2984
292.917	4213
292.974	3011
293.031	2448
293.089	3278
293.146	3067
293.203	3186
293.260	2807
293.318	2668
293.375	2847
293.432	3266
293.489	3481
293.546	2405
293.604	3468
293.661	4136
293.718	6062
293.775	3196
293.832	3799
293.889	4129
293.947	4157
294.004	2730
294.061	2770
294.118	3582
294.175	3729
294.232	3783
294.289	3165
294.346	3548
294.403	2995
294.460	3279
294.517	3118
294.574	2866
294.631	3334
294.688	3234
294.745	3762
294.802	6041
294.859	3611
294.916	3792
294.973	3306
295.030	2713
295.087	2730
295.144	3136
295.201	3906
295.258	2212
295.315	3142
295.372	5020
295.429	4164
295.486	2866
295.542	2540
295.599	2662
295.656	2153
295.713	3419
295.770	3903
295.827	2540
295.883	2700
295.940	2819
295.997	2989
296.054	2890
296.111	2060
296.167	2577
296.224	2378
296.281	2165
296.338	2961
296.394	2169
296.451	2086
296.508	3235
296.564	3391
296.621	3661
296.678	7881
296.734	6641
296.791	3143
296.848	3933
296.904	2168
296.961	4014
297.018	4588
297.074	2752
297.131	2984
297.187	2909
297.244	3398
297.301	6581
297.357	7264
297.414	3657
297.470	2767
297.527	2196
297.583	3213
297.640	2844
297.696	2872
297.753	3119
297.809	2885
297.866	1812
297.922	3573
297.979	2821
298.035	2627
298.092	3123
298.148	3768
298.204	2868
298.261	3150
298.317	5351
298.374	6365
298.430	3832
298.486	3641
298.543	2868
298.599	2722
298.656	2840
298.712	3149
298.768	3065
298.824	3177
298.881	3022
298.937	2937
298.993	2797
299.050	2678
299.106	3383
299.162	2417
299.218	3769
299.275	2746
299.331	4449
299.387	5584
299.443	13540
299.500	26480
299.556	15894
299.612	7820
299.668	11659
299.724	26903
299.780	20528
299.837	9715
299.893	9402
299.949	22186
300.005	21592
300.061	23280
300.117	26050
300.173	11165
300.229	5835
300.285	5831
300.341	5351
300.397	4767
300.453	4472
300.510	5460
300.566	7035
300.622	14984
300.678	39633
300.734	32272
300.790	15061
300.845	13521
300.901	24382
300.957	22756
301.013	9967
301.069	6985
301.125	5054
301.181	3713
301.237	3116
301.293	3379
301.349	3053
301.405	2808
301.461	3808
301.516	3230
301.572	3149
301.628	2607
301.684	2446
301.740	3096
301.796	3221
301.851	3317
301.907	3870
301.963	3584
302.019	7326
302.074	15431
302.130	10997
302.186	5974
302.242	3965
302.297	2970
302.353	3275
302.409	3447
302.464	3436
302.520	2854
302.576	4891
302.631	4827
302.687	2774
302.743	3090
302.798	3076
302.854	2548
302.910	2641
302.965	3274
303.021	2633
303.076	2960
303.132	3029
303.187	3258
303.243	2354
303.299	3026
303.354	2908
303.410	2365
303.465	2003
303.521	2564
303.576	3360
303.632	2265
303.687	3767
303.743	4992
303.798	4533
303.853	2840
303.909	2637
303.964	2958
304.020	2474
304.075	2779
304.130	2892
304.186	3171
304.241	3230
304.297	2370
304.352	3416
304.358	3310
304.407	2454
304.449	2764
304.463	2867
304.518	2828
304.539	2363
304.573	1624
304.629	3075
304.630	3077
304.684	3227
304.720	4954
304.739	5788
304.794	5323
304.811	4671
304.850	3153
304.902	2364
304.905	2316
304.960	3224
304.992	2685
305.015	2262
305.071	2689
305.083	2492
305.126	1828
305.173	2370
305.181	2470
305.236	2241
305.264	2633
305.292	2991
305.347	2820
305.354	2765
305.402	2430
305.445	2090
305.457	1985
305.512	2140
305.535	2347
305.567	2701
305.622	1910
305.626	1954
305.678	2667
305.716	3226
305.733	3440
305.788	3474
305.807	3527
305.843	3776
305.897	5173
305.898	5186
305.953	4932
305.988	3898
306.008	3438
306.063	3221
306.078	3079
306.118	2874
306.168	2950
306.173	2925
306.228	2134
306.259	1838
306.283	1756
306.338	2280
306.349	2377
306.393	2700
306.440	2714
306.448	2687
306.503	3024
306.530	2720
306.558	2650
306.613	2652
306.620	2718
306.668	3200
306.711	4119
306.723	4213
306.778	2764
306.801	2834
306.833	3152
306.888	3152
306.892	3123
306.943	2879
306.982	2659
306.997	2609
307.052	2870
307.072	2905
307.107	2777
307.162	3257
307.163	3252
307.217	3025
307.253	2594
307.272	2421
307.327	2437
307.343	2403
307.381	2253
307.434	2664
307.436	2706
307.491	2674
307.524	2855
307.546	2822
307.600	3203
307.614	3195
307.655	3025
307.704	2496
307.710	2477
307.765	2995
307.795	2773
307.819	2607
307.874	2464
307.885	2580
307.929	3071
307.975	3462
307.984	3530
308.038	2994
308.065	3189
308.093	4094
308.148	5652
308.156	6198
308.202	8787
308.246	8579
308.257	7926
308.312	4475
308.336	3292
308.366	3073
308.421	2980
308.426	2896
308.475	2257
308.517	2169
308.530	2156
308.585	2399
308.607	2340
308.639	2414
308.694	2296
308.697	2312
308.748	2513
308.787	2462
308.803	2468
308.857	2360
308.877	2390
308.912	2481
308.967	2777
308.967	2771
309.021	2904
309.058	3220
309.076	3651
309.130	4687
309.148	5106
309.185	9159
309.238	16434
309.239	16462
309.293	15432
309.328	12641
309.348	10597
309.402	6069
309.418	4823
309.457	4126
309.508	3277
309.511	3281
309.566	3692
309.598	4111
309.620	4442
309.674	4531
309.688	4733
309.729	4855
309.778	4666
309.783	4655
309.837	4110
309.868	4004
309.892	4270
309.946	4705
309.959	4896
310.001	5602
310.049	5859
310.055	5738
310.109	4779
310.139	4216
310.163	4158
310.218	4105
310.229	4011
310.272	3857
310.319	3968
310.326	3953
310.381	3880
310.409	3655
310.435	3730
310.489	4029
310.499	4096
310.543	3769
310.589	3310
310.598	3356
310.652	3613
310.679	3704
310.706	3960
310.760	4509
310.769	4586
310.814	4566
310.859	4382
310.868	4453
310.923	4918
310.948	5171
310.977	5172
311.031	4951
311.038	4930
311.085	4486
311.128	3918
311.139	4043
311.193	4713
311.218	4992
311.247	4715
311.301	4200
311.308	4128
311.356	4249
311.398	4339
311.410	4384
311.464	4479
311.488	4530
311.518	4567
311.572	4641
311.578	4639
311.626	4800
311.668	4849
311.680	4810
311.734	4683
311.758	4571
311.788	4813
311.842	5308
311.847	5343
311.896	5493
311.937	5623
311.950	5494
312.004	4849
312.027	4562
312.058	4826
312.112	5291
312.117	5323
312.165	4998
312.207	4700
312.297	4491
312.386	5279
312.476	5625
312.566	5729
312.656	5523
312.745	5971
312.835	6721
312.925	6165
313.015	5950
313.104	6812
313.194	6809
313.284	7351
313.374	7053
313.463	8410
313.553	7867
313.643	8826
313.732	8680
313.822	8843
313.912	10035
314.001	10532
314.091	10849
314.180	10863
314.270	10757
314.360	10360
314.449	10469
314.539	10040
314.628	9938
314.718	11222
314.808	11730
314.897	12170
314.987	13577
315.076	13675
315.166	12800
315.255	12275
315.345	12467
315.434	10853
315.524	11276
315.613	12301
315.703	13476
315.792	30524
315.881	86127
315.971	28344
316.060	13314
316.150	11498
316.239	11279
316.328	11317
316.418	13044
316.507	13169
316.597	15156
316.686	15595
316.775	13858
316.865	13088
316.954	11541
317.043	10055
317.133	10884
317.222	9296
317.311	9308
317.400	8117
317.490	8967
317.579	8874
317.668	10221
317.757	14926
317.847	48302
317.936	124744
318.025	39292
318.114	38713
318.203	19831
318.293	12699
318.382	19160
318.471	21274
318.560	17415
318.649	13651
318.738	11095
318.828	9628
318.917	7452
319.006	7249
319.095	6882
319.184	8011
319.273	8359
319.362	7955
319.451	7371
319.540	7166
319.629	8708
319.718	8895
319.807	8542
319.896	7581
319.985	8478
320.074	9053
320.163	8809
320.252	9135
320.341	9411
320.430	9867
320.519	12138
320.608	12375
320.697	14437
320.786	15227
320.875	17559
320.964	18400
321.053	19888
321.142	21077
321.230	23350
321.319	25083
321.408	26836
321.497	26657
321.586	23141
321.675	21408
321.764	20008
321.852	20575
321.941	21805
322.030	22335
322.119	23436
322.207	27097
322.296	29570
322.385	32600
322.474	36259
322.562	35930
322.651	29388
322.740	24229
322.829	22736
322.917	18977
323.006	16929
323.095	16410
323.183	14822
323.272	13463
323.361	13245
323.449	13255
323.538	11598
323.626	11522
323.715	11817
323.804	10132
323.892	9895
323.981	10223
324.069	10613
324.158	10098
324.246	10211
324.335	9522
324.424	9896
324.512	8770
324.601	9116
324.689	8816
324.778	9440
324.866	9007
324.954	8424
325.043	8224
325.131	8095
325.220	8870
325.308	8207
325.397	7667
325.485	8109
325.574	7545
325.662	8048
325.750	7800
325.839	8129
325.927	8044
326.015	8067
326.104	7469
326.192	7766
326.280	8015
326.369	6952
326.457	7901
326.545	7790
326.634	6484
326.722	6704
326.810	8171
326.898	9972
326.987	9926
327.075	9356
327.163	9486
327.251	8545
327.340	9150
327.428	12539
327.516	15966
327.604	13095
327.692	10003
327.781	8940
327.869	7644
327.957	6893
328.045	6772
328.133	5948
328.221	6226
328.309	6733
328.397	7203
328.485	9249
328.574	13660
328.662	19699
328.750	14043
328.838	10962
328.926	8732
329.014	7583
329.102	6420
329.190	8139
329.278	7350
329.366	6801
329.454	6665
329.542	6475
329.630	6376
329.718	6608
329.806	6115
329.893	6640
329.981	6776
330.069	6208
330.157	7737
330.245	7143
330.333	7715
330.421	6579
330.509	7277
330.597	8000
330.684	6926
330.772	7252
330.860	6103
330.948	6680
331.036	6704
331.123	7051
331.211	6495
331.299	7285
331.387	7288
331.475	6631
331.562	7521
331.650	7365
331.738	7484
331.825	7492
331.913	6908
332.001	7859
332.089	7619
332.176	7723
332.264	7377
332.352	7544
332.439	6844
332.527	8271
332.614	7489
332.702	7585
332.790	7813
332.877	7506
332.965	8892
333.052	9578
333.140	8453
333.228	9585
333.315	8985
333.403	9280
333.490	9776
333.578	10033
333.665	12011
333.753	11749
333.840	12559
333.928	15127
334.015	16793
334.103	20329
334.190	25350
334.278	35527
334.365	43603
334.452	42868
334.540	34581
334.627	34059
334.715	43462
334.802	57415
334.889	79267
334.977	93387
335.064	64617
335.151	40359
335.239	30127
335.326	25639
335.413	24351
335.501	26082
335.588	27983
335.675	32727
335.762	40188
335.850	51350
335.937	70306
336.024	100658
336.111	130443
336.199	112062
336.286	62246
336.373	40014
336.460	29022
336.547	23728
336.635	20226
336.722	17560
336.809	15426
336.896	14665
336.983	13418
337.070	13740
337.157	12514
337.245	12716
337.332	13234
337.419	12907
337.506	12686
337.593	11804
337.680	12150
337.767	11077
337.854	10263
337.941	10188
338.028	10501
338.115	11326
338.202	10898
338.289	10911
338.376	10096
338.463	9744
338.550	9406
338.637	8730
338.724	9248
338.811	8583
338.898	8712
338.984	8526
339.071	7757
339.158	8650
339.245	8132
339.332	7469
339.419	8150
339.506	8292
339.593	8407
339.679	8299
339.766	8281
339.853	8726
339.940	8476
340.027	8291
340.113	7730
340.200	7560
340.287	7326
340.374	7898
340.460	8679
340.547	7234
340.634	7572
340.720	9355
340.807	7496
340.894	8574
340.980	8428
341.067	8044
341.154	8118
341.240	8576
341.327	8028
341.414	8306
341.500	8240
341.587	8301
341.674	8771
341.760	8529
341.847	7735
341.933	8336
342.020	7528
342.106	7480
342.193	7267
342.279	8282
342.366	7463
342.452	7640
342.539	7350
342.625	7392
342.712	7948
342.798	7476
342.885	7609
342.971	7558
343.058	7404
343.144	7320
343.230	7610
343.317	7712
343.403	7146
343.490	7551
343.576	8345
343.662	7779
343.749	7606
343.835	7285
343.921	8433
344.008	17235
344.094	25679
344.180	9970
344.267	7275
344.353	9597
344.439	8970
344.525	7495
344.612	7050
344.698	6922
344.784	7339
344.870	6974
344.957	7722
345.043	8023
345.129	6536
345.215	7546
345.301	6908
345.387	7883
345.474	6451
345.560	6813
345.646	6765
345.732	7770
345.818	7114
345.904	8155
345.990	7628
346.076	7645
346.162	6886
346.249	7774
346.335	7246
346.421	8528
346.507	8865
346.593	12090
346.679	8200
346.765	10068
346.851	16718
346.937	14786
347.023	9654
347.108	8160
347.194	7921
347.280	9255
347.366	12135
347.452	29737
347.538	39854
347.624	20971
347.710	12465
347.796	8662
347.882	8550
347.967	8693
348.053	7895
348.139	8356
348.225	8747
348.311	7830
348.397	8795
348.482	9206
348.568	9776
348.654	15627
348.740	41400
348.825	49244
348.911	22214
348.997	15936
349.083	15747
349.168	10221
349.254	8591
349.340	8374
349.425	8879
349.511	9210
349.597	8906
349.682	8828
349.768	10679
349.854	10418
349.939	8765
350.025	8340
350.110	11710
350.196	9335
350.282	8033
350.367	8985
350.453	7528
350.538	7924
350.624	7386
350.709	8402
350.795	7841
350.880	7984
350.966	9117
351.051	7203
351.137	8257
351.222	8215
351.308	8672
351.393	9229
351.479	8126
351.564	8011
351.649	8113
351.735	7526
351.820	8153
351.906	7841
351.991	7730
352.076	8192
352.162	8923
352.247	7865
352.332	7365
352.418	8343
352.503	7455
352.588	10416
352.673	8763
352.759	6940
352.844	7047
352.929	7136
353.014	7447
353.100	8204
353.185	9603
353.270	8552
353.355	8005
353.441	8057
353.526	7390
353.611	7792
353.696	6958
353.781	8068
353.866	7092
353.952	8167
354.037	7404
354.122	7473
354.207	7709
354.292	8142
354.377	7518
354.462	8239
354.547	7842
354.632	8423
354.717	8649
354.802	9485
354.887	8369
354.972	7715
355.057	7139
355.142	6763
355.227	7861
355.312	8196
355.397	7370
355.482	8299
355.567	8009
355.652	7640
355.737	8086
355.822	10279
355.907	8932
355.991	8209
356.076	7770
356.161	8062
356.246	7943
356.331	8376
356.416	8940
356.501	14905
356.585	15048
356.670	9041
356.755	9432
356.840	9686
356.924	17058
357.009	28312
357.094	14174
357.179	8517
357.263	8825
357.348	8570
357.433	8609
357.517	8896
357.602	8713
357.687	8540
357.771	10204
357.856	9935
357.941	10077
358.025	14350
358.110	33864
358.195	19016
358.279	9244
358.364	9664
358.448	10646
358.533	12329
358.617	11135
358.702	12286
358.787	8709
358.871	9330
358.956	8616
359.040	9545
359.125	8519
359.209	9592
359.294	11352
359.378	17015
359.462	15457
359.547	10633
359.631	9048
359.716	8738
359.800	9399
359.885	9236
359.969	8915
360.053	10075
360.138	8332
360.222	8662
360.306	8468
360.391	10377
360.475	8987
360.559	10424
360.644	9910
360.728	10511
360.812	13854
360.896	19704
360.981	12793
361.065	10628
361.149	10769
361.233	11472
361.318	11109
361.402	10777
361.486	12759
361.570	12871
361.654	13198
361.739	14366
361.823	20843
361.907	27826
361.991	21374
362.075	24651
362.159	34183
362.243	62285
362.327	121885
362.411	148134
362.495	71537
362.580	42082
362.664	39988
362.748	48644
362.832	73666
362.916	137550
363.000	262793
363.084	297839
363.168	147321
363.252	62046
363.336	38923
363.420	31174
363.503	26973
363.587	25773
363.671	25302
363.755	26278
363.839	29664
363.923	33566
364.007	42577
364.091	58505
364.175	89310
364.258	163361
364.342	302636
364.426	398605
364.510	246546
364.594	105997
364.677	57170
364.761	44600
364.845	32873
364.929	23619
365.013	18865
365.096	17509
365.180	16106
365.264	14351
365.347	14069
365.431	13466
365.515	13138
365.598	12731
365.682	13837
365.766	12550
365.849	12301
365.933	11629
366.017	12908
366.100	13294
366.184	12915
366.267	13475
366.351	12877
366.435	12341
366.518	12373
366.602	12496
366.685	12230
366.769	12081
366.852	12753
366.936	12038
367.019	11377
367.103	11046
367.186	11762
367.270	13848
367.353	11529
367.436	14156
367.520	14393
367.603	14224
367.687	12840
367.770	13260
367.853	13444
367.937	13969
368.020	14990
368.104	12357
368.187	11553
368.270	11654
368.353	10750
368.437	9743
368.520	10029
368.603	9994
368.687	11201
368.770	12538
368.853	10330
368.936	10261
369.020	9756
369.103	8887
369.186	9697
369.269	9808
369.352	9769
369.436	9831
369.519	10250
369.602	8519
369.685	10208
369.768	9573
369.851	9748
369.934	8903
370.018	9432
370.101	9260
370.184	10225
370.267	9886
370.350	10199
370.433	11218
370.516	22304
370.599	50503
370.682	28934
370.765	14062
370.848	12310
370.931	13065
371.014	11018
371.097	8566
371.180	8350
371.263	8984
371.346	8406
371.429	9096
371.511	8011
371.594	8197
371.677	9095
371.760	9731
371.843	10119
371.926	19062
372.009	32636
372.091	17010
372.174	10893
372.257	15567
372.340	10672
372.423	10450
372.505	10096
372.588	9882
372.671	10971
372.754	13429
372.836	10982
372.919	9916
373.002	9945
373.085	9796
373.167	10780
373.250	11702
373.332	14501
373.415	22881
373.498	38353
373.580	30858
373.663	71364
373.746	77793
373.828	21993
373.911	14025
373.993	12195
374.076	12099
374.159	12340
374.241	12145
374.324	15483
374.406	15396
374.489	18599
374.571	30107
374.654	18334
374.736	15981
374.819	22656
374.901	29392
374.983	29744
375.066	17039
375.148	14609
375.231	14077
375.313	15091
375.395	16343
375.478	15715
375.560	15042
375.643	15309
375.725	17169
375.807	24490
375.890	21874
375.972	11993
376.054	13596
376.136	11708
376.219	11448
376.301	15078
376.383	19386
376.465	14756
376.548	10598
376.630	11849
376.712	15174
376.794	12723
376.877	9849
376.959	9849
377.041	9235
377.123	9492
377.205	9208
377.287	9498
377.369	9819
377.452	9976
377.534	10142
377.616	10192
377.698	10727
377.780	10090
377.862	9794
377.944	9770
378.026	9521
378.108	9556
378.190	8958
378.272	9978
378.354	9042
378.436	8485
378.518	9442
378.600	9291
378.682	9436
378.764	11073
378.846	10556
378.928	8865
379.010	9787
379.091	9349
379.173	9943
379.255	8456
379.337	9302
379.419	8973
379.501	12595
379.583	10104
379.664	9224
379.746	8697
379.828	11157
379.910	10852
379.991	11794
380.073	9345
380.155	9094
380.237	7993
380.318	9124
380.400	8445
380.482	9599
380.564	8719
380.645	10499
380.727	9821
380.809	9460
380.890	8027
380.972	8310
381.053	8819
381.135	8087
381.217	8794
381.298	10615
381.380	10658
381.461	9233
381.543	14454
381.624	16529
381.706	10002
381.787	10475
381.869	9392
381.951	13394
382.032	25829
382.113	21551
382.195	10063
382.276	11356
382.358	12083
382.439	15826
382.521	18516
382.602	24013
382.684	15164
382.765	15407
382.846	17261
382.928	21246
383.009	17090
383.090	15886
383.172	30417
383.253	39335
383.334	21719
383.416	20555
383.497	16599
383.578	13407
383.659	15347
383.741	33212
383.822	58158
383.903	37331
383.984	18487
384.066	21493
384.147	18484
384.228	16123
384.309	17252
384.390	18686
384.471	18300
384.553	16443
384.634	15110
384.715	14212
384.796	13609
384.877	12423
384.958	14511
385.039	14301
385.120	12965
385.201	13148
385.282	13566
385.363	15394
385.444	14868
385.525	17097
385.606	21583
385.687	21644
385.768	17937
385.849	17931
385.930	24525
386.011	33716
386.092	21153
386.173	19576
386.254	18243
386.335	18019
386.416	17864
386.496	17766
386.577	18230
386.658	17929
386.739	17541
386.820	17868
386.901	19158
386.981	20353
387.062	23425
387.143	24377
387.224	26560
387.304	30397
387.385	30231
387.466	28698
387.547	31256
387.627	32528
387.708	32647
387.789	33987
387.869	31478
387.950	29287
388.031	24237
388.111	21626
388.192	23056
388.273	22551
388.353	20907
388.434	18383
388.514	18879
388.595	24322
388.676	23897
388.756	18394
388.837	17909
388.917	16995
388.998	13909
389.078	15968
389.159	15376
389.239	14800
389.320	15269
389.400	13713
389.480	15681
389.561	16687
389.641	16624
389.722	14824
389.802	13582
389.883	15370
389.963	17907
390.043	16362
390.124	14201
390.204	14689
390.284	16204
390.365	14905
390.445	14510
390.525	14581
390.605	15185
390.686	14788
390.766	16095
390.846	16445
390.927	15413
391.007	15337
391.087	16191
391.167	16013
391.247	15719
391.328	17190
391.408	17045
391.488	18173
391.568	16775
391.648	17496
391.728	20209
391.808	21106
391.888	20867
391.969	22690
392.049	24012
392.129	25618
392.209	26601
392.289	31409
392.369	31338
392.449	32266
392.529	35764
392.609	40296
392.689	46605
392.769	55032
392.849	67326
392.929	82788
393.009	110914
393.089	160589
393.169	264004
393.248	455700
393.328	652729
393.408	634001
393.488	444776
393.568	258041
393.648	153811
393.728	102807
393.807	73148
393.887	58949
393.967	47551
394.047	40853
394.127	33432
394.206	32059
394.286	30425
394.366	39934
394.446	41611
394.525	26604
394.605	23462
394.685	23371
394.764	26412
394.844	45189
394.924	60940
395.003	35742
395.083	21962
395.163	20665
395.242	19202
395.322	19934
395.402	18304
395.481	22443
395.561	27235
395.640	67010
395.720	126690
395.799	81555
395.879	33897
395.958	27428
396.038	31798
396.117	51690
396.197	60192
396.276	41207
396.356	42536
396.435	54592
396.515	72320
396.594	109761
396.673	201533
396.753	402094
396.832	596885
396.912	505231
396.991	268542
397.070	136066
397.150	84389
397.229	71909
397.308	114851
397.388	186384
397.467	116211
397.546	46528
397.625	31255
397.705	27738
397.784	23749
397.863	21533
397.942	20162
398.022	19333
398.101	16918
398.180	16904
398.259	15007
398.338	15595
398.417	14501
398.497	13858
398.576	14696
398.655	13244
398.734	13272
398.813	12703
398.892	12924
398.971	12475
399.050	11517
399.129	11467
399.208	10802
399.287	12193
399.366	10601
399.445	10725
399.524	11035
399.603	9970
399.682	11006
399.761	9998
399.840	11037
399.919	10042
399.998	9588
400.077	9525
400.156	7947
400.235	10697
400.313	8739
400.392	8583
400.471	9906
400.550	9441
400.629	9122
400.708	9227
400.786	7420
400.865	8179
400.944	7333
401.023	9646
401.102	7288
401.180	8867
401.259	7754
401.338	7063
401.416	8103
401.495	6919
401.574	7695
401.652	7256
401.731	7796
401.810	7584
401.888	6703
401.967	6761
402.046	6906
402.124	7712
402.203	6715
402.281	7480
402.360	6561
402.438	6825
402.517	5915
402.596	6899
402.674	7150
402.753	7888
402.831	7899
402.910	9444
402.988	15400
403.066	30783
403.145	24806
403.223	17671
403.302	28900
403.380	26893
403.459	24011
403.537	15343
403.615	10821
403.694	9515
403.772	9688
403.850	9237
403.929	9176
404.007	8054
404.085	10515
404.164	10172
404.242	9055
404.320	8884
404.398	8237
404.477	9147
404.555	16120
404.633	15330
404.711	8974
404.789	9076
404.868	7714
404.946	7171
405.024	7295
405.102	6333
405.180	6116
405.258	5757
405.336	6998
405.415	6034
405.493	8193
405.571	8336
405.649	6755
405.727	7240
405.805	8680
405.883	8954
405.961	9361
406.039	7645
406.117	6013
406.195	7484
406.273	6786
406.351	11917
406.429	10389
406.507	5996
406.585	5916
406.663	7201
406.740	6651
406.818	6761
406.896	6597
406.974	7302
407.052	6229
407.130	9576
407.208	10936
407.285	8186
407.363	6727
407.441	7855
407.519	8262
407.596	11265
407.674	33835
407.752	98129
407.830	82131
407.907	19351
407.985	8857
408.063	7892
408.141	6997
408.218	7744
408.296	7317
408.373	8410
408.451	9641
408.529	9255
408.606	10230
408.684	11427
408.762	10618
408.839	11859
408.917	11330
408.994	13367
409.072	14253
409.149	18225
409.227	27462
409.304	37826
409.382	42960
409.459	49959
409.537	58530
409.614	59124
409.692	50836
409.769	50261
409.846	62644
409.924	72671
410.001	60807
410.079	47887
410.156	38677
410.233	29952
410.311	25152
410.388	21924
410.465	18735
410.543	17709
410.620	17345
410.697	16537
410.775	14616
410.852	15147
410.929	16189
411.006	15995
411.083	13943
411.161	13881
411.238	13700
411.315	12504
411.392	12233
411.469	12243
411.547	10308
411.624	10211
411.701	10664
411.778	10221
411.855	8904
411.932	8755
412.009	8771
412.086	9405
412.163	8785
412.240	7379
412.317	7957
412.394	7900
412.471	8243
412.548	7860
412.625	7120
412.702	7461
412.779	7510
412.856	7950
412.933	6963
413.010	7401
413.087	8198
413.164	7955
413.241	7016
413.318	6964
413.395	6871
413.471	6483
413.548	6297
413.625	7159
413.702	6486
413.779	6539
413.855	6460
413.932	5842
414.009	4920
414.086	6227
414.162	6942
414.239	6347
414.316	7390
414.393	9006
414.469	6072
414.546	5254
414.623	5946
414.699	5277
414.776	5736
414.853	5066
414.929	5693
415.006	5856
415.082	5486
415.159	5495
415.236	5185
415.312	6640
415.389	5211
415.465	5030
415.542	5289
415.618	4654
415.695	6145
415.771	5107
415.848	4534
415.924	5395
416.000	5453
416.077	6550
416.153	5175
416.230	5984
416.306	5642
416.383	5685
416.459	5834
416.535	4910
416.612	5048
416.688	5594
416.764	5580
416.841	5126
416.917	5269
416.993	6304
417.069	6230
417.146	5133
417.222	5647
417.298	6065
417.374	5279
417.451	6370
417.527	5404
417.603	5558
417.679	6426
417.755	6422
417.831	5698
417.908	5957
417.984	5610
418.060	5424
418.136	6736
418.212	6874
418.288	6287
418.364	6880
418.440	6126
418.516	7202
418.592	6637
418.668	7334
418.744	5970
418.820	7260
418.896	7679
418.972	7261
419.048	7468
419.124	8903
419.200	7383
419.276	8545
419.352	8420
419.428	8834
419.504	8642
419.579	9075
419.655	9184
419.731	10804
419.807	10587
419.883	10264
419.959	11225
420.034	12026
420.110	12242
420.186	13133
420.262	13599
420.337	14620
420.413	14894
420.489	15137
420.565	17891
420.640	16715
420.716	19104
420.792	19176
420.867	21796
420.943	22511
421.019	24365
421.094	24297
421.170	26435
421.245	28973
421.321	32730
421.397	37110
421.472	58544
421.548	99902
421.623	83147
421.699	56905
421.774	60564
421.850	66004
421.925	77199
422.001	90218
422.076	110175
422.152	132288
422.227	164161
422.302	206969
422.378	259619
422.453	327867
422.529	357727
422.604	288673
422.679	198413
422.755	270151
422.830	353024
422.905	325616
422.981	272573
423.056	222821
423.131	179921
423.207	145512
423.282	119045
423.357	100481
423.432	85012
423.508	74253
423.583	64038
423.658	56572
423.733	51029
423.808	46141
423.883	44285
423.959	45336
424.034	47815
424.109	44342
424.184	35696
424.259	30782
424.334	27426
424.409	24422
424.484	22829
424.559	21453
424.634	19364
424.709	18493
424.784	18175
424.859	16343
424.934	15576
425.009	15868
425.084	15220
425.159	13778
425.234	14725
425.309	13286
425.384	14182
425.459	11573
425.534	11655
425.609	11029
425.683	10254
425.758	11113
425.833	11394
425.908	11007
425.983	10794
426.058	11408
426.132	9605
426.207	9165
426.282	9782
426.357	8802
426.431	8906
426.506	9121
426.581	8329
426.655	8927
426.730	8409
426.805	8102
426.879	8929
426.954	7898
427.029	7012
427.103	8924
427.178	10183
427.253	10299
427.327	8307
427.402	7120
427.476	6751
427.551	7027
427.625	7233
427.700	7342
427.774	8140
427.849	8821
427.923	8476
427.998	9507
428.072	11865
428.147	24383
428.221	75659
428.296	175517
428.370	122720
428.444	30053
428.519	13288
428.593	10499
428.667	11686
428.742	14951
428.816	35929
428.890	113493
428.965	167313
429.039	63243
429.113	16630
429.188	10448
429.262	8543
429.336	8845
429.410	8855
429.485	9250
429.559	9054
429.633	10023
429.707	14604
429.781	33053
429.855	108254
429.930	153232
430.004	62867
430.078	40830
430.152	99953
430.226	227389
430.300	232531
430.374	88753
430.448	32468
430.522	19215
430.596	21360
430.670	50372
430.744	136061
430.818	153781
430.892	46136
430.966	13555
431.040	9337
431.114	7143
431.188	5831
431.262	6610
431.336	6318
431.410	7397
431.484	5891
431.557	7992
431.631	9756
431.705	19230
431.779	63261
431.853	164536
431.927	130873
432.000	33158
432.074	10621
432.148	6554
432.222	5643
432.295	5122
432.369	3510
432.443	3615
432.516	5114
432.590	7422
432.664	5908
432.737	3039
432.811	3594
432.885	2933
432.958	3309
433.032	2612
433.106	2771
433.179	3728
433.253	4017
433.326	2671
433.400	3301
433.473	3754
433.547	3423
433.620	3605
433.694	3003
433.767	4749
433.841	4065
433.914	4075
433.988	3534
434.061	4606
434.134	3860
434.208	3868
434.281	3259
434.355	3807
434.428	3592
434.501	3943
434.575	2916
434.648	3160
434.721	3534
434.795	3701
434.868	3929
434.941	4596
435.014	4725
435.088	5365
435.161	5964
435.234	6998
435.307	8241
435.381	11278
435.454	16560
435.527	24742
435.600	29763
435.673	26377
435.746	22197
435.819	18020
435.892	14339
435.966	12453
436.039	9506
436.112	9170
436.185	6675
436.258	6562
436.331	5935
436.404	5855
436.477	5083
436.550	4084
436.623	4532
436.696	4462
436.769	4312
436.842	4097
436.915	4312
436.987	4030
437.060	3724
437.133	3567
437.206	2799
437.279	4105
437.352	2847
437.425	3131
437.498	3170
437.570	3168
437.643	3154
437.716	2857
437.789	2194
437.861	2414
437.934	2419
438.007	2164
438.080	1943
438.152	3117
438.225	2775
438.298	5717
438.370	10074
438.443	6819
438.516	3764
438.588	3104
438.661	3001
438.734	3525
438.806	2401
438.879	3285
438.951	3010
439.024	3394
439.096	2507
439.169	3581
439.241	2493
439.314	2467
439.386	2744
439.459	2864
439.531	2958
439.604	3028
439.676	3395
439.749	2738
439.821	2357
439.893	3122
439.966	2923
440.038	2536
440.110	3041
440.183	2788
440.255	2426
440.327	4059
440.400	4417
440.472	6302
440.544	4981
440.617	3173
440.689	4336
440.761	3643
440.833	3587
440.905	3332
440.978	3649
441.050	3817
441.122	3871
441.194	2740
441.266	3569
441.338	3582
441.411	4363
441.483	4891
441.555	5097
441.627	5765
441.699	4657
441.771	4599
441.843	4890
441.915	5342
441.987	5177
442.059	7572
442.131	7958
442.203	9842
442.275	12308
442.347	22420
442.419	51964
442.491	151356
442.563	251246
442.635	137832
442.706	41345
442.778	20065
442.850	14780
442.922	12597
442.994	13529
443.066	14318
443.137	18095
443.209	24256
443.281	37026
443.353	74910
443.425	179717
443.496	339299
443.568	352688
443.640	198302
443.711	71056
443.783	32997
443.855	20512
443.926	15648
443.998	12402
444.070	10890
444.141	8822
444.213	8302
444.285	8601
444.356	7531
444.428	7962
444.499	8122
444.571	7930
444.642	9326
444.714	8016
444.785	9977
444.857	11506
444.928	12641
445.000	14645
445.071	18547
445.143	26360
445.214	38139
445.285	62761
445.357	130539
445.428	271426
445.500	371014
445.571	350897
445.642	265278
445.714	125572
445.785	48064
445.856	26663
445.928	19327
445.999	13210
446.070	11597
446.141	9539
446.213	8178
446.284	6482
446.355	6389
446.426	5178
446.497	5503
446.569	4178
446.640	3401
446.711	4003
446.782	3398
446.853	3360
446.924	3341
446.995	3441
447.066	2985
447.138	2382
447.209	2358
447.280	2236
447.351	2265
447.422	877
447.493	3019
447.564	1898
447.635	1704
447.706	1748
447.777	2416
447.847	1997
447.918	846
447.989	1224
448.060	2135
448.131	1509
448.202	2133
448.273	1190
448.344	1728
448.414	1763
448.485	2302
448.556	1989
448.627	1671
448.698	2185
448.768	1571
448.839	1355
448.910	1607
448.981	1597
449.051	1117
449.122	1219
449.193	1473
449.263	1671
449.334	1522
449.405	1107
449.475	1314
449.546	2004
449.616	2812
449.687	2063
449.758	2551
449.828	1041
449.899	2085
449.969	1548
450.040	2152
450.110	1807
450.181	2486
450.251	1709
450.322	1642
450.392	1200
450.463	1190
450.533	2134
450.604	2700
450.674	1966
450.744	3384
450.815	3344
450.885	4239
450.955	3802
451.026	3761
451.096	3296
451.166	3199
451.237	3777
451.307	5175
451.377	4249
451.447	3582
451.518	2761
451.588	1855
451.658	3016
451.728	1414
451.799	2259
451.869	2653
451.939	1692
452.009	1911
452.079	2154
452.149	2646
452.219	2440
452.289	2796
452.360	2912
452.430	4259
452.500	6164
452.570	10335
452.640	21687
452.710	47561
452.780	56506
452.850	34753
452.920	17776
452.990	10407
453.060	6182
453.129	4830
453.199	3558
453.269	3527
453.339	3035
453.409	2557
453.479	2788
453.549	2072
453.619	2469
453.688	1942
453.758	2163
453.828	1070
453.898	794
453.968	1967
454.037	1684
454.087	1832
454.107	1879
454.168	1287
454.177	1179
454.247	946
454.249	962
454.316	843
454.330	921
454.386	1170
454.411	1231
454.456	1269
454.492	1226
454.525	1176
454.574	1580
454.595	1735
454.655	1594
454.665	1554
454.734	1616
454.736	1655
454.804	2353
454.817	2296
454.873	2015
454.898	1856
454.943	1514
454.979	1710
455.013	1902
455.060	1724
455.082	1657
455.141	2285
455.152	2568
455.221	5032
455.222	5177
455.291	8344
455.303	10962
455.360	21093
455.384	31279
455.430	48260
455.465	33979
455.499	21677
455.546	9496
455.569	3726
455.627	2544
455.638	2304
455.707	2435
455.708	2451
455.777	2100
455.789	2110
455.846	1958
455.869	1921
455.916	1827
455.950	2094
455.985	2366
456.031	1977
456.054	1742
456.112	1744
456.124	1737
456.193	3100
456.193	3084
456.262	2291
456.274	2393
456.332	2856
456.355	2767
456.401	2493
456.436	2968
456.470	3482
456.516	3089
456.540	2833
456.597	2899
456.609	2861
456.678	3356
456.678	3338
456.747	3411
456.759	3323
456.817	3163
456.840	3248
456.886	3062
456.920	3267
456.955	3636
457.001	3853
457.024	3790
457.082	3785
457.093	3807
457.162	3637
457.163	3661
457.232	4293
457.243	4486
457.301	5459
457.324	5232
457.370	4728
457.405	5519
457.439	6283
457.485	6937
457.508	7519
457.566	9783
457.577	10913
457.646	17882
457.647	18042
457.715	33081
457.727	37041
457.784	56439
457.808	71570
457.853	88395
457.889	102138
457.922	111480
457.969	87948
457.991	84261
458.050	87714
458.060	88047
458.129	133062
458.130	134519
458.198	143378
458.211	130221
458.267	85217
458.292	65969
458.336	48088
458.372	47632
458.405	56650
458.453	78044
458.474	88049
458.533	132428
458.543	134256
458.611	189416
458.614	189746
458.680	143482
458.694	121202
458.749	63237
458.775	47579
458.818	28895
458.855	21939
458.887	17445
458.936	14454
458.955	13397
459.016	10909
459.024	10711
459.093	9896
459.097	9857
459.162	8263
459.177	8013
459.230	7497
459.257	7650
459.299	7615
459.338	6984
459.368	6528
459.418	6009
459.437	6009
459.499	6250
459.505	6260
459.574	6207
459.579	6272
459.643	6197
459.659	6066
459.711	6138
459.740	6200
459.780	5923
459.820	5595
459.849	5588
459.900	5786
459.917	5784
459.981	5912
459.986	5903
460.054	6164
460.061	6123
460.123	5963
460.141	6142
460.191	6579
460.222	6548
460.260	6497
460.302	6730
460.328	7274
460.382	8302
460.397	8950
460.462	11844
460.465	12537
460.534	29251
460.543	31500
460.602	52825
460.623	61875
460.671	85626
460.703	111206
460.739	96626
460.783	64073
460.808	58590
460.864	20580
460.876	15270
460.944	8010
460.945	7925
461.013	7045
461.024	6784
461.081	6083
461.104	6050
461.150	6316
461.184	6482
461.218	6269
461.264	6226
461.286	6232
461.345	5555
461.355	5446
461.423	5677
461.425	5667
461.491	5243
461.505	5218
461.559	5198
461.585	5246
461.628	5332
461.665	5512
461.696	5689
461.745	5679
461.764	5612
461.825	5879
461.832	5963
461.901	5833
461.905	5883
461.969	5489
461.985	5219
462.037	5596
462.065	5913
462.105	5538
462.145	5394
462.173	5766
462.225	6139
462.241	6066
462.305	5804
462.310	5818
462.378	6399
462.385	6413
462.446	6497
462.465	6646
462.514	6540
462.545	6287
462.582	6151
462.625	6007
462.650	5979
462.705	6013
462.718	6106
462.785	6560
462.786	6558
462.854	5847
462.865	5802
462.922	5927
462.945	5986
462.990	6210
463.025	6274
463.058	6271
463.104	6522
463.126	6594
463.184	6335
463.194	6319
463.262	6129
463.264	6131
463.330	6007
463.344	5939
463.398	6630
463.424	7008
463.466	6519
463.504	6013
463.533	6273
463.583	6644
463.601	6531
463.663	5944
463.669	5910
463.737	6128
463.743	6096
463.805	6366
463.823	6434
463.873	6585
463.903	6710
463.940	6536
463.982	6286
464.008	6159
464.062	5997
464.076	6123
464.142	6569
464.144	6569
464.211	6283
464.221	6201
464.279	6109
464.301	6128
464.347	6499
464.381	6966
464.414	6611
464.461	5908
464.482	6093
464.540	6405
464.550	6383
464.617	6224
464.620	6208
464.685	6112
464.699	6134
464.753	6710
464.779	6957
464.820	7034
464.859	6946
464.888	6803
464.938	6778
464.956	6967
465.018	7374
465.023	7324
465.091	6674
465.098	6579
465.158	6876
465.177	7024
465.226	7188
465.257	7194
465.293	7080
465.336	6909
465.361	6847
465.416	6668
465.428	6775
465.495	7391
465.496	7398
465.563	6311
465.575	6134
465.631	6766
465.654	7031
465.698	7214
465.734	7298
465.765	7641
465.813	8046
465.833	7839
465.893	7392
465.900	7420
465.968	7296
465.972	7284
466.035	7001
466.052	6888
466.102	6698
466.131	6580
466.170	6705
466.210	6793
466.237	6927
466.290	7186
466.304	7246
466.369	7442
466.372	7463
466.439	7678
466.449	7681
466.506	7892
466.528	7995
466.573	8114
466.607	8090
466.641	7963
466.687	7798
466.708	8047
466.766	8716
466.775	8696
466.842	8382
466.845	8350
466.909	8657
466.925	8720
466.977	8667
467.004	8587
467.044	8616
467.083	8635
467.111	8763
467.163	8951
467.178	9032
467.242	9275
467.245	9262
467.312	8639
467.321	8541
467.379	8782
467.400	8844
467.446	9537
467.480	10006
467.559	9853
467.638	11437
467.717	10381
467.796	10790
467.875	12035
467.955	11568
468.034	14221
468.113	16085
468.192	20270
468.271	25405
468.350	32540
468.429	39093
468.508	36020
468.588	23839
468.667	18248
468.746	14193
468.825	12547
468.904	12138
468.983	11671
469.062	10409
469.141	11113
469.220	9920
469.299	9573
469.378	9102
469.456	9975
469.535	9488
469.614	8750
469.693	9182
469.772	9447
469.851	9453
469.930	9224
470.009	9583
470.088	9517
470.166	9566
470.245	10759
470.324	9766
470.403	9589
470.482	9224
470.560	9020
470.639	8311
470.718	8836
470.797	8779
470.875	9845
470.954	8282
471.033	8418
471.111	8604
471.190	8175
471.269	8802
471.347	8534
471.426	9230
471.505	8791
471.583	8204
471.662	8610
471.740	9283
471.819	8802
471.898	8843
471.976	9452
472.055	10290
472.133	13647
472.212	16050
472.290	9840
472.369	8883
472.447	9104
472.526	9372
472.604	10336
472.683	9329
472.761	9367
472.839	9654
472.918	9555
472.996	9291
473.075	10066
473.153	9812
473.231	9095
473.310	9813
473.388	9820
473.466	9353
473.545	10072
473.623	10006
473.701	10319
473.780	9899
473.858	10286
473.936	11455
474.014	12412
474.093	14101
474.171	17786
474.249	10511
474.327	9667
474.405	9440
474.484	10891
474.562	9495
474.640	9054
474.718	9125
474.796	9984
474.874	9928
474.952	9618
475.030	9714
475.108	9668
475.187	9563
475.265	10587
475.343	10619
475.421	10930
475.499	9066
475.577	9930
475.655	10015
475.733	8821
475.811	9104
475.889	9251
475.966	9414
476.044	9928
476.122	9997
476.200	10416
476.278	8285
476.356	9572
476.434	10415
476.512	10557
476.590	10155
476.667	9819
476.745	9211
476.823	9600
476.901	8870
476.979	8797
477.056	8850
477.134	8487
477.212	9352
477.290	7931
477.367	8740
477.445	9123
477.523	8727
477.601	9340
477.678	9116
477.756	9072
477.834	8863
477.911	9776
477.989	8720
478.066	9171
478.144	9684
478.222	12062
478.299	14442
478.377	16492
478.454	12513
478.532	9249
478.609	9234
478.687	9530
478.764	9351
478.842	9193
478.919	9288
478.997	9027
479.074	8860
479.152	9491
479.229	9309
479.307	8620
479.384	9498
479.461	9081
479.539	9862
479.616	9058
479.694	8853
479.771	9456
479.848	9003
479.926	8794
480.003	9802
480.080	10030
480.157	9488
480.235	10035
480.312	9727
480.389	10723
480.467	11041
480.544	10543
480.621	11029
480.698	12040
480.775	11874
480.853	11451
480.930	10785
481.007	15470
481.084	23716
481.161	36594
481.238	16177
481.315	11950
481.392	11083
481.470	10842
481.547	11096
481.624	11413
481.701	11427
481.778	11831
481.855	12907
481.932	12889
482.009	14430
482.086	14915
482.163	17397
482.240	19094
482.317	20771
482.393	17811
482.470	15450
482.547	15840
482.624	14404
482.701	13988
482.778	14136
482.855	14705
482.932	15628
483.009	17820
483.085	23234
483.162	31905
483.239	26151
483.316	19976
483.393	17936
483.469	16881
483.546	15589
483.623	15238
483.699	13154
483.776	13724
483.853	12933
483.930	12202
484.006	12665
484.083	13844
484.160	13471
484.236	14775
484.313	14680
484.389	16432
484.466	19003
484.543	21985
484.619	26351
484.696	24322
484.772	17022
484.849	14291
484.925	13524
485.002	12778
485.078	12536
485.155	11936
485.231	10968
485.308	10508
485.384	12090
485.461	12443
485.537	11390
485.614	10712
485.690	10718
485.766	11405
485.843	9692
485.919	10478
485.995	10717
486.072	10865
486.148	9967
486.224	10023
486.301	10578
486.377	10761
486.453	10920
486.530	10842
486.606	12357
486.682	12274
486.758	13844
486.835	15798
486.911	14767
486.987	16644
487.063	18955
487.139	27551
487.215	36459
487.292	28734
487.368	29222
487.444	39169
487.520	61799
487.596	115418
487.672	248965
487.748	521917
487.824	646450
487.900	270428
487.976	103452
488.052	55850
488.128	37380
488.204	27232
488.280	23043
488.356	20278
488.432	18145
488.508	16163
488.584	14584
488.660	14616
488.736	13466
488.812	11736
488.888	11662
488.964	12541
489.039	12936
489.115	15816
489.191	15818
489.267	13414
489.343	11551
489.418	11722
489.494	10241
489.570	10767
489.646	11622
489.722	10488
489.797	10753
489.873	10834
489.949	12004
490.024	12330
490.100	11392
490.176	11464
490.251	10661
490.327	11805
490.403	11040
490.478	11592
490.554	10607
490.629	11347
490.705	9921
490.781	10178
490.856	10148
490.932	10854
491.007	9936
491.083	9528
491.158	9672
491.234	9502
491.309	9801
491.385	9571
491.460	9021
491.536	10306
491.611	9555
491.686	9099
491.762	9039
491.837	10150
491.913	9800
491.988	10009
492.063	10045
492.139	9537
492.214	8923
492.289	8959
492.365	8094
492.440	9031
492.515	9258
492.590	8751
492.666	9091
492.741	9836
492.816	9925
492.891	9892
492.967	10648
493.042	11555
493.117	11784
493.192	18915
493.267	46321
493.342	107888
493.418	110064
493.493	14737
493.568	10434
493.643	9054
493.718	8586
493.793	8545
493.868	9077
493.943	9316
494.018	8552
494.093	8368
494.168	9270
494.243	8657
494.318	8933
494.393	8402
494.468	8033
494.543	8509
494.618	8371
494.693	8002
494.768	8581
494.842	8603
494.917	7797
494.992	8816
495.067	7960
495.142	8660
495.217	7769
495.292	8584
495.366	8006
495.441	7935
495.516	7824
495.591	9096
495.665	10724
495.740	12501
495.815	8701
495.890	10085
495.964	8708
496.039	13734
496.114	22867
496.188	35860
496.263	20220
496.338	9735
496.412	8943
496.487	8258
496.561	8462
496.636	9599
496.710	11274
496.785	11491
496.860	8606
496.934	9318
497.009	8513
497.083	8156
497.158	7917
497.232	7754
497.307	7780
497.381	7911
497.455	7654
497.530	8817
497.604	7908
497.679	7781
497.753	7667
497.827	7404
497.902	7573
497.976	7328
498.050	7926
498.125	8702
498.199	8012
498.273	7464
498.348	7643
498.422	7245
498.496	7726
498.570	9024
498.645	7325
498.719	7920
498.793	8074
498.867	8015
498.941	7699
499.016	8364
499.090	8051
499.164	8797
499.238	7522
499.312	9169
499.386	8773
499.460	9178
499.534	8021
499.609	8679
499.683	8189
499.757	9007
499.831	8413
499.905	7702
499.979	8890
500.053	8381
500.127	8369
500.201	9879
500.275	8777
500.349	9220
500.422	8583
500.496	10178
500.570	9112
500.644	9726
500.718	9629
500.792	8792
500.866	8883
500.940	9240
501.013	9365
501.087	10550
501.161	10191
501.235	9466
501.309	11194
501.382	9714
501.456	9607
501.530	9575
501.603	8402
501.677	9316
501.751	8740
501.825	9937
501.898	8505
501.972	9551
502.046	8561
502.119	7695
502.193	8297
502.266	8485
502.340	8490
502.413	9360
502.487	9224
502.561	9763
502.634	9218
502.708	10497
502.781	9396
502.855	10335
502.928	9783
503.002	10745
503.075	9984
503.149	10821
503.222	10031
503.295	11383
503.369	12288
503.442	13393
503.516	15260
503.589	16571
503.662	19347
503.736	24704
503.809	32217
503.882	45272
503.956	78298
504.029	167927
504.102	346954
504.175	398285
504.249	185521
504.322	85565
504.395	49314
504.468	33191
504.542	25171
504.615	19305
504.688	16878
504.761	14184
504.834	13881
504.907	12069
504.980	11738
505.053	10376
505.127	9012
505.200	10823
505.273	9581
505.346	8850
505.419	8977
505.492	9559
505.565	8837
505.638	8560
505.711	7589
505.784	7655
505.857	7477
505.930	8621
506.003	6080
506.076	9082
506.149	6881
506.221	6765
506.294	7804
506.367	7491
506.440	7147
506.513	6581
506.586	6507
506.659	6273
506.731	6810
506.804	7433
506.877	6834
506.950	7396
507.022	7453
507.095	6904
507.168	7336
507.241	6819
507.313	5881
507.386	6406
507.459	7472
507.531	7698
507.604	6412
507.677	7515
507.749	6501
507.822	7409
507.894	6533
507.967	6058
508.040	6239
508.112	6723
508.185	6711
508.257	6212
508.330	6836
508.402	6318
508.475	6346
508.547	7150
508.620	6657
508.692	7224
508.765	6429
508.837	7528
508.909	7442
508.982	6836
509.054	7428
509.127	6813
509.199	6519
509.271	6095
509.344	6810
509.416	6743
509.488	6627
509.560	6849
509.633	6239
509.705	6116
509.777	5866
509.849	6507
509.922	5360
509.994	7405
510.066	7303
510.138	5256
510.210	7298
510.283	6680
510.355	7136
510.427	6753
510.499	6305
510.571	6467
510.643	5515
510.715	6925
510.787	5816
510.859	7385
510.931	6486
511.003	5996
511.076	6709
511.148	5825
511.219	6121
511.291	6707
511.363	6860
511.435	6380
511.507	6111
511.579	6639
511.651	6225
511.723	6216
511.795	6266
511.867	6443
511.939	6373
512.010	6557
512.082	6116
512.154	6083
512.226	5927
512.298	7022
512.369	7048
512.441	6586
512.513	6888
512.585	6598
512.656	6759
512.728	6071
512.800	6630
512.871	6572
512.943	5638
513.015	6859
513.086	5505
513.158	7767
513.230	6886
513.301	7067
513.373	6922
513.444	6238
513.516	6892
513.588	6397
513.659	6172
513.731	6906
513.802	5633
513.874	7772
513.945	6150
514.016	7137
514.088	6341
514.159	6816
514.231	6452
514.302	7309
514.374	6211
514.445	6031
514.516	7496
514.588	6829
514.659	6690
514.730	6471
514.802	6488
514.873	5478
514.944	8624
515.016	7350
515.087	6616
515.158	7867
515.229	7251
515.301	6838
515.372	6713
515.443	7276
515.514	8019
515.585	8420
515.656	8644
515.728	7950
515.799	7256
515.870	8094
515.941	7412
516.012	7869
516.083	8124
516.154	6614
516.225	8528
516.296	8331
516.367	7714
516.438	7600
516.509	7394
516.580	9286
516.651	15291
516.722	24897
516.793	13016
516.864	9786
516.935	9165
517.006	9755
517.077	10408
517.148	17385
517.219	39435
517.289	41921
517.360	10587
517.431	10096
517.502	9639
517.573	10207
517.643	10043
517.714	11206
517.785	12832
517.856	12339
517.926	13939
517.997	15552
518.068	15940
518.138	20640
518.209	25880
518.280	51033
518.350	93643
518.421	49643
518.492	45891
518.562	63805
518.633	94957
518.703	168092
518.774	345757
518.845	592403
518.915	431055
518.986	167971
519.056	83869
519.127	52156
519.197	37308
519.268	27435
519.338	23346
519.408	18598
519.479	15912
519.549	14502
519.620	14198
519.690	12317
519.760	11883
519.831	11851
519.901	10416
519.971	11001
520.042	9995
520.112	9608
520.182	9561
520.253	9585
520.323	7673
520.393	8414
520.463	10268
520.534	7520
520.604	10033
520.674	9173
520.744	8524
520.814	8660
520.885	8077
520.955	7992
521.025	8830
521.095	8546
521.165	7921
521.235	7805
521.305	8252
521.375	8687
521.445	8828
521.515	8352
521.585	9593
521.655	7516
521.725	8429
521.795	9494
521.865	6986
521.935	9853
522.005	7908
522.075	8749
522.145	9680
522.215	10185
522.285	9599
522.355	8815
522.424	9527
522.494	11762
522.564	10887
522.634	10079
522.704	10858
522.774	8833
522.843	9977
522.913	11448
522.983	10168
523.053	9102
523.122	9005
523.192	9508
523.262	8366
523.331	8913
523.401	9321
523.471	8924
523.540	9517
523.610	9471
523.680	10596
523.749	11511
523.819	15257
523.888	14363
523.958	10131
524.027	10795
524.097	9795
524.166	10700
524.236	9445
524.305	11498
524.375	10153
524.444	9774
524.514	11498
524.583	11001
524.653	10378
524.722	11138
524.791	11719
524.861	12882
524.930	12044
524.999	12384
525.069	13491
525.138	13002
525.207	13077
525.277	15016
525.346	16003
525.415	18865
525.484	20347
525.554	23654
525.623	31185
525.692	40979
525.761	38455
525.830	47113
525.900	65952
525.969	123025
526.038	240305
526.107	503752
526.176	929667
526.245	590142
526.314	291635
526.383	596632
526.452	657829
526.522	846889
526.591	553184
526.660	155560
526.729	101998
526.797	117109
526.867	206894
526.935	528574
527.004	1015036
527.073	535319
527.142	145561
527.211	69040
527.280	46032
527.349	34176
527.418	25792
527.487	24180
527.555	19019
527.624	17990
527.693	16257
527.762	15811
527.831	14550
527.899	15615
527.968	14384
528.037	12194
528.106	12433
528.174	12943
528.243	12198
528.312	12349
528.380	11689
528.449	11546
528.518	12044
528.586	9993
528.655	12262
528.723	12210
528.792	10658
528.861	10485
528.929	9451
528.998	10916
529.066	10086
529.135	11294
529.203	10060
529.272	9936
529.340	11171
529.409	11164
529.477	9414
529.545	9934
529.614	10509
529.682	10119
529.751	9129
529.819	12408
529.887	10429
529.956	10456
530.024	10232
530.092	9780
530.161	11209
530.229	11264
530.297	9756
530.365	11273
530.434	9928
530.502	10634
530.570	11158
530.638	9627
530.707	10959
530.775	12040
530.843	10134
530.911	10910
530.979	11087
531.047	11143
531.115	11732
531.183	11647
531.252	11962
531.320	11249
531.388	10413
531.456	12537
531.524	10735
531.592	11741
531.660	12534
531.728	12040
531.796	11747
531.864	11864
531.932	11095
532.000	10730
532.067	11442
532.135	12587
532.203	14396
532.271	13884
532.339	15026
532.407	15017
532.475	13152
532.542	14035
532.610	14247
532.678	13724
532.746	17606
532.814	19361
532.881	15605
532.949	14585
533.017	14389
533.084	13658
533.152	12934
533.220	13807
533.287	12049
533.355	13528
533.423	14462
533.490	14955
533.558	15257
533.625	15584
533.693	14321
533.761	15104
533.828	14950
533.896	14947
533.963	17007
534.031	18943
534.098	23291
534.166	25872
534.233	24274
534.300	26444
534.368	25952
534.435	26589
534.503	26991
534.570	31287
534.637	33788
534.705	42614
534.772	64556
534.840	164374
534.907	517752
534.974	379502
535.041	66710
535.109	35956
535.176	28779
535.243	26923
535.310	26321
535.378	23822
535.445	24352
535.512	25943
535.579	24003
535.646	24437
535.714	25266
535.781	26313
535.848	27119
535.915	25329
535.982	24424
536.049	24805
536.116	24996
536.183	23279
536.250	24068
536.317	24254
536.384	26971
536.451	26902
536.518	26731
536.585	26272
536.652	27582
536.719	27229
536.786	24778
536.853	25321
536.920	27704
536.987	26378
537.053	25776
537.120	30219
537.187	30442
537.254	29458
537.321	27895
537.388	30215
537.454	27888
537.521	28310
537.588	27546
537.654	29397
537.721	31296
537.788	30134
537.855	27747
537.921	28636
537.988	27138
538.055	27037
538.121	25537
538.188	24340
538.254	25567
538.321	26015
538.388	28952
538.454	32480
538.521	31050
538.587	31633
538.654	30005
538.720	29584
538.787	29903
538.853	30749
538.920	27423
538.986	26349
539.053	25804
539.119	27629
539.185	27673
539.252	29356
539.318	31161
539.385	34024
539.451	30535
539.517	29876
539.583	30056
539.650	30216
539.716	29463
539.782	27262
539.849	27859
539.915	28207
539.981	28770
540.047	27345
540.114	27794
540.180	30242
540.246	30865
540.312	31708
540.378	31790
540.444	31554
540.510	32438
540.576	32274
540.643	28869
540.709	28280
540.775	29391
540.841	27871
540.907	28202
540.973	28827
541.039	29331
541.105	30077
541.171	33088
541.237	33084
541.303	31216
541.369	32958
541.435	32105
541.500	29410
541.566	27362
541.632	28504
541.698	29759
541.764	31634
541.830	30993
541.896	29649
541.961	28997
542.027	31322
542.093	33286
542.159	32142
542.224	29344
542.290	31348
542.356	29923
542.421	31850
542.487	29873
542.553	30043
542.618	29306
542.684	30179
542.750	30028
542.815	31220
542.881	31322
542.947	32782
543.012	31927
543.078	28703
543.143	29382
543.209	30058
543.274	28272
543.340	30188
543.405	30562
543.471	31917
543.536	30448
543.602	31527
543.667	29359
543.732	32510
543.798	31996
543.863	33176
543.928	30808
543.994	30852
544.059	32573
544.124	33978
544.190	32886
544.255	33798
544.320	33778
544.386	34286
544.451	35804
544.516	34105
544.581	33945
544.646	35645
544.712	37206
544.777	36258
544.842	34687
544.907	35613
544.972	36093
545.037	40129
545.102	40735
545.168	38648
545.233	39664
545.298	40419
545.363	40645
545.428	41720
545.493	42906
545.558	41536
545.623	41927
545.688	41897
545.753	44083
545.818	46608
545.883	48573
545.947	50033
546.012	51288
546.077	52121
546.142	55534
546.207	56199
546.272	60511
546.337	61527
546.401	65256
546.466	67114
546.531	69205
546.596	75953
546.661	76808
546.725	82062
546.790	87260
546.855	94372
546.919	103466
546.984	114623
547.049	125514
547.113	142663
547.178	157264
547.243	179377
547.307	206351
547.372	219182
547.436	219923
547.501	236490
547.565	240830
547.630	218965
547.695	218075
547.759	218953
547.823	221242
547.888	227893
547.952	235901
548.017	250703
548.081	263171
548.146	245581
548.210	252842
548.274	270666
548.339	253299
548.403	232725
548.468	222977
548.532	224577
548.596	230002
548.660	232141
548.725	255667
548.789	268806
548.853	251857
548.917	248891
548.982	234131
549.046	212910
549.110	197412
549.174	215043
549.238	249164
549.303	264072
549.367	262217
549.431	245561
549.495	234849
549.559	244096
549.623	287684
549.687	291057
549.751	301813
549.815	348795
549.879	339112
549.943	336276
550.007	350158
550.071	334960
550.135	302213
550.199	297134
550.263	287621
550.327	278690
550.391	299798
550.455	326385
550.519	332756
550.582	359886
550.646	393099
550.710	393304
550.774	389077
550.838	399035
550.901	416794
550.965	441379
551.029	462314
551.093	501274
551.156	544890
551.220	587655
551.284	561328
551.347	469927
551.411	418614
551.475	411014
551.538	413048
551.602	378016
551.666	365910
551.729	340799
551.793	338057
551.856	331710
551.920	329127
551.983	325498
552.047	318795
552.110	327886
552.174	336700
552.237	327858
552.301	304515
552.364	293340
552.428	289820
552.491	301000
552.554	301236
552.618	303271
552.681	303287
552.745	290935
552.808	308552
552.871	314860
552.934	308334
552.998	298102
553.061	291313
553.124	283899
553.187	284162
553.251	294908
553.314	295611
553.377	305997
553.440	352188
553.503	459347
553.567	433263
553.630	320271
553.693	306360
553.756	305850
553.819	293989
553.882	286651
553.945	291593
554.008	293013
554.071	297740
554.134	291001
554.197	270272
554.260	266893
554.323	275296
554.386	280740
554.449	291752
554.512	287779
554.575	276969
554.638	274091
554.701	274945
554.764	266271
554.827	258953
554.889	246408
554.952	234391
555.015	234759
555.078	239618
555.141	241497
555.203	235101
555.266	237453
555.329	231630
555.391	223668
555.454	219210
555.517	216450
555.580	206482
555.642	199949
555.705	198786
555.768	197838
555.830	188614
555.893	182367
555.955	175484
556.018	177065
556.080	179181
556.143	184782
556.206	178735
556.268	175393
556.330	170475
556.393	165222
556.455	162037
556.518	157642
556.580	152003
556.643	148315
556.705	147926
556.767	144653
556.830	144188
556.892	140052
556.955	138863
557.017	133755
557.079	134793
557.142	131066
557.204	131572
557.266	129597
557.328	119795
557.391	113125
557.453	111537
557.515	112964
557.577	114005
557.639	114006
557.701	113780
557.764	112763
557.826	114077
557.888	119353
557.950	123536
558.012	140432
558.074	202153
558.136	453416
558.198	626848
558.260	215658
558.322	129491
558.384	124321
558.446	127484
558.508	136201
558.570	152806
558.632	181606
558.694	254198
558.756	462327
558.818	1006513
558.880	1180106
558.942	734697
559.003	725713
559.065	302369
559.127	172036
559.189	162214
559.251	188431
559.312	294116
559.374	656771
559.436	1027497
559.498	480040
559.559	198271
559.621	163535
559.683	197282
559.744	351223
559.806	813517
559.868	707272
559.929	242364
559.991	201234
560.052	373480
560.114	686659
560.176	383148
560.237	528063
560.299	497481
560.360	128876
560.422	74581
560.483	63441
560.545	60022
560.606	57334
560.667	54209
560.729	52035
560.790	49411
560.852	48030
560.913	47749
560.974	45246
561.036	44109
561.097	46544
561.158	44327
561.220	44576
561.281	41170
561.342	40111
561.403	41531
561.465	40555
561.526	40291
561.587	39907
561.648	37395
561.709	37342
561.771	35755
561.832	35794
561.893	35781
561.954	35343
562.015	34975
562.076	34063
562.137	33378
562.198	34505
562.259	34591
562.320	34769
562.381	34462
562.442	32945
562.503	32912
562.564	32467
562.625	31081
562.686	32418
562.747	31402
562.808	31509
562.869	30351
562.930	30880
562.991	31075
563.051	29645
563.112	30077
563.173	30131
563.234	28044
563.294	29196
563.355	28926
563.416	29340
563.477	27642
563.537	27482
563.598	28313
563.659	28481
563.720	27034
563.780	27342
563.841	28806
563.901	28489
563.962	27067
564.023	26682
564.083	26752
564.144	25864
564.204	26460
564.265	26408
564.325	26193
564.386	26686
564.446	25652
564.507	24538
564.567	25094
564.628	24927
564.688	24354
564.749	24610
564.809	24641
564.869	25316
564.930	24024
564.990	25161
565.050	24463
565.111	25413
565.171	24556
565.231	25437
565.292	24762
565.352	25036
565.412	25864
565.472	24785
565.532	23217
565.593	24392
565.653	24162
565.713	24280
565.773	24349
565.833	26773
565.893	25067
565.953	23129
566.013	22339
566.074	24394
566.134	22559
566.194	21164
566.254	22983
566.314	22786
566.374	22544
566.434	23039
566.494	22504
566.554	22138
566.614	23444
566.673	24578
566.733	24280
566.793	24141
566.853	23868
566.913	23710
566.973	24304
567.033	24079
567.092	23948
567.152	23537
567.212	24422
567.272	24096
567.331	25339
567.391	25183
567.451	26083
567.511	25931
567.570	24934
567.630	25641
567.690	23685
567.749	24500
567.809	23893
567.868	22414
567.928	23272
567.988	25340
568.047	24431
568.107	23561
568.166	23701
568.226	23562
568.285	24978
568.345	24957
568.404	24575
568.464	24685
568.523	24550
568.582	24058
568.642	23763
568.701	23105
568.761	22624
568.820	22358
568.879	22932
568.939	23874
568.998	23257
569.057	23904
569.116	22431
569.176	23513
569.235	23639
569.294	22807
569.353	22310
569.413	22079
569.472	21984
569.531	22507
569.590	21726
569.649	22296
569.708	22142
569.767	23353
569.827	23064
569.886	22421
569.945	21171
570.004	22537
570.063	22103
570.122	24599
570.181	22830
570.240	25044
570.299	24482
570.358	23260
570.417	23672
570.475	24344
570.534	23860
570.593	23970
570.652	24606
570.711	23744
570.770	23584
570.829	23959
570.887	23364
570.946	24936
571.005	24558
571.064	24203
571.122	23425
571.181	23579
571.240	23453
571.299	22599
571.357	22621
571.416	22882
571.475	23272
571.533	24619
571.592	25264
571.650	25432
571.709	26487
571.768	30086
571.826	29761
571.885	27158
571.943	24941
572.002	24254
572.060	23609
572.119	22939
572.177	23365
572.236	23958
572.294	23418
572.352	24801
572.411	24706
572.469	24009
572.528	22747
572.586	22656
572.644	21857
572.703	22393
572.761	20496
572.819	21226
572.877	19763
572.936	19932
572.994	20473
573.052	20738
573.110	22086
573.169	22773
573.227	22510
573.285	21759
573.343	21584
573.401	21582
573.459	21138
573.517	23235
573.576	23734
573.634	23344
573.692	22221
573.750	23221
573.808	21959
573.866	22118
573.924	21337
573.982	21216
574.040	21173
574.098	21971
574.155	21141
574.213	21068
574.271	20868
574.329	23037
574.387	21095
574.445	20126
574.503	19239
574.560	19489
574.618	20542
574.676	20810
574.734	19452
574.792	19829
574.849	18593
574.907	17106
574.965	17595
575.022	17061
575.080	16338
575.138	16611
575.195	16127
575.253	16155
575.311	16282
575.368	16230
575.426	15274
575.483	17265
575.541	16532
575.598	16704
575.656	17462
575.713	17514
575.771	18279
575.828	17058
575.886	16237
575.943	16167
576.001	15182
576.058	14773
576.115	15606
576.173	16630
576.230	16431
576.287	16590
576.345	16461
576.402	17182
576.459	16499
576.517	16033
576.574	15302
576.631	15503
576.688	15074
576.746	15523
576.803	15539
576.860	15276
576.917	14634
576.974	15130
577.031	15482
577.089	14906
577.146	13992
577.203	14542
577.260	13983
577.317	15088
577.374	14956
577.431	14902
577.488	13859
577.545	14912
577.602	15222
577.659	16227
577.716	18902
577.773	20266
577.830	15669
577.886	15140
577.943	13448
578.000	14613
578.057	13403
578.114	14878
578.171	14060
578.227	14463
578.284	12399
578.341	13662
578.398	14819
578.454	14604
578.511	14360
578.568	15046
578.625	14281
578.681	14295
578.738	13774
578.794	14238
578.851	14013
578.908	14548
578.964	13993
579.021	14266
579.077	13681
579.134	14050
579.190	14259
579.247	14642
579.303	13700
579.360	13894
579.416	14854
579.473	14694
579.529	13908
579.586	14036
579.642	14523
579.698	15205
579.755	14451
579.811	14843
579.867	14294
579.924	14177
579.980	15289
580.036	15465
580.093	14637
580.149	15876
580.205	15098
580.261	15813
580.317	15996
580.374	15603
580.430	16668
580.486	16517
580.542	15483
580.598	16045
580.619	15844
580.654	15508
580.692	15194
580.710	15060
580.765	16501
580.767	16561
580.823	16316
580.838	16351
580.879	16494
580.911	16251
580.935	16078
580.984	15745
580.991	15715
581.047	16558
581.057	16407
581.103	15818
581.130	15863
581.159	15917
581.203	15376
581.215	15251
581.270	14688
581.276	14748
581.326	15377
581.349	15523
581.382	15729
581.422	15196
581.438	14994
581.494	15077
581.494	15072
581.550	15296
581.567	15131
581.606	14816
581.640	14568
581.661	14398
581.713	15509
581.717	15608
581.773	15898
581.786	15861
581.829	15772
581.859	15622
581.885	15511
581.932	15167
581.940	15088
581.996	15859
582.004	15709
582.052	15026
582.077	15258
582.107	15437
582.150	14981
582.163	14896
582.219	14583
582.223	14581
582.274	14463
582.296	14813
582.330	15455
582.368	15556
582.386	15599
582.441	15579
582.441	15581
582.497	15787
582.514	16238
582.552	17337
582.587	18212
582.608	18722
582.659	16057
582.663	15830
582.719	16207
582.732	15896
582.774	15081
582.805	15309
582.830	15492
582.877	14634
582.885	14489
582.941	14913
582.950	15046
582.996	15634
583.023	15382
583.052	15190
583.095	14474
583.107	14273
583.162	15542
583.168	15520
583.218	15279
583.240	14947
583.273	14467
583.313	14856
583.328	15006
583.384	15213
583.385	15182
583.439	14237
583.458	14402
583.494	14818
583.531	15191
583.549	15414
583.603	15527
583.605	15522
583.660	16328
583.676	16019
583.715	15320
583.748	15179
583.770	15145
583.820	15741
583.825	15786
583.881	16538
583.893	16567
583.936	16625
583.965	16305
583.991	16070
584.038	16612
584.046	16730
584.101	16318
584.110	16409
584.156	16620
584.183	16341
584.211	16188
584.255	17001
584.266	17218
584.321	17835
584.328	17846
584.376	17873
584.400	18229
584.431	18571
584.472	18710
584.486	18840
584.541	18417
584.545	18480
584.596	19532
584.617	19678
584.651	19932
584.689	20676
584.706	20919
584.761	20889
584.762	20891
584.816	21658
584.834	22133
584.871	23172
584.906	23899
584.926	24250
584.978	25460
584.980	25526
585.035	27714
585.051	28264
585.090	29773
585.123	31555
585.145	32964
585.195	36687
585.200	37148
585.254	43835
585.267	45863
585.309	53119
585.340	58423
585.364	62828
585.412	71655
585.419	73004
585.473	91921
585.484	97789
585.528	128374
585.556	161068
585.583	207595
585.628	324921
585.637	364543
585.692	684677
585.700	712172
585.747	831859
585.772	785119
585.801	556917
585.845	286085
585.856	245906
585.910	119740
585.917	107130
585.965	76879
585.989	65652
586.019	58359
586.061	50260
586.074	48553
586.128	43484
586.133	43088
586.183	39787
586.205	38923
586.237	38348
586.277	37153
586.292	36899
586.346	36530
586.349	36468
586.401	35462
586.421	35382
586.455	35355
586.493	35301
586.509	35479
586.564	36270
586.565	36277
586.618	38629
586.637	39975
586.672	43937
586.709	49149
586.727	52407
586.781	58176
586.781	58203
586.835	49486
586.853	47018
586.889	42083
586.925	38254
586.944	37348
586.996	36318
586.998	36354
587.052	36129
587.068	36127
587.106	36534
587.140	36687
587.161	36666
587.212	36878
587.215	36956
587.269	37144
587.284	37413
587.323	38214
587.356	38735
587.377	38986
587.427	38997
587.431	39102
587.485	40372
587.499	40667
587.539	41552
587.571	42605
587.593	43941
587.643	46419
587.648	46571
587.702	46829
587.715	46845
587.755	47137
587.786	47494
587.810	47785
587.858	47624
587.864	47659
587.917	48072
587.930	48044
587.971	48160
588.001	47940
588.025	47961
588.073	47851
588.079	47850
588.133	47429
588.145	47357
588.187	47307
588.217	46921
588.241	47570
588.288	48527
588.295	48610
588.348	49323
588.360	49306
588.402	49711
588.431	49889
588.456	49913
588.503	50160
588.510	50529
588.564	52858
588.575	53369
588.617	55135
588.646	56074
588.671	57246
588.718	59747
588.725	60124
588.778	63622
588.789	64734
588.832	76894
588.861	88269
588.886	115215
588.932	180940
588.939	193053
588.993	254580
589.004	260466
589.047	152488
589.075	95007
589.100	80929
589.147	57174
589.154	56956
589.207	54300
589.218	53911
589.261	55228
589.290	56063
589.314	57035
589.361	59075
589.368	59783
589.421	66415
589.433	68285
589.475	89985
589.504	110089
589.528	144789
589.576	204818
589.582	200987
589.635	135506
589.647	125017
589.689	85093
589.718	58249
589.742	57108
589.790	54679
589.795	54833
589.849	55277
589.861	55304
589.902	55395
589.932	55163
589.955	55052
590.004	54604
590.009	54684
590.062	54422
590.075	54213
590.115	54420
590.146	54616
590.168	54861
590.218	54944
590.222	55184
590.275	56853
590.289	57231
590.328	58441
590.360	59043
590.381	59338
590.431	59813
590.435	59974
590.488	60418
590.503	60477
590.541	60993
590.574	61235
590.594	62111
590.645	64046
590.647	64258
590.700	66312
590.716	66878
590.753	69353
590.787	71090
590.806	72000
590.859	74175
590.859	74352
590.912	75082
590.930	75228
590.965	75652
591.001	75707
591.018	75955
591.071	75825
591.072	75652
591.124	73787
591.143	72984
591.177	74082
591.214	75209
591.230	75914
591.283	77169
591.285	77044
591.336	76281
591.356	75766
591.389	76070
591.427	75968
591.442	75760
591.495	74388
591.498	74118
591.547	75527
591.569	75960
591.600	77451
591.640	78991
591.653	79405
591.706	80245
591.711	80168
591.759	81606
591.782	82011
591.811	83855
591.853	86050
591.864	86277
591.917	86332
591.924	86125
591.969	86826
591.995	86986
592.022	87663
592.066	88197
592.075	88830
592.127	91467
592.137	91725
592.180	93913
592.208	95012
592.233	96156
592.279	97647
592.285	98183
592.338	100669
592.350	100990
592.390	100818
592.421	100244
592.443	101115
592.491	102276
592.495	102664
592.548	104523
592.562	104781
592.600	104900
592.633	104518
592.653	105078
592.704	105270
592.705	105907
592.775	107487
592.846	111529
592.916	112273
592.987	113512
593.058	113545
593.128	117313
593.199	116621
593.270	117133
593.341	119479
593.411	123839
593.482	129407
593.553	131484
593.623	134570
593.694	137739
593.764	141158
593.835	140159
593.906	141126
593.976	145270
594.047	146319
594.117	153153
594.188	157751
594.258	159099
594.329	156466
594.399	162456
594.470	167339
594.540	171086
594.611	176034
594.681	175829
594.751	173995
594.822	179939
594.892	187518
594.963	194571
595.033	198830
595.103	205644
595.174	206009
595.244	210991
595.314	216324
595.384	221554
595.455	227101
595.525	233993
595.595	242132
595.665	246896
595.736	238597
595.806	241281
595.876	247129
595.946	246848
596.016	258532
596.087	266017
596.157	268434
596.227	267999
596.297	280115
596.367	298200
596.437	314009
596.507	317073
596.577	312219
596.647	321305
596.717	337098
596.787	347590
596.857	346078
596.927	349054
596.997	349458
597.067	353246
597.137	360696
597.207	359156
597.277	360820
597.347	350640
597.417	340749
597.487	333824
597.557	343121
597.626	351777
597.696	358192
597.766	354928
597.836	338726
597.906	319599
597.975	310048
598.045	315459
598.115	326301
598.185	351427
598.254	384335
598.324	421784
598.394	432119
598.464	421727
598.533	412444
598.603	389341
598.672	370736
598.742	379057
598.812	380014
598.881	392157
598.951	389977
599.020	393207
599.090	404409
599.159	418299
599.229	401686
599.299	389962
599.368	398407
599.437	398650
599.507	370076
599.576	352522
599.646	350864
599.715	345100
599.785	339494
599.854	329602
599.924	323038
599.993	319455
600.062	325116
600.132	334771
600.201	346049
600.270	399148
600.340	430509
600.409	422190
600.478	418748
600.547	422670
600.617	405622
600.686	315405
600.755	281699
600.824	263836
600.894	254318
600.963	254489
601.032	252456
601.101	243650
601.170	230796
601.239	223831
601.308	218904
601.378	218517
601.447	220662
601.516	224378
601.585	223248
601.654	226740
601.723	227844
601.792	233177
601.861	243742
601.930	251542
601.999	253342
602.068	250436
602.137	252286
602.206	256238
602.275	262049
602.343	264223
602.412	265145
602.481	268931
602.550	271662
602.619	278983
602.688	282977
602.756	285346
602.825	285972
602.894	291568
602.963	299647
603.032	305933
603.100	308541
603.169	306599
603.238	310346
603.307	311438
603.375	314488
603.444	319351
603.513	330451
603.581	332879
603.650	337516
603.719	335225
603.787	344065
603.856	355638
603.924	364461
603.993	377467
604.061	391165
604.130	407103
604.198	416960
604.267	422719
604.335	428883
604.404	433342
604.472	444201
604.541	448440
604.609	448547
604.678	451427
604.746	448927
604.815	463292
604.883	474459
604.951	471904
605.020	481243
605.088	491156
605.156	499609
605.225	508867
605.293	512706
605.361	512391
605.429	515838
605.498	525769
605.566	537929
605.634	559495
605.702	576989
605.771	596945
605.839	599884
605.907	593275
605.975	571226
606.043	558358
606.111	562023
606.180	558831
606.248	561467
606.316	557392
606.384	547848
606.452	550714
606.520	565211
606.588	589026
606.656	591329
606.724	587377
606.792	557810
606.860	513391
606.928	469441
606.996	448770
607.064	435222
607.132	446232
607.200	467444
607.267	488083
607.335	492105
607.403	508709
607.471	497449
607.539	472383
607.607	484850
607.674	432618
607.742	422097
607.810	421176
607.878	420939
607.946	427102
608.013	448581
608.081	459891
608.149	460067
608.216	473373
608.284	492664
608.352	491937
608.419	488768
608.487	474237
608.555	468807
608.622	484918
608.690	503940
608.757	549862
608.825	573005
608.893	559108
608.960	533750
609.028	505285
609.095	503771
609.163	504916
609.230	467992
609.298	418071
609.365	434661
609.432	466908
609.500	500235
609.567	560803
609.635	626573
609.702	668881
609.769	650393
609.837	541099
609.904	452075
609.971	455282
610.039	480194
610.106	535957
610.173	730545
610.241	1251384
610.308	1148021
610.375	589983
610.442	494472
610.509	467547
610.577	464669
610.644	467443
610.711	482351
610.778	494165
610.845	511417
610.912	540667
610.980	564224
611.047	576701
611.114	562735
611.181	539837
611.248	536424
611.315	557453
611.382	575832
611.449	590902
611.516	604331
611.583	595631
611.650	595043
611.717	600015
611.784	609094
611.851	625895
611.918	647668
611.984	697637
612.051	809436
612.118	1067626
612.185	1676843
612.252	1665497
612.319	940098
612.386	768761
612.452	710851
612.519	672777
612.586	655332
612.653	661010
612.719	681877
612.786	672445
612.853	630733
612.919	607471
612.986	622378
613.053	592584
613.120	562979
613.186	536961
613.253	537131
613.319	538011
613.386	541373
613.453	548686
613.519	552737
613.586	542405
613.652	546285
613.719	544634
613.785	548710
613.852	558416
613.918	555700
613.985	557346
614.051	587735
614.118	599334
614.184	595002
614.250	552734
614.317	567937
614.383	555595
614.449	567593
614.516	563366
614.582	563602
614.648	559180
614.715	548891
614.781	547121
614.847	535556
614.914	543598
614.980	529640
615.046	523497
615.112	537863
615.179	539768
615.245	544915
615.311	543664
615.377	543666
615.443	555625
615.509	555695
615.575	568325
615.642	570884
615.708	577244
615.774	591903
615.840	619212
615.906	639291
615.972	694718
616.038	828667
616.104	1191638
616.170	1775454
616.236	1893391
616.302	1155574
616.368	913484
616.434	749191
616.500	665560
616.565	677663
616.631	802547
616.697	753318
616.763	712712
616.829	847486
616.895	1270451
616.961	1408373
617.026	876748
617.092	627397
617.158	576994
617.224	563214
617.289	524973
617.355	500925
617.421	490476
617.487	494541
617.552	471584
617.618	460531
617.684	463280
617.749	465414
617.815	450022
617.880	440263
617.946	431531
618.012	441963
618.077	455665
618.143	441256
618.208	432840
618.274	462243
618.339	478482
618.405	405655
618.470	388575
618.536	395600
618.601	385604
618.667	364134
618.732	341837
618.798	334871
618.863	333435
618.928	330984
618.994	335656
619.059	330323
619.124	338738
619.190	332240
619.255	329226
619.320	330179
619.386	331866
619.451	332913
619.516	320793
619.581	321935
619.647	331724
619.712	335750
619.777	317757
619.842	317033
619.907	323531
619.972	330400
620.038	332702
620.103	319765
620.168	319232
620.233	325067
620.298	325198
620.363	328483
620.428	338570
620.493	347294
620.558	352423
620.623	355924
620.688	357164
620.753	352253
620.818	360021
620.883	360463
620.948	362673
621.013	355459
621.078	349632
621.143	351155
621.207	357221
621.272	351721
621.337	343110
621.402	334547
621.467	336028
621.532	328794
621.596	335457
621.661	325995
621.726	322296
621.791	323885
621.855	327356
621.920	319810
621.985	327165
622.049	330194
622.114	335005
622.179	339792
622.243	345324
622.308	356169
622.373	371259
622.437	367762
622.502	345716
622.566	340546
622.631	342315
622.695	347767
622.760	347858
622.824	343986
622.889	346766
622.953	347070
623.018	359791
623.082	373089
623.147	368999
623.211	362722
623.276	359960
623.340	351374
623.404	338875
623.469	336366
623.533	341270
623.597	337603
623.662	333585
623.726	315388
623.790	293224
623.854	284734
623.919	285876
623.983	293449
624.047	297034
624.111	299475
624.176	304687
624.240	307683
624.304	317918
624.368	310176
624.432	306262
624.496	312445
624.560	329580
624.625	337353
624.689	328002
624.753	344279
624.817	337722
624.881	324146
624.945	301707
625.009	282974
625.073	289958
625.137	296712
625.201	309890
625.265	316021
625.329	301751
625.393	301883
625.456	308447
625.520	315785
625.584	322163
625.648	328561
625.712	336688
625.776	336753
625.839	320636
625.903	283659
625.967	254895
626.031	265371
626.095	303308
626.158	313991
626.222	249512
626.286	222660
626.349	216205
626.413	201348
626.477	196053
626.540	202105
626.604	201521
626.668	196303
626.731	194648
626.795	194751
626.858	195735
626.922	194726
626.986	191513
627.049	191272
627.113	198812
627.176	195984
627.240	189086
627.303	189893
627.366	188851
627.430	190813
627.493	191052
627.557	185304
627.620	187282
627.684	193626
627.747	198641
627.810	187574
627.874	169326
627.937	159886
628.000	162098
628.064	161440
628.127	147144
628.190	139852
628.253	137257
628.317	132598
628.380	126075
628.443	122525
628.506	120959
628.569	117845
628.632	111685
628.696	109791
628.759	112138
628.822	106627
628.885	105030
628.948	101867
629.011	101220
629.074	97722
629.137	96152
629.200	93250
629.263	91323
629.326	90185
629.389	92893
629.452	90210
629.515	89047
629.578	87808
629.641	88518
629.704	89472
629.767	88958
629.830	85208
629.892	83950
629.955	83080
630.018	83479
630.081	85112
630.144	85108
630.207	81982
630.269	83454
630.332	81339
630.395	80158
630.458	78966
630.520	75436
630.583	76790
630.646	77756
630.708	78419
630.771	78914
630.834	82923
630.896	83495
630.959	81861
631.021	81347
631.084	78987
631.146	78931
631.209	80538
631.272	79821
631.334	82378
631.397	81970
631.459	82456
631.522	84883
631.584	85741
631.646	89381
631.709	92357
631.771	91081
631.834	90398
631.896	87194
631.958	83416
632.021	81233
632.083	78213
632.145	77617
632.208	77305
632.270	77675
632.332	76241
632.395	75481
632.457	76854
632.519	75791
632.581	73887
632.643	73695
632.706	75149
632.768	73815
632.830	73843
632.892	76888
632.954	77923
633.016	78190
633.078	77634
633.141	77279
633.203	75935
633.265	76554
633.327	74387
633.389	76782
633.451	75989
633.513	76252
633.575	76838
633.637	77319
633.698	78260
633.760	81175
633.822	84979
633.884	87035
633.946	87872
634.008	89222
634.070	90650
634.132	95651
634.193	99874
634.255	103508
634.317	105484
634.379	106456
634.441	97296
634.502	91569
634.564	84561
634.626	80655
634.687	75360
634.749	73124
634.811	72195
634.873	72376
634.934	72828
634.996	72739
635.057	71298
635.119	73412
635.181	74750
635.242	74900
635.304	72997
635.365	76266
635.427	73753
635.488	73910
635.550	72798
635.611	73105
635.673	73113
635.734	77427
635.796	79984
635.857	85546
635.918	90587
635.980	96648
636.041	100409
636.102	106578
636.164	106604
636.225	105377
636.286	94234
636.348	85407
636.409	78906
636.470	75737
636.531	72185
636.593	70327
636.654	70291
636.715	67155
636.776	66175
636.838	65434
636.899	64006
636.960	63247
637.021	63551
637.082	61414
637.143	61209
637.204	58470
637.265	57944
637.326	60385
637.387	61951
637.448	61444
637.509	60232
637.570	60655
637.631	59780
637.692	59040
637.753	57083
637.814	56768
637.875	56686
637.936	56840
637.997	55810
638.058	56487
638.119	56282
638.179	57588
638.240	55131
638.301	55767
638.362	54955
638.423	53513
638.483	54518
638.544	51764
638.605	52424
638.666	53317
638.726	52271
638.787	52381
638.848	52821
638.908	51875
638.969	48748
639.030	49085
639.090	48878
639.151	49785
639.211	50166
639.272	50682
639.332	49508
639.393	51140
639.453	51734
639.514	55559
639.574	50478
639.635	46724
639.695	46141
639.756	45925
639.816	45697
639.877	45402
639.937	45165
639.997	46244
640.058	45003
640.118	45286
640.178	45836
640.239	45557
640.299	45281
640.359	46159
640.420	48555
640.480	51354
640.540	57039
640.600	60913
640.661	54969
640.721	53005
640.781	59210
640.841	63836
640.901	49804
640.961	46411
641.021	46826
641.082	49062
641.142	47511
641.202	45746
641.262	42246
641.322	44522
641.382	42649
641.442	43740
641.502	42864
641.562	43661
641.622	44429
641.682	46732
641.742	49414
641.802	50540
641.861	44348
641.921	41837
641.981	40891
642.041	40523
642.101	38285
642.161	39230
642.221	39359
642.280	40360
642.340	39210
642.400	40587
642.460	41686
642.519	41201
642.579	41564
642.639	41974
642.698	38917
642.758	44403
642.818	42748
642.877	41847
642.937	42601
642.997	42017
643.056	42069
643.116	40964
643.175	43746
643.235	44582
643.294	43729
643.354	47332
643.414	49738
643.473	54744
643.532	63570
643.592	76912
643.651	102552
643.711	150559
643.770	245356
643.830	467314
643.889	948987
643.948	575351
644.008	153902
644.067	84604
644.126	64362
644.186	54673
644.245	48308
644.304	44790
644.363	44442
644.423	42272
644.482	43325
644.541	44500
644.600	46633
644.659	54903
644.719	63262
644.778	80956
644.837	117364
644.896	200861
644.955	450482
645.014	310962
645.073	80472
645.132	53523
645.191	49808
645.250	47622
645.309	47882
645.368	52120
645.427	62619
645.486	85478
645.545	173378
645.604	92927
645.663	45239
645.722	43229
645.781	45467
645.840	49013
645.898	55751
645.957	70243
646.016	94940
646.075	140588
646.134	231719
646.192	466576
646.251	837228
646.310	349289
646.369	104755
646.427	74802
646.486	62798
646.545	48101
646.603	43015
646.662	40759
646.721	39663
646.779	38993
646.838	40650
646.896	46123
646.955	55377
647.014	78268
647.072	124334
647.131	297505
647.189	288088
647.248	61937
647.306	38933
647.365	35736
647.423	30754
647.481	32651
647.540	29812
647.598	32687
647.657	31227
647.715	31353
647.773	29411
647.832	29763
647.890	26857
647.948	27192
648.007	26518
648.065	26291
648.123	26471
648.181	27895
648.240	28144
648.298	28073
648.356	26333
648.414	25449
648.472	25466
648.531	24652
648.589	23996
648.647	25021
648.705	24175
648.763	24609
648.821	24492
648.879	26038
648.937	27950
648.995	31900
649.053	39408
649.111	51475
649.169	71704
649.227	112294
649.285	196483
649.343	488503
649.401	475045
649.459	100234
649.516	48171
649.574	41855
649.632	47858
649.690	63514
649.748	52707
649.806	64910
649.863	106495
649.921	216558
649.979	269699
650.037	57810
650.094	27345
650.152	24116
650.210	23529
650.268	23681
650.325	23994
650.383	29688
650.440	22284
650.498	19749
650.556	18526
650.613	18746
650.671	18683
650.728	18474
650.786	19284
650.843	23957
650.901	24386
650.958	17948
651.016	16924
651.073	16937
651.131	15877
651.188	16228
651.246	15037
651.303	14728
651.360	15809
651.418	15148
651.475	15729
651.532	15361
651.590	15842
651.647	14236
651.704	15591
651.762	15114
651.819	14858
651.876	13889
651.933	14108
651.990	14467
652.048	12720
652.105	13875
652.162	14220
652.219	14683
652.276	12813
652.333	14298
652.390	12657
652.448	13611
652.505	13048
652.562	14922
652.619	15147
652.676	17002
652.733	21261
652.790	14577
652.847	12500
652.904	13762
652.961	11520
653.017	11957
653.074	13190
653.131	13371
653.188	11158
653.245	12762
653.302	11883
653.359	12352
653.415	12599
653.472	12160
653.529	12788
653.586	12131
653.642	12268
653.699	13027
653.756	11506
653.813	11378
653.869	12686
653.926	12917
653.983	11497
654.039	12355
654.096	11776
654.152	12086
654.209	11327
654.266	11724
654.322	10690
654.379	11270
654.435	12135
654.492	11941
654.548	11180
654.605	11845
654.661	14055
654.717	12374
654.774	12594
654.830	12060
654.887	11570
654.943	12170
655.000	14933
655.056	15007
655.112	11855
655.168	11092
655.225	12183
655.281	12422
655.337	10351
655.394	11832
655.450	10924
655.506	11631
655.562	10942
655.618	11686
655.675	10343
655.731	11324
655.787	11208
655.843	11439
655.899	10238
655.955	12139
656.011	11069
656.067	11257
656.123	11430
656.179	11479
656.235	12158
656.291	12006
656.347	12737
656.403	10944
656.459	11540
656.515	12080
656.571	11777
656.627	10328
656.683	9994
656.739	12009
656.795	10598
656.850	10877
656.906	11456
656.962	12365
657.018	12662
657.074	14329
657.129	18102
657.185	24510
657.241	51620
657.297	57038
657.352	16913
657.408	11197
657.464	12193
657.519	10359
657.575	9620
657.630	9989
657.686	10394
657.742	10010
657.797	9797
657.853	9983
657.908	11582
657.964	9221
658.019	10442
658.075	9936
658.130	9713
658.186	9264
658.241	9567
658.297	8430
658.352	8171
658.407	9533
658.463	8875
658.518	9443
658.573	8483
658.629	8950
658.684	8815
658.739	9061
658.795	8163
658.850	9289
658.905	8867
658.960	8707
659.016	8142
659.071	8810
659.126	8090
659.181	8927
659.236	9097
659.291	10551
659.346	9228
659.401	9635
659.457	11049
659.512	14326
659.567	12033
659.622	9393
659.677	8701
659.732	8129
659.787	8234
659.842	8584
659.897	8584
659.952	9145
660.007	8313
660.061	8541
660.116	7744
660.171	7771
660.226	7877
660.281	9812
660.336	7567
660.391	8410
660.445	7771
660.500	9322
660.555	8527
660.610	8153
660.664	9418
660.719	8789
660.774	8378
660.828	8937
660.883	7843
660.938	8595
660.992	6897
661.047	8548
661.101	7657
661.156	7848
661.211	7129
661.265	7238
661.320	6599
661.374	9063
661.429	7718
661.483	8747
661.538	7368
661.592	7616
661.647	9331
661.701	13198
661.755	10617
661.810	8607
661.864	6964
661.919	7383
661.973	8115
662.027	7800
662.081	6722
662.136	7298
662.190	7576
662.244	7868
662.299	7594
662.353	8448
662.407	8441
662.461	6822
662.515	7241
662.569	7087
662.624	8116
662.678	6897
662.732	7187
662.786	7339
662.840	7228
662.894	8071
662.948	7481
663.002	8579
663.056	7522
663.110	6857
663.164	7306
663.218	8293
663.272	7111
663.326	7690
663.380	7468
663.434	7301
663.488	7350
663.542	7973
663.595	7835
663.649	7959
663.703	7547
663.757	7589
663.811	6740
663.864	7151
663.918	7680
663.972	6982
664.026	6315
664.079	7175
664.133	8368
664.187	8020
664.240	7851
664.294	8853
664.348	8339
664.401	7672
664.455	7394
664.508	7917
664.562	7527
664.615	7559
664.669	6998
664.722	7428
664.776	7018
664.829	7824
664.883	7946
664.936	6751
664.990	7503
665.043	7675
665.097	7491
665.150	7923
665.203	7218
665.257	7642
665.310	7194
665.363	7890
665.417	8796
665.470	8116
665.523	7821
665.576	8094
665.630	8997
665.683	7951
665.736	8313
665.789	8860
665.842	7265
665.895	7048
665.949	7635
666.002	7729
666.055	8472
666.108	8810
666.161	8973
666.214	8834
666.267	8280
666.320	8319
666.373	8905
666.426	9130
666.479	8463
666.532	9427
666.585	9282
666.638	10465
666.691	8633
666.744	10091
666.796	8645
666.849	9527
666.902	9203
666.955	9022
667.008	8366
667.060	9076
667.113	8257
667.166	8623
667.219	9328
667.271	10600
667.324	9586
667.377	9517
667.430	10006
667.482	9363
667.535	11047
667.587	9363
667.640	8696
667.693	8415
667.745	8814
667.798	9377
667.850	9370
667.903	8138
667.955	8712
668.008	9503
668.060	9792
668.113	7970
668.165	8647
668.218	9220
668.270	9147
668.322	8932
668.375	8394
668.427	9360
668.479	8159
668.532	8948
668.584	8306
668.636	8210
668.689	9092
668.741	8442
668.793	8507
668.845	8401
668.898	8065
668.950	8438
669.002	8601
669.054	8123
669.106	8363
669.158	8274
669.211	7604
669.263	8585
669.315	9152
669.367	10303
669.419	8849
669.471	8624
669.523	7450
669.575	8374
669.627	7959
669.679	7929
669.731	7462
669.783	8920
669.835	7896
669.886	8081
669.938	8071
669.990	8084
670.042	7001
670.094	6948
670.146	7764
670.197	8147
670.249	7203
670.301	6924
670.353	8021
670.404	7933
670.456	8328
670.508	8176
670.560	9424
670.611	11705
670.663	11469
670.715	18994
670.766	31745
670.818	20488
670.869	9740
670.921	9484
670.972	9109
671.024	8754
671.075	7981
671.127	7215
671.178	8156
671.230	9520
671.281	10232
671.333	12135
671.384	13071
671.436	16841
671.487	23464
671.538	30789
671.590	43210
671.641	67096
671.692	107187
671.744	204732
671.795	223963
671.846	105281
671.897	46134
671.949	28164
672.000	19630
672.051	15722
672.102	12893
672.153	10875
672.204	10153
672.256	9829
672.307	8766
672.358	8164
672.409	7447
672.460	7438
672.511	6997
672.562	6772
672.613	6303
672.664	6329
672.715	6857
672.766	6749
672.817	5342
672.868	6231
672.919	5431
672.970	5749
673.021	5870
673.071	5418
673.122	5117
673.173	5895
673.224	4823
673.275	5876
673.326	5493
673.376	5257
673.427	4709
673.478	4966
673.528	5672
673.579	6183
673.630	5617
673.680	5886
673.731	5161
673.782	5585
673.832	4947
673.883	5863
673.934	4475
673.984	5255
674.035	6236
674.085	5328
674.136	5599
674.186	6102
674.237	5696
674.287	5890
674.338	5661
674.388	6750
674.438	6032
674.489	7003
674.539	6463
674.589	6682
674.640	6349
674.690	6213
674.740	6011
674.791	6227
674.841	5820
674.891	5991
674.942	4369
674.992	4979
675.042	4574
675.092	4881
675.142	5195
675.193	4444
675.243	4134
675.293	5329
675.343	3856
675.393	5466
675.443	5835
675.493	5347
675.543	4554
675.593	3959
675.643	4843
675.693	5269
675.743	5134
675.793	4869
675.843	4409
675.893	4451
675.943	4999
675.993	3159
676.043	3614
676.093	5342
676.142	4429
676.192	5091
676.242	3802
676.292	5015
676.341	4129
676.391	3965
676.441	3958
676.491	4119
676.540	3732
676.590	3758
676.640	3794
676.689	3323
676.739	3302
676.789	4026
676.838	2777
676.888	3747
676.937	3206
676.987	4228
677.037	4204
677.086	4223
677.136	4071
677.185	3750
677.235	3912
677.284	3332
677.333	3448
677.383	3203
677.432	3122
677.482	3930
677.531	3919
677.580	4029
677.630	2835
677.679	3289
677.728	3521
677.778	3372
677.827	3372
677.876	3497
677.925	3220
677.975	5380
678.024	3858
678.073	4174
678.122	4183
678.171	4140
678.220	4157
678.269	5167
678.319	5199
678.368	5446
678.417	5040
678.466	4798
678.515	4542
678.564	4113
678.613	3344
678.662	3876
678.711	3521
678.760	3905
678.809	3410
678.857	3812
678.906	4305
678.955	4655
679.004	4012
679.053	4591
679.102	5021
679.151	4529
679.199	4209
679.248	3355
679.297	3423
679.346	3357
679.394	3003
679.443	2646
679.492	2731
679.540	2962
679.589	3010
679.638	3446
679.686	3648
679.735	4499
679.784	3964
679.832	6044
679.881	5118
679.929	4316
679.978	3402
680.026	3556
680.075	3342
680.123	3965
680.172	3114
680.220	3038
680.268	3050
680.317	3235
680.365	2506
680.414	2975
680.462	3054
680.510	2216
680.559	2944
680.607	3108
680.655	2906
680.703	3188
680.752	3056
680.800	3548
680.848	3348
680.896	2527
680.945	2799
680.993	2869
681.041	2288
681.089	2911
681.137	2752
681.185	3244
681.233	2302
681.258	2966
681.281	3581
681.329	2221
681.377	2402
681.380	2415
681.425	2330
681.473	3598
681.502	3625
681.521	3624
681.569	3989
681.617	3999
681.624	4010
681.665	3947
681.713	3430
681.745	3543
681.761	3574
681.809	4209
681.857	4148
681.867	3926
681.904	3094
681.952	3686
681.989	3646
682.000	3615
682.048	3013
682.096	3068
682.111	2918
682.143	2526
682.191	3145
682.233	3640
682.239	3704
682.286	3112
682.334	3986
682.354	3844
682.382	3614
682.430	3645
682.476	3569
682.477	3552
682.525	3894
682.572	3119
682.598	3392
682.620	3610
682.667	3799
682.715	3929
682.720	3879
682.763	3294
682.810	3910
682.841	3700
682.857	3559
682.905	3657
682.952	3111
682.963	3233
683.000	3612
683.047	3196
683.085	4190
683.095	4452
683.142	4030
683.190	3895
683.206	3776
683.237	3521
683.284	3258
683.328	3637
683.332	3648
683.379	4056
683.426	3755
683.449	3800
683.473	3883
683.521	3864
683.568	3468
683.571	3543
683.615	4308
683.662	4595
683.693	4337
683.709	4184
683.757	3584
683.804	4021
683.814	4028
683.851	3964
683.898	3321
683.936	4388
683.945	4660
683.992	2962
684.039	3890
684.057	3903
684.086	3874
684.133	3539
684.179	3918
684.180	3919
684.227	4064
684.274	3851
684.300	4237
684.321	4560
684.368	3608
684.415	4333
684.422	4405
684.462	4755
684.509	4261
684.543	4246
684.556	4221
684.603	4515
684.649	4244
684.665	4291
684.696	4411
684.743	4583
684.786	4868
684.790	4881
684.837	4586
684.883	4984
684.908	4744
684.930	4506
684.977	5359
685.023	5017
685.029	5051
685.070	5191
685.117	4850
685.150	4642
685.164	4564
685.210	4909
685.257	5277
685.272	5216
685.303	5144
685.350	5914
685.393	5037
685.396	4938
685.443	5072
685.490	4637
685.514	4327
685.536	4144
685.583	4679
685.629	4355
685.636	4362
685.675	4436
685.722	4862
685.757	4933
685.768	4909
685.815	5158
685.861	5153
685.878	5154
685.908	5270
685.954	4560
686.000	5247
686.000	5254
686.047	4837
686.093	5275
686.121	5331
686.139	5310
686.185	4804
686.232	5754
686.242	5615
686.278	5157
686.324	5035
686.363	5236
686.370	5277
686.416	5297
686.463	5643
686.484	5395
686.509	5078
686.555	5329
686.601	5411
686.606	5379
686.647	5085
686.693	5694
686.727	5149
686.739	4950
686.785	5296
686.831	5698
686.848	5644
686.877	5583
686.923	5204
686.969	5213
686.969	5212
687.015	5161
687.061	5834
687.090	5759
687.107	5760
687.153	6409
687.199	6700
687.211	6599
687.245	6162
687.291	5414
687.332	5593
687.336	5631
687.382	5693
687.428	5983
687.453	6308
687.474	6493
687.520	6467
687.565	6909
687.574	6801
687.611	6803
687.657	7514
687.695	8090
687.702	8277
687.748	9699
687.794	12966
687.816	13344
687.839	12998
687.885	10476
687.931	9697
687.937	9580
687.976	8440
688.022	7111
688.058	6682
688.067	6758
688.113	6452
688.158	6466
688.179	6356
688.204	6309
688.249	6455
688.295	6536
688.300	6521
688.340	6459
688.386	7033
688.421	6293
688.431	6034
688.477	6238
688.522	6424
688.542	6314
688.567	6560
688.613	6504
688.658	7574
688.663	7599
688.703	7442
688.749	7049
688.784	7426
688.794	7522
688.839	6980
688.884	6930
688.905	6994
688.930	7148
688.975	7499
689.020	7374
689.026	7339
689.065	7113
689.110	7529
689.146	7700
689.155	7798
689.201	7924
689.246	8844
689.267	8457
689.291	7767
689.336	7443
689.381	7427
689.388	7369
689.426	7223
689.471	6900
689.509	6730
689.516	6724
689.561	6754
689.606	6928
689.630	6982
689.651	7065
689.696	6632
689.741	6670
689.750	6780
689.785	7354
689.830	7529
689.871	7324
689.875	7296
689.920	7424
689.965	7551
689.992	7598
690.010	7642
690.054	7536
690.099	7709
690.112	7712
690.144	7623
690.189	7184
690.233	6987
690.233	6996
690.278	7700
690.323	7717
690.354	7959
690.367	7974
690.412	7603
690.457	7437
690.474	7302
690.501	7192
690.546	7175
690.590	7278
690.595	7264
690.635	7180
690.680	6808
690.716	7334
690.724	7491
690.769	7110
690.813	6919
690.836	7165
690.857	7531
690.902	7506
690.946	7927
690.957	7988
690.991	7974
691.035	7702
691.077	8010
691.080	8036
691.124	7604
691.168	7495
691.198	7639
691.213	7754
691.257	7447
691.301	7155
691.318	7408
691.346	7967
691.390	7785
691.434	8104
691.439	8139
691.478	8212
691.522	8126
691.559	8010
691.567	8047
691.611	8334
691.655	8071
691.680	8034
691.699	8015
691.743	8479
691.787	8326
691.800	8335
691.831	8172
691.875	7932
691.919	7649
691.921	7637
691.964	7955
692.008	7915
692.041	7741
692.052	7719
692.096	7921
692.139	7940
692.162	8013
692.183	8163
692.227	8396
692.271	8721
692.282	8711
692.315	8392
692.359	8058
692.402	7774
692.403	7789
692.447	7809
692.490	8307
692.523	8325
692.534	8285
692.578	8386
692.622	7982
692.643	8077
692.666	8211
692.709	7779
692.753	7625
692.763	7598
692.797	7758
692.840	8078
692.884	7819
692.884	7833
692.928	8250
692.971	8360
693.004	8234
693.015	8168
693.059	8038
693.102	7974
693.124	7832
693.146	7789
693.189	7967
693.233	7923
693.245	7968
693.276	8388
693.320	8798
693.363	9026
693.365	9015
693.407	8737
693.450	8687
693.485	8424
693.493	8429
693.537	8689
693.580	8624
693.605	8752
693.624	8802
693.667	8591
693.710	8527
693.725	8527
693.753	8517
693.797	8246
693.840	8007
693.845	7964
693.883	8186
693.926	8430
693.966	8683
693.970	8691
694.013	8696
694.056	8419
694.086	8236
694.099	8269
694.142	8566
694.185	8576
694.206	8711
694.229	8821
694.272	8566
694.315	8843
694.326	8791
694.358	8625
694.401	8521
694.444	8322
694.446	8299
694.487	8604
694.530	8916
694.566	9067
694.573	9071
694.616	8901
694.659	8902
694.686	8880
694.702	8995
694.745	9279
694.787	9465
694.806	9577
694.830	9607
694.873	9512
694.916	9327
694.926	9310
694.959	9534
695.002	9737
695.044	9797
695.046	9794
695.087	10363
695.130	10510
695.166	10805
695.172	10799
695.215	10430
695.258	10226
695.286	10019
695.301	10257
695.343	10814
695.386	11445
695.406	11773
695.428	12040
695.471	12358
695.514	12876
695.526	12963
695.556	14331
695.599	16434
695.641	18216
695.646	18378
695.684	17563
695.726	16536
695.766	15608
695.769	15603
695.811	15153
695.854	14701
695.886	14254
695.896	14252
695.938	14137
695.981	14036
696.005	13951
696.023	14324
696.065	15148
696.108	16149
696.125	16408
696.150	16997
696.192	18164
696.235	19098
696.245	19356
696.277	19331
696.319	19028
696.361	18914
696.365	18834
696.404	18304
696.446	17992
696.485	17548
696.488	17592
696.530	17654
696.572	17703
696.604	17854
696.614	17884
696.656	17667
696.698	17519
696.724	17279
696.740	17384
696.783	17805
696.825	18060
696.844	18148
696.867	18314
696.909	18608
696.951	18780
696.964	18835
696.992	18793
697.034	18620
697.076	18405
697.083	18352
697.118	19412
697.160	20460
697.202	21652
697.203	21632
697.244	21170
697.286	20786
697.323	20344
697.327	20395
697.369	20434
697.411	20480
697.442	20492
697.453	20577
697.494	20743
697.536	20880
697.562	20905
697.578	20947
697.620	20933
697.661	20863
697.682	20870
697.703	21452
697.744	22393
697.786	23397
697.801	23645
697.828	23470
697.869	23261
697.911	22966
697.921	22864
697.952	22985
697.994	23022
698.035	23064
698.040	23005
698.077	23021
698.118	23089
698.160	23113
698.160	23058
698.201	23654
698.243	24129
698.279	24541
698.284	24668
698.325	25302
698.367	25908
698.399	26347
698.408	26501
698.449	26904
698.491	27329
698.518	27536
698.532	27643
698.573	27778
698.614	27922
698.638	27934
698.656	28093
698.697	28319
698.738	28504
698.757	28549
698.779	28313
698.820	27705
698.862	27104
698.877	26818
698.903	27030
698.944	27262
698.985	27501
698.996	27504
699.026	27430
699.067	27234
699.116	26940
699.235	27966
699.354	27031
699.474	25128
699.593	24057
699.713	25658
699.832	25118
699.951	26499
700.070	26575
700.190	24492
700.309	23204
700.428	22966
700.547	23673
700.667	21524
700.786	22664
700.905	21785
701.024	22873
701.143	21577
701.262	22537
701.381	23984
701.500	23680
701.619	23196
701.738	23175
701.857	23232
701.976	21585
702.095	21715
702.214	23230
702.333	21844
702.452	23297
702.571	22809
702.690	24056
702.809	23219
702.928	21664
703.047	21086
703.165	21022
703.284	22403
703.403	19891
703.522	21467
703.640	19756
703.759	21170
703.878	18785
703.997	19572
704.115	20074
704.234	19132
704.353	20760
704.471	19583
704.590	18386
704.708	18345
704.827	18151
704.946	18398
705.064	17417
705.183	19154
705.301	17021
705.420	17767
705.538	16770
705.656	16899
705.775	17234
705.893	25118
706.012	37836
706.130	18260
706.249	16908
706.367	16438
706.485	15907
706.604	15295
706.722	15807
706.840	18788
706.958	28649
707.077	27506
707.195	15755
707.313	16198
707.431	13731
707.549	14867
707.668	13767
707.786	16142
707.904	15164
708.022	15271
708.140	15225
708.258	13001
708.376	15636
708.494	13801
708.612	14614
708.730	15723
708.848	14165
708.966	13945
709.084	14082
709.202	15466
709.320	13422
709.438	13316
709.556	14281
709.674	12214
709.791	12620
709.909	12842
710.027	12282
710.145	12413
710.263	11690
710.380	12258
710.498	11348
710.616	11751
710.733	11370
710.851	11944
710.969	12354
711.086	11981
711.204	11894
711.322	12250
711.439	11449
711.557	10630
711.674	10658
711.792	10620
711.909	11966
712.027	14217
712.144	11728
712.262	10617
712.379	10587
712.497	11708
712.614	9649
712.732	11172
712.849	10967
712.966	9919
713.084	12242
713.201	9700
713.318	9997
713.436	12653
713.553	10916
713.670	12126
713.787	11593
713.905	10853
714.022	11007
714.139	12875
714.256	13873
714.373	19544
714.490	35943
714.608	82608
714.725	326007
714.842	585868
714.959	83739
715.076	22273
715.193	16151
715.310	15216
715.427	10200
715.544	10755
715.661	10943
715.778	9878
715.895	9291
716.011	10782
716.128	8939
716.245	9964
716.362	9653
716.479	8118
716.596	9328
716.713	9491
716.829	8795
716.946	8238
717.063	7763
717.180	7828
717.296	7736
717.413	8548
717.530	8092
717.646	7113
717.763	7300
717.880	7840
717.996	6926
718.113	6557
718.229	7842
718.346	7113
718.462	7361
718.579	7146
718.695	8318
718.812	8250
718.928	7118
719.045	7322
719.161	6049
719.277	7715
719.394	8190
719.510	8913
719.626	8755
719.743	11094
719.859	16413
719.975	34144
720.092	115103
720.208	379052
720.324	103455
720.440	13975
720.557	9222
720.673	9798
720.789	8005
720.905	6752
721.021	7299
721.137	6973
721.253	5848
721.369	6692
721.486	6585
721.602	6201
721.718	5898
721.834	6028
721.950	6507
722.066	6595
722.181	6053
722.297	6683
722.413	5725
722.529	6568
722.645	6182
722.761	6046
722.877	6336
722.993	6281
723.108	8861
723.224	8892
723.340	6859
723.456	6327
723.571	5476
723.687	4735
723.803	5419
723.918	6104
724.034	5691
724.150	5484
724.265	5251
724.381	4836
724.497	4613
724.612	4864
724.728	5924
724.843	4291
724.959	4817
725.074	5804
725.190	5252
725.305	5458
725.421	4251
725.536	6044
725.651	5500
725.767	5265
725.882	5113
725.997	5535
726.113	5261
726.228	5551
726.343	3971
726.459	4637
726.574	5201
726.689	3964
726.804	5642
726.920	5274
727.035	5148
727.150	5984
727.265	5087
727.380	5547
727.495	5620
727.610	5007
727.725	5118
727.841	6380
727.956	11966
728.071	14373
728.186	5033
728.301	4415
728.416	5268
728.531	4974
728.645	4171
728.760	5113
728.875	4195
728.990	4699
729.105	4541
729.220	5888
729.335	4844
729.449	5742
729.564	4815
729.679	4479
729.794	5530
729.908	5848
730.023	4517
730.138	5345
730.253	5930
730.367	5135
730.482	4998
730.596	5140
730.711	6820
730.826	10538
730.940	14814
731.055	8702
731.169	7527
731.284	8484
731.398	8562
731.513	8509
731.627	8653
731.742	11950
731.856	16608
731.970	16464
732.085	18828
732.199	25486
732.313	43037
732.428	98896
732.542	303751
732.656	305854
732.771	59613
732.885	27847
732.999	23700
733.113	24909
733.227	24734
733.342	23483
733.456	22549
733.570	21583
733.684	20570
733.798	19855
733.912	20041
734.026	21011
734.140	19470
734.254	19865
734.368	18454
734.482	17798
734.596	19011
734.710	18429
734.824	18670
734.938	17285
735.052	18882
735.166	17838
735.280	17720
735.393	16569
735.507	17237
735.621	17461
735.735	15734
735.849	17352
735.962	15669
736.076	16890
736.190	16410
736.303	16727
736.417	16631
736.531	14690
736.644	16584
736.758	15581
736.872	15910
736.985	14857
737.099	16205
737.212	14420
737.326	14975
737.439	15165
737.553	14298
737.666	14465
737.780	13386
737.893	14630
738.007	13420
738.120	16482
738.233	12482
738.347	15508
738.460	12523
738.573	15079
738.687	13615
738.800	13535
738.913	14062
739.026	13845
739.140	11998
739.253	14625
739.366	13109
739.479	12710
739.592	13989
739.705	11661
739.818	13381
739.932	12277
740.045	11391
740.158	13503
740.271	11922
740.384	13261
740.497	10246
740.610	13105
740.723	11081
740.836	10955
740.949	10912
741.062	13788
741.174	11176
741.287	11067
741.400	12354
741.513	10899
741.626	11690
741.739	11910
741.851	10623
741.964	10777
742.077	11935
742.189	8611
742.302	12118
742.415	11063
742.527	10321
742.640	12125
742.753	8740
742.865	9597
742.978	10748
743.090	10182
743.203	10231
743.316	9788
743.428	8892
743.541	10364
743.653	8020
743.766	9012
743.878	10965
743.990	8830
744.103	9778
744.215	11365
744.327	8677
744.440	11740
744.552	10146
744.664	8287
744.777	9710
744.889	9289
745.001	8521
745.113	10040
745.226	9900
745.338	8233
745.450	9614
745.562	9595
745.674	7737
745.786	9299
745.898	8909
746.010	8404
746.122	9181
746.234	8967
746.347	8752
746.459	8469
746.570	6735
746.682	8551
746.794	14078
746.906	9725
747.018	7658
747.130	9343
747.242	7293
747.354	6634
747.466	8121
747.577	7763
747.689	7688
747.801	8711
747.913	7133
748.024	7794
748.136	6599
748.248	7226
748.359	6809
748.471	7714
748.583	7443
748.694	6809
748.806	9077
748.918	6767
749.029	6997
749.141	7096
749.252	7884
749.364	6309
749.475	6526
749.587	6792
749.698	5551
749.809	7097
749.921	6911
750.032	7131
750.144	4927
750.255	6077
750.366	6451
750.478	5569
750.589	6919
750.700	5368
750.811	6188
750.923	5946
751.034	5272
751.145	7449
751.256	6270
751.367	5611
751.479	5563
751.590	5360
751.701	5734
751.812	5313
751.923	5103
752.034	5895
752.145	6959
752.256	6684
752.367	5832
752.478	6047
752.589	6561
752.700	6365
752.811	5009
752.922	6303
753.032	6351
753.143	6478
753.254	5634
753.365	5728
753.476	6373
753.586	6078
753.697	5063
753.808	5492
753.919	5445
754.029	6087
754.140	4918
754.251	4015
754.361	5316
754.472	6424
754.582	4879
754.693	4578
754.804	6982
754.914	5627
755.025	3688
755.135	4978
755.246	5795
755.356	6211
755.466	4251
755.577	4120
755.687	5320
755.798	5444
755.908	4696
756.018	4837
756.129	4588
756.239	5722
756.349	5608
756.460	5693
756.570	5423
756.680	5075
756.790	4708
756.900	5855
757.011	4825
757.121	3885
757.231	4843
757.341	5139
757.451	4067
757.561	4311
757.671	4227
757.781	5394
757.891	5052
758.001	4112
758.111	4474
758.221	5300
758.331	4825
758.441	5626
758.551	4565
758.661	5821
758.771	5402
758.880	5644
758.990	4844
759.100	4512
759.210	4818
759.320	5305
759.429	5585
759.539	5884
759.649	4871
759.758	6831
759.868	7357
759.978	6187
760.087	7435
760.197	6920
760.307	7642
760.416	6542
760.526	5553
760.635	5949
760.745	7164
760.854	7331
760.964	8822
761.073	9173
761.182	8235
761.292	7882
761.401	5708
761.511	5127
761.620	4275
761.729	4370
761.839	3584
761.948	4685
762.057	3823
762.166	3823
762.276	4144
762.385	4479
762.494	4217
762.603	3074
762.712	3872
762.822	3792
762.931	3728
763.040	2906
763.149	3479
763.258	3251
763.367	4384
763.476	3284
763.585	2665
763.694	3855
763.803	3034
763.912	3881
764.021	2834
764.130	3829
764.238	3818
764.347	4113
764.456	3424
764.565	3308
764.674	3020
764.783	2959
764.891	2967
765.000	4351
765.109	3946
765.217	1796
765.326	3607
765.435	2651
765.543	3258
765.652	2778
765.761	2249
765.869	3054
765.978	2431
766.086	3294
766.195	4111
766.303	5311
766.412	11802
766.520	19828
766.629	3818
766.737	3398
766.846	3312
766.954	2333
767.062	4802
767.171	6670
767.279	5012
767.387	3702
767.496	1650
767.604	2968
767.712	3253
767.820	1632
767.928	3269
768.037	3080
768.145	3337
768.253	2995
768.361	1994
768.469	2472
768.577	1792
768.685	3175
768.793	4151
768.901	3924
769.009	4042
769.117	2291
769.225	3351
769.333	3500
769.441	3439
769.549	4203
769.657	2932
769.765	5269
769.873	11923
769.981	8119
770.088	4118
770.196	4103
770.304	4412
770.412	4942
770.519	4438
770.627	4515
770.735	4539
770.842	4586
770.950	5294
771.058	5030
771.165	7168
771.273	8625
771.380	7920
771.488	10431
771.595	15602
771.703	12403
771.810	12177
771.918	11873
772.025	14553
772.133	18575
772.240	17361
772.348	18780
772.455	18698
772.562	16491
772.670	15764
772.777	16815
772.884	16990
772.991	15928
773.099	16426
773.206	14697
773.313	15754
773.420	16342
773.528	15165
773.635	14390
773.742	16159
773.849	14186
773.956	15536
774.063	14318
774.170	14857
774.277	13964
774.384	14679
774.491	14393
774.598	14193
774.705	14476
774.812	14652
774.919	13427
775.026	14691
775.133	13184
775.239	13600
775.346	13485
775.453	12896
775.560	13790
775.667	12415
775.773	13307
775.880	11877
775.987	12875
776.093	12058
776.200	13564
776.307	11777
776.413	10794
776.520	13106
776.627	12977
776.733	9968
776.840	10299
776.946	13944
777.053	14390
777.159	16694
777.266	12693
777.372	15234
777.478	16241
777.585	14092
777.691	10127
777.798	11631
777.904	12115
778.010	10177
778.117	12410
778.223	10214
778.329	10905
778.435	8612
778.542	10644
778.648	10611
778.754	9035
778.860	10379
778.966	11561
779.072	9333
779.178	10100
779.284	8924
779.391	8791
779.497	10832
779.603	10228
779.708	8947
779.815	7864
779.920	9426
780.026	8394
780.132	8507
780.238	10380
780.344	7063
780.450	10422
780.556	8732
780.661	6553
780.767	10643
780.873	7801
780.979	7417
781.085	9882
781.190	8290
781.296	7361
781.402	8161
781.507	8640
781.613	7894
781.719	7493
781.824	9051
781.930	8591
782.035	6691
782.141	10899
782.246	6223
782.352	6546
782.457	7316
782.563	7359
782.668	7932
782.773	7414
782.879	5781
782.984	7127
783.090	8114
783.195	6992
783.300	8733
783.405	7026
783.511	6034
783.616	5991
783.721	7524
783.826	7829
783.932	5924
784.037	7933
784.142	6902
784.247	6836
784.352	7919
784.457	6721
784.562	6155
784.667	8616
784.772	6330
784.877	4457
784.982	6205
785.087	7117
785.192	5465
785.297	6392
785.402	7181
785.507	6476
785.611	7057
785.716	5153
785.821	5749
785.926	6621
786.031	6317
786.135	5162
786.240	6120
786.345	5552
786.450	4332
786.554	5037
786.659	5913
786.763	5126
786.868	6016
786.973	5980
787.077	5140
787.182	5491
787.286	5818
787.391	6950
787.495	4433
787.600	4286
787.704	5311
787.809	5576
787.913	4852
788.017	4453
788.122	6176
788.226	4889
788.330	3397
788.435	4532
788.539	5478
788.643	4998
788.747	3135
788.852	4290
788.956	5194
789.060	5159
789.164	4994
789.268	4592
789.372	5627
789.476	4458
789.580	3969
789.684	3277
789.788	6311
789.892	5161
789.996	4166
790.100	2664
790.204	3937
790.308	6023
790.412	3259
790.516	3350
790.620	3321
790.724	5851
790.828	4660
790.931	3064
791.035	3702
791.139	3919
791.242	4449
791.346	4325
791.450	3971
791.554	4123
791.657	2585
791.761	3869
791.864	3900
791.968	4867
792.072	4974
792.175	3613
792.279	3176
792.382	3590
792.486	3489
792.589	3600
792.693	4774
792.796	3950
792.899	3223
793.003	3927
793.106	3075
793.209	4044
793.313	3676
793.416	1810
793.519	2230
793.623	4240
793.726	4881
793.829	3397
793.932	2321
794.035	2451
794.138	4278
794.242	5387
794.345	3052
794.448	2098
794.551	2288
794.654	4091
794.757	3879
794.860	2697
794.963	3693
795.066	3412
795.169	2780
795.272	3620
795.375	3892
795.477	2786
795.580	2578
795.683	1830
795.786	3615
795.889	3185
795.991	3102
796.094	2750
796.197	3132
796.300	3487
796.402	3630
796.505	1831
796.608	2016
796.710	2589
796.813	3060
796.915	4212
797.018	3488
797.120	3174
797.223	2787
797.326	3406
797.428	3796
797.530	1392
797.633	2379
797.735	3083
797.838	2641
797.940	4017
798.042	2644
798.145	2734
798.247	3087
798.349	1562
798.452	3054
798.554	2798
798.656	2979
798.758	3138
798.860	3182
798.962	2440
799.065	1732
799.167	1757
799.269	1886
799.371	3079
799.473	3732
799.575	4211
799.677	2969
799.779	2594
799.881	1834
799.983	3452
800.085	1874
800.187	1915
800.289	1868
800.390	2102
800.492	3445
800.594	3241
800.696	2003
800.798	1864
800.899	1954
801.001	2495
801.103	2231
801.205	1752
801.306	2111
801.408	2180
801.509	1933
801.611	2668
801.713	2722
801.814	2086
801.916	1179
802.017	1911
802.119	1338
802.220	1410
802.322	1519
802.423	2866
802.525	1723
802.626	1887
802.727	2113
802.829	3206
802.930	-110
803.031	2400
803.133	2128
803.234	2547
803.335	2964
803.436	2073
803.538	1629
803.639	956
803.740	1780
803.841	1296
803.942	2369
804.043	2700
804.144	438
804.245	1344
804.346	1591
804.447	2482
804.548	1801
804.649	2495
804.750	694
804.851	1531
804.952	1996
805.053	1562
805.154	1092
805.255	2834
805.355	2345
805.456	2280
805.557	1945
805.658	960
805.758	1917
805.859	1343
805.960	1450
806.061	2074
806.161	2252
806.262	879
806.362	1499
806.463	1130
806.564	2020
806.664	2571
806.765	1566
806.865	1107
806.966	1063
807.066	421
807.166	1672
807.267	2469
807.367	1078
807.468	1705
807.568	404
807.668	1539
807.769	2058
807.869	2230
807.969	1942
808.069	1455
808.170	1363
808.270	1012
808.370	1932
808.470	2256
808.570	596
808.670	1141
808.770	1482
808.870	1039
808.970	1335
809.070	1418
809.170	639
809.271	1834
809.370	1306
809.470	1589
809.570	954
809.670	662
809.770	1414
809.870	2556
809.970	1300
810.070	1747
810.169	1874
810.269	44
810.369	2224
810.469	1581
810.568	1192
810.668	2034
810.768	1221
810.867	1664
810.967	853
811.066	652
811.166	1681
811.265	1857
811.365	1027
811.464	1878
811.564	2505
811.663	1329
811.763	1579
811.862	2179
811.962	2058
812.061	963
812.160	1191
812.260	1480
812.359	669
812.458	1055
812.557	1840
812.657	1274
812.756	1257
812.855	923
812.954	205
813.053	1469
813.153	156
813.252	894
813.351	870
813.450	1431
813.549	1084
813.648	1350
813.747	1559
813.846	1961
813.945	1870
814.044	1931
814.143	1898
814.242	1977
814.341	1267
814.439	2315
814.538	1731
814.637	1407
814.736	2507
814.835	3568
814.933	2865
815.032	3620
815.131	5244
815.229	8749
815.328	15008
815.427	12474
815.525	9754
815.624	8876
815.722	8161
815.821	10073
815.919	9583
816.018	9756
816.116	9857
816.215	9105
816.313	9812
816.412	11276
816.510	12903
816.609	12768
816.707	13119
816.805	13785
816.904	11245
817.002	12598
817.100	11911
817.198	13018
817.296	12351
817.395	11651
817.493	12429
817.591	10493
817.689	10102
817.787	10737
817.885	11076
817.983	9240
818.081	10622
818.179	9722
818.277	12637
818.375	12207
818.473	10625
818.571	9922
818.669	10593
818.767	12969
818.865	10096
818.963	8703
819.061	9416
819.158	9928
819.256	11723
819.354	9882
819.452	9328
819.549	9869
819.647	10918
819.745	9937
819.842	8890
819.940	10023
820.038	8986
820.135	8417
820.233	9380
820.330	9527
820.428	8146
820.525	9978
820.623	8924
820.720	7854
820.818	9371
820.915	9863
821.012	9043
821.110	7355
821.207	8224
821.304	8141
821.402	9155
821.499	9509
821.596	8703
821.693	8005
821.791	8983
821.888	7596
821.985	8670
822.082	8078
822.179	7546
822.276	9526
822.373	8252
822.470	6124
822.567	8014
822.664	7837
822.761	6398
822.858	8905
822.955	7542
823.052	6432
823.149	7458
823.246	8315
823.343	6178
823.440	5873
823.536	6991
823.633	8040
823.730	5377
823.827	7025
823.923	6809
824.020	5586
824.117	7144
824.213	9006
824.310	7175
824.407	5327
824.503	6485
824.600	7211
824.696	4907
824.793	7928
824.889	6963
824.986	7060
825.082	3766
825.179	4875
825.275	5930
825.371	8244
825.468	6187
825.564	3214
825.660	5689
825.757	8709
825.853	6793
825.949	5157
826.045	5588
826.142	5336
826.238	6754
826.334	7024
826.430	5428
826.526	5094
826.622	3122
826.718	5671
826.814	7219
826.910	7136
827.006	3705
827.102	2698
827.198	5753
827.294	7189
827.390	6313
827.486	5555
827.582	2585
827.678	4239
827.774	6392
827.869	5087
827.965	3322
828.061	3467
828.157	4730
828.252	6330
828.348	4938
828.444	4181
828.539	3279
828.635	5925
828.731	4677
828.826	3394
828.922	4334
829.017	5287
829.113	6201
829.208	3168
829.304	3612
829.399	5893
829.495	6166
829.590	4057
829.685	4333
829.781	4565
829.876	6090
829.971	2627
830.066	2248
830.162	3388
830.257	6498
830.352	6219
830.447	3190
830.543	3416
830.638	3788
830.733	6088
830.828	3843
830.923	4592
831.018	4032
831.113	5445
831.208	4140
831.303	2329
831.398	2242
831.493	3639
831.588	6171
831.683	5468
831.778	2783
831.873	2908
831.967	4450
832.062	4223
832.157	4352
832.252	3655
832.346	3256
832.441	4456
832.536	3369
832.631	3733
832.725	2810
832.820	2205
832.914	4498
833.009	2147
833.104	2147
833.198	2261
833.293	2611
833.387	5018
833.482	4018
833.576	3688
833.670	3949
833.765	3533
833.859	4033
833.954	4388
834.048	4195
834.142	2891
834.237	1477
834.331	2438
834.425	3674
834.519	3655
834.613	3563
834.708	2444
834.802	1601
834.896	2945
834.990	3610
835.084	2528
835.178	1617
835.272	2306
835.366	4023
835.460	4386
835.554	2814
835.648	2644
835.742	664
835.836	1798
835.930	2208
836.024	3640
836.117	2469
836.211	3401
836.305	2186
836.399	2356
836.493	1834
836.586	3453
836.680	3224
836.774	2653
836.867	1507
836.961	1099
837.055	1401
837.148	1926
837.242	3041
837.335	2671
837.429	2984
837.522	1872
837.616	1745
837.709	2210
837.803	1039
837.896	2701
837.989	3671
838.083	1599
838.176	648
838.269	798
838.363	1563
838.456	2168
838.549	2882
838.642	2772
838.735	1439
838.829	2194
838.922	2079
839.015	1996
839.108	2203
839.201	2622
839.294	2995
839.387	2967
839.480	1459
839.573	1988
839.666	1017
839.759	1431
839.852	1402
839.945	2747
840.038	1764
840.131	1537
840.223	1046
840.316	2236
840.409	1585
840.502	2339
840.594	3177
840.687	1314
840.780	1382
840.873	715
840.965	862
841.058	1414
841.150	2716
841.243	1708
841.336	1536
841.428	1771
841.521	1338
841.613	1592
841.706	1773
841.798	761
841.890	2427
841.983	897
842.075	714
842.167	306
842.260	1426
842.352	1965
842.444	1887
842.537	720
842.629	1534
842.721	550
842.813	1862
842.905	1793
842.997	1441
843.090	1897
843.182	1592
843.274	37
843.366	1237
843.458	904
843.550	2475
843.642	1459
843.734	1669
843.826	1104
843.918	934
844.009	1667
844.101	1244
844.193	1330
844.285	1296
844.377	2720
844.469	1028
844.560	921
844.652	1040
844.744	1678
844.835	199
844.927	1004
845.019	2000
845.110	1100
845.202	1450
845.293	1097
845.385	107
845.476	829
845.568	681
845.659	1641
845.751	526
845.842	742
845.934	806
846.025	1621
846.116	785
846.208	1253
846.299	782
846.390	267
846.482	879
846.573	966
846.664	1149
846.755	1137
846.846	771
846.937	501
847.029	149
847.120	286
847.211	795
847.302	1634
847.393	1222
847.484	1486
847.575	-591
847.666	623
847.757	448
847.847	456
847.938	1346
848.029	1544
848.120	1420
848.211	104
848.302	906
848.392	647
848.483	589
848.574	615
848.664	1771
848.755	1355
848.846	446
848.936	687
849.027	809
849.118	576
849.208	671
849.299	1430
849.389	3941
849.480	6136
849.570	10552
849.661	17234
849.751	37101
849.841	25386
849.932	3816
850.022	1721
850.112	1583
850.203	1109
850.293	1037
850.383	450
850.474	-220
850.564	752
850.654	717
850.744	261
850.834	566
850.924	435
851.014	1199
851.104	1069
851.194	177
851.284	1048
851.374	8
851.464	216
851.554	37
851.644	32
851.734	950
851.824	1285
851.914	401
852.004	1587
852.094	748
852.183	-220
852.273	971
852.363	396
852.452	-22
852.542	1596
852.632	-402
852.721	720
852.811	-73
852.901	683
852.990	1569
853.080	1688
853.169	949
853.259	1122
853.348	1944
853.438	2854
853.527	2560
853.617	3349
853.706	6239
853.795	11167
853.885	23986
853.974	43838
854.063	68844
854.152	119808
854.242	79845
854.331	21069
854.420	6449
854.509	4582
854.598	3409
854.687	2813
854.777	2638
854.866	1750
854.955	2098
855.044	1150
855.133	1269
855.222	1500
855.311	783
855.400	1614
855.488	951
855.577	338
855.666	1130
855.755	1108
855.844	1382
855.933	1584
856.021	1378
856.110	559
856.199	286
856.288	78
856.376	-320
856.465	-70
856.554	179
856.642	647
856.731	1537
856.819	1008
856.908	536
856.996	877
857.085	66
857.173	27
857.262	278
857.350	336
857.438	326
857.527	262
857.615	1091
857.703	1236
857.792	403
857.880	-95
857.968	-357
858.056	772
858.145	69
858.233	359
858.321	680
858.409	791
858.497	258
858.585	-118
858.673	498
858.761	-252
858.849	112
858.937	345
859.025	647
859.113	1324
859.201	-216
859.289	1193
859.377	1022
859.465	1063
859.552	156
859.640	-245
859.728	954
859.816	709
859.903	82
859.991	292
860.079	657
860.166	1515
860.254	961
860.342	1695
860.429	202
860.517	737
860.604	370
860.692	993
860.779	195
860.867	294
860.954	676
861.042	1355
861.129	1128
861.216	1487
861.304	529
861.391	1532
861.478	264
861.565	1284
861.653	334
861.740	356
861.827	490
861.914	197
862.001	151
862.089	434
862.176	1306
862.263	525
862.350	620
862.437	829
862.524	482
862.611	1366
862.698	1111
862.785	2017
862.871	1846
862.958	2149
863.045	1229
863.132	1308
863.219	843
863.306	945
863.392	1264
863.479	456
863.566	1091
863.652	1973
863.739	973
863.826	1254
863.912	1114
863.999	867
864.086	1028
864.172	1707
864.259	2515
864.345	2152
864.432	1730
864.518	2255
864.604	1469
864.691	1854
864.777	2663
864.863	3333
864.950	4817
865.036	7109
865.122	11693
865.209	15143
865.295	13739
865.381	12486
865.467	12131
865.553	11916
865.639	12120
865.726	14234
865.812	20890
865.898	31621
865.984	43133
866.070	62096
866.156	89563
866.242	47741
866.328	18806
866.414	12421
866.499	11386
866.585	11163
866.671	10007
866.757	9129
866.843	9784
866.928	9053
867.014	9461
867.100	11011
867.186	9457
867.271	8776
867.357	9159
867.442	9370
867.528	9107
867.614	9640
867.699	8815
867.785	9750
867.870	8424
867.956	9377
868.041	9037
868.127	8789
868.212	8497
868.297	7953
868.383	8618
868.468	8112
868.553	8971
868.639	8028
868.724	8344
868.809	8313
868.894	8275
868.979	7570
869.065	8197
869.150	6942
869.235	7181
869.320	8538
869.405	7380
869.490	6874
869.575	7990
869.660	6566
869.745	6539
869.830	9557
869.915	8104
870.000	7684
870.085	6993
870.169	7933
870.254	10044
870.339	7148
870.424	5305
870.509	7677
870.593	7971
870.678	8949
870.763	7080
870.847	5829
870.932	7169
871.016	9018
871.101	6320
871.186	5736
871.270	8827
871.355	6516
871.439	5099
871.523	7403
871.608	7286
871.692	5246
871.777	7679
871.861	7618
871.945	5631
872.030	6544
872.114	6351
872.198	6398
872.282	4979
872.367	5822
872.451	6502
872.535	5915
872.619	6774
872.703	5973
872.787	5615
872.871	7079
872.955	5476
873.039	3710
873.123	5200
873.207	7027
873.291	4878
873.375	4415
873.459	6237
873.543	6430
873.627	4841
873.711	4945
873.794	5612
873.878	6218
873.962	3978
874.045	4486
874.129	4368
874.137	4447
874.213	5239
874.245	5479
874.296	5874
874.352	4774
874.380	4233
874.460	5050
874.464	5084
874.547	4773
874.568	4970
874.631	5544
874.676	5505
874.714	5484
874.784	6372
874.798	6536
874.881	6104
874.892	5761
874.965	3511
874.999	3916
875.048	4417
875.107	5616
875.131	6098
875.215	3961
875.215	3960
875.298	2533
875.323	3008
875.381	4277
875.430	5127
875.465	5607
875.538	5951
875.548	5994
875.631	4435
875.646	4299
875.714	3777
875.753	3669
875.798	3649
875.861	4747
875.881	4996
875.964	5392
875.968	5307
876.047	3966
876.076	4005
876.130	4153
876.183	4832
876.213	5222
876.291	5307
876.296	5297
876.379	4481
876.398	4303
876.462	3792
876.506	3705
876.545	3644
876.613	3187
876.628	3122
876.711	4583
876.721	4702
876.794	5549
876.828	5696
876.877	5695
876.935	4644
876.960	4293
877.043	3370
877.043	3375
877.125	4752
877.150	5029
877.208	5698
877.258	5893
877.291	5816
877.365	3752
877.374	3566
877.456	3329
877.472	3390
877.539	3463
877.579	3928
877.622	4635
877.687	4935
877.704	4952
877.787	4330
877.794	4341
877.869	4534
877.901	4977
877.952	5375
878.008	4323
878.034	3913
878.115	2471
878.117	2452
878.199	3868
878.222	3975
878.282	4457
878.329	5120
878.364	5361
878.437	5668
878.447	5660
878.529	4136
878.544	3949
878.611	3499
878.651	3745
878.694	4275
878.758	4914
878.776	5020
878.858	5329
878.865	5329
878.941	4693
878.972	4241
879.023	3951
879.078	3658
879.105	3652
879.185	4814
879.187	4832
879.269	4737
879.292	4852
879.351	5113
879.399	4950
879.433	4686
879.506	3624
879.516	3559
879.598	4297
879.613	4253
879.680	3909
879.720	4319
879.762	4875
879.827	4966
879.844	4920
879.926	3957
879.933	4011
880.007	4590
880.040	4288
880.089	3939
880.147	4145
880.171	4301
880.253	4846
880.254	4842
880.335	4151
880.360	4206
880.417	4829
880.467	4750
880.499	4597
880.574	4404
880.580	4436
880.662	5228
880.680	5264
880.744	4577
880.787	4252
880.825	4284
880.893	4792
880.907	4859
880.989	4175
881.000	4161
881.070	4670
881.106	4961
881.152	5045
881.213	4737
881.233	4495
881.315	3806
881.319	3817
881.396	5093
881.426	4962
881.478	4346
881.532	4685
881.559	5208
881.639	5897
881.641	5877
881.722	4480
881.745	4234
881.803	4656
881.852	5139
881.885	5317
881.958	4553
881.966	4431
882.047	3924
882.064	3873
882.129	4296
882.171	4154
882.210	3419
882.277	2544
882.291	2607
882.372	3602
882.383	3703
882.454	5749
882.489	6583
882.535	6241
882.596	5942
882.616	6030
882.697	6076
882.702	6025
882.778	4024
882.808	3470
882.859	3378
882.914	3689
882.940	3830
883.020	3360
883.021	3367
883.102	4003
883.127	4293
883.183	5593
883.233	6504
883.264	6218
883.339	4681
883.345	4544
883.426	2872
883.445	2675
883.507	3147
883.551	3287
883.587	3912
883.657	5406
883.668	5582
883.749	6528
883.763	6584
883.830	5144
883.869	4244
883.910	3880
883.975	3679
883.991	3758
884.072	4590
884.081	4622
884.152	5525
884.187	6030
884.233	6650
884.292	7176
884.314	6868
884.394	4873
884.398	4793
884.475	3094
884.504	2556
884.555	2713
884.610	2990
884.636	3412
884.716	4194
884.716	4211
884.797	6033
884.821	6322
884.877	6153
884.927	5852
884.958	5349
885.033	4543
885.038	4491
885.118	3009
885.139	2779
885.199	3433
885.244	3828
885.279	4040
885.350	4496
885.359	4764
885.439	7154
885.456	7547
885.520	6586
885.561	5776
885.600	4901
885.667	3650
885.680	3858
885.760	5507
885.773	5662
885.840	4329
885.878	3614
885.920	3289
885.984	3082
886.000	3533
886.080	5394
886.089	5586
886.160	5102
886.195	4858
886.240	5263
886.300	5722
886.320	5617
886.400	5201
886.406	5158
886.480	4642
886.511	4358
886.560	3834
886.616	3487
886.640	3768
886.720	4381
886.722	4387
886.800	4298
886.827	4225
886.879	4566
886.932	5187
886.959	5638
887.038	6475
887.039	6477
887.119	5523
887.143	5144
887.198	4814
887.248	4666
887.278	4750
887.354	4957
887.358	5003
887.437	5583
887.459	5745
887.517	5722
887.564	5585
887.596	5321
887.669	4699
887.676	4599
887.755	3296
887.774	2970
887.835	3255
887.880	3523
887.914	3895
887.985	4482
887.994	4674
888.073	6369
888.090	6719
888.153	7999
888.195	8667
888.232	7489
888.300	5393
888.311	5234
888.391	4078
888.405	3845
888.470	3999
888.510	4093
888.549	4199
888.615	4334
888.628	4536
888.708	5813
888.720	5972
888.787	7008
888.825	7580
888.866	6068
888.930	3676
888.945	3765
889.024	4298
889.035	4348
889.103	5330
889.140	5830
889.182	5359
889.245	4689
889.261	4799
889.340	5228
889.349	5268
889.419	5443
889.454	5510
889.498	5063
889.559	4431
889.577	4651
889.656	5572
889.664	5652
889.735	5956
889.768	6078
889.814	5646
889.873	5036
889.978	4841
890.083	4707
890.187	4899
890.292	7365
890.397	5652
890.501	5668
890.606	3909
890.710	4999
890.815	6442
890.919	5881
891.024	5351
891.128	4443
891.233	3407
891.337	5287
891.442	7252
891.546	5656
891.650	4439
891.755	3475
891.859	5926
891.963	6999
892.068	5474
892.172	4766
892.276	3069
892.380	4076
892.484	5410
892.589	7048
892.693	4786
892.797	3667
892.901	2819
893.005	3279
893.109	6155
893.213	7944
893.317	5449
893.421	3299
893.525	2335
893.629	3624
893.733	5408
893.837	5335
893.941	4737
894.045	3479
894.148	2341
894.252	3660
894.356	4910
894.460	7490
894.564	4475
894.667	4862
894.771	2591
894.875	2793
894.978	2983
895.082	5197
895.186	6236
895.289	4893
895.393	3797
895.496	5601
895.600	4165
895.703	3162
895.807	3984
895.910	4445
896.014	4510
896.117	4604
896.221	4242
896.324	5975
896.427	3225
896.531	3021
896.634	4852
896.737	4585
896.840	4584
896.944	5440
897.047	5918
897.150	4698
897.253	3548
897.356	3034
897.460	2858
897.563	3262
897.666	5235
897.769	6655
897.872	3519
897.975	3433
898.078	4260
898.181	3450
898.284	3519
898.387	5424
898.490	5666
898.593	4925
898.695	3338
898.798	3325
898.901	3470
899.004	3832
899.107	4726
899.209	3332
899.312	6572
899.415	4694
899.518	2089
899.620	2596
899.723	2389
899.826	4100
899.928	3266
900.031	3361
900.133	5250
900.236	4610
900.338	3062
900.441	2747
900.543	3429
900.646	4046
900.748	3465
900.851	4954
900.953	4985
901.055	2747
901.158	3266
901.260	3882
901.362	1736
901.465	2520
901.567	2937
901.669	5184
901.771	3286
901.873	3604
901.976	3824
902.078	4419
902.180	2471
902.282	3242
902.384	3559
902.486	5274
902.588	5184
902.690	3585
902.792	2430
902.894	2920
902.996	5111
903.098	4239
903.200	4182
903.302	3134
903.404	3389
903.505	2773
903.607	3566
903.709	4788
903.811	5676
903.913	3484
904.014	2395
904.116	2887
904.218	2521
904.319	3261
904.421	5404
904.523	5478
904.624	3611
904.726	3617
904.827	2125
904.929	2660
905.030	2783
905.132	5860
905.233	5157
905.335	2331
905.436	2369
905.537	2897
905.639	2939
905.740	3073
905.841	4669
905.943	4655
906.044	3470
906.145	2880
906.247	2824
906.348	2839
906.449	3436
906.550	4174
906.651	3376
906.752	3029
906.854	2697
906.955	3127
907.056	2764
907.157	4851
907.258	5649
907.359	2953
907.460	1906
907.561	2358
907.662	2792
907.762	3064
907.863	4171
907.964	4996
908.065	3509
908.166	2876
908.267	2820
908.367	2405
908.468	3002
908.569	3459
908.670	3565
908.770	4118
908.871	3430
908.971	4445
909.072	3428
909.173	3221
909.273	3128
909.374	4380
909.474	4471
909.575	3003
909.675	3084
909.776	3677
909.876	3186
909.977	2914
910.077	3422
910.177	4808
910.278	3894
910.378	3477
910.478	2707
910.579	3456
910.679	3699
910.779	3683
910.879	4127
910.980	4006
911.080	4496
911.180	2224
911.280	2329
911.380	2673
911.480	2328
911.580	2980
911.680	2951
911.780	3945
911.880	3641
911.980	3096
912.080	2658
912.180	4016
912.280	3102
912.380	3106
912.480	2053
912.580	3157
912.679	3158
912.779	3752
912.879	3715
912.979	3214
913.078	2536
913.178	2217
913.278	3152
913.377	2713
913.477	2628
913.577	3343
913.676	3937
913.776	4353
913.875	4069
913.975	3095
914.074	3466
914.174	3809
914.273	2924
914.373	3489
914.472	2649
914.572	3074
914.671	3052
914.770	3333
914.870	2843
914.969	3053
915.068	3025
915.167	4416
915.267	2829
915.366	2950
915.465	3067
915.564	3127
915.663	3760
915.763	2915
915.862	3985
915.961	4545
916.060	3437
916.159	3406
916.258	2460
916.357	2684
916.456	3318
916.555	2889
916.654	2569
916.752	4810
916.851	4840
916.950	2690
917.049	2006
917.148	3179
917.247	2705
917.345	2675
917.444	2741
917.543	3045
917.642	3478
917.740	4198
917.839	5401
917.937	5926
918.036	5271
918.135	3325
918.233	2941
918.332	3609
918.430	3178
918.529	3755
918.627	2969
918.726	4451
918.824	4200
918.923	4076
919.021	3988
919.119	2889
919.218	3225
919.316	4531
919.414	3848
919.512	4461
919.611	4283
919.709	3486
919.807	4874
919.905	5521
920.003	5577
920.102	4634
920.200	4374
920.298	5242
920.396	5506
920.494	5146
920.592	4588
920.690	5342
920.788	5031
920.886	4877
920.984	6760
921.082	6029
921.180	6812
921.277	6271
921.375	7170
921.473	9275
921.571	10026
921.669	9420
921.766	8477
921.864	8158
921.962	9360
922.060	8368
922.157	8250
922.255	10164
922.352	8756
922.450	9703
922.548	9643
922.645	11068
922.743	14025
922.840	20496
922.938	27198
923.035	23123
923.133	21961
923.230	24988
923.327	30308
923.425	29117
923.522	27144
923.619	26869
923.717	23798
923.814	23292
923.911	22333
924.008	23138
924.106	22403
924.203	21561
924.300	22225
924.397	21844
924.494	21993
924.591	21917
924.688	21506
924.786	23056
924.883	22149
924.979	22969
925.077	22357
925.173	20716
925.270	19828
925.367	21162
925.464	22920
925.561	21944
925.658	23903
925.755	19595
925.852	21912
925.948	20798
926.045	20853
926.142	21120
926.239	22734
926.335	19012
926.432	19204
926.529	21749
926.625	23337
926.722	19748
926.818	17859
926.915	21467
927.011	21109
927.108	19599
927.204	20676
927.301	17811
927.397	18312
927.494	23405
927.590	17471
927.687	15100
927.783	21360
927.879	22429
927.976	18837
928.072	16651
928.168	17949
928.264	20756
928.361	17345
928.457	21515
928.553	18705
928.649	17059
928.745	19428
928.841	16678
928.937	17309
929.033	19268
929.129	17318
929.225	20864
929.321	19142
929.417	15516
929.513	18512
929.609	17551
929.705	15333
929.801	19152
929.897	16276
929.993	15828
930.089	17236
930.184	16837
930.280	15855
930.376	20613
930.471	17787
930.567	14224
930.663	15904
930.758	15328
930.854	15528
930.950	15643
931.045	15339
931.141	13584
931.236	18303
931.332	18265
931.427	12649
931.523	17440
931.618	18239
931.714	13001
931.809	12864
931.905	17164
932.000	14186
932.095	11249
932.191	15511
932.286	19803
932.381	17646
932.476	12541
932.572	14109
932.667	13759
932.762	12922
932.857	15157
932.952	16283
933.047	16945
933.142	11600
933.237	13782
933.332	16155
933.427	16702
933.522	14684
933.617	11771
933.712	12491
933.807	15816
933.902	18237
933.997	16957
934.092	14880
934.187	12435
934.282	13950
934.376	14055
934.471	16388
934.566	12422
934.661	12015
934.755	14207
934.850	15972
934.945	13906
935.039	11863
935.134	9783
935.228	10930
935.323	16969
935.417	14061
935.512	9228
935.606	9493
935.701	13196
935.795	14896
935.890	14686
935.984	11849
936.079	9320
936.173	11505
936.267	11208
936.362	11216
936.456	10739
936.550	16270
936.644	14304
936.738	10297
936.833	9565
936.927	8973
937.021	10495
937.115	11993
937.209	13969
937.303	13045
937.397	8290
937.491	10325
937.585	13008
937.679	12997
937.773	10633
937.867	8715
937.961	8955
938.055	13612
938.149	14168
938.243	8312
938.337	8127
938.430	8927
938.524	13150
938.618	11609
938.712	10096
938.805	8897
938.899	11391
938.993	14792
939.086	11322
939.180	6391
939.274	9218
939.367	11245
939.461	12971
939.554	9483
939.648	8315
939.741	9250
939.835	10448
939.928	12968
940.022	12470
940.115	10076
940.208	10975
940.302	13348
940.395	14287
940.488	11048
940.582	8542
940.675	8525
940.768	7455
940.861	10362
940.954	13592
941.048	8267
941.141	5971
941.234	7943
941.327	9856
941.420	10490
941.513	10234
941.606	9664
941.699	8230
941.792	9858
941.885	9757
941.978	9266
942.071	10470
942.164	8003
942.257	6667
942.349	8583
942.442	10493
942.535	7816
942.628	7612
942.721	6835
942.813	8419
942.906	9193
942.999	8497
943.091	6699
943.184	7867
943.277	8058
943.369	7389
943.462	5296
943.554	7355
943.647	8767
943.739	9774
943.832	10899
943.924	7363
944.017	5465
944.109	6086
944.201	7429
944.294	7335
944.386	7336
944.478	8224
944.571	6994
944.663	6665
944.755	6965
944.847	8889
944.940	8338
945.032	6630
945.124	5615
945.216	6772
945.308	7836
945.400	8610
945.492	7176
945.584	8473
945.676	9763
945.768	8430
945.860	8671
945.952	10208
946.044	8748
946.136	7207
946.228	7503
946.320	6882
946.412	7407
946.503	9141
946.595	9740
946.687	6597
946.779	5788
946.870	5475
946.962	5794
947.054	6333
947.145	7903
947.237	7276
947.329	6715
947.420	7869
947.512	6561
947.603	6273
947.695	4894
947.786	5552
947.878	5791
947.969	6955
948.061	7143
948.152	8290
948.243	4888
948.335	4982
948.426	5179
948.517	6330
948.609	7885
948.700	6438
948.791	6418
948.882	5353
948.973	4152
949.065	5697
949.156	6593
949.247	4528
949.338	5235
949.429	4282
949.520	4490
949.611	5764
949.702	6770
949.793	6341
949.884	5421
949.975	6047
950.066	4046
950.157	3579
950.247	4822
950.338	4943
950.429	4084
950.520	5736
950.611	4812
950.701	5723
950.792	7261
950.883	7754
950.973	5613
951.064	6217
951.155	6499
951.245	6968
951.336	6997
951.427	6635
951.517	8365
951.608	7259
951.698	6287
951.788	5163
951.879	3772
951.969	4503
952.060	4752
952.150	6008
952.240	6854
952.331	7021
952.421	7038
952.511	5446
952.602	4240
952.692	3695
952.782	3304
952.872	4214
952.962	5759
953.052	5468
953.143	4078
953.233	4969
953.323	4665
953.413	5154
953.503	6786
953.593	5060
953.683	5491
953.773	3452
953.863	3424
953.953	3336
954.042	4162
954.132	4970
954.222	5448
954.312	4769
954.402	3773
954.492	4196
954.581	4478
954.671	5703
954.761	4517
954.850	5344
954.940	3649
955.030	2574
955.119	2641
955.209	3864
955.298	4280
955.388	6654
955.477	6246
955.567	4223
955.656	3664
955.746	4726
955.835	3413
955.925	3993
956.014	4623
956.103	5906
956.193	6887
956.282	7223
956.371	5520
956.461	4064
956.550	4682
956.639	4768
956.728	4268
956.817	4856
956.906	3647
956.995	6125
957.085	4762
957.174	4497
957.263	3791
957.352	3241
957.441	4031
957.530	5297
957.619	3935
957.708	4180
957.796	4687
957.885	4395
957.974	3742
958.063	4213
958.152	3441
958.241	2878
958.329	2799
958.418	3199
958.507	4074
958.596	4982
958.684	5057
958.773	4680
958.861	3518
958.950	2845
959.039	3145
959.127	3728
959.216	3933
959.304	3675
959.393	3387
959.481	4310
959.570	3511
959.658	3171
959.746	2571
959.835	3464
959.923	3471
960.011	3222
960.100	3865
960.188	4214
960.276	4569
960.365	3582
960.453	2303
960.541	2387
960.629	2629
960.717	2190
960.805	1601
960.893	2540
960.981	4586
961.069	5474
961.158	5957
961.245	6854
961.333	5386
961.421	4959
961.509	3965
961.597	3960
961.685	4288
961.773	4057
961.861	4717
961.949	5643
962.036	3772
962.124	2737
962.212	2824
962.299	2547
962.387	2566
962.475	2786
962.562	2688
962.650	4253
962.738	3431
962.825	2799
962.913	2739
963.000	3359
963.088	3838
963.175	4938
963.263	3417
963.350	3146
963.438	2738
963.525	3636
963.612	2946
963.700	1706
963.787	3230
963.874	3077
963.962	3390
964.049	2412
964.136	2222
964.223	2893
964.310	2724
964.398	2972
964.485	2516
964.572	2691
964.659	3544
964.746	2961
964.833	2421
964.920	3352
965.007	3240
965.094	3619
965.181	3215
965.268	3646
965.355	3947
965.441	3083
965.528	2777
965.615	3300
965.702	3517
965.789	3673
965.875	3445
965.962	3862
966.049	4166
966.136	3921
966.222	4773
966.309	4848
966.395	3174
966.482	4799
966.569	3643
966.655	4157
966.742	3737
966.828	3826
966.915	2666
967.001	3318
967.087	1958
967.174	2244
967.260	2819
967.347	3256
967.433	3632
967.519	3501
967.605	3461
967.692	3110
967.778	3502
967.864	2985
967.950	2696
968.036	3528
968.123	4222
968.209	3596
968.295	1854
968.381	3300
968.467	3126
968.553	2097
968.639	3097
968.725	3065
968.811	4052
968.897	4399
968.983	2957
969.069	2760
969.154	2732
969.240	2688
969.326	1793
969.412	2952
969.497	2672
969.583	2484
969.669	3070
969.755	4000
969.840	3195
969.926	5048
970.012	7074
970.097	7918
970.183	6835
970.268	5080
970.354	4037
970.439	3437
970.525	3658
970.610	2901
970.696	3420
970.781	3808
970.866	2695
970.952	3054
971.037	2744
971.122	2949
971.208	3842
971.293	3448
971.378	1907
971.463	2869
971.549	2677
971.634	2606
971.719	2316
971.804	2738
971.889	2215
971.974	2693
972.059	2954
972.144	3866
972.229	2148
972.314	2408
972.399	3219
972.484	2566
972.569	2540
972.654	2004
972.739	3001
972.824	2728
972.908	2985
972.993	2524
973.078	2633
973.163	2618
973.247	2593
973.332	2917
973.417	3824
973.501	2733
973.586	3172
973.671	4003
973.755	2514
973.840	3285
973.924	3475
974.009	4827
974.093	5422
974.178	5492
974.262	3582
974.346	3668
974.431	3823
974.515	3595
974.600	3144
974.684	4428
974.768	3492
974.852	3917
974.937	3068
975.021	4319
975.105	3322
975.189	2906
975.273	3041
975.358	2228
975.442	2996
975.526	2851
975.610	2902
975.694	2773
975.778	2899
975.862	2617
975.946	1672
976.030	4101
976.114	2654
976.198	1944
976.281	3070
976.365	3415
976.449	2101
976.533	2781
976.617	2400
976.700	2719
976.784	2341
976.868	2041
976.951	2412
977.035	3110
977.119	3209
977.202	3556
977.286	2891
977.369	4726
977.453	5901
977.536	6397
977.620	6255
977.703	5431
977.787	3972
977.870	4056
977.953	3892
978.037	2612
978.120	3392
978.203	4097
978.287	3974
978.370	3831
978.453	3256
978.536	2416
978.620	3651
978.703	4011
978.786	3702
978.869	2767
978.952	1979
979.035	3996
979.118	3454
979.201	4133
979.284	2934
979.367	3384
979.450	4384
979.533	2890
979.616	3338
979.699	2341
979.782	2366
979.865	3584
979.948	3391
980.030	3077
980.113	2987
980.196	1999
980.279	3446
980.361	4000
980.444	3601
980.526	3733
980.609	5547
980.692	6412
980.774	7473
980.857	5270
980.939	5802
981.022	3742
981.104	3867
981.187	4542
981.269	4492
981.352	4770
981.434	3403
981.516	4271
981.599	4383
981.681	3682
981.763	2981
981.846	4081
981.928	3406
982.010	3938
982.092	3436
982.174	4431
982.256	3431
982.339	3409
982.421	3660
982.503	4293
982.585	3357
982.667	3823
982.749	3013
982.831	4391
982.913	3720
982.995	4588
983.077	3371
983.158	3917
983.240	3894
983.322	4633
983.404	6616
983.486	7897
983.568	6947
983.649	5992
983.731	5773
983.813	5821
983.894	4786
983.976	4601
984.058	5226
984.139	5079
984.221	4036
984.302	5676
984.384	4133
984.465	4715
984.547	4949
984.628	4572
984.710	4862
984.791	4951
984.872	3899
984.954	5141
985.035	4321
985.116	4670
985.198	4862
985.279	4961
985.360	4637
985.441	4032
985.522	5173
985.604	5206
985.685	3907
985.766	5446
985.847	5212
985.928	4355
986.009	3808
986.090	4530
986.171	4107
986.252	5379
986.333	4394
986.414	4649
986.495	4808
986.576	4694
986.656	5880
986.737	5507
986.818	5749
986.899	5555
986.980	5222
987.060	5684
987.141	5504
987.222	6920
987.302	6651
987.383	8081
987.464	6184
987.544	7105
987.625	6997
987.705	7426
987.786	7747
987.866	7460
987.947	6141
988.027	7315
988.108	6829
988.188	6520
988.268	5334
988.349	6642
988.429	6346
988.509	6571
988.589	5542
988.670	5229
988.750	6346
988.830	4131
988.910	5912
988.990	6806
989.070	5636
989.151	5815
989.231	5431
989.311	5512
989.391	3973
989.471	5228
989.551	5355
989.631	5277
989.711	5810
989.791	5878
989.870	5198
989.950	5705
990.030	5100
990.110	5583
990.190	4227
990.269	4113
990.349	4627
990.429	5033
990.509	5696
990.588	4029
990.668	4202
990.747	4778
990.827	4428
990.907	4145
990.986	5150
991.066	5430
991.145	3767
991.225	3537
991.304	5274
991.383	4938
991.463	4165
991.542	4335
991.622	3888
991.701	4097
991.780	4127
991.859	3695
991.939	3437
992.018	3953
992.097	5211
992.176	4194
992.256	3584
992.335	2852
992.414	4744
992.493	3428
992.572	3300
992.651	2939
992.730	3481
992.809	4366
992.888	2549
992.967	3539
993.046	4195
993.125	1399
993.203	3695
993.282	2943
993.361	3469
993.440	4028
993.519	2903
993.597	3361
993.676	3475
993.755	4170
993.834	3665
993.912	2271
993.991	3248
994.069	2591
994.148	3361
994.226	2734
994.305	2657
994.384	2583
994.462	3646
994.540	2696
994.619	2161
994.697	3010
994.776	2786
994.854	4248
994.932	2519
995.011	2908
995.089	2423
995.167	3717
995.245	2437
995.324	2152
995.402	2774
995.480	2147
995.558	2613
995.636	1734
995.714	2491
995.792	3308
995.870	2425
995.948	2250
996.026	1471
996.104	1906
996.182	3203
996.260	1253
996.338	1421
996.416	1994
996.494	2515
996.572	2935
996.649	1744
996.727	1568
996.805	2272
996.883	2782
996.960	2452
997.038	1713
997.116	1804
997.193	1152
997.271	2268
997.348	1024
997.426	1139
997.504	1925
997.581	2878
997.658	1669
997.736	982
997.813	1125
997.891	2048
997.968	2096
998.046	1570
998.123	2461
998.200	2069
998.277	1888
998.355	1937
998.432	927
998.509	1076
998.586	1576
998.663	2111
998.741	1737
998.818	1071
998.895	1478
998.972	1846
999.049	2596
999.126	610
999.203	1759
999.280	979
999.357	1308
999.434	1388
999.511	991
999.587	1958
999.664	406
999.741	1296
999.818	1559
999.895	994
999.971	1258
1000.048	1203
1000.125	1774
1000.202	389
1000.278	1347
1000.355	627
1000.431	1347
1000.508	454
1000.584	1089
1000.661	1270
1000.738	1239
1000.814	1139
1000.890	1389
1000.967	850
1001.043	1840
1001.120	582
1001.196	1002
1001.272	673
1001.349	648
1001.425	854
1001.501	1181
1001.577	875
1001.654	1706
1001.730	505
1001.806	616
1001.882	132
1001.958	2016
1002.034	1778
1002.110	1194
1002.186	98
1002.262	298
1002.338	494
1002.414	1351
1002.490	1145
1002.566	1055
1002.642	144
1002.718	1151
1002.794	378
1002.870	244
1002.945	364
1003.021	534
1003.097	-273
1003.173	1466
1003.248	424
1003.324	1244
1003.400	659
1003.475	-163
1003.551	-141
1003.626	1081
1003.702	145
1003.777	1204
1003.853	-701
1003.928	230
1004.004	329
1004.079	265
1004.155	358
1004.230	781
1004.305	300
1004.381	726
1004.456	226
1004.531	226
1004.607	-26
1004.682	-210
1004.757	352
1004.832	850
1004.907	615
1004.982	91
1005.057	-548
1005.133	211
1005.208	382
1005.283	-340
1005.358	-315
1005.433	-1233
1005.508	-341
1005.583	95
1005.657	-182
1005.732	776
1005.807	-439
1005.882	422
1005.957	-640
1006.032	42
1006.106	-1072
1006.181	-54
1006.256	-47
1006.331	568
1006.405	-377
1006.480	364
1006.554	-346
1006.629	-339
1006.704	281
1006.778	374
1006.853	124
1006.927	592
1007.002	-347
1007.076	-805
1007.150	-194
1007.225	664
1007.299	-586
1007.373	-361
1007.448	-205
1007.522	-704
1007.596	-393
1007.671	-1039
1007.745	9
1007.819	12
1007.893	-338
1007.967	-816
1008.041	-1276
1008.115	-839
1008.190	-1539
1008.264	492
1008.338	-1010
1008.412	-624
1008.486	-136
1008.560	-701
1008.633	-778
1008.707	45
1008.781	233
1008.855	-129
1008.929	-1158
1009.003	-881
1009.076	-1902
1009.150	-52
1009.224	-489
1009.298	-564
1009.371	-1472
1009.445	-633
1009.519	-476
1009.592	-619
1009.666	-595
1009.739	-519
1009.813	-1468
1009.886	270
1009.960	-1772
1010.033	-319
1010.107	-861
1010.180	-1187
1010.253	-1017
1010.327	-1533
1010.400	-1079
1010.473	-587
1010.547	-308
1010.620	-206
1010.693	-634
1010.766	-326
1010.840	-639
1010.913	-782
1010.986	-1203
1011.059	-834
1011.132	-811
1011.205	-753
1011.278	-1009
1011.351	-411
1011.424	-904
1011.497	-1211
1011.570	-1238
1011.643	-449
1011.716	-1496
1011.789	-723
1011.862	-1133
1011.934	-856
1012.007	-1151
1012.080	-388
1012.153	-1388
1012.225	-819
1012.298	-768
1012.371	-1042
1012.443	-326
1012.516	-2176
1012.588	-834
1012.661	-123
1012.733	-1634
1012.806	-110
1012.879	-876
1012.951	-778
1013.023	-1406
1013.096	-1022
1013.168	-1292
1013.241	-607
1013.313	-1088
1013.385	-655
1013.458	-401
1013.530	-1282
1013.602	-963
1013.674	-1055
1013.746	-777
1013.819	-1204
1013.891	-971
1013.963	-1430
1014.035	-814
1014.107	-522
1014.179	-495
1014.251	-1027
1014.323	-725
1014.395	-1564
1014.467	-1390
1014.539	-1104
1014.611	-1001
1014.683	-1240
1014.754	-1049
1014.826	-1489
1014.898	-1109
1014.970	-1607
1015.042	-1857
1015.113	-936
1015.185	-519
1015.257	-1530
1015.328	-1122
1015.400	-1049
1015.471	-829
1015.543	-1771
1015.615	-1239
1015.686	-1159
1015.757	-1670
1015.829	-179
1015.901	-1144
1015.972	-771
1016.043	-1474
1016.115	-297
1016.186	-870
1016.257	-1464
1016.328	-1022
1016.400	-1372
1016.471	-658
1016.542	-932
1016.613	-1207
1016.685	-623
1016.756	-865
1016.827	-1095
1016.898	-1375
1016.969	-464
1017.040	-1560
1017.111	-841
1017.182	-1311
1017.253	-1620
1017.324	-1516
1017.395	-1024
1017.466	-664
1017.537	-1145
1017.608	-1680
1017.678	-1337
1017.749	-1186
1017.820	-722
1017.891	-2020
1017.961	-1582
1018.032	-1995
1018.103	-780
1018.173	-1516
1018.244	-1355
1018.315	-1362
1018.385	-938
1018.456	-1439
1018.526	-1679
1018.597	-1118
1018.667	-992
1018.738	-1218
1018.808	-700
1018.878	-924
1018.949	-1153
1019.019	-873
1019.089	-1593
1019.160	-1013
1019.230	-1691
1019.300	-1798
1019.371	-1638
1019.441	-1234
1019.511	-1182
1019.581	-2062
1019.651	-1294
1019.721	-793
1019.791	-1424
1019.861	-1565
1019.931	-1086
1020.001	-1045
1020.071	-1661
1020.141	-1037
1020.211	-789
1020.281	-1832
1020.351	-1676
1020.421	-1457
1020.491	-481
1020.560	-1782
1020.630	-753
1020.700	-1253
1020.770	-308
1020.839	-2002
1020.909	-597
1020.979	-834
1021.048	-1392
1021.118	-1017
1021.187	-1224
1021.257	-1982
1021.326	-1482
1021.396	-2908
1021.465	-1035
1021.535	-1244
1021.604	-1982
1021.674	-1450
1021.743	-406
1021.812	-1534
1021.882	-1449
1021.951	-1013
1022.020	-791
1022.089	-767
1022.159	-1906
1022.228	-1677
1022.297	-1314
1022.366	-1150
1022.435	-1684
1022.504	-519
1022.573	-1338
1022.642	-1093
1022.711	-818
1022.781	-1973
1022.849	-633
1022.918	-1577
1022.987	-1355
1023.056	-2053
1023.125	-1250
1023.194	-1758
1023.263	-1132
1023.331	-1187
1023.400	-1765
1023.469	-1924
1023.538	-645
1023.606	-1761
1023.675	-2067
1023.744	-1441
1023.812	-1299
1023.881	-1317
1023.949	-807
1024.018	-1292
1024.086	-2154
1024.155	-1400
1024.223	-1511
1024.292	-1276
1024.360	-1560
1024.429	-2094
1024.497	-1524
1024.565	-1085
1024.634	-1255
1024.702	-1210
1024.770	-1745
1024.838	-2052
1024.907	-821
1024.975	-2131
1025.043	-1064
1025.111	-2299
1025.179	-615
1025.247	-1551
1025.315	-1660
1025.383	-1121
1025.451	-1474
1025.519	-1922
1025.587	-1427
1025.655	-900
1025.723	-1923
1025.791	-1233
1025.859	-1820
1025.927	-1844
1025.995	-1836
1026.062	-1142
1026.130	-1477
1026.198	-1371
1026.266	-1584
1026.333	-2000
1026.401	-849
1026.469	-699
1026.536	-1104
1026.604	-2075
1026.671	-1334
1026.739	-1006
1026.806	-1309
1026.874	-1329
1026.941	-1255
1027.009	-1635
1027.076	-1710
1027.144	-1123
1027.211	-1249
1027.278	-1725
1027.345	-1286
1027.413	-1140
1027.480	-1927
1027.547	-1229
1027.614	-1743
1027.682	-1646
1027.749	-1188
1027.816	-968
1027.883	-712
1027.950	-1112
1028.017	-1462
1028.084	-807
1028.151	-1085
1028.218	-1305
1028.285	-1316
1028.352	-2094
1028.419	-1505
1028.486	-1459
1028.553	-1849
1028.619	-1969
1028.686	-934
1028.753	-2010
1028.820	-1327
1028.886	-886
1028.953	-1556
1029.020	-1544
1029.086	-1681
1029.153	-1946
1029.220	-1787
1029.286	-1308
1029.353	-1598
1029.419	-1717
1029.486	-2088
1029.552	-1018
1029.619	-1543
1029.685	-2006
1029.751	-2355
1029.818	-876
1029.884	-1608
1029.951	-982
1030.017	-2663
1030.083	-1395
1030.149	-1505
1030.216	-2154
1030.282	-2328
1030.348	-1271
1030.414	-1774
1030.480	-1918
1030.546	-1433
1030.612	-1543
1030.678	-1191
1030.744	-1634
1030.810	-1306
1030.876	-753
1030.942	-1446
1031.008	-1853
1031.074	-1966
1031.140	-1319
1031.206	5
1031.272	-1844
1031.337	-646
1031.403	-1466
1031.469	-1251
1031.534	-1710
1031.600	-1197
1031.666	-1198
1031.731	-1463
1031.797	-787
1031.863	-624
1031.928	-1583
1031.994	-1232
1032.059	-1540
1032.125	-501
1032.190	-1406
1032.256	-1981
1032.321	-2519
1032.386	-746
1032.452	-808
1032.517	-1663
1032.582	-1916
1032.647	-906
1032.713	-2071
1032.778	-1171
1032.843	-2176
1032.908	-1695
1032.974	-1715
1033.039	-2447
1033.104	-1688
1033.169	-1009
1033.234	-1941
1033.299	-866
1033.364	-1105
1033.429	-2143
1033.494	-1563
1033.559	-1582
1033.624	-861
1033.688	-1605
1033.753	-1421
1033.818	-1472
1033.883	-844
1033.948	-788
1034.013	-483
1034.077	-854
1034.142	-255
1034.207	-627
1034.271	1359
1034.336	1646
1034.400	1237
1034.465	315
1034.530	-724
1034.594	-814
1034.658	-913
1034.723	-1844
1034.787	-1055
1034.852	-1404
1034.916	-1218
1034.981	-1803
1035.045	-1073
1035.109	-1816
1035.173	-1206
1035.238	-1535
1035.302	-1588
1035.366	-1481
1035.430	-1472
1035.495	-1760
1035.559	-1216
1035.623	-1084
1035.687	-2102
1035.751	-1507
1035.815	-1695
1035.879	-1488
1035.943	-1955
1036.007	-1701
1036.071	-1309
1036.135	-1572
1036.198	-1900
1036.262	-1923
1036.326	-1589
1036.390	-1012
1036.454	-1844
1036.517	-1002
1036.581	-1976
1036.645	-1382
1036.709	-2559
1036.772	-1507
1036.836	-1742
1036.900	-1746
1036.963	-1524
1037.026	-1982
1037.090	-1323
1037.154	-1987
1037.217	-1636
1037.280	-1672
1037.344	-2053
1037.407	-1764
1037.471	-1156
1037.534	-1791
1037.597	-2322
1037.661	-1508
1037.724	-1848
1037.787	-1306
1037.850	-1428
1037.913	-565
1037.977	-1605
1038.040	-1416
1038.103	-2070
1038.166	-2221
1038.229	-1607
1038.292	-1257
1038.355	-1478
1038.418	-1112
1038.481	-1356
1038.544	-819
1038.607	-1651
1038.670	-1791
1038.732	-1683
1038.795	-1494
1038.858	-2071
1038.921	-1664
1038.984	-1337
1039.046	-1862
1039.109	-2436
1039.172	-1126
1039.234	-2155
1039.297	-1835
1039.360	-1324
1039.422	-1808
1039.485	-2034
1039.547	-2004
1039.610	-1834
1039.672	-1403
1039.734	-1932
1039.797	-1565
1039.859	-1494
1039.922	-1257
1039.984	-1682
1040.046	-1587
1040.109	-1791
1040.171	-953
1040.233	-2037
1040.295	-1759
1040.358	-2308
1040.420	-2341
1040.482	-1459
1040.544	-2365
1040.606	-1930
1040.668	-1039
1040.730	-1951
1040.792	-1625
1040.854	-1962
1040.916	-2200
1040.978	-2783
1041.040	-1443
1041.102	-1675
1041.164	-1659
1041.225	-1730
1041.287	-1581
1041.349	-1626
1041.411	-2113
1041.472	-1915
1041.534	-1811
1041.596	-1979
1041.657	-556
1041.719	-1776
1041.781	-1748
1041.842	-1633
1041.904	-1757
1041.965	-2160
1042.027	-958
1042.088	-2147
1042.150	-1557
1042.211	-1402
1042.272	-941
1042.334	-1419
1042.395	-1819
1042.456	-1864
1042.518	-1714
1042.579	-2484
1042.640	-1454
1042.701	-1624
1042.763	-999
1042.824	-1913
1042.885	-1717
1042.946	-1997
1043.007	-1597
1043.068	-2596
1043.129	-1717
1043.190	-1972
1043.251	-1877
1043.312	-2113
1043.373	-1373
1043.434	-1215
1043.495	-2939
1043.556	-1831
1043.616	-1810
1043.677	-1927
1043.738	-1985
1043.799	-1500
1043.859	-1369
1043.920	-2094
1043.981	-1424
1044.041	-1989
1044.102	-1247
1044.162	-2146
1044.223	-1959
1044.284	-2001
1044.344	-1932
1044.405	-1978
1044.465	-1712
1044.525	-1856
1044.586	-1605
1044.646	-1667
1044.707	-1285
1044.767	-1455
1044.827	-1726
1044.887	-1517
1044.948	-1289
1045.008	-2125
1045.068	-2042
1045.128	-1651
1045.188	-1402
1045.249	-1484
1045.309	-1820
1045.369	-2043
1045.429	-1303
1045.489	-1799
1045.549	-2092
1045.609	-1399
1045.669	-1812
1045.729	-1966
1045.789	-941
1045.848	-1455
1045.908	-1467
1045.968	-1170
1046.028	-2015
1046.088	-1475
1046.147	-1279
1046.207	-1031
1046.267	-1196
1046.326	-1416
1046.386	-1185
1046.446	-825
1046.505	-1263
1046.565	-665
1046.624	-1033
1046.684	-1446
1046.743	-1259
1046.803	-342
1046.862	-225
1046.922	0
