'Start Wavelength	183.907
'End Wavelength	1046.922
'Gate Delay	5.000
'Gate Width (ms)	1.050
'Laser Output Level	0.000
'X Position	0.000
'Y Position	0.000
'Z Position	0.000
'Grid Point Number	1.000
'Shot Number	100.000
183.907	852.000
183.977	233.000
184.047	950
184.116	551
184.186	1131
184.256	363
184.325	227
184.395	26
184.465	585
184.534	-307
184.604	185
184.674	-64
184.743	41
184.813	544
184.883	345
184.952	668
185.022	814
185.092	505
185.161	260
185.231	46
185.301	204
185.370	-37
185.440	30
185.509	679
185.579	52
185.649	326
185.718	473
185.788	742
185.857	-161
185.927	346
185.996	399
186.066	279
186.136	702
186.205	926
186.275	1025
186.344	602
186.414	-350
186.483	518
186.553	1607
186.622	3099
186.692	2073
186.761	1117
186.831	970
186.900	624
186.970	1041
187.039	400
187.109	734
187.178	933
187.248	973
187.317	1159
187.387	318
187.456	1074
187.526	1148
187.595	909
187.664	199
187.734	470
187.803	281
187.873	507
187.942	1325
188.012	506
188.081	870
188.150	452
188.220	2256
188.289	2301
188.358	1412
188.428	738
188.497	799
188.567	1339
188.636	1455
188.705	491
188.775	600
188.844	622
188.913	568
188.983	278
189.052	1214
189.121	92
189.191	278
189.260	1131
189.329	541
189.399	665
189.468	1018
189.537	308
189.606	1110
189.676	666
189.745	563
189.814	598
189.883	693
189.953	505
190.022	293
190.091	592
190.161	858
190.230	881
190.299	670
190.368	594
190.437	-116
190.507	215
190.576	1465
190.645	847
190.714	823
190.783	346
190.853	1182
190.922	998
190.991	1190
191.060	370
191.129	356
191.198	575
191.268	416
191.337	1223
191.406	770
191.475	535
191.544	910
191.613	1314
191.682	396
191.752	681
191.821	755
191.890	879
191.959	1166
192.028	-76
192.097	748
192.166	452
192.235	743
192.304	264
192.373	-68
192.442	-34
192.511	-91
192.580	1213
192.650	235
192.719	156
192.788	875
192.857	670
192.926	-128
192.995	1158
193.064	1372
193.133	1247
193.202	620
193.271	564
193.340	610
193.409	520
193.478	884
193.547	1120
193.615	1032
193.684	513
193.753	750
193.822	1395
193.891	847
193.960	648
194.029	778
194.098	544
194.167	168
194.236	762
194.305	331
194.374	742
194.443	939
194.512	1450
194.580	879
194.649	896
194.718	727
194.787	513
194.856	364
194.925	1619
194.994	1059
195.062	527
195.131	1121
195.200	242
195.269	1003
195.338	690
195.407	293
195.475	379
195.544	1384
195.613	176
195.682	1279
195.751	-175
195.819	260
195.888	727
195.957	1492
196.026	722
196.094	950
196.163	226
196.232	630
196.301	267
196.369	1143
196.438	649
196.507	1415
196.576	276
196.644	701
196.713	1156
196.782	677
196.850	732
196.919	1272
196.988	203
197.056	973
197.125	720
197.194	657
197.262	-20
197.331	775
197.400	-313
197.468	642
197.537	351
197.606	372
197.674	587
197.743	505
197.812	136
197.880	990
197.949	786
198.017	1165
198.086	796
198.155	331
198.223	1096
198.292	1310
198.360	866
198.429	1075
198.497	435
198.566	914
198.635	829
198.703	1165
198.772	1224
198.840	1366
198.909	471
198.977	671
199.046	915
199.114	294
199.183	958
199.251	343
199.320	1081
199.388	1440
199.457	-54
199.525	560
199.594	21
199.662	702
199.731	482
199.799	991
199.867	1242
199.936	1442
200.004	1072
200.073	1779
200.141	1195
200.210	789
200.278	963
200.346	1440
200.415	2021
200.483	1448
200.552	1374
200.620	1766
200.688	694
200.757	815
200.825	1194
200.893	1285
200.962	734
201.030	354
201.098	722
201.167	1025
201.235	1357
201.303	1181
201.372	1517
201.440	949
201.508	2858
201.577	1772
201.645	2146
201.713	1190
201.781	1867
201.850	2952
201.918	1231
201.986	596
202.055	959
202.123	608
202.191	357
202.259	1460
202.327	901
202.396	1380
202.464	1564
202.532	4119
202.600	7358
202.669	5408
202.737	1678
202.805	1124
202.873	1743
202.941	1131
203.009	944
203.078	1832
203.146	1128
203.214	1293
203.282	586
203.350	2059
203.418	964
203.487	774
203.555	1024
203.623	664
203.691	1026
203.759	838
203.827	412
203.895	1636
203.963	775
204.031	1923
204.099	2019
204.168	855
204.236	944
204.304	2357
204.372	996
204.440	982
204.508	869
204.576	288
204.644	-206
204.712	534
204.780	1309
204.848	1798
204.916	974
204.984	733
205.052	1098
205.120	567
205.188	293
205.256	259
205.324	775
205.392	967
205.460	706
205.528	1196
205.596	978
205.664	465
205.732	534
205.799	427
205.867	1452
205.935	-357
206.003	1637
206.071	1005
206.139	317
206.207	910
206.275	364
206.343	195
206.411	941
206.478	699
206.546	1191
206.614	418
206.682	1051
206.750	1052
206.818	2539
206.885	1541
206.953	366
207.021	1330
207.089	904
207.157	512
207.225	649
207.292	1106
207.360	524
207.428	780
207.496	995
207.563	984
207.631	431
207.699	-10
207.767	472
207.834	1087
207.902	684
207.970	634
208.038	731
208.105	1092
208.173	827
208.241	1028
208.309	750
208.376	799
208.444	905
208.512	178
208.579	1328
208.647	2711
208.715	2192
208.782	649
208.850	1885
208.918	1198
208.985	1006
209.053	863
209.120	1292
209.188	600
209.256	693
209.323	421
209.391	517
209.459	1639
209.526	1083
209.594	577
209.661	1042
209.729	1222
209.796	1179
209.864	1947
209.932	606
209.999	1349
210.067	1336
210.134	791
210.202	1641
210.269	1750
210.337	3617
210.404	1847
210.472	378
210.539	1093
210.607	93
210.674	945
210.742	1053
210.809	1012
210.877	602
210.944	997
211.012	905
211.079	2203
211.146	1576
211.214	2654
211.281	4543
211.349	2946
211.416	1421
211.484	983
211.551	880
211.618	952
211.686	1323
211.753	917
211.821	1767
211.888	2043
211.955	2023
212.023	1269
212.090	307
212.157	1340
212.225	1349
212.292	1236
212.359	2090
212.427	4939
212.494	1396
212.561	1348
212.629	1328
212.696	700
212.763	59
212.831	15
212.898	1126
212.965	969
213.032	791
213.100	342
213.167	917
213.234	1804
213.301	1404
213.369	913
213.436	627
213.503	707
213.570	915
213.638	606
213.705	373
213.772	1062
213.839	779
213.906	833
213.973	665
214.041	605
214.108	598
214.175	1039
214.242	914
214.309	934
214.376	513
214.444	1231
214.511	805
214.578	1637
214.645	1899
214.712	1344
214.779	1953
214.846	1715
214.913	1922
214.980	3118
215.048	4215
215.115	4950
215.182	2951
215.249	2086
215.316	1022
215.383	2271
215.450	1612
215.517	1111
215.584	1148
215.651	309
215.718	806
215.785	1363
215.852	497
215.919	1322
215.986	1374
216.053	1297
216.120	581
216.187	1268
216.254	1951
216.321	615
216.388	1135
216.455	824
216.522	533
216.589	613
216.656	2268
216.722	1194
216.789	1051
216.856	711
216.923	987
216.990	716
217.057	1050
217.124	1438
217.191	876
217.258	1060
217.324	729
217.391	913
217.458	926
217.525	2037
217.592	1402
217.659	273
217.725	1547
217.792	2355
217.859	1592
217.926	1268
217.993	771
218.059	695
218.126	607
218.193	1242
218.260	575
218.327	46
218.393	786
218.460	1610
218.527	1236
218.594	1028
218.660	2165
218.727	1659
218.794	520
218.860	1528
218.927	431
218.994	485
219.061	806
219.127	1008
219.194	1743
219.261	512
219.327	280
219.394	1556
219.461	703
219.527	1268
219.594	1480
219.661	1218
219.727	533
219.794	2344
219.860	1607
219.927	3782
219.994	7425
220.060	12859
220.127	11346
220.193	5422
220.260	2711
220.326	2752
220.393	2279
220.460	1298
220.526	573
220.593	1802
220.659	1123
220.726	2243
220.792	3069
220.859	2472
220.925	2372
220.992	2331
221.058	4143
221.125	3818
221.191	1858
221.258	529
221.324	1082
221.391	1462
221.457	260
221.524	911
221.590	1543
221.657	4220
221.723	2221
221.789	2029
221.856	1544
221.922	1488
221.989	1446
222.055	1958
222.121	1520
222.188	2925
222.254	2240
222.321	1508
222.387	1742
222.453	745
222.520	1118
222.586	1167
222.652	1164
222.719	1321
222.785	1193
222.851	461
222.918	668
222.984	1076
223.050	174
223.116	579
223.183	891
223.249	1013
223.315	693
223.382	228
223.448	680
223.514	-47
223.580	395
223.647	942
223.713	787
223.779	469
223.845	178
223.911	930
223.978	-121
224.044	606
224.110	368
224.176	1334
224.242	387
224.309	786
224.375	1098
224.441	798
224.507	750
224.573	836
224.639	1082
224.705	58
224.772	775
224.838	826
224.904	250
224.970	369
225.036	1092
225.102	1197
225.168	1911
225.234	1583
225.300	1029
225.366	886
225.432	989
225.499	1671
225.565	1451
225.631	1038
225.697	1180
225.763	1955
225.829	1113
225.895	1722
225.961	1653
226.027	2139
226.093	1417
226.159	2177
226.225	3618
226.291	2821
226.357	3895
226.423	1633
226.489	1595
226.554	1528
226.620	1897
226.686	1446
226.752	1621
226.818	2872
226.884	5063
226.950	3609
227.016	1912
227.082	3040
227.148	2560
227.214	2159
227.279	2356
227.345	3929
227.411	6225
227.477	13381
227.543	24256
227.609	23715
227.674	11568
227.740	6463
227.806	4137
227.872	3550
227.938	2517
228.003	2244
228.069	1763
228.135	1404
228.201	2128
228.267	2044
228.332	1588
228.398	705
228.464	1799
228.530	1226
228.595	1694
228.661	206
228.727	1235
228.792	1168
228.858	865
228.924	136
228.990	2286
229.055	293
229.121	2000
229.187	1336
229.252	769
229.318	1059
229.384	1261
229.449	1176
229.515	118
229.581	-188
229.646	2213
229.712	1206
229.777	1543
229.843	1678
229.909	764
229.974	889
230.040	1516
230.105	1312
230.171	1024
230.236	1513
230.302	1100
230.368	1270
230.433	575
230.499	451
230.564	1617
230.630	663
230.695	709
230.761	1396
230.826	104
230.892	834
230.957	428
231.023	818
231.088	866
231.154	429
231.219	1530
231.284	2028
231.350	671
231.415	1207
231.481	2067
231.546	1281
231.612	454
231.677	340
231.742	653
231.808	1471
231.873	557
231.939	292
232.004	1702
232.069	875
232.135	837
232.200	204
232.265	1294
232.331	932
232.396	1193
232.461	1151
232.527	1109
232.592	258
232.657	1737
232.723	821
232.788	1115
232.853	1856
232.918	1260
232.984	1101
233.049	778
233.114	1650
233.179	2703
233.245	2882
233.310	1846
233.375	392
233.440	440
233.506	795
233.571	886
233.636	1217
233.701	760
233.766	1838
233.832	914
233.897	1128
233.962	602
234.027	1128
234.092	1069
234.157	2169
234.222	2956
234.288	3004
234.353	2074
234.418	1703
234.483	1447
234.548	1277
234.613	1673
234.678	1829
234.743	1081
234.808	2190
234.873	471
234.938	1686
235.004	1557
235.069	1516
235.134	1048
235.199	1369
235.264	1324
235.329	177
235.394	1193
235.459	1115
235.524	558
235.589	1090
235.654	1637
235.719	916
235.784	1470
235.849	1256
235.913	1348
235.978	2020
236.043	971
236.108	1287
236.173	1209
236.238	1490
236.303	995
236.368	1200
236.433	1740
236.498	1320
236.563	1493
236.627	2257
236.692	8031
236.757	3998
236.822	2353
236.887	1240
236.952	1520
237.017	1156
237.081	1831
237.146	1435
237.211	2795
237.276	10020
237.341	11909
237.405	3209
237.470	2028
237.535	1458
237.600	1440
237.664	1396
237.729	473
237.794	1828
237.859	1993
237.923	1340
237.988	728
238.053	1726
238.118	2192
238.182	2980
238.247	3023
238.312	1696
238.376	1755
238.441	884
238.506	1908
238.570	906
238.635	2304
238.700	1550
238.764	1603
238.829	1703
238.893	1479
238.958	2580
239.023	1784
239.087	2093
239.152	2346
239.216	2621
239.281	1872
239.346	2486
239.410	2217
239.475	2720
239.539	5153
239.604	3811
239.668	5890
239.733	9007
239.797	26654
239.862	46502
239.926	27985
239.991	12074
240.055	6381
240.120	4097
240.184	3848
240.249	2168
240.313	2630
240.378	2488
240.442	3250
240.507	3801
240.571	1933
240.635	2062
240.700	2398
240.764	1461
240.829	2303
240.893	1929
240.957	1992
241.022	2125
241.086	2167
241.151	1567
241.215	924
241.279	2289
241.344	1777
241.408	1923
241.472	486
241.537	1367
241.601	2207
241.665	738
241.730	1336
241.794	2095
241.858	139
241.922	206
241.987	2270
242.051	725
242.115	286
242.179	953
242.244	1222
242.308	2254
242.372	1888
242.436	1055
242.501	1375
242.565	1078
242.629	914
242.693	2681
242.757	1215
242.822	1150
242.886	1220
242.950	1763
243.014	1377
243.078	1599
243.142	794
243.206	1117
243.271	1630
243.335	1679
243.399	2142
243.463	4367
243.527	7485
243.591	2880
243.655	2288
243.719	1875
243.783	1918
243.847	1446
243.911	1920
243.975	1991
244.040	606
244.104	2669
244.168	1436
244.232	1307
244.296	1864
244.360	1875
244.424	908
244.488	1522
244.552	2038
244.615	779
244.679	2496
244.743	1724
244.807	362
244.871	1380
244.935	2707
244.999	751
245.063	2300
245.127	1763
245.191	2841
245.255	3121
245.319	2774
245.383	484
245.446	3025
245.510	910
245.574	2636
245.638	1928
245.702	2460
245.766	3100
245.829	4258
245.893	2179
245.957	2110
246.021	2672
246.085	2229
246.149	1785
246.212	4266
246.276	5401
246.340	2454
246.404	2136
246.467	2875
246.531	1677
246.595	2185
246.659	3202
246.722	1344
246.786	3098
246.850	2137
246.913	2025
246.977	1227
247.041	2174
247.104	2105
247.168	2723
247.232	4231
247.295	8462
247.359	3051
247.423	2051
247.486	2223
247.550	2566
247.614	1721
247.677	1769
247.741	2428
247.804	3253
247.868	5423
247.932	5148
247.995	8180
248.059	2192
248.122	1926
248.186	3344
248.249	4048
248.313	16880
248.376	11558
248.440	7382
248.503	2283
248.567	4345
248.630	2666
248.694	3856
248.757	6891
248.821	15053
248.884	6602
248.948	7872
249.011	10821
249.075	18339
249.138	10961
249.202	3555
249.265	2511
249.328	3575
249.392	2116
249.455	3236
249.519	4077
249.582	3621
249.645	4543
249.709	4125
249.772	2039
249.835	2523
249.899	3444
249.962	3578
250.025	1827
250.089	6872
250.152	6081
250.215	3362
250.279	2699
250.342	3518
250.405	3657
250.468	2666
250.532	3724
250.595	5077
250.658	21109
250.721	21611
250.785	5702
250.848	5488
250.911	3265
250.974	4036
251.038	5692
251.101	9093
251.164	4155
251.227	4219
251.290	3612
251.354	5794
251.417	27943
251.480	14151
251.543	12460
251.606	49748
251.669	17964
251.732	8756
251.795	11000
251.859	11730
251.922	26253
251.985	9127
252.048	4392
252.111	4144
252.174	3644
252.237	9806
252.300	16485
252.363	17527
252.426	33911
252.489	7721
252.552	5668
252.615	3666
252.678	6102
252.741	14782
252.804	17893
252.867	33666
252.930	13813
252.993	6648
253.056	5760
253.119	3761
253.182	3053
253.245	4261
253.308	3260
253.371	3320
253.434	3061
253.497	4572
253.559	7694
253.622	5237
253.685	4072
253.748	3776
253.811	3706
253.874	4135
253.937	3248
254.000	4182
254.062	6810
254.125	6671
254.188	5774
254.251	4097
254.314	3410
254.376	3744
254.439	3799
254.502	4495
254.565	6750
254.628	8722
254.690	3808
254.753	3874
254.816	3405
254.878	3133
254.941	7197
255.004	5497
255.067	3961
255.129	3289
255.192	2878
255.255	2658
255.317	3971
255.380	3237
255.443	4030
255.505	4330
255.568	3155
255.631	2864
255.693	5540
255.756	3939
255.819	6019
255.881	4800
255.944	3563
256.006	2664
256.069	3012
256.132	3307
256.194	3104
256.257	4016
256.319	3320
256.382	8245
256.444	7437
256.507	6975
256.569	3454
256.632	4078
256.694	3297
256.757	7480
256.819	10893
256.882	4148
256.944	2871
257.007	3743
257.069	2975
257.132	3357
257.194	3052
257.257	3155
257.319	2953
257.381	2620
257.444	5907
257.506	18061
257.569	9935
257.631	6735
257.693	4374
257.756	2922
257.818	3382
257.880	3748
257.943	3962
258.005	3070
258.067	3883
258.130	3463
258.192	2764
258.254	3628
258.317	2772
258.379	3867
258.441	4742
258.503	4713
258.566	4334
258.628	4857
258.690	3185
258.753	3817
258.815	4335
258.877	3097
258.939	3470
259.001	4057
259.064	3238
259.126	3034
259.188	3242
259.250	3425
259.312	3955
259.375	4771
259.437	2982
259.499	3946
259.561	3877
259.623	2760
259.685	3742
259.747	3838
259.809	4877
259.872	6636
259.934	9684
259.996	6462
260.058	3787
260.120	2898
260.182	3783
260.244	4167
260.306	3168
260.368	3865
260.430	3644
260.492	4201
260.554	4866
260.616	4056
260.678	6558
260.740	5270
260.802	3744
260.864	4250
260.926	3503
260.988	4155
261.050	3643
261.112	4220
261.174	6472
261.236	4779
261.298	3767
261.359	4082
261.421	6430
261.483	3923
261.545	3780
261.607	2929
261.669	4193
261.731	4911
261.793	5410
261.854	3872
261.916	4258
261.978	3211
262.040	4058
262.102	4779
262.164	3701
262.225	4489
262.287	3774
262.349	4904
262.411	4890
262.472	5046
262.534	4740
262.596	4879
262.658	4364
262.719	3437
262.781	4934
262.843	4445
262.904	5653
262.966	4906
263.028	4501
263.090	7878
263.151	9926
263.213	5744
263.275	4394
263.336	5498
263.398	5869
263.459	4042
263.521	4717
263.583	6844
263.644	5278
263.706	4094
263.767	3456
263.829	4325
263.891	4435
263.952	4680
264.014	3373
264.075	4388
264.137	3710
264.198	3508
264.260	3531
264.321	4219
264.383	4543
264.444	4928
264.506	3837
264.567	4098
264.629	5043
264.690	3107
264.752	3872
264.813	4095
264.875	3844
264.936	5110
264.998	5161
265.059	6004
265.120	5091
265.182	4804
265.243	7846
265.305	6733
265.366	5195
265.427	4442
265.489	6079
265.550	4220
265.611	4306
265.673	4614
265.734	4378
265.795	3984
265.857	3771
265.918	3194
265.979	5858
266.040	11783
266.102	6877
266.163	5659
266.224	4706
266.286	4795
266.347	4521
266.408	5055
266.469	4696
266.530	5632
266.592	5309
266.653	6465
266.714	6750
266.775	6775
266.836	5881
266.898	6198
266.959	6741
267.020	6626
267.081	8635
267.142	6703
267.203	6758
267.264	6791
267.326	7949
267.387	7083
267.448	5960
267.509	7928
267.570	7134
267.631	5797
267.692	5193
267.753	6486
267.814	4658
267.875	5620
267.936	6263
267.997	5172
268.058	4653
268.119	4643
268.180	4297
268.241	3035
268.302	4353
268.363	3596
268.424	4230
268.485	4639
268.546	3555
268.607	4013
268.668	3561
268.729	3368
268.790	3280
268.851	4572
268.912	4320
268.972	4254
269.033	3476
269.094	3533
269.155	4292
269.216	3516
269.277	3794
269.338	3989
269.398	4304
269.459	3011
269.520	5130
269.581	4665
269.642	4877
269.702	4100
269.763	4752
269.824	4581
269.885	4834
269.945	4428
270.006	4089
270.067	3716
270.128	4080
270.188	3040
270.249	3631
270.310	3253
270.370	4319
270.431	3894
270.492	2891
270.553	3667
270.613	5702
270.674	4840
270.734	3289
270.795	4332
270.856	4480
270.916	3940
270.977	4649
271.038	4991
271.098	3950
271.159	3899
271.219	4101
271.280	4161
271.340	3983
271.401	4443
271.462	4391
271.522	4798
271.583	4110
271.643	5612
271.704	5252
271.764	5942
271.825	7189
271.885	19791
271.946	17523
272.006	9638
272.066	15577
272.127	21365
272.187	24075
272.248	10846
272.308	8598
272.369	13174
272.429	7731
272.489	7575
272.550	8407
272.610	8426
272.671	6637
272.731	8013
272.791	8489
272.852	7384
272.912	7642
272.972	8942
273.033	9059
273.093	7769
273.153	9894
273.214	10154
273.274	10262
273.334	15822
273.394	19259
273.455	15971
273.515	17214
273.575	18212
273.635	16978
273.696	21048
273.756	24636
273.816	17396
273.876	15732
273.936	14474
273.997	14295
274.057	10841
274.117	9846
274.177	10660
274.237	19390
274.297	12938
274.358	10776
274.418	11778
274.478	8385
274.538	6960
274.598	6044
274.658	8457
274.718	7434
274.778	6616
274.838	6957
274.898	7750
274.958	9734
275.018	15947
275.078	8549
275.138	6069
275.198	6323
275.258	6049
275.318	5658
275.378	5922
275.438	5783
275.498	6102
275.558	7368
275.618	9541
275.678	9337
275.738	8323
275.798	6758
275.858	5739
275.918	5389
275.978	6759
276.038	6921
276.098	7153
276.157	7711
276.217	9277
276.277	6917
276.337	6133
276.397	6666
276.457	7090
276.517	7999
276.576	7833
276.636	6632
276.696	7746
276.756	8481
276.815	8377
276.875	9513
276.935	8843
276.995	8150
277.055	9464
277.114	10672
277.174	8319
277.234	9615
277.293	8558
277.353	8385
277.413	7757
277.472	9031
277.532	10983
277.592	17157
277.651	69671
277.711	72228
277.771	38528
277.830	102663
277.890	58756
277.950	88877
278.009	145116
278.069	56473
278.128	87688
278.188	78482
278.248	57365
278.307	114160
278.367	44840
278.426	20834
278.486	15364
278.545	12914
278.605	12629
278.664	11991
278.724	11987
278.783	16770
278.843	19955
278.902	14091
278.962	14307
279.021	16722
279.081	29312
279.140	23365
279.199	19935
279.259	24032
279.318	28060
279.378	37438
279.437	63224
279.496	170745
279.556	389853
279.615	242441
279.675	98017
279.734	59056
279.793	66991
279.853	60833
279.912	33708
279.971	27594
280.031	27344
280.090	38308
280.149	50015
280.208	96103
280.268	299102
280.327	204836
280.386	72660
280.445	41857
280.505	28808
280.564	22443
280.623	18194
280.682	17568
280.742	16637
280.801	14178
280.860	12944
280.919	13040
280.978	14493
281.037	13322
281.097	13357
281.156	14167
281.215	12289
281.274	12636
281.333	15452
281.392	11373
281.451	10934
281.510	10040
281.569	11025
281.628	10724
281.688	10082
281.747	11004
281.806	10185
281.865	10108
281.924	9102
281.983	9405
282.042	9435
282.101	9081
282.160	9441
282.219	9556
282.278	9368
282.337	11193
282.396	9760
282.454	10713
282.513	10670
282.572	11424
282.631	10678
282.690	9771
282.749	10453
282.808	11603
282.867	11755
282.926	10915
282.985	11137
283.043	11476
283.102	11924
283.161	13071
283.220	14073
283.279	15665
283.338	13996
283.396	14518
283.455	14049
283.514	14028
283.573	15040
283.631	15723
283.690	15651
283.749	15798
283.808	17450
283.866	17349
283.925	17432
283.984	19178
284.043	20724
284.101	21954
284.160	22187
284.219	24911
284.277	26673
284.336	29062
284.395	33736
284.453	36749
284.512	39986
284.570	44442
284.629	51462
284.688	62808
284.746	75653
284.805	91381
284.863	114855
284.922	142721
284.981	179632
285.039	240269
285.098	327342
285.156	341259
285.215	202769
285.273	272209
285.332	353386
285.390	298739
285.449	225756
285.507	170220
285.566	132896
285.624	106020
285.683	86722
285.741	71417
285.799	60407
285.858	52891
285.916	45156
285.975	40205
286.033	36074
286.091	32300
286.150	29426
286.208	28181
286.267	25838
286.325	23651
286.383	22674
286.442	21754
286.500	20043
286.558	18992
286.616	17980
286.675	18427
286.733	17114
286.791	15741
286.850	15070
286.908	14569
286.966	14767
287.024	13474
287.083	12534
287.141	13004
287.199	13648
287.257	13027
287.315	12172
287.374	11359
287.432	11880
287.490	11118
287.548	10643
287.606	10412
287.664	10850
287.723	10589
287.781	11089
287.839	10503
287.897	10475
287.955	10537
288.013	12095
288.071	14404
288.129	47786
288.187	82614
288.245	28427
288.303	14517
288.361	12336
288.419	10858
288.477	9641
288.535	8912
288.593	9225
288.651	8954
288.709	8278
288.767	8453
288.825	7289
288.883	7687
288.941	8149
288.999	8351
289.057	8170
289.115	8390
289.173	8093
289.231	7573
289.289	7539
289.346	6980
289.404	8620
289.462	7888
289.520	7556
289.578	6414
289.636	7087
289.694	7028
289.751	7417
289.809	6959
289.867	7058
289.925	7568
289.983	7371
290.040	7685
290.098	6278
290.156	7280
290.214	6963
290.271	7029
290.329	8792
290.387	6982
290.444	6285
290.502	7216
290.560	6920
290.617	6968
290.675	6702
290.733	6762
290.790	7769
290.848	7223
290.906	6608
290.963	5789
291.021	6862
291.078	7343
291.136	6065
291.194	6950
291.251	7997
291.309	6870
291.366	7009
291.424	6902
291.481	7891
291.539	12258
291.596	12525
291.654	7926
291.711	7619
291.769	6955
291.826	7909
291.884	6420
291.941	7583
291.999	6349
292.056	7000
292.114	6292
292.171	6971
292.228	8611
292.286	8382
292.343	6876
292.401	7185
292.458	7071
292.515	6645
292.573	8278
292.630	7730
292.687	6314
292.745	6648
292.802	7442
292.859	10438
292.917	11864
292.974	8648
293.031	6955
293.089	7618
293.146	6566
293.203	6705
293.260	6363
293.318	6631
293.375	6684
293.432	6953
293.489	8162
293.546	8599
293.604	10400
293.661	19837
293.718	22994
293.775	14790
293.832	17988
293.889	21616
293.947	15120
294.004	10129
294.061	9343
294.118	11881
294.175	18105
294.232	25707
294.289	18050
294.346	12387
294.403	9411
294.460	8639
294.517	7794
294.574	8420
294.631	8436
294.688	8445
294.745	10698
294.802	16224
294.859	11364
294.916	7662
294.973	7470
295.030	6133
295.087	7058
295.144	6977
295.201	7375
295.258	5816
295.315	6576
295.372	10734
295.429	12243
295.486	7771
295.542	6690
295.599	6951
295.656	7455
295.713	8776
295.770	9782
295.827	7074
295.883	6618
295.940	6750
295.997	7231
296.054	5987
296.111	6472
296.167	6791
296.224	5407
296.281	4666
296.338	6455
296.394	7116
296.451	6353
296.508	7691
296.564	8224
296.621	8988
296.678	20608
296.734	18968
296.791	9403
296.848	8007
296.904	7277
296.961	9303
297.018	13068
297.074	9358
297.131	6791
297.187	7683
297.244	8752
297.301	18916
297.357	21679
297.414	10961
297.470	8031
297.527	7391
297.583	6619
297.640	6886
297.696	6488
297.753	5719
297.809	5955
297.866	6402
297.922	6418
297.979	6733
298.035	6898
298.092	7202
298.148	10194
298.204	8775
298.261	7280
298.317	13344
298.374	19773
298.430	11744
298.486	9073
298.543	7938
298.599	7361
298.656	7592
298.712	7514
298.768	8791
298.824	8157
298.881	7624
298.937	7396
298.993	7309
299.050	7190
299.106	7233
299.162	7478
299.218	8427
299.275	7405
299.331	10135
299.387	13602
299.443	34926
299.500	62141
299.556	37779
299.612	20907
299.668	24983
299.724	60128
299.780	48410
299.837	23348
299.893	21642
299.949	48887
300.005	52335
300.061	55934
300.117	63495
300.173	28746
300.229	16133
300.285	14085
300.341	12118
300.397	10060
300.453	11152
300.510	11743
300.566	15120
300.622	32002
300.678	89574
300.734	76909
300.790	39142
300.845	33352
300.901	55685
300.957	55716
301.013	26586
301.069	15756
301.125	12779
301.181	9334
301.237	10680
301.293	8815
301.349	8973
301.405	9078
301.461	8818
301.516	8143
301.572	7795
301.628	8226
301.684	8286
301.740	8460
301.796	9323
301.851	9143
301.907	10404
301.963	12222
302.019	23941
302.074	48315
302.130	37911
302.186	18613
302.242	12603
302.297	9898
302.353	9014
302.409	9959
302.464	9465
302.520	9747
302.576	15604
302.631	13979
302.687	8822
302.743	8089
302.798	6562
302.854	6769
302.910	7898
302.965	6576
303.021	7586
303.076	7512
303.132	7643
303.187	7188
303.243	7067
303.299	7418
303.354	6412
303.410	6385
303.465	6855
303.521	6926
303.576	7338
303.632	7317
303.687	9978
303.743	16972
303.798	12582
303.853	8469
303.909	8080
303.964	7134
304.020	7150
304.075	7522
304.130	6836
304.186	8133
304.241	8858
304.297	8449
304.352	6686
304.358	6743
304.407	7204
304.449	7913
304.463	8151
304.518	6954
304.539	7135
304.573	7415
304.629	8114
304.630	8137
304.684	9409
304.720	14258
304.739	16575
304.794	17670
304.811	16037
304.850	12054
304.902	7873
304.905	7617
304.960	8039
304.992	7662
305.015	7370
305.071	7026
305.083	7105
305.126	7352
305.173	6904
305.181	6839
305.236	6402
305.264	6452
305.292	6470
305.347	7524
305.354	7553
305.402	7861
305.445	7468
305.457	7322
305.512	7610
305.535	7480
305.567	7426
305.622	7314
305.626	7419
305.678	9944
305.716	13065
305.733	13962
305.788	13981
305.807	13431
305.843	13577
305.897	19533
305.898	19580
305.953	15631
305.988	12064
306.008	10558
306.063	8890
306.078	8551
306.118	7914
306.168	7013
306.173	6937
306.228	7754
306.259	7556
306.283	7410
306.338	7513
306.349	7453
306.393	7363
306.440	8023
306.448	8125
306.503	8796
306.530	8558
306.558	8470
306.613	9235
306.620	9279
306.668	10627
306.711	13620
306.723	13834
306.778	11699
306.801	10556
306.833	9648
306.888	8794
306.892	8764
306.943	8834
306.982	8484
306.997	8368
307.052	8230
307.072	8482
307.107	8888
307.162	8933
307.163	8929
307.217	9624
307.253	9253
307.272	9079
307.327	10384
307.343	10515
307.381	10813
307.434	11238
307.436	11295
307.491	12096
307.524	13301
307.546	13708
307.600	13497
307.614	13158
307.655	11793
307.704	11351
307.710	11419
307.765	11582
307.795	11723
307.819	11996
307.874	12976
307.885	13190
307.929	14617
307.975	16125
307.984	16618
308.038	19147
308.065	21348
308.093	33547
308.148	63988
308.156	70207
308.202	96299
308.246	103786
308.257	97716
308.312	52898
308.336	35812
308.366	30881
308.421	26645
308.426	26322
308.475	26178
308.517	26621
308.530	26939
308.585	28104
308.607	28863
308.639	30492
308.694	32239
308.697	32316
308.748	34080
308.787	35157
308.803	36374
308.857	41111
308.877	42809
308.912	49727
308.967	62895
308.967	63004
309.021	94316
309.058	118813
309.076	133676
309.130	180244
309.148	194217
309.185	251242
309.238	347530
309.239	349191
309.293	394972
309.328	401404
309.348	370233
309.402	266515
309.418	237089
309.457	201797
309.508	162149
309.511	163925
309.566	202162
309.598	231385
309.620	278033
309.674	409732
309.688	440546
309.729	423960
309.778	372024
309.783	363594
309.837	251757
309.868	190209
309.892	166933
309.946	118859
309.959	108588
310.001	91785
310.049	73498
310.055	71709
310.109	56316
310.139	48250
310.163	44727
310.218	37408
310.229	35938
310.272	32712
310.319	29740
310.326	29364
310.381	26182
310.409	24577
310.435	24003
310.489	22899
310.499	22669
310.543	21855
310.589	20874
310.598	20725
310.652	19867
310.679	19362
310.706	19195
310.760	18657
310.769	18538
310.814	18478
310.859	18495
310.868	18495
310.923	18240
310.948	18030
310.977	17932
311.031	17690
311.038	17623
311.085	17037
311.128	16387
311.139	16451
311.193	16608
311.218	16562
311.247	16342
311.301	16126
311.308	16041
311.356	16200
311.398	16358
311.410	16255
311.464	15466
311.488	15076
311.518	15220
311.572	15529
311.578	15514
311.626	15830
311.668	16058
311.680	16138
311.734	16258
311.758	16293
311.788	16511
311.842	16811
311.847	16796
311.896	16390
311.937	15988
311.950	15967
312.004	15665
312.027	15508
312.058	15469
312.112	15332
312.117	15271
312.165	16180
312.207	16875
312.297	15693
312.386	16109
312.476	16102
312.566	17457
312.656	17045
312.745	16724
312.835	18052
312.925	18020
313.015	18784
313.104	18965
313.194	19797
313.284	19708
313.374	21338
313.463	22072
313.553	23715
313.643	23451
313.732	25525
313.822	25808
313.912	28144
314.001	29390
314.091	30113
314.180	29685
314.270	29294
314.360	30151
314.449	29274
314.539	28685
314.628	29841
314.718	29645
314.808	31582
314.897	32486
314.987	34197
315.076	35830
315.166	34064
315.255	32991
315.345	32520
315.434	30972
315.524	32180
315.613	34664
315.703	46944
315.792	130652
315.881	402822
315.971	119078
316.060	39702
316.150	31618
316.239	30529
316.328	31485
316.418	34148
316.507	37550
316.597	42293
316.686	44324
316.775	40832
316.865	36220
316.954	31141
317.043	29513
317.133	27029
317.222	24453
317.311	23415
317.400	23191
317.490	26080
317.579	27635
317.668	34161
317.757	57835
317.847	219747
317.936	573687
318.025	168077
318.114	162221
318.203	72804
318.293	35976
318.382	56157
318.471	60426
318.560	47925
318.649	40589
318.738	29929
318.828	24396
318.917	19286
319.006	19862
319.095	20480
319.184	26821
319.273	23591
319.362	21845
319.451	19284
319.540	20151
319.629	22239
319.718	22206
319.807	20661
319.896	23423
319.985	31003
320.074	25397
320.163	23678
320.252	23958
320.341	26197
320.430	28243
320.519	30738
320.608	32859
320.697	37270
320.786	40796
320.875	47618
320.964	50450
321.053	52449
321.142	57544
321.230	62104
321.319	67070
321.408	72924
321.497	70239
321.586	61891
321.675	55543
321.764	54335
321.852	55663
321.941	58842
322.030	60391
322.119	65750
322.207	75290
322.296	79273
322.385	85104
322.474	92421
322.562	93991
322.651	73886
322.740	63441
322.829	56042
322.917	48623
323.006	46128
323.095	42545
323.183	38945
323.272	36712
323.361	35407
323.449	36192
323.538	31078
323.626	32754
323.715	30377
323.804	27483
323.892	29146
323.981	26863
324.069	25070
324.158	25817
324.246	24467
324.335	24845
324.424	25242
324.512	23487
324.601	22731
324.689	22923
324.778	23864
324.866	23104
324.954	21760
325.043	21484
325.131	20523
325.220	21263
325.308	21055
325.397	20582
325.485	20493
325.574	18992
325.662	20230
325.750	17908
325.839	18855
325.927	18797
326.015	18906
326.104	18986
326.192	17847
326.280	17482
326.369	18366
326.457	18545
326.545	19971
326.634	18030
326.722	19222
326.810	19912
326.898	24090
326.987	26093
327.075	23016
327.163	22654
327.251	22182
327.340	23664
327.428	32097
327.516	39120
327.604	32985
327.692	25712
327.781	21306
327.869	19096
327.957	17593
328.045	15576
328.133	16021
328.221	15199
328.309	15285
328.397	16899
328.485	19886
328.574	33667
328.662	50062
328.750	36262
328.838	24345
328.926	19830
329.014	17151
329.102	16743
329.190	18118
329.278	16417
329.366	14966
329.454	14917
329.542	14602
329.630	14620
329.718	15513
329.806	14912
329.893	15588
329.981	14735
330.069	15700
330.157	16041
330.245	20244
330.333	17451
330.421	15110
330.509	15611
330.597	20274
330.684	17463
330.772	15491
330.860	15565
330.948	16550
331.036	15431
331.123	14569
331.211	16197
331.299	15684
331.387	16332
331.475	17340
331.562	16259
331.650	17001
331.738	15983
331.825	17771
331.913	16551
332.001	17469
332.089	16884
332.176	18638
332.264	18824
332.352	18854
332.439	18936
332.527	18520
332.614	19310
332.702	20599
332.790	21470
332.877	28752
332.965	76307
333.052	68741
333.140	85700
333.228	208808
333.315	66844
333.403	34018
333.490	37412
333.578	90908
333.665	304574
333.753	133923
333.840	45499
333.928	42943
334.015	46458
334.103	58316
334.190	75224
334.278	93149
334.365	115063
334.452	110167
334.540	89433
334.627	95674
334.715	116077
334.802	157993
334.889	217051
334.977	242068
335.064	159947
335.151	101790
335.239	77270
335.326	67913
335.413	69199
335.501	72949
335.588	75451
335.675	86364
335.762	106254
335.850	141898
335.937	194734
336.024	277242
336.111	354298
336.199	285376
336.286	164372
336.373	106204
336.460	75835
336.547	61014
336.635	50841
336.722	45565
336.809	39782
336.896	35902
336.983	36389
337.070	38444
337.157	41347
337.245	36581
337.332	35406
337.419	33734
337.506	32815
337.593	30372
337.680	29874
337.767	30938
337.854	25981
337.941	25673
338.028	25429
338.115	24891
338.202	26845
338.289	27083
338.376	27030
338.463	24041
338.550	23596
338.637	23265
338.724	20991
338.811	20966
338.898	20177
338.984	19747
339.071	20350
339.158	20307
339.245	20409
339.332	20236
339.419	20085
339.506	20721
339.593	20317
339.679	21372
339.766	20662
339.853	20796
339.940	20096
340.027	19387
340.113	18879
340.200	18649
340.287	17846
340.374	18347
340.460	19156
340.547	17936
340.634	18813
340.720	23365
340.807	19455
340.894	18083
340.980	17987
341.067	17743
341.154	18907
341.240	18887
341.327	19845
341.414	18911
341.500	17154
341.587	17766
341.674	18024
341.760	19184
341.847	18237
341.933	17062
342.020	16602
342.106	17836
342.193	16830
342.279	18023
342.366	16970
342.452	18033
342.539	17419
342.625	19220
342.712	22272
342.798	19281
342.885	17185
342.971	16655
343.058	17021
343.144	16855
343.230	17181
343.317	17071
343.403	16574
343.490	17028
343.576	15684
343.662	17927
343.749	16348
343.835	17601
343.921	20253
344.008	57906
344.094	93891
344.180	27880
344.267	18453
344.353	27714
344.439	24643
344.525	18367
344.612	17680
344.698	17471
344.784	16270
344.870	16628
344.957	16375
345.043	17705
345.129	16663
345.215	18319
345.301	16730
345.387	16866
345.474	16348
345.560	16666
345.646	15571
345.732	16694
345.818	17099
345.904	17069
345.990	17385
346.076	16440
346.162	16208
346.249	17234
346.335	16324
346.421	17801
346.507	22949
346.593	36691
346.679	20936
346.765	24341
346.851	40301
346.937	36152
347.023	23254
347.108	21159
347.194	19240
347.280	20374
347.366	31106
347.452	75217
347.538	112326
347.624	56861
347.710	33064
347.796	22329
347.882	20042
347.967	19610
348.053	18392
348.139	18620
348.225	19153
348.311	18952
348.397	19528
348.482	21542
348.568	24566
348.654	38847
348.740	104213
348.825	128565
348.911	58400
348.997	43449
349.083	47511
349.168	23345
349.254	21400
349.340	19096
349.425	18923
349.511	19164
349.597	18948
349.682	20398
349.768	28004
349.854	21459
349.939	18794
350.025	18611
350.110	17400
350.196	18607
350.282	17679
350.367	17650
350.453	17289
350.538	18638
350.624	18188
350.709	17724
350.795	17642
350.880	18275
350.966	18019
351.051	17586
351.137	17576
351.222	18564
351.308	20071
351.393	23579
351.479	18559
351.564	17020
351.649	18061
351.735	17978
351.820	17567
351.906	17062
351.991	17960
352.076	22340
352.162	23349
352.247	18645
352.332	17699
352.418	18822
352.503	19517
352.588	26218
352.673	23029
352.759	18398
352.844	17358
352.929	17371
353.014	17674
353.100	19200
353.185	20414
353.270	20264
353.355	18466
353.441	17738
353.526	17245
353.611	18432
353.696	18712
353.781	18730
353.866	17055
353.952	18450
354.037	18800
354.122	21598
354.207	20318
354.292	18558
354.377	17123
354.462	18394
354.547	18092
354.632	18816
354.717	19451
354.802	21253
354.887	18949
354.972	17819
355.057	17204
355.142	18155
355.227	18425
355.312	19825
355.397	19984
355.482	23693
355.567	20935
355.652	20656
355.737	21142
355.822	30647
355.907	26117
355.991	20226
356.076	18725
356.161	19755
356.246	18566
356.331	19685
356.416	23111
356.501	50354
356.585	48894
356.670	21916
356.755	21570
356.840	22521
356.924	45818
357.009	102113
357.094	45027
357.179	21232
357.263	21100
357.348	20757
357.433	20329
357.517	21399
357.602	19660
357.687	21141
357.771	22510
357.856	25659
357.941	24647
358.025	47637
358.110	130359
358.195	62663
358.279	24821
358.364	25563
358.448	29726
358.533	41562
358.617	34239
358.702	33628
358.787	25393
358.871	23292
358.956	23283
359.040	22717
359.125	20840
359.209	22653
359.294	27472
359.378	47022
359.462	42362
359.547	25311
359.631	21020
359.716	21798
359.800	20807
359.885	21748
359.969	20555
360.053	21297
360.138	20591
360.222	20987
360.306	22168
360.391	22616
360.475	24407
360.559	27333
360.644	27276
360.728	27972
360.812	40252
360.896	68933
360.981	36203
361.065	26809
361.149	25810
361.233	26815
361.318	26482
361.402	28748
361.486	29747
361.570	31537
361.654	32561
361.739	39435
361.823	68290
361.907	90211
361.991	56328
362.075	64497
362.159	92818
362.243	166334
362.327	335983
362.411	388630
362.495	185271
362.580	108928
362.664	105870
362.748	130006
362.832	201096
362.916	391636
363.000	771124
363.084	844745
363.168	414104
363.252	168433
363.336	103771
363.420	82042
363.503	76254
363.587	70797
363.671	66374
363.755	68941
363.839	77080
363.923	89880
364.007	114620
364.091	159123
364.175	249895
364.258	478559
364.342	931990
364.426	1175188
364.510	678631
364.594	285116
364.677	155973
364.761	133837
364.845	97065
364.929	62018
365.013	52029
365.096	46524
365.180	41603
365.264	40413
365.347	45562
365.431	37481
365.515	32913
365.598	31342
365.682	31538
365.766	31871
365.849	30622
365.933	30294
366.017	30386
366.100	30324
366.184	30120
366.267	31754
366.351	30525
366.435	28239
366.518	28458
366.602	28375
366.685	28504
366.769	28870
366.852	28203
366.936	30196
367.019	28730
367.103	28643
367.186	29545
367.270	29405
367.353	29543
367.436	34017
367.520	35516
367.603	35609
367.687	33507
367.770	33679
367.853	32992
367.937	38309
368.020	41215
368.104	29269
368.187	28008
368.270	27956
368.353	26413
368.437	26049
368.520	25596
368.603	27239
368.687	30613
368.770	36321
368.853	26439
368.936	24869
369.020	24106
369.103	23114
369.186	23287
369.269	23075
369.352	24068
369.436	24185
369.519	23395
369.602	21774
369.685	24296
369.768	22903
369.851	23497
369.934	23290
370.018	22242
370.101	23842
370.184	25073
370.267	24908
370.350	26277
370.433	32913
370.516	88577
370.599	216360
370.682	121133
370.765	40667
370.848	37684
370.931	47022
371.014	33529
371.097	27296
371.180	27313
371.263	27903
371.346	27831
371.429	29095
371.511	28876
371.594	29983
371.677	32650
371.760	35531
371.843	40180
371.926	81816
372.009	134854
372.091	73393
372.174	52556
372.257	63873
372.340	51356
372.423	46244
372.505	44115
372.588	37661
372.671	38639
372.754	50004
372.836	41513
372.919	37263
373.002	40800
373.085	38233
373.167	41054
373.250	43759
373.332	57284
373.415	89441
373.498	149470
373.580	119474
373.663	317384
373.746	331351
373.828	76658
373.911	40510
373.993	35673
374.076	37528
374.159	36764
374.241	36797
374.324	46297
374.406	43422
374.489	61836
374.571	104778
374.654	58361
374.736	47781
374.819	76557
374.901	105379
374.983	110618
375.066	48358
375.148	38480
375.231	44090
375.313	46882
375.395	42603
375.478	40358
375.560	38902
375.643	39447
375.725	49681
375.807	87603
375.890	68957
375.972	36267
376.054	34783
376.136	32796
376.219	32913
376.301	42856
376.383	64836
376.465	41908
376.548	32142
376.630	36566
376.712	53751
376.794	38072
376.877	26642
376.959	24620
377.041	25775
377.123	25633
377.205	25940
377.287	25199
377.369	25269
377.452	26487
377.534	26066
377.616	24818
377.698	25095
377.780	26003
377.862	25459
377.944	24860
378.026	25797
378.108	24250
378.190	24907
378.272	23952
378.354	25117
378.436	23561
378.518	25246
378.600	26977
378.682	27809
378.764	32892
378.846	32036
378.928	24946
379.010	25795
379.091	25729
379.173	25469
379.255	24734
379.337	26194
379.419	29610
379.501	38969
379.583	30480
379.664	26546
379.746	28848
379.828	34573
379.910	38408
379.991	37438
380.073	29152
380.155	28752
380.237	26573
380.318	28131
380.400	29051
380.482	30207
380.564	31535
380.645	34558
380.727	32310
380.809	32220
380.890	31882
380.972	32760
381.053	33964
381.135	35686
381.217	38362
381.298	44806
381.380	40979
381.461	44309
381.543	67292
381.624	76982
381.706	49533
381.787	47707
381.869	52016
381.951	74637
382.032	131566
382.113	106780
382.195	67536
382.276	72859
382.358	88543
382.439	116192
382.521	144652
382.602	193846
382.684	211443
382.765	370309
382.846	877371
382.928	1466415
383.009	1041777
383.090	1004385
383.172	1780192
383.253	1849168
383.334	944711
383.416	498992
383.497	402397
383.578	499456
383.659	901347
383.741	1749151
383.822	2209572
383.903	1457757
383.984	685636
384.066	367224
384.147	235536
384.228	169459
384.309	142606
384.390	128066
384.471	114164
384.553	103572
384.634	95494
384.715	92139
384.796	88117
384.877	92929
384.958	100256
385.039	93442
385.120	78501
385.201	71483
385.282	72398
385.363	89912
385.444	112626
385.525	110353
385.606	110541
385.687	100627
385.768	77698
385.849	76935
385.930	105248
386.011	131848
386.092	83429
386.173	68525
386.254	61366
386.335	58671
386.416	57717
386.496	62094
386.577	63738
386.658	58536
386.739	56044
386.820	58930
386.901	60033
386.981	64016
387.062	71945
387.143	78816
387.224	81710
387.304	84790
387.385	81362
387.466	79902
387.547	84562
387.627	87399
387.708	91464
387.789	99981
387.869	102243
387.950	82032
388.031	72365
388.111	68381
388.192	71403
388.273	75507
388.353	69062
388.434	53194
388.514	54423
388.595	74321
388.676	76548
388.756	53645
388.837	49178
388.917	46710
388.998	42487
389.078	42660
389.159	41811
389.239	41453
389.320	41869
389.400	39316
389.480	43783
389.561	50614
389.641	45679
389.722	39747
389.802	39811
389.883	44309
389.963	51370
390.043	45557
390.124	38838
390.204	41504
390.284	46491
390.365	43568
390.445	42501
390.525	50881
390.605	51704
390.686	44905
390.766	43871
390.846	43221
390.927	42732
391.007	43919
391.087	45452
391.167	46184
391.247	46939
391.328	49962
391.408	51648
391.488	53097
391.568	52956
391.648	57437
391.728	59482
391.808	63431
391.888	64944
391.969	73053
392.049	79929
392.129	81993
392.209	89034
392.289	104013
392.369	105499
392.449	111133
392.529	124371
392.609	139916
392.689	163646
392.769	197921
392.849	241754
392.929	306157
393.009	416357
393.089	614003
393.169	1038547
393.248	1802537
393.328	2344137
393.408	2110384
393.488	1604980
393.568	969294
393.648	574056
393.728	378208
393.807	267933
393.887	210404
393.967	167446
394.047	142581
394.127	120021
394.206	112056
394.286	138375
394.366	274566
394.446	287384
394.525	113829
394.605	79709
394.685	74872
394.764	83113
394.844	133142
394.924	170093
395.003	102933
395.083	68517
395.163	63104
395.242	61226
395.322	62980
395.402	61185
395.481	68469
395.561	88932
395.640	196131
395.720	353077
395.799	230751
395.879	107158
395.958	94471
396.038	152693
396.117	357476
396.197	397351
396.276	181279
396.356	157386
396.435	196967
396.515	266985
396.594	416766
396.673	799776
396.753	1575403
396.832	2115594
396.912	1713312
396.991	985072
397.070	498556
397.150	300362
397.229	242490
397.308	348143
397.388	538481
397.467	336257
397.546	137196
397.625	93760
397.705	80583
397.784	69057
397.863	63807
397.942	58301
398.022	54701
398.101	51825
398.180	51047
398.259	46557
398.338	42815
398.417	40954
398.497	39511
398.576	38241
398.655	36127
398.734	35004
398.813	34531
398.892	33805
398.971	36899
399.050	33170
399.129	30478
399.208	30124
399.287	29382
399.366	26790
399.445	27801
399.524	27584
399.603	25318
399.682	27461
399.761	28493
399.840	31369
399.919	30361
399.998	24773
400.077	23261
400.156	22280
400.235	23889
400.313	21889
400.392	22226
400.471	26026
400.550	27513
400.629	21901
400.708	21934
400.786	19740
400.865	20542
400.944	19920
401.023	21177
401.102	18711
401.180	19542
401.259	18911
401.338	18951
401.416	19145
401.495	17558
401.574	19084
401.652	18541
401.731	18537
401.810	18241
401.888	17628
401.967	17713
402.046	17969
402.124	17259
402.203	16736
402.281	18015
402.360	17212
402.438	18693
402.517	17414
402.596	17460
402.674	16551
402.753	17356
402.831	17864
402.910	19371
402.988	25059
403.066	44023
403.145	35610
403.223	27588
403.302	40870
403.380	38531
403.459	37162
403.537	28642
403.615	26516
403.694	23327
403.772	23823
403.850	22816
403.929	21942
404.007	20637
404.085	23608
404.164	23956
404.242	21268
404.320	25915
404.398	32003
404.477	36887
404.555	61243
404.633	57931
404.711	29486
404.789	24096
404.868	19720
404.946	19328
405.024	18174
405.102	17650
405.180	17213
405.258	16047
405.336	16942
405.415	16718
405.493	17838
405.571	19697
405.649	17922
405.727	19883
405.805	23375
405.883	23583
405.961	23310
406.039	20138
406.117	17790
406.195	19990
406.273	23973
406.351	40949
406.429	32084
406.507	16500
406.585	16452
406.663	16863
406.740	17015
406.818	17123
406.896	15520
406.974	18086
407.052	17451
407.130	29748
407.208	36722
407.285	22036
407.363	17517
407.441	17822
407.519	17405
407.596	19198
407.674	26912
407.752	52624
407.830	46534
407.907	23089
407.985	18048
408.063	17836
408.141	16161
408.218	18060
408.296	17046
408.373	19916
408.451	21256
408.529	21206
408.606	20956
408.684	23338
408.762	24413
408.839	26309
408.917	28207
408.994	31828
409.072	37024
409.149	47417
409.227	68654
409.304	94676
409.382	110079
409.459	130372
409.537	150685
409.614	150380
409.692	135379
409.769	134299
409.846	162601
409.924	181791
410.001	160263
410.079	126748
410.156	98939
410.233	79263
410.311	65181
410.388	55563
410.465	50290
410.543	44980
410.620	41300
410.697	37962
410.775	37548
410.852	36523
410.929	37969
411.006	37007
411.083	34671
411.161	32567
411.238	32216
411.315	29684
411.392	27716
411.469	27185
411.547	24970
411.624	24127
411.701	23997
411.778	22568
411.855	22635
411.932	21035
412.009	19774
412.086	20281
412.163	19660
412.240	18602
412.317	18600
412.394	17771
412.471	17111
412.548	16702
412.625	17214
412.702	16566
412.779	16779
412.856	16597
412.933	14804
413.010	15902
413.087	15570
413.164	17310
413.241	18855
413.318	14780
413.395	15223
413.471	15541
413.548	13677
413.625	13573
413.702	12315
413.779	13265
413.855	13120
413.932	12819
414.009	12216
414.086	12646
414.162	12404
414.239	13951
414.316	15826
414.393	20732
414.469	15052
414.546	11864
414.623	12131
414.699	12302
414.776	12168
414.853	12253
414.929	12530
415.006	12097
415.082	11500
415.159	12243
415.236	12156
415.312	12745
415.389	11965
415.465	12143
415.542	11970
415.618	11603
415.695	13186
415.771	12175
415.848	11526
415.924	12042
416.000	11483
416.077	13101
416.153	11712
416.230	12153
416.306	11842
416.383	13499
416.459	12841
416.535	13721
416.612	13481
416.688	15308
416.764	16610
416.841	16786
416.917	15708
416.993	16220
417.069	15399
417.146	14314
417.222	13684
417.298	14033
417.374	13192
417.451	14390
417.527	12878
417.603	13035
417.679	13509
417.755	12838
417.831	12275
417.908	13445
417.984	12850
418.060	12880
418.136	13653
418.212	14166
418.288	13023
418.364	13304
418.440	12428
418.516	13330
418.592	13487
418.668	14435
418.744	14712
418.820	15177
418.896	14033
418.972	14213
419.048	14519
419.124	15285
419.200	14224
419.276	15132
419.352	15094
419.428	16487
419.504	16041
419.579	17577
419.655	17469
419.731	17136
419.807	19761
419.883	19417
419.959	20140
420.034	20700
420.110	21983
420.186	25446
420.262	25940
420.337	23868
420.413	24413
420.489	25599
420.565	27589
420.640	28222
420.716	29873
420.792	31029
420.867	34136
420.943	33682
421.019	38040
421.094	39962
421.170	42316
421.245	44124
421.321	49439
421.397	53294
421.472	65141
421.548	80707
421.623	82321
421.699	82700
421.774	91317
421.850	104787
421.925	122509
422.001	144174
422.076	176918
422.152	221304
422.227	287976
422.302	389366
422.378	547659
422.453	793833
422.529	1029931
422.604	952396
422.679	670998
422.755	852915
422.830	947661
422.905	777137
422.981	574048
423.056	423573
423.131	323426
423.207	250733
423.282	200474
423.357	165166
423.432	139177
423.508	121087
423.583	105922
423.658	94842
423.733	83360
423.808	78786
423.883	75995
423.959	83283
424.034	91066
424.109	85332
424.184	66818
424.259	55874
424.334	47914
424.409	41871
424.484	38394
424.559	35478
424.634	33518
424.709	31039
424.784	30458
424.859	28578
424.934	27074
425.009	28805
425.084	30291
425.159	24690
425.234	24109
425.309	22496
425.384	23002
425.459	22441
425.534	20916
425.609	19438
425.683	19495
425.758	19370
425.833	18830
425.908	19117
425.983	18929
426.058	22692
426.132	18889
426.207	16921
426.282	18020
426.357	16924
426.431	16009
426.506	16007
426.581	15170
426.655	16198
426.730	14736
426.805	14317
426.879	14753
426.954	14556
427.029	15593
427.103	21037
427.178	31843
427.253	24233
427.327	13735
427.402	14533
427.476	15573
427.551	15569
427.625	15278
427.700	15711
427.774	15191
427.849	17187
427.923	17895
427.998	21436
428.072	27905
428.147	64230
428.221	230647
428.296	531124
428.370	337530
428.444	75608
428.519	31350
428.593	25775
428.667	26013
428.742	37093
428.816	105848
428.890	352481
428.965	494151
429.039	167335
429.113	40307
429.188	23737
429.262	20170
429.336	19899
429.410	21321
429.485	20706
429.559	22137
429.633	24134
429.707	35735
429.781	98496
429.855	333852
429.930	444498
430.004	166565
430.078	112388
430.152	298907
430.226	712392
430.300	684712
430.374	236618
430.448	78574
430.522	50149
430.596	55939
430.670	149392
430.744	424513
430.818	448681
430.892	120174
430.966	32233
431.040	20781
431.114	17215
431.188	15015
431.262	15916
431.336	14022
431.410	15676
431.484	16401
431.557	19742
431.631	24128
431.705	51915
431.779	197930
431.853	508580
431.927	374997
432.000	82638
432.074	25789
432.148	17552
432.222	13108
432.295	12073
432.369	9997
432.443	10097
432.516	16729
432.590	28987
432.664	15843
432.737	8312
432.811	7917
432.885	8274
432.958	7580
433.032	7520
433.106	7600
433.179	8547
433.253	8843
433.326	8355
433.400	8345
433.473	9475
433.547	8131
433.620	9319
433.694	8946
433.767	10866
433.841	9541
433.914	10811
433.988	10832
434.061	11590
434.134	11557
434.208	11687
434.281	9807
434.355	9298
434.428	9477
434.501	10452
434.575	9667
434.648	10994
434.721	10447
434.795	11304
434.868	11858
434.941	14310
435.014	15381
435.088	18539
435.161	24225
435.234	32097
435.307	36686
435.381	39182
435.454	51199
435.527	68204
435.600	78233
435.673	72532
435.746	60751
435.819	49708
435.892	40064
435.966	32712
436.039	25963
436.112	23798
436.185	19834
436.258	16372
436.331	14342
436.404	14902
436.477	13013
436.550	12040
436.623	11568
436.696	10402
436.769	10020
436.842	9843
436.915	9028
436.987	8768
437.060	8145
437.133	8541
437.206	7360
437.279	7992
437.352	6752
437.425	6986
437.498	6735
437.570	7054
437.643	7420
437.716	6565
437.789	6541
437.861	6720
437.934	6785
438.007	6077
438.080	5468
438.152	6329
438.225	8453
438.298	21228
438.370	44003
438.443	23184
438.516	7783
438.588	6293
438.661	6831
438.734	5866
438.806	6393
438.879	7588
438.951	6082
439.024	6845
439.096	6042
439.169	6677
439.241	5933
439.314	6089
439.386	5928
439.459	6771
439.531	6023
439.604	6491
439.676	5813
439.749	5629
439.821	5725
439.893	6517
439.966	6219
440.038	6404
440.110	6304
440.183	5703
440.255	6176
440.327	7610
440.400	10305
440.472	21720
440.544	18091
440.617	8503
440.689	8489
440.761	7586
440.833	7595
440.905	8154
440.978	7054
441.050	8071
441.122	8159
441.194	7806
441.266	7903
441.338	8229
441.411	10211
441.483	13367
441.555	14883
441.627	12154
441.699	10106
441.771	11227
441.843	11661
441.915	13193
441.987	14521
442.059	16283
442.131	19662
442.203	24489
442.275	33992
442.347	59364
442.419	147493
442.491	478084
442.563	797759
442.635	404015
442.706	113642
442.778	53231
442.850	37617
442.922	34035
442.994	33768
443.066	38607
443.137	46639
443.209	65108
443.281	102622
443.353	219279
443.425	578626
443.496	1138358
443.568	1129865
443.640	598105
443.711	202046
443.783	86623
443.855	53480
443.926	39959
443.998	31469
444.070	27325
444.141	24948
444.213	22785
444.285	21017
444.356	20855
444.428	20173
444.499	19826
444.571	20506
444.642	22727
444.714	23197
444.785	25525
444.857	29622
444.928	33363
445.000	39593
445.071	51501
445.143	67797
445.214	104926
445.285	177947
445.357	398831
445.428	912496
445.500	1258460
445.571	1125777
445.642	815748
445.714	362002
445.785	136965
445.856	73949
445.928	49378
445.999	37297
446.070	30430
446.141	25168
446.213	22091
446.284	18406
446.355	16470
446.426	14542
446.497	13913
446.569	12751
446.640	10964
446.711	11373
446.782	9826
446.853	9887
446.924	9771
446.995	7973
447.066	8410
447.138	7711
447.209	8397
447.280	5767
447.351	6977
447.422	6020
447.493	6367
447.564	6195
447.635	6070
447.706	5957
447.777	5761
447.847	5209
447.918	4291
447.989	5364
448.060	5348
448.131	5130
448.202	5979
448.273	4779
448.344	5072
448.414	4782
448.485	5585
448.556	5266
448.627	5640
448.698	5067
448.768	4951
448.839	4190
448.910	3623
448.981	4840
449.051	5431
449.122	4405
449.193	4343
449.263	4565
449.334	4525
449.405	5292
449.475	5415
449.546	5956
449.616	7848
449.687	7384
449.758	5906
449.828	5388
449.899	5261
449.969	4686
450.040	5167
450.110	4605
450.181	4177
450.251	4049
450.322	5028
450.392	4475
450.463	4143
450.533	4908
450.604	5088
450.674	5995
450.744	9000
450.815	10279
450.885	10165
450.955	11434
451.026	11441
451.096	10414
451.166	10851
451.237	13144
451.307	15967
451.377	12827
451.447	10376
451.518	8361
451.588	7464
451.658	6683
451.728	6442
451.799	6525
451.869	6848
451.939	6249
452.009	6303
452.079	6569
452.149	6998
452.219	8175
452.289	9561
452.360	10912
452.430	13493
452.500	18185
452.570	29269
452.640	63172
452.710	137656
452.780	161070
452.850	107348
452.920	58587
452.990	34207
453.060	22067
453.129	15470
453.199	13116
453.269	11558
453.339	11492
453.409	11468
453.479	10060
453.549	10749
453.619	9282
453.688	7288
453.758	5723
453.828	5125
453.898	4507
453.968	4029
454.037	4847
454.087	4837
454.107	4819
454.168	3883
454.177	3724
454.247	4657
454.249	4622
454.316	3169
454.330	3452
454.386	4412
454.411	4076
454.456	3451
454.492	4059
454.525	4584
454.574	4182
454.595	3963
454.655	4445
454.665	4490
454.734	4806
454.736	4877
454.804	6675
454.817	6370
454.873	4933
454.898	4877
454.943	4710
454.979	4725
455.013	4729
455.060	4288
455.082	4026
455.141	4757
455.152	4883
455.221	5347
455.222	5382
455.291	5469
455.303	5511
455.360	5518
455.384	6536
455.430	8181
455.465	7192
455.499	6301
455.546	5507
455.569	5089
455.627	4986
455.638	4931
455.707	4660
455.708	4687
455.777	4681
455.789	4708
455.846	4675
455.869	4779
455.916	4910
455.950	5138
455.985	5396
456.031	5134
456.054	4889
456.112	5141
456.124	5187
456.193	5356
456.193	5322
456.262	6306
456.274	6433
456.332	7009
456.355	6644
456.401	5750
456.436	6104
456.470	6410
456.516	6383
456.540	6394
456.597	6947
456.609	6990
456.678	7207
456.678	7175
456.747	7565
456.759	7597
456.817	7563
456.840	7843
456.886	8497
456.920	8829
456.955	8989
457.001	9673
457.024	10108
457.082	11141
457.093	11073
457.162	12587
457.163	12619
457.232	10870
457.243	10942
457.301	11411
457.324	11670
457.370	12548
457.405	14113
457.439	15868
457.485	17319
457.508	18864
457.566	25255
457.577	28683
457.646	50713
457.647	51188
457.715	102555
457.727	115011
457.784	182417
457.808	233754
457.853	273215
457.889	304073
457.922	332416
457.969	267255
457.991	265788
458.050	291344
458.060	293897
458.129	444216
458.130	449187
458.198	428236
458.211	381141
458.267	261117
458.292	200595
458.336	145802
458.372	147259
458.405	180882
458.453	257304
458.474	300753
458.533	478490
458.543	477989
458.611	605155
458.614	605147
458.680	438168
458.694	360708
458.749	189636
458.775	140428
458.818	77165
458.855	58413
458.887	45175
458.936	35676
458.955	32587
459.016	26835
459.024	26077
459.093	22073
459.097	21899
459.162	18697
459.177	18170
459.230	16660
459.257	16354
459.299	15797
459.338	14866
459.368	14362
459.418	14303
459.437	14017
459.499	12561
459.505	12496
459.574	12409
459.579	12444
459.643	12468
459.659	12444
459.711	12320
459.740	12448
459.780	12507
459.820	12538
459.849	12382
459.900	12017
459.917	11853
459.981	11239
459.986	11217
460.054	11186
460.061	11170
460.123	10747
460.141	10683
460.191	10710
460.222	10609
460.260	10244
460.302	10247
460.328	10388
460.382	10890
460.397	11250
460.462	12488
460.465	12807
460.534	20237
460.543	21292
460.602	31863
460.623	36158
460.671	49638
460.703	64025
460.739	53487
460.783	33200
460.808	31795
460.864	15557
460.876	13020
460.944	10899
460.945	10863
461.013	10486
461.024	10399
461.081	10225
461.104	10529
461.150	11166
461.184	11083
461.218	11252
461.264	11964
461.286	11637
461.345	10632
461.355	10596
461.423	10161
461.425	10134
461.491	9284
461.505	9476
461.559	10231
461.585	10080
461.628	10259
461.665	11054
461.696	11238
461.745	10971
461.764	10865
461.825	10132
461.832	10119
461.901	10631
461.905	10681
461.969	10010
461.985	9744
462.037	10359
462.065	10676
462.105	10660
462.145	10840
462.173	11034
462.225	11354
462.241	11412
462.305	11427
462.310	11479
462.378	12411
462.385	12537
462.446	12407
462.465	12335
462.514	12216
462.545	11926
462.582	11326
462.625	10761
462.650	10762
462.705	10514
462.718	10394
462.785	10125
462.786	10134
462.854	10368
462.865	10406
462.922	10609
462.945	10712
462.990	10529
463.025	10353
463.058	10708
463.104	11098
463.126	10794
463.184	10140
463.194	10256
463.262	10819
463.264	10835
463.330	10570
463.344	10501
463.398	11243
463.424	11492
463.466	11069
463.504	10970
463.533	11184
463.583	11281
463.601	11266
463.663	11131
463.669	11142
463.737	11301
463.743	11290
463.805	11426
463.823	11507
463.873	11370
463.903	11290
463.940	11116
463.982	10928
464.008	11173
464.062	11361
464.076	11277
464.142	11119
464.144	11138
464.211	11164
464.221	11181
464.279	11532
464.301	11654
464.347	11250
464.381	11008
464.414	11319
464.461	11554
464.482	11326
464.540	10747
464.550	10887
464.617	11585
464.620	11605
464.685	11611
464.699	11531
464.753	11148
464.779	11052
464.820	11352
464.859	11551
464.888	11719
464.938	12153
464.956	12241
465.018	12003
465.023	12022
465.091	12409
465.098	12426
465.158	11739
465.177	11473
465.226	12109
465.257	12541
465.293	11906
465.336	11121
465.361	11461
465.416	12145
465.428	12147
465.495	12154
465.496	12173
465.563	12234
465.575	12318
465.631	12951
465.654	13094
465.698	12653
465.734	12355
465.765	12120
465.813	11533
465.833	11409
465.893	11076
465.900	11149
465.968	11724
465.972	11737
466.035	12028
466.052	12090
466.102	12431
466.131	12599
466.170	12748
466.210	12921
466.237	12660
466.290	11936
466.304	12079
466.369	12632
466.372	12666
466.439	13138
466.449	13160
466.506	13083
466.528	13067
466.573	13428
466.607	13594
466.641	14581
466.687	15974
466.708	15734
466.766	14959
466.775	14876
466.842	14025
466.845	13960
466.909	14201
466.925	14236
466.977	14995
467.004	15348
467.044	15168
467.083	14964
467.111	15050
467.163	15131
467.178	15226
467.242	15473
467.245	15571
467.312	17089
467.321	17262
467.379	16892
467.400	16705
467.446	17495
467.480	18010
467.559	18632
467.638	18499
467.717	20222
467.796	21347
467.875	23476
467.955	26233
468.034	29780
468.113	37038
468.192	49061
468.271	67721
468.350	97000
468.429	121081
468.508	107911
468.588	60667
468.667	39538
468.746	30661
468.825	26073
468.904	24331
468.983	21209
469.062	20407
469.141	19330
469.220	17788
469.299	19769
469.378	19437
469.456	18889
469.535	18788
469.614	19324
469.693	19520
469.772	21212
469.851	21861
469.930	23187
470.009	29158
470.088	43365
470.166	77747
470.245	130113
470.324	145078
470.403	84828
470.482	44545
470.560	32055
470.639	26068
470.718	23043
470.797	20909
470.875	18268
470.954	17464
471.033	17885
471.111	17000
471.190	15258
471.269	16196
471.347	16624
471.426	16618
471.505	15711
471.583	15630
471.662	15388
471.740	15227
471.819	15653
471.898	15913
471.976	16124
472.055	15374
472.133	16436
472.212	15565
472.290	13982
472.369	14275
472.447	14951
472.526	14613
472.604	15721
472.683	15440
472.761	16113
472.839	16463
472.918	17427
472.996	17054
473.075	18603
473.153	17829
473.231	17128
473.310	17391
473.388	18643
473.466	18365
473.545	17974
473.623	18808
473.701	19064
473.780	18558
473.858	17564
473.936	18012
474.014	17337
474.093	18276
474.171	18299
474.249	18724
474.327	18195
474.405	17266
474.484	19477
474.562	17583
474.640	17050
474.718	15964
474.796	15631
474.874	15765
474.952	14157
475.030	15737
475.108	16103
475.187	15146
475.265	16828
475.343	17410
475.421	17524
475.499	15285
475.577	15429
475.655	15877
475.733	16870
475.811	15415
475.889	15596
475.966	15802
476.044	14774
476.122	15990
476.200	16898
476.278	14383
476.356	14489
476.434	14940
476.512	15861
476.590	16214
476.667	15344
476.745	15133
476.823	15579
476.901	14852
476.979	14566
477.056	15358
477.134	14287
477.212	14764
477.290	14968
477.367	14064
477.445	14600
477.523	13439
477.601	13534
477.678	14021
477.756	14344
477.834	14343
477.911	14683
477.989	14432
478.066	14560
478.144	15389
478.222	16267
478.299	17914
478.377	16837
478.454	15265
478.532	15282
478.609	15303
478.687	15082
478.764	14926
478.842	15184
478.919	14661
478.997	14617
479.074	14232
479.152	14935
479.229	15650
479.307	14787
479.384	15034
479.461	14918
479.539	15110
479.616	15181
479.694	15025
479.771	15630
479.848	14787
479.926	14738
480.003	16591
480.080	16799
480.157	16123
480.235	17105
480.312	17423
480.389	18450
480.467	19171
480.544	20670
480.621	22738
480.698	22840
480.775	22639
480.853	19857
480.930	18774
481.007	18476
481.084	18386
481.161	21111
481.238	19692
481.315	18174
481.392	20198
481.470	21291
481.547	20837
481.624	20990
481.701	21720
481.778	23241
481.855	24712
481.932	27217
482.009	30223
482.086	34954
482.163	41177
482.240	45514
482.317	44187
482.393	36654
482.470	33434
482.547	31880
482.624	29701
482.701	29034
482.778	27920
482.855	29126
482.932	30921
483.009	35161
483.085	40730
483.162	44706
483.239	47010
483.316	49233
483.393	45354
483.469	37477
483.546	33685
483.623	30328
483.699	26983
483.776	25039
483.853	23941
483.930	25422
484.006	24726
484.083	27140
484.160	25933
484.236	27826
484.313	28744
484.389	32813
484.466	41677
484.543	55880
484.619	66110
484.696	60250
484.772	37727
484.849	30758
484.925	27730
485.002	25090
485.078	22175
485.155	20774
485.231	21523
485.308	20235
485.384	20381
485.461	19701
485.537	19498
485.614	20114
485.690	18968
485.766	17286
485.843	18734
485.919	19363
485.995	20133
486.072	19921
486.148	18334
486.224	19337
486.301	18524
486.377	20384
486.453	20272
486.530	21605
486.606	21687
486.682	21488
486.758	22794
486.835	24559
486.911	26626
486.987	32057
487.063	36508
487.139	39627
487.215	46528
487.292	52346
487.368	63870
487.444	87087
487.520	136299
487.596	287708
487.672	796930
487.748	1823996
487.824	1983900
487.900	567553
487.976	190208
488.052	103953
488.128	69882
488.204	50798
488.280	42122
488.356	36023
488.432	33384
488.508	31543
488.584	28101
488.660	27016
488.736	24124
488.812	22704
488.888	21854
488.964	22637
489.039	26362
489.115	28202
489.191	22714
489.267	20173
489.343	19818
489.418	19790
489.494	19037
489.570	18716
489.646	20435
489.722	21086
489.797	21472
489.873	22627
489.949	22958
490.024	22542
490.100	21569
490.176	22178
490.251	21401
490.327	22021
490.403	20390
490.478	21582
490.554	20041
490.629	20886
490.705	19819
490.781	20311
490.856	19238
490.932	19486
491.007	20235
491.083	19019
491.158	19277
491.234	18841
491.309	19002
491.385	17526
491.460	17467
491.536	18183
491.611	16915
491.686	18253
491.762	18293
491.837	20561
491.913	23230
491.988	25347
492.063	24685
492.139	17960
492.214	17437
492.289	17605
492.365	17218
492.440	15853
492.515	16519
492.590	16210
492.666	15225
492.741	15664
492.816	18060
492.891	16049
492.967	17596
493.042	17232
493.117	16069
493.192	17044
493.267	19586
493.342	24199
493.418	22157
493.493	17147
493.568	16704
493.643	16181
493.718	15967
493.793	17763
493.868	16519
493.943	16577
494.018	16181
494.093	16101
494.168	15645
494.243	16355
494.318	17043
494.393	16606
494.468	16295
494.543	17067
494.618	17149
494.693	17247
494.768	18233
494.842	16997
494.917	18123
494.992	15963
495.067	16648
495.142	18156
495.217	17024
495.292	16925
495.366	17517
495.441	16222
495.516	17733
495.591	21323
495.665	30047
495.740	37001
495.815	20719
495.890	17799
495.964	17427
496.039	19994
496.114	20733
496.188	23629
496.263	20316
496.338	18017
496.412	16937
496.487	17535
496.561	17505
496.636	18043
496.710	16880
496.785	18196
496.860	18384
496.934	17970
497.009	19178
497.083	18515
497.158	19237
497.232	20027
497.307	22086
497.381	23665
497.455	20439
497.530	18273
497.604	17737
497.679	17068
497.753	17877
497.827	17217
497.902	17959
497.976	20303
498.050	24677
498.125	39140
498.199	29045
498.273	21261
498.348	22326
498.422	25066
498.496	26652
498.570	25507
498.645	17045
498.719	15694
498.793	16370
498.867	17830
498.941	18668
499.016	26757
499.090	33759
499.164	21304
499.238	20467
499.312	22082
499.386	23225
499.460	26111
499.534	29938
499.609	31425
499.683	20539
499.757	17138
499.831	19893
499.905	26833
499.979	20327
500.053	17536
500.127	18836
500.201	20548
500.275	20560
500.349	22349
500.422	23408
500.496	28576
500.570	36429
500.644	45068
500.718	36450
500.792	18793
500.866	16353
500.940	15862
501.013	16996
501.087	16723
501.161	18493
501.235	18679
501.309	22141
501.382	25751
501.456	21231
501.530	17517
501.603	17192
501.677	15262
501.751	14652
501.825	17424
501.898	17311
501.972	18156
502.046	16559
502.119	16299
502.193	16973
502.266	16733
502.340	15207
502.413	16551
502.487	17180
502.561	17497
502.634	17496
502.708	19003
502.781	17622
502.855	17934
502.928	17121
503.002	17341
503.075	17549
503.149	17797
503.222	18956
503.295	20412
503.369	22558
503.442	27055
503.516	31702
503.589	38883
503.662	41922
503.736	51705
503.809	69314
503.882	103555
503.956	196741
504.029	476237
504.102	1078936
504.175	1069651
504.249	393578
504.322	161312
504.395	89882
504.468	60951
504.542	42041
504.615	33960
504.688	29338
504.761	24373
504.834	22174
504.907	21014
504.980	20274
505.053	17828
505.127	15159
505.200	17960
505.273	15012
505.346	13808
505.419	14980
505.492	15490
505.565	14981
505.638	13246
505.711	12622
505.784	12015
505.857	11096
505.930	12337
506.003	10324
506.076	12740
506.149	10562
506.221	9985
506.294	11802
506.367	12023
506.440	13967
506.513	11927
506.586	11090
506.659	10451
506.731	10738
506.804	10863
506.877	10295
506.950	9946
507.022	11149
507.095	9773
507.168	10964
507.241	10679
507.313	9239
507.386	9785
507.459	10811
507.531	9932
507.604	8586
507.677	9857
507.749	9684
507.822	9966
507.894	9935
507.967	12052
508.040	9129
508.112	10524
508.185	9624
508.257	9121
508.330	10322
508.402	8770
508.475	9989
508.547	9731
508.620	9767
508.692	10081
508.765	10169
508.837	9095
508.909	9935
508.982	8668
509.054	9653
509.127	9798
509.199	9444
509.271	9461
509.344	9769
509.416	9143
509.488	9997
509.560	9421
509.633	9970
509.705	8890
509.777	9907
509.849	9745
509.922	8651
509.994	10299
510.066	10079
510.138	8082
510.210	10684
510.283	9435
510.355	10109
510.427	9287
510.499	10271
510.571	9930
510.643	8927
510.715	10888
510.787	8449
510.859	10831
510.931	10222
511.003	11804
511.076	10471
511.148	9657
511.219	9010
511.291	11324
511.363	10659
511.435	9992
511.507	8806
511.579	10331
511.651	9889
511.723	9768
511.795	10332
511.867	10021
511.939	10048
512.010	10238
512.082	10905
512.154	9894
512.226	10787
512.298	12018
512.369	11660
512.441	12279
512.513	10761
512.585	10040
512.656	11779
512.728	10738
512.800	10149
512.871	10728
512.943	10633
513.015	9857
513.086	10809
513.158	11597
513.230	10702
513.301	11307
513.373	12840
513.444	11707
513.516	11355
513.588	11877
513.659	12235
513.731	11489
513.802	11670
513.874	14100
513.945	14303
514.016	11267
514.088	12206
514.159	11855
514.231	12805
514.302	12068
514.374	12368
514.445	12376
514.516	15148
514.588	13515
514.659	12570
514.730	13275
514.802	13816
514.873	11809
514.944	14390
515.016	13706
515.087	14233
515.158	13590
515.229	14333
515.301	13715
515.372	15606
515.443	14970
515.514	16315
515.585	16684
515.656	17891
515.728	19451
515.799	19089
515.870	21927
515.941	23892
516.012	25992
516.083	31017
516.154	33662
516.225	41313
516.296	47654
516.367	59788
516.438	77438
516.509	125572
516.580	322145
516.651	1225601
516.722	2143875
516.793	451120
516.864	125495
516.935	123779
517.006	166246
517.077	322733
517.148	1036897
517.219	3275622
517.289	2368441
517.360	353214
517.431	125703
517.502	86084
517.573	72956
517.643	66309
517.714	68015
517.785	74676
517.856	84716
517.926	105813
517.997	133290
518.068	185397
518.138	315960
518.209	799524
518.280	2713530
518.350	4073749
518.421	1186029
518.492	324853
518.562	237743
518.633	278039
518.703	457767
518.774	1018161
518.845	1847165
518.915	1103220
518.986	361560
519.056	173030
519.127	115319
519.197	87221
519.268	64382
519.338	49349
519.408	39934
519.479	35491
519.549	31711
519.620	28734
519.690	26248
519.760	24249
519.831	22034
519.901	20517
519.971	20466
520.042	19798
520.112	17698
520.182	19661
520.253	18303
520.323	16963
520.393	15857
520.463	17898
520.534	14816
520.604	18334
520.674	15284
520.744	15972
520.814	17445
520.885	15689
520.955	16336
521.025	18838
521.095	14639
521.165	15455
521.235	13388
521.305	13477
521.375	13823
521.445	13644
521.515	14446
521.585	15095
521.655	13936
521.725	14410
521.795	14038
521.865	12996
521.935	15117
522.005	13732
522.075	14124
522.145	14518
522.215	14299
522.285	14559
522.355	15254
522.424	15786
522.494	14937
522.564	16164
522.634	18575
522.704	23042
522.774	15037
522.843	14601
522.913	14867
522.983	15281
523.053	14328
523.122	14841
523.192	16863
523.262	19807
523.331	16422
523.401	15329
523.471	15898
523.540	15937
523.610	16133
523.680	18226
523.749	18658
523.819	17768
523.888	18103
523.958	16860
524.027	17575
524.097	17771
524.166	17562
524.236	16842
524.305	19096
524.375	16703
524.444	16798
524.514	19289
524.583	18634
524.653	18577
524.722	18777
524.791	18584
524.861	20348
524.930	20363
524.999	21430
525.069	22776
525.138	24515
525.207	25147
525.277	28242
525.346	31436
525.415	36586
525.484	41563
525.554	48104
525.623	57805
525.692	69347
525.761	85188
525.830	111672
525.900	166998
525.969	326239
526.038	647460
526.107	1653956
526.176	2914676
526.245	1491277
526.314	768739
526.383	1874240
526.452	1852755
526.522	2858971
526.591	1372185
526.660	300223
526.729	215096
526.797	272579
526.867	561716
526.935	1768196
527.004	3505978
527.073	1288443
527.142	257128
527.211	123739
527.280	82973
527.349	59712
527.418	45554
527.487	39772
527.555	32479
527.624	30195
527.693	27546
527.762	27008
527.831	24150
527.899	24341
527.968	20755
528.037	19581
528.106	20650
528.174	21103
528.243	19886
528.312	19769
528.380	18788
528.449	16691
528.518	18280
528.586	15806
528.655	16875
528.723	16848
528.792	17081
528.861	15187
528.929	14264
528.998	15826
529.066	14758
529.135	14158
529.203	14583
529.272	13382
529.340	15222
529.409	14706
529.477	14430
529.545	13314
529.614	15472
529.682	14151
529.751	15104
529.819	18036
529.887	14950
529.956	14744
530.024	14606
530.092	13487
530.161	14869
530.229	14995
530.297	15026
530.365	14925
530.434	15161
530.502	14234
530.570	16142
530.638	13099
530.707	14764
530.775	16983
530.843	15229
530.911	15340
530.979	16707
531.047	15411
531.115	16345
531.183	15452
531.252	14845
531.320	14421
531.388	14340
531.456	16271
531.524	15603
531.592	17140
531.660	17104
531.728	14948
531.796	16458
531.864	15605
531.932	16627
532.000	14741
532.067	16382
532.135	17315
532.203	20027
532.271	20218
532.339	21901
532.407	24355
532.475	19745
532.542	20155
532.610	20416
532.678	20896
532.746	34323
532.814	33973
532.881	20721
532.949	19961
533.017	19163
533.084	18089
533.152	17842
533.220	18560
533.287	16907
533.355	17528
533.423	19096
533.490	18574
533.558	20476
533.625	19869
533.693	20273
533.761	20971
533.828	20851
533.896	20755
533.963	25224
534.031	26665
534.098	35220
534.166	35482
534.233	36205
534.300	40096
534.368	40390
534.435	42191
534.503	46897
534.570	54403
534.637	65656
534.705	85554
534.772	155717
534.840	479095
534.907	1655457
534.974	891612
535.041	108847
535.109	53958
535.176	42386
535.243	37980
535.310	35317
535.378	33215
535.445	33664
535.512	34703
535.579	33274
535.646	32689
535.714	36413
535.781	37283
535.848	35443
535.915	32959
535.982	32756
536.049	30626
536.116	32868
536.183	30600
536.250	30949
536.317	31152
536.384	34198
536.451	35042
536.518	34905
536.585	33546
536.652	35989
536.719	35164
536.786	32012
536.853	33464
536.920	35453
536.987	34289
537.053	36044
537.120	46330
537.187	40535
537.254	38798
537.321	37893
537.388	39001
537.454	35666
537.521	37178
537.588	36240
537.654	37405
537.721	40830
537.788	39141
537.855	37751
537.921	36336
537.988	35046
538.055	32539
538.121	31282
538.188	31136
538.254	31699
538.321	33834
538.388	37210
538.454	40136
538.521	39571
538.587	40186
538.654	37423
538.720	37359
538.787	38124
538.853	37793
538.920	34847
538.986	31860
539.053	32536
539.119	34910
539.185	34833
539.252	37064
539.318	38431
539.385	41771
539.451	37552
539.517	38273
539.583	37475
539.650	39999
539.716	39819
539.782	34835
539.849	34917
539.915	36032
539.981	36004
540.047	35107
540.114	36154
540.180	39011
540.246	39845
540.312	41469
540.378	40131
540.444	39587
540.510	43422
540.576	43138
540.643	36410
540.709	34951
540.775	36770
540.841	35359
540.907	36071
540.973	36369
541.039	36687
541.105	38984
541.171	41369
541.237	39837
541.303	40027
541.369	40854
541.435	40482
541.500	38091
541.566	34373
541.632	35544
541.698	36981
541.764	37926
541.830	36957
541.896	35915
541.961	37278
542.027	37842
542.093	42642
542.159	40232
542.224	36961
542.290	38696
542.356	37527
542.421	36572
542.487	33637
542.553	35280
542.618	35455
542.684	36707
542.750	37314
542.815	38364
542.881	40398
542.947	45931
543.012	40038
543.078	34939
543.143	35493
543.209	35772
543.274	34564
543.340	38121
543.405	40499
543.471	40024
543.536	39182
543.602	38419
543.667	37354
543.732	39071
543.798	38396
543.863	40134
543.928	38938
543.994	38770
544.059	40810
544.124	41467
544.190	41145
544.255	42920
544.320	41790
544.386	42600
544.451	43849
544.516	41770
544.581	42705
544.646	47973
544.712	46940
544.777	44783
544.842	43440
544.907	43429
544.972	44644
545.037	45563
545.102	46409
545.168	46854
545.233	48662
545.298	48833
545.363	49946
545.428	51753
545.493	54899
545.558	55300
545.623	52382
545.688	52227
545.753	55512
545.818	56532
545.883	60176
545.947	61293
546.012	63798
546.077	64979
546.142	69845
546.207	72403
546.272	76726
546.337	77262
546.401	81310
546.466	83324
546.531	86471
546.596	94499
546.661	96936
546.725	103655
546.790	109875
546.855	120096
546.919	134793
546.984	145635
547.049	161368
547.113	183571
547.178	204057
547.243	234041
547.307	271774
547.372	284810
547.436	286317
547.501	312300
547.565	313683
547.630	284570
547.695	282352
547.759	282998
547.823	288530
547.888	296927
547.952	305330
548.017	317276
548.081	317315
548.146	316503
548.210	336711
548.274	359689
548.339	329725
548.403	306353
548.468	291323
548.532	293895
548.596	295685
548.660	307056
548.725	338498
548.789	354776
548.853	330555
548.917	324873
548.982	302536
549.046	271378
549.110	255263
549.174	281692
549.238	331097
549.303	348486
549.367	344773
549.431	321321
549.495	308567
549.559	325200
549.623	385130
549.687	384925
549.751	414013
549.815	476533
549.879	455657
549.943	455335
550.007	473385
550.071	442278
550.135	401604
550.199	394584
550.263	376868
550.327	363054
550.391	388901
550.455	433366
550.519	451567
550.582	494649
550.646	548714
550.710	543138
550.774	541918
550.838	561145
550.901	587948
550.965	633490
551.029	689118
551.093	777297
551.156	921574
551.220	1112782
551.284	1036691
551.347	734181
551.411	608819
551.475	580314
551.538	573830
551.602	515564
551.666	489997
551.729	457495
551.793	450370
551.856	440615
551.920	437578
551.983	429217
552.047	430167
552.110	434686
552.174	442646
552.237	438110
552.301	401915
552.364	389681
552.428	386520
552.491	410660
552.554	407179
552.618	415239
552.681	433951
552.745	462146
552.808	619184
552.871	639416
552.934	488604
552.998	420588
553.061	397538
553.124	373892
553.187	380375
553.251	387631
553.314	384790
553.377	395570
553.440	421981
553.503	421187
553.567	411206
553.630	413636
553.693	404030
553.756	402430
553.819	388001
553.882	375334
553.945	381851
554.008	379768
554.071	390422
554.134	374434
554.197	351280
554.260	349628
554.323	361469
554.386	370443
554.449	387205
554.512	376311
554.575	362716
554.638	361246
554.701	359283
554.764	349264
554.827	337129
554.889	317352
554.952	301119
555.015	303544
555.078	311896
555.141	311245
555.203	302716
555.266	306927
555.329	297618
555.391	289772
555.454	284485
555.517	281576
555.580	273465
555.642	257333
555.705	255024
555.768	251308
555.830	238048
555.893	229155
555.955	225346
556.018	223280
556.080	228699
556.143	234375
556.206	227380
556.268	222634
556.330	215014
556.393	212122
556.455	206269
556.518	200667
556.580	194927
556.643	188548
556.705	188518
556.767	181177
556.830	181735
556.892	177283
556.955	174758
557.017	170455
557.079	171959
557.142	168762
557.204	173114
557.266	177540
557.328	155215
557.391	148183
557.453	145867
557.515	148898
557.577	149813
557.639	154242
557.701	153326
557.764	156867
557.826	162994
557.888	176788
557.950	193702
558.012	247416
558.074	433576
558.136	1230435
558.198	1500984
558.260	354438
558.322	198798
558.384	195089
558.446	209627
558.508	233739
558.570	276286
558.632	357222
558.694	555234
558.756	1180240
558.818	3050278
558.880	3307288
558.942	1747481
559.003	1768744
559.065	539171
559.127	298683
559.189	297945
559.251	381781
559.312	711884
559.374	1926845
559.436	2919439
559.498	943456
559.559	345367
559.621	310081
559.683	428426
559.744	915572
559.806	2433254
559.868	1702256
559.929	436208
559.991	434770
560.052	1008748
560.114	1786741
560.176	839905
560.237	1451271
560.299	1125282
560.360	199561
560.422	107744
560.483	90091
560.545	83062
560.606	77437
560.667	73608
560.729	68407
560.790	65021
560.852	64041
560.913	61441
560.974	59255
561.036	59313
561.097	58290
561.158	56266
561.220	55629
561.281	52167
561.342	51597
561.403	51855
561.465	51888
561.526	53618
561.587	51306
561.648	47202
561.709	48471
561.771	46150
561.832	44360
561.893	45614
561.954	44922
562.015	43828
562.076	43728
562.137	43631
562.198	42916
562.259	43345
562.320	43591
562.381	43797
562.442	41736
562.503	40720
562.564	40775
562.625	39670
562.686	40782
562.747	38913
562.808	39116
562.869	38144
562.930	39392
562.991	37383
563.051	37112
563.112	37317
563.173	36581
563.234	36102
563.294	35243
563.355	35281
563.416	35127
563.477	35916
563.537	35049
563.598	35150
563.659	35357
563.720	34580
563.780	35886
563.841	35266
563.901	35135
563.962	33847
564.023	33139
564.083	32799
564.144	31513
564.204	31777
564.265	32014
564.325	32044
564.386	32805
564.446	31442
564.507	30867
564.567	29853
564.628	30043
564.688	29633
564.749	29270
564.809	30146
564.869	31167
564.930	29566
564.990	30252
565.050	29122
565.111	30441
565.171	29178
565.231	29966
565.292	29586
565.352	28022
565.412	29297
565.472	29027
565.532	28967
565.593	28050
565.653	28068
565.713	29185
565.773	29347
565.833	31838
565.893	29573
565.953	26466
566.013	27219
566.074	27046
566.134	26300
566.194	26373
566.254	26925
566.314	26991
566.374	26018
566.434	25736
566.494	26925
566.554	26805
566.614	27644
566.673	27659
566.733	27992
566.793	27728
566.853	28242
566.913	28742
566.973	28174
567.033	29045
567.092	27578
567.152	27841
567.212	27679
567.272	29102
567.331	30486
567.391	28974
567.451	31395
567.511	30223
567.570	29884
567.630	29266
567.690	28262
567.749	28748
567.809	27453
567.868	28036
567.928	27831
567.988	29361
568.047	29340
568.107	28861
568.166	29226
568.226	29623
568.285	30235
568.345	29816
568.404	29745
568.464	29526
568.523	28769
568.582	30881
568.642	28522
568.701	27896
568.761	27988
568.820	27790
568.879	28237
568.939	30032
568.998	28910
569.057	28987
569.116	28934
569.176	28567
569.235	28570
569.294	28371
569.353	27153
569.413	26001
569.472	24904
569.531	26772
569.590	26243
569.649	26845
569.708	27411
569.767	27238
569.827	27212
569.886	26567
569.945	26471
570.004	27252
570.063	28356
570.122	28803
570.181	28344
570.240	28859
570.299	29281
570.358	29131
570.417	28389
570.475	29322
570.534	29790
570.593	29678
570.652	31439
570.711	30068
570.770	27892
570.829	29156
570.887	30195
570.946	33304
571.005	35072
571.064	42594
571.122	44152
571.181	35875
571.240	32228
571.299	29079
571.357	28066
571.416	28315
571.475	29889
571.533	33220
571.592	32229
571.650	34766
571.709	39337
571.768	47566
571.826	46290
571.885	37492
571.943	31630
572.002	29119
572.060	29771
572.119	28494
572.177	29376
572.236	29645
572.294	31547
572.352	34618
572.411	33875
572.469	30502
572.528	28725
572.586	26884
572.644	27110
572.703	27000
572.761	25943
572.819	25155
572.877	24939
572.936	25368
572.994	25962
573.052	26898
573.110	30119
573.169	30656
573.227	29623
573.285	28536
573.343	28156
573.401	27961
573.459	30176
573.517	34229
573.576	35048
573.634	34095
573.692	35179
573.750	35346
573.808	30638
573.866	27794
573.924	29009
573.982	28918
574.040	29600
574.098	29068
574.155	28196
574.213	28392
574.271	35078
574.329	37930
574.387	32062
574.445	26957
574.503	27522
574.560	26066
574.618	27909
574.676	29839
574.734	27219
574.792	25056
574.849	22326
574.907	21464
574.965	21351
575.022	21083
575.080	21212
575.138	20864
575.195	20670
575.253	20499
575.311	20367
575.368	20256
575.426	19839
575.483	21965
575.541	22819
575.598	22017
575.656	23313
575.713	27660
575.771	28277
575.828	24717
575.886	21693
575.943	20782
576.001	19506
576.058	19852
576.115	20884
576.173	22612
576.230	23530
576.287	22404
576.345	23259
576.402	25570
576.459	25080
576.517	21088
576.574	20752
576.631	19621
576.688	18773
576.746	18791
576.803	17852
576.860	18457
576.917	18737
576.974	20146
577.031	19735
577.089	18839
577.146	17762
577.203	17708
577.260	16912
577.317	16772
577.374	18119
577.431	17685
577.488	17961
577.545	17945
577.602	17804
577.659	17097
577.716	19577
577.773	18706
577.830	17575
577.886	17750
577.943	16472
578.000	17072
578.057	16460
578.114	16423
578.171	18187
578.227	16911
578.284	17889
578.341	18355
578.398	17979
578.454	18430
578.511	17956
578.568	18651
578.625	17136
578.681	17794
578.738	17630
578.794	17899
578.851	17592
578.908	17539
578.964	17785
579.021	17705
579.077	17821
579.134	18248
579.190	18107
579.247	18642
579.303	18197
579.360	17560
579.416	18640
579.473	18472
579.529	16963
579.586	17971
579.642	18283
579.698	18628
579.755	18816
579.811	18933
579.867	19079
579.924	18485
579.980	18574
580.036	18732
580.093	20139
580.149	20302
580.205	19933
580.261	21000
580.317	20567
580.374	21532
580.430	22431
580.486	22394
580.542	20276
580.598	21666
580.619	21553
580.654	21368
580.692	20891
580.710	20672
580.765	21516
580.767	21552
580.823	23429
580.838	23228
580.879	22707
580.911	23128
580.935	23458
580.984	22735
580.991	22646
581.047	22960
581.057	22545
581.103	20715
581.130	20713
581.159	20708
581.203	20714
581.215	20726
581.270	19520
581.276	19506
581.326	19433
581.349	19744
581.382	20179
581.422	20372
581.438	20483
581.494	19838
581.494	19832
581.550	19014
581.567	19642
581.606	21115
581.640	20629
581.661	20297
581.713	21051
581.717	21114
581.773	20643
581.786	20656
581.829	20787
581.859	20978
581.885	21086
581.932	21600
581.940	21700
581.996	22163
582.004	21977
582.052	20914
582.077	21222
582.107	21555
582.150	20879
582.163	20684
582.219	20516
582.223	20549
582.274	20999
582.296	20872
582.330	20617
582.368	21111
582.386	21370
582.441	21604
582.441	21601
582.497	21061
582.514	21191
582.552	21537
582.587	22192
582.608	22632
582.659	21978
582.663	21921
582.719	23172
582.732	23192
582.774	23208
582.805	23274
582.830	23394
582.877	23777
582.885	23800
582.941	23011
582.950	23116
582.996	23587
583.023	23181
583.052	22893
583.095	23606
583.107	23801
583.162	23865
583.168	23893
583.218	23835
583.240	23391
583.273	22750
583.313	23113
583.328	23309
583.384	23261
583.385	23272
583.439	23424
583.458	23529
583.494	24074
583.531	24564
583.549	24692
583.603	24381
583.605	24370
583.660	25520
583.676	25383
583.715	25163
583.748	25001
583.770	24944
583.820	25807
583.825	25880
583.881	25895
583.893	25853
583.936	25731
583.965	26361
583.991	26841
584.038	27067
584.046	27119
584.101	26380
584.110	26500
584.156	27552
584.183	27835
584.211	28006
584.255	28672
584.266	28914
584.321	29803
584.328	29898
584.376	30622
584.400	30918
584.431	31190
584.472	31317
584.486	31498
584.541	33440
584.545	33531
584.596	35284
584.617	35661
584.651	36342
584.689	37830
584.706	38478
584.761	40491
584.762	40491
584.816	42689
584.834	43689
584.871	45931
584.906	47773
584.926	48945
584.978	53273
584.980	53495
585.035	59634
585.051	61614
585.090	67851
585.123	73100
585.145	77736
585.195	89898
585.200	91257
585.254	108958
585.267	113755
585.309	133152
585.340	150634
585.364	166918
585.412	205815
585.419	212724
585.473	284398
585.484	306363
585.528	424117
585.556	544553
585.583	726575
585.628	1168816
585.637	1317348
585.692	2552069
585.700	2646095
585.747	2936290
585.772	2670793
585.801	1868994
585.845	1081029
585.856	932202
585.910	422771
585.917	366577
585.965	250623
585.989	198356
586.019	169519
586.061	135474
586.074	129980
586.128	108091
586.133	106233
586.183	95461
586.205	91362
586.237	88003
586.277	83105
586.292	82051
586.346	78837
586.349	78580
586.401	76507
586.421	75515
586.455	74838
586.493	73990
586.509	74224
586.564	75753
586.565	75760
586.618	84171
586.637	87474
586.672	100071
586.709	117410
586.727	128423
586.781	146817
586.781	146983
586.835	121307
586.853	115025
586.889	97807
586.925	83553
586.944	80355
586.996	72256
586.998	72299
587.052	70176
587.068	69606
587.106	69813
587.140	69091
587.161	68820
587.212	68066
587.215	68185
587.269	68823
587.284	68845
587.323	70190
587.356	71021
587.377	71742
587.427	73283
587.431	73535
587.485	75272
587.499	75390
587.539	75675
587.571	76445
587.593	78694
587.643	83120
587.648	83512
587.702	85180
587.715	85451
587.755	85892
587.786	86208
587.810	86851
587.858	86891
587.864	87038
587.917	87639
587.930	87479
587.971	88412
588.001	88728
588.025	88716
588.073	88036
588.079	88273
588.133	89297
588.145	89403
588.187	90175
588.217	89977
588.241	91372
588.288	94563
588.295	95191
588.348	98018
588.360	98344
588.402	99943
588.431	101152
588.456	102884
588.503	105974
588.510	106886
588.564	112793
588.575	113939
588.617	120600
588.646	124657
588.671	128874
588.718	138919
588.725	141576
588.778	164889
588.789	171571
588.832	240671
588.861	296973
588.886	435315
588.932	746670
588.939	800816
588.993	1093548
589.004	1130852
589.047	638627
589.075	356225
589.100	279433
589.147	144393
589.154	143143
589.207	131492
589.218	128971
589.261	129544
589.290	130260
589.314	134892
589.361	145647
589.368	149430
589.421	184077
589.433	193297
589.475	318310
589.504	423577
589.528	605275
589.576	921758
589.582	898267
589.635	572296
589.647	514459
589.689	292293
589.718	138084
589.742	129953
589.790	112676
589.795	112549
589.849	109021
589.861	107954
589.902	107471
589.932	106316
589.955	105700
590.004	103986
590.009	104264
590.062	104430
590.075	104046
590.115	103535
590.146	102932
590.168	103165
590.218	102448
590.222	102833
590.275	105003
590.289	105089
590.328	107761
590.360	109444
590.381	110148
590.431	111100
590.435	111484
590.488	112612
590.503	112599
590.541	114650
590.574	115935
590.594	117419
590.645	120125
590.647	120579
590.700	123587
590.716	124190
590.753	128575
590.787	131833
590.806	133294
590.859	136059
590.859	136509
590.912	140098
590.930	140935
590.965	142257
591.001	142587
591.018	142869
591.071	142093
591.072	141662
591.124	138862
591.143	137422
591.177	139277
591.214	140539
591.230	141802
591.283	144421
591.285	144085
591.336	144169
591.356	143646
591.389	143810
591.427	142989
591.442	143143
591.495	142077
591.498	141577
591.547	142965
591.569	142991
591.600	145824
591.640	148480
591.653	149424
591.706	151417
591.711	151173
591.759	153950
591.782	154737
591.811	159413
591.853	164894
591.864	165613
591.917	166608
591.924	166221
591.969	165928
591.995	164970
592.022	166364
592.066	167352
592.075	168743
592.127	174062
592.137	174498
592.180	178570
592.208	180317
592.233	182614
592.279	185337
592.285	186512
592.338	191429
592.350	191919
592.390	193571
592.421	193755
592.443	195060
592.491	195920
592.495	196810
592.548	200288
592.562	200580
592.600	202217
592.633	202429
592.653	202991
592.704	201566
592.705	202821
592.775	207452
592.846	212283
592.916	216900
592.987	215930
593.058	216809
593.128	223769
593.199	221623
593.270	225193
593.341	230244
593.411	237180
593.482	246317
593.553	251781
593.623	255443
593.694	262735
593.764	269821
593.835	265019
593.906	265999
593.976	273971
594.047	281317
594.117	292426
594.188	302435
594.258	303088
594.329	299133
594.399	307571
594.470	318384
594.540	329128
594.611	337965
594.681	336247
594.751	337252
594.822	348098
594.892	363338
594.963	373791
595.033	381373
595.103	399107
595.174	397260
595.244	404510
595.314	419313
595.384	429280
595.455	442239
595.525	455846
595.595	470141
595.665	480161
595.736	462149
595.806	472683
595.876	481478
595.946	480820
596.016	502269
596.087	521695
596.157	522973
596.227	523441
596.297	544115
596.367	584577
596.437	620828
596.507	620079
596.577	613794
596.647	633131
596.717	666650
596.787	685111
596.857	681007
596.927	687468
596.997	687786
597.067	692475
597.137	703548
597.207	709334
597.277	721326
597.347	693510
597.417	663204
597.487	660173
597.557	676121
597.626	697047
597.696	704962
597.766	703226
597.836	667161
597.906	628270
597.975	614060
598.045	621026
598.115	645216
598.185	690723
598.254	763406
598.324	843875
598.394	865097
598.464	841842
598.533	827248
598.603	778566
598.672	743217
598.742	756856
598.812	760760
598.881	782888
598.951	779399
599.020	786113
599.090	813536
599.159	834863
599.229	805028
599.299	782687
599.368	802415
599.437	800136
599.507	735935
599.576	698063
599.646	686013
599.715	671811
599.785	673151
599.854	652837
599.924	639901
599.993	631406
600.062	646670
600.132	663259
600.201	690388
600.270	797576
600.340	866657
600.409	849711
600.478	839094
600.547	855199
600.617	807951
600.686	629146
600.755	556152
600.824	522045
600.894	500597
600.963	503046
601.032	498415
601.101	480858
601.170	453326
601.239	437126
601.308	431313
601.378	432060
601.447	432439
601.516	436479
601.585	437726
601.654	444216
601.723	443427
601.792	454156
601.861	473891
601.930	489497
601.999	495763
602.068	493452
602.137	498807
602.206	510154
602.275	519712
602.343	525636
602.412	525576
602.481	534808
602.550	539947
602.619	553873
602.688	565437
602.756	568937
602.825	574062
602.894	588142
602.963	601704
603.032	609804
603.100	617201
603.169	613823
603.238	619443
603.307	623358
603.375	632292
603.444	644340
603.513	660490
603.581	671391
603.650	682145
603.719	676333
603.787	694105
603.856	716563
603.924	729831
603.993	759634
604.061	788116
604.130	827485
604.198	843240
604.267	861082
604.335	872648
604.404	884927
604.472	902850
604.541	904178
604.609	916754
604.678	916955
604.746	919008
604.815	944039
604.883	968892
604.951	965949
605.020	980605
605.088	1003919
605.156	1026664
605.225	1045411
605.293	1048761
605.361	1048170
605.429	1062141
605.498	1079483
605.566	1107100
605.634	1153826
605.702	1198221
605.771	1233666
605.839	1237956
605.907	1222299
605.975	1178011
606.043	1153744
606.111	1154598
606.180	1147677
606.248	1141625
606.316	1124313
606.384	1121914
606.452	1129091
606.520	1162169
606.588	1203839
606.656	1217620
606.724	1204446
606.792	1140139
606.860	1042274
606.928	946631
606.996	899566
607.064	879529
607.132	899477
607.200	942741
607.267	988890
607.335	998425
607.403	1031878
607.471	1012150
607.539	958938
607.607	982148
607.674	870230
607.742	858374
607.810	855547
607.878	850662
607.946	868934
608.013	906095
608.081	930205
608.149	933716
608.216	962309
608.284	999389
608.352	997910
608.419	1000158
608.487	972075
608.555	953894
608.622	986152
608.690	1030362
608.757	1132803
608.825	1179809
608.893	1146701
608.960	1090833
609.028	1031323
609.095	1026075
609.163	1034192
609.230	950437
609.298	839675
609.365	883665
609.432	954032
609.500	1027877
609.567	1159421
609.635	1319245
609.702	1409648
609.769	1371633
609.837	1131316
609.904	952746
609.971	992346
610.039	1094909
610.106	1348664
610.173	2146164
610.241	3955817
610.308	3754125
610.375	1632461
610.442	1152453
610.509	1025576
610.577	985067
610.644	988123
610.711	1011495
610.778	1031020
610.845	1066646
610.912	1125495
610.980	1173171
611.047	1178972
611.114	1161194
611.181	1125221
611.248	1111223
611.315	1159603
611.382	1198803
611.449	1239103
611.516	1266592
611.583	1252418
611.650	1267571
611.717	1288150
611.784	1326249
611.851	1387461
611.918	1480963
611.984	1697306
612.051	2174153
612.118	3254188
612.185	4569657
612.252	4534979
612.319	2959152
612.386	1991296
612.452	1686008
612.519	1524940
612.586	1442540
612.653	1429184
612.719	1472534
612.786	1431141
612.853	1331653
612.919	1275350
612.986	1298334
613.053	1233179
613.120	1170177
613.186	1110914
613.253	1110278
613.319	1112210
613.386	1119182
613.453	1136863
613.519	1138903
613.586	1118423
613.652	1129223
613.719	1119950
613.785	1128413
613.852	1146526
613.918	1142490
613.985	1140436
614.051	1184219
614.118	1181488
614.184	1143957
614.250	1121409
614.317	1167102
614.383	1139248
614.449	1168568
614.516	1159710
614.582	1162446
614.648	1147696
614.715	1131176
614.781	1118069
614.847	1096041
614.914	1113899
614.980	1075950
615.046	1074379
615.112	1105339
615.179	1116699
615.245	1132837
615.311	1120125
615.377	1131561
615.443	1160717
615.509	1169154
615.575	1224116
615.642	1239318
615.708	1257472
615.774	1316821
615.840	1422879
615.906	1544618
615.972	1826524
616.038	2441959
616.104	3796412
616.170	4664221
616.236	4740161
616.302	3881581
616.368	2905187
616.434	2201414
616.500	1773536
616.565	1822155
616.631	2325499
616.697	2212015
616.763	1989926
616.829	2564183
616.895	4028885
616.961	4295035
617.026	3012577
617.092	1755346
617.158	1404924
617.224	1283340
617.289	1154625
617.355	1070093
617.421	1035515
617.487	1024239
617.552	966994
617.618	944862
617.684	944146
617.749	945273
617.815	905210
617.880	878732
617.946	872026
618.012	881619
618.077	908977
618.143	873850
618.208	854087
618.274	918867
618.339	948631
618.405	801255
618.470	751972
618.536	769441
618.601	748134
618.667	705826
618.732	650087
618.798	639382
618.863	635791
618.928	632617
618.994	640835
619.059	633204
619.124	645661
619.190	630956
619.255	628746
619.320	622281
619.386	630213
619.451	628112
619.516	602225
619.581	606877
619.647	622548
619.712	632825
619.777	595797
619.842	594009
619.907	605191
619.972	618195
620.038	622779
620.103	596515
620.168	598904
620.233	604431
620.298	608995
620.363	618211
620.428	636813
620.493	651000
620.558	661858
620.623	668234
620.688	668716
620.753	662133
620.818	678821
620.883	680703
620.948	683902
621.013	666275
621.078	654606
621.143	664897
621.207	673050
621.272	658958
621.337	637604
621.402	623541
621.467	620496
621.532	612843
621.596	623753
621.661	603035
621.726	593522
621.791	598630
621.855	606292
621.920	590652
621.985	604925
622.049	614442
622.114	621458
622.179	629190
622.243	641421
622.308	664426
622.373	692191
622.437	687117
622.502	644541
622.566	631340
622.631	633293
622.695	641233
622.760	641749
622.824	641834
622.889	641014
622.953	641954
623.018	674248
623.082	699980
623.147	689431
623.211	673652
623.276	665195
623.340	652865
623.404	617585
623.469	617079
623.533	624002
623.597	619564
623.662	605901
623.726	569717
623.790	526319
623.854	504623
623.919	513073
623.983	521790
624.047	534614
624.111	539141
624.176	551759
624.240	556252
624.304	575529
624.368	562710
624.432	553304
624.496	566901
624.560	598925
624.625	617557
624.689	603383
624.753	635995
624.817	620617
624.881	595565
624.945	545511
625.009	507578
625.073	518598
625.137	537272
625.201	563729
625.265	579683
625.329	550330
625.393	550316
625.456	560741
625.520	578493
625.584	589791
625.648	603735
625.712	624026
625.776	627088
625.839	591952
625.903	509149
625.967	454975
626.031	473614
626.095	565088
626.158	581969
626.222	446958
626.286	392377
626.349	376032
626.413	352966
626.477	342611
626.540	352654
626.604	353425
626.668	344498
626.731	337942
626.795	342240
626.858	345394
626.922	343586
626.986	337721
627.049	338131
627.113	353779
627.176	346808
627.240	333049
627.303	337308
627.366	336341
627.430	339311
627.493	338429
627.557	334153
627.620	333718
627.684	351744
627.747	363051
627.810	341493
627.874	300094
627.937	284965
628.000	293265
628.064	291626
628.127	264312
628.190	251354
628.253	242428
628.317	237457
628.380	220803
628.443	214118
628.506	211907
628.569	209392
628.632	195242
628.696	195126
628.759	196689
628.822	187601
628.885	182671
628.948	181601
629.011	177133
629.074	172932
629.137	167132
629.200	163372
629.263	160444
629.326	160239
629.389	163388
629.452	161621
629.515	159211
629.578	157178
629.641	157346
629.704	163016
629.767	161539
629.830	154149
629.892	152642
629.955	150820
630.018	154476
630.081	154810
630.144	154507
630.207	152810
630.269	153761
630.332	149019
630.395	148394
630.458	145998
630.520	140575
630.583	141584
630.646	143896
630.708	145820
630.771	151860
630.834	159646
630.896	158746
630.959	157813
631.021	156199
631.084	155804
631.146	159687
631.209	162108
631.272	163962
631.334	169204
631.397	176639
631.459	181185
631.522	193233
631.584	203363
631.646	220935
631.709	235751
631.771	240116
631.834	231728
631.896	214834
631.958	197221
632.021	186698
632.083	173114
632.145	166646
632.208	162797
632.270	157696
632.332	156258
632.395	154301
632.457	154357
632.519	150060
632.581	148468
632.643	149578
632.706	150350
632.768	144161
632.830	147428
632.892	152801
632.954	154277
633.016	156032
633.078	152351
633.141	153719
633.203	154164
633.265	154031
633.327	152104
633.389	155624
633.451	159331
633.513	157739
633.575	164418
633.637	166200
633.698	171133
633.760	181138
633.822	191474
633.884	197394
633.946	208416
634.008	224375
634.070	237573
634.132	256349
634.193	285481
634.255	315053
634.317	327865
634.379	320902
634.441	290121
634.502	258974
634.564	227921
634.626	207140
634.687	189090
634.749	178332
634.811	173247
634.873	168431
634.934	168435
634.996	168259
635.057	168409
635.119	172598
635.181	175973
635.242	179835
635.304	178285
635.365	182421
635.427	178190
635.488	180869
635.550	180541
635.611	185714
635.673	194863
635.734	208295
635.796	226483
635.857	252089
635.918	279642
635.980	312159
636.041	340419
636.102	365067
636.164	377066
636.225	361037
636.286	321214
636.348	278040
636.409	239715
636.470	214497
636.531	198467
636.593	184068
636.654	170452
636.715	157606
636.776	153140
636.838	147574
636.899	141143
636.960	138566
637.021	134885
637.082	130658
637.143	127442
637.204	123958
637.265	124262
637.326	125882
637.387	128643
637.448	128585
637.509	126508
637.570	125670
637.631	123302
637.692	117516
637.753	114943
637.814	111453
637.875	110736
637.936	109821
637.997	109824
638.058	108611
638.119	106861
638.179	108014
638.240	108308
638.301	108344
638.362	105038
638.423	100561
638.483	100099
638.544	96559
638.605	96023
638.666	96814
638.726	97738
638.787	95459
638.848	96131
638.908	96185
638.969	91414
639.030	88424
639.090	90838
639.151	91789
639.211	93829
639.272	96508
639.332	98934
639.393	104265
639.453	116033
639.514	130342
639.574	108586
639.635	91861
639.695	87633
639.756	85945
639.816	84710
639.877	84595
639.937	87415
639.997	87843
640.058	88254
640.118	88410
640.178	86910
640.239	88061
640.299	88822
640.359	92775
640.420	103280
640.480	118945
640.540	143994
640.600	161780
640.661	143338
640.721	128806
640.781	125418
640.841	104778
640.901	94512
640.961	94094
641.021	100416
641.082	119395
641.142	106378
641.202	88454
641.262	79625
641.322	81029
641.382	79026
641.442	79731
641.502	78508
641.562	81899
641.622	86619
641.682	98349
641.742	123472
641.802	126585
641.861	96194
641.921	82314
641.981	78454
642.041	74584
642.101	72377
642.161	72768
642.221	72389
642.280	74652
642.340	74135
642.400	75511
642.460	77989
642.519	79326
642.579	80277
642.639	81025
642.698	82897
642.758	89270
642.818	84976
642.877	84409
642.937	84141
642.997	84323
643.056	83714
643.116	84364
643.175	86950
643.235	90318
643.294	97150
643.354	104988
643.414	117056
643.473	138784
643.532	174350
643.592	237089
643.651	348842
643.711	556864
643.770	979076
643.830	1915627
643.889	3393281
643.948	2196904
644.008	641578
644.067	303635
644.126	204044
644.186	156666
644.245	130140
644.304	113109
644.363	107224
644.423	100283
644.482	100816
644.541	106034
644.600	117169
644.659	143578
644.719	181839
644.778	267632
644.837	426397
644.896	785433
644.955	1778779
645.014	1171088
645.073	271252
645.132	162955
645.191	133462
645.250	123330
645.309	122628
645.368	137628
645.427	180183
645.486	303114
645.545	679570
645.604	306709
645.663	110793
645.722	104299
645.781	110718
645.840	126778
645.898	158207
645.957	215594
646.016	318248
646.075	517507
646.134	908992
646.192	1881856
646.251	3034722
646.310	1377723
646.369	408658
646.427	257724
646.486	198465
646.545	128778
646.603	107416
646.662	95878
646.721	90904
646.779	92734
646.838	100207
646.896	122566
646.955	166188
647.014	255923
647.072	463514
647.131	1191515
647.189	1096223
647.248	189838
647.306	97119
647.365	79028
647.423	68171
647.481	66840
647.540	61010
647.598	62653
647.657	60421
647.715	59170
647.773	56081
647.832	54996
647.890	51091
647.948	50973
648.007	49595
648.065	46476
648.123	47520
648.181	47664
648.240	47237
648.298	46956
648.356	46921
648.414	47387
648.472	46577
648.531	45438
648.589	44511
648.647	45239
648.705	48370
648.763	49431
648.821	52009
648.879	56352
648.937	65102
648.995	81526
649.053	105901
649.111	157677
649.169	244160
649.227	414498
649.285	784416
649.343	1891031
649.401	1760352
649.459	382563
649.516	155068
649.574	109620
649.632	100576
649.690	107742
649.748	132902
649.806	197329
649.863	340477
649.921	863988
649.979	1055647
650.037	187762
650.094	73985
650.152	56726
650.210	49120
650.268	46035
650.325	41856
650.383	41093
650.440	37295
650.498	36693
650.556	36782
650.613	35075
650.671	36875
650.728	38635
650.786	43698
650.843	66578
650.901	69582
650.958	35828
651.016	32453
651.073	30959
651.131	30924
651.188	30638
651.246	28871
651.303	28381
651.360	29418
651.418	28111
651.475	27963
651.532	26608
651.590	27729
651.647	27593
651.704	27921
651.762	27885
651.819	27366
651.876	27062
651.933	25383
651.990	26271
652.048	25574
652.105	25131
652.162	26566
652.219	25696
652.276	24224
652.333	25745
652.390	23361
652.448	23729
652.505	24917
652.562	24511
652.619	24335
652.676	24304
652.733	25305
652.790	24348
652.847	22441
652.904	24698
652.961	22246
653.017	22304
653.074	23214
653.131	23815
653.188	22785
653.245	23355
653.302	23869
653.359	22456
653.415	23292
653.472	22908
653.529	23858
653.586	23313
653.642	23722
653.699	24265
653.756	23407
653.813	24002
653.869	25489
653.926	27429
653.983	25573
654.039	24091
654.096	23420
654.152	24491
654.209	21383
654.266	21945
654.322	20461
654.379	22263
654.435	21572
654.492	21625
654.548	21255
654.605	20915
654.661	22248
654.717	21067
654.774	21755
654.830	21450
654.887	21187
654.943	21433
655.000	22215
655.056	22842
655.112	22395
655.168	22482
655.225	24370
655.281	25882
655.337	23690
655.394	23644
655.450	21389
655.506	20433
655.562	20073
655.618	21430
655.675	20792
655.731	20874
655.787	19687
655.843	21637
655.899	20222
655.955	22478
656.011	23485
656.067	23335
656.123	22777
656.179	22878
656.235	24041
656.291	24389
656.347	25707
656.403	23501
656.459	22643
656.515	22389
656.571	21205
656.627	20672
656.683	20324
656.739	21141
656.795	20394
656.850	20595
656.906	21372
656.962	23441
657.018	25182
657.074	30809
657.129	42357
657.185	62919
657.241	147203
657.297	149243
657.352	33536
657.408	21837
657.464	22507
657.519	19972
657.575	18574
657.630	17852
657.686	18975
657.742	18568
657.797	18251
657.853	18731
657.908	20652
657.964	18568
658.019	18913
658.075	18747
658.130	18738
658.186	17815
658.241	17584
658.297	16673
658.352	17095
658.407	17481
658.463	16909
658.518	17490
658.573	16872
658.629	16658
658.684	15957
658.739	17064
658.795	16012
658.850	17675
658.905	16730
658.960	16146
659.016	15164
659.071	15882
659.126	15531
659.181	15185
659.236	16093
659.291	15895
659.346	15279
659.401	15468
659.457	16314
659.512	16277
659.567	16635
659.622	15923
659.677	14189
659.732	14897
659.787	15386
659.842	15127
659.897	14864
659.952	15776
660.007	16055
660.061	14904
660.116	14209
660.171	15082
660.226	15158
660.281	15200
660.336	14070
660.391	15287
660.445	14658
660.500	14470
660.555	13961
660.610	14207
660.664	15050
660.719	14428
660.774	14492
660.828	14303
660.883	13659
660.938	14164
660.992	13420
661.047	14786
661.101	14222
661.156	14104
661.211	13995
661.265	14274
661.320	13734
661.374	14037
661.429	13337
661.483	15101
661.538	13861
661.592	13971
661.647	14391
661.701	15486
661.755	14239
661.810	13759
661.864	12875
661.919	13783
661.973	14702
662.027	14591
662.081	12576
662.136	14002
662.190	13118
662.244	13925
662.299	13243
662.353	14308
662.407	14090
662.461	13356
662.515	13473
662.569	12552
662.624	13728
662.678	13741
662.732	14389
662.786	13972
662.840	14921
662.894	14229
662.948	13443
663.002	13802
663.056	14518
663.110	14062
663.164	14682
663.218	13854
663.272	14164
663.326	14996
663.380	14270
663.434	14811
663.488	15272
663.542	14958
663.595	15250
663.649	14623
663.703	15196
663.757	15330
663.811	14369
663.864	15192
663.918	15168
663.972	15586
664.026	15007
664.079	14952
664.133	15530
664.187	15817
664.240	15566
664.294	15209
664.348	14663
664.401	14898
664.455	15371
664.508	14342
664.562	15039
664.615	15235
664.669	15079
664.722	14638
664.776	13322
664.829	14799
664.883	14725
664.936	13810
664.990	14659
665.043	15738
665.097	14791
665.150	15801
665.203	15352
665.257	16272
665.310	17247
665.363	16994
665.417	17325
665.470	17075
665.523	17279
665.576	18888
665.630	18213
665.683	17533
665.736	17474
665.789	18902
665.842	15970
665.895	16185
665.949	16906
666.002	15656
666.055	16822
666.108	17764
666.161	17823
666.214	17581
666.267	18034
666.320	17842
666.373	18919
666.426	18815
666.479	18443
666.532	19928
666.585	19776
666.638	21682
666.691	18972
666.744	19139
666.796	18039
666.849	17794
666.902	17335
666.955	16911
667.008	16748
667.060	16637
667.113	17325
667.166	17580
667.219	18394
667.271	19394
667.324	17686
667.377	18431
667.430	17329
667.482	17097
667.535	16077
667.587	17187
667.640	16856
667.693	16297
667.745	17892
667.798	17671
667.850	16431
667.903	17671
667.955	18146
668.008	17816
668.060	18905
668.113	17270
668.165	17321
668.218	17116
668.270	16727
668.322	16904
668.375	16270
668.427	16619
668.479	15529
668.532	18687
668.584	17270
668.636	16461
668.689	16921
668.741	16624
668.793	16704
668.845	16720
668.898	17220
668.950	16139
669.002	16305
669.054	15647
669.106	15278
669.158	15807
669.211	15491
669.263	15596
669.315	15644
669.367	15733
669.419	14226
669.471	16003
669.523	16355
669.575	17102
669.627	15918
669.679	15843
669.731	15610
669.783	16102
669.835	15861
669.886	15622
669.938	16200
669.990	16781
670.042	15359
670.094	15301
670.146	14934
670.197	15875
670.249	15764
670.301	14658
670.353	16269
670.404	16636
670.456	16162
670.508	18596
670.560	20809
670.611	25001
670.663	31395
670.715	50462
670.766	91108
670.818	52820
670.869	22815
670.921	22068
670.972	25217
671.024	22006
671.075	20423
671.127	21302
671.178	23694
671.230	27381
671.281	30530
671.333	35892
671.384	44508
671.436	58616
671.487	82803
671.538	115230
671.590	171929
671.641	267099
671.692	435266
671.744	795389
671.795	915964
671.846	484837
671.897	226006
671.949	130785
672.000	87402
672.051	64498
672.102	49838
672.153	39685
672.204	34764
672.256	30973
672.307	27109
672.358	25320
672.409	22711
672.460	21682
672.511	20222
672.562	18080
672.613	16418
672.664	15890
672.715	17032
672.766	16950
672.817	14211
672.868	15256
672.919	14568
672.970	13559
673.021	14248
673.071	13085
673.122	13334
673.173	12970
673.224	13254
673.275	14155
673.326	12749
673.376	12597
673.427	12757
673.478	12988
673.528	14251
673.579	13075
673.630	13699
673.680	13351
673.731	13347
673.782	13740
673.832	13201
673.883	13004
673.934	12338
673.984	13904
674.035	12575
674.085	14838
674.136	13379
674.186	14125
674.237	16160
674.287	15090
674.338	16020
674.388	17053
674.438	17130
674.489	18439
674.539	19081
674.589	19413
674.640	18423
674.690	18354
674.740	17194
674.791	16394
674.841	16197
674.891	14587
674.942	13347
674.992	12929
675.042	12135
675.092	12385
675.142	11742
675.193	11348
675.243	12326
675.293	12442
675.343	12441
675.393	13569
675.443	13088
675.493	12391
675.543	12211
675.593	12923
675.643	12745
675.693	12677
675.743	12267
675.793	11885
675.843	10804
675.893	9873
675.943	10348
675.993	10699
676.043	9382
676.093	9558
676.142	9987
676.192	9920
676.242	9890
676.292	10211
676.341	9826
676.391	9678
676.441	9032
676.491	8953
676.540	8757
676.590	8846
676.640	8809
676.689	9273
676.739	7441
676.789	8188
676.838	8369
676.888	8112
676.937	7814
676.987	8716
677.037	8336
677.086	8143
677.136	8740
677.185	8982
677.235	8409
677.284	7890
677.333	9075
677.383	8302
677.432	8385
677.482	8476
677.531	8304
677.580	7081
677.630	7626
677.679	7992
677.728	8825
677.778	8770
677.827	8052
677.876	8993
677.925	9197
677.975	8735
678.024	11061
678.073	10913
678.122	9983
678.171	12025
678.220	13441
678.269	16024
678.319	18375
678.368	21264
678.417	18076
678.466	13309
678.515	10290
678.564	9487
678.613	8655
678.662	8182
678.711	8415
678.760	8290
678.809	8747
678.857	10174
678.906	11179
678.955	9582
679.004	8798
679.053	7697
679.102	7033
679.151	8268
679.199	7715
679.248	7746
679.297	8051
679.346	7931
679.394	6361
679.443	6257
679.492	7591
679.540	8108
679.589	8503
679.638	8847
679.686	9563
679.735	10392
679.784	12079
679.832	17581
679.881	14788
679.929	10609
679.978	8152
680.026	8341
680.075	7893
680.123	7634
680.172	6508
680.220	7168
680.268	7239
680.317	7121
680.365	6944
680.414	6432
680.462	6826
680.510	7962
680.559	7451
680.607	7565
680.655	7029
680.703	7370
680.752	8084
680.800	7987
680.848	5901
680.896	7578
680.945	6915
680.993	6084
681.041	6084
681.089	6415
681.137	6469
681.185	6936
681.233	6168
681.258	6126
681.281	6059
681.329	6210
681.377	6278
681.380	6284
681.425	5897
681.473	6989
681.502	7034
681.521	7017
681.569	8087
681.617	8463
681.624	8349
681.665	7408
681.713	7793
681.745	7438
681.761	7223
681.809	7288
681.857	8314
681.867	8207
681.904	7725
681.952	8413
681.989	8067
682.000	7924
682.048	7848
682.096	7386
682.111	7594
682.143	7968
682.191	7369
682.233	8273
682.239	8380
682.286	8250
682.334	7955
682.354	7882
682.382	7723
682.430	8784
682.476	7908
682.477	7863
682.525	8188
682.572	7743
682.598	7797
682.620	7802
682.667	8834
682.715	8089
682.720	8095
682.763	7845
682.810	8561
682.841	8607
682.857	8622
682.905	8209
682.952	8527
682.963	8475
683.000	8151
683.047	8373
683.085	8906
683.095	9023
683.142	8850
683.190	8743
683.206	8711
683.237	8594
683.284	8052
683.328	8554
683.332	8570
683.379	8505
683.426	8427
683.449	8642
683.473	8841
683.521	8953
683.568	8759
683.571	8804
683.615	9143
683.662	9147
683.693	8674
683.709	8345
683.757	8987
683.804	7858
683.814	7910
683.851	8041
683.898	8724
683.936	9400
683.945	9563
683.992	8937
684.039	9010
684.057	9184
684.086	9346
684.133	9246
684.179	8395
684.180	8345
684.227	8641
684.274	9130
684.300	8935
684.321	8834
684.368	7959
684.415	8643
684.422	8709
684.462	9069
684.509	9631
684.543	9187
684.556	9013
684.603	9826
684.649	9723
684.665	9947
684.696	10239
684.743	9752
684.786	9595
684.790	9569
684.837	10439
684.883	9230
684.908	9444
684.930	9666
684.977	10012
685.023	10843
685.029	10824
685.070	10426
685.117	10661
685.150	10632
685.164	10620
685.210	10180
685.257	10875
685.272	10917
685.303	10936
685.350	10831
685.393	10721
685.396	10699
685.443	10306
685.490	9981
685.514	10107
685.536	10212
685.583	10085
685.629	9939
685.636	9965
685.675	10164
685.722	10483
685.757	10844
685.768	10926
685.815	10539
685.861	10060
685.878	10243
685.908	10547
685.954	10324
686.000	10559
686.000	10556
686.047	10516
686.093	11157
686.121	11250
686.139	11318
686.185	10989
686.232	11492
686.242	11509
686.278	11448
686.324	11645
686.363	11214
686.370	11148
686.416	11187
686.463	11941
686.484	11881
686.509	11654
686.555	11170
686.601	10927
686.606	10919
686.647	11018
686.693	10924
686.727	11188
686.739	11278
686.785	10950
686.831	10993
686.848	11275
686.877	11753
686.923	11222
686.969	11679
686.969	11681
687.015	11590
687.061	11734
687.090	12291
687.107	12580
687.153	12555
687.199	12826
687.211	12621
687.245	11907
687.291	11926
687.332	11916
687.336	11925
687.382	12592
687.428	12250
687.453	11971
687.474	11777
687.520	12721
687.565	12566
687.574	12568
687.611	12752
687.657	13342
687.695	13657
687.702	13698
687.748	13674
687.794	14377
687.816	14359
687.839	14240
687.885	13936
687.931	13947
687.937	13854
687.976	13348
688.022	13099
688.058	13448
688.067	13555
688.113	13803
688.158	13375
688.179	13486
688.204	13612
688.249	13519
688.295	13699
688.300	13651
688.340	13365
688.386	14080
688.421	13718
688.431	13631
688.477	13264
688.522	14007
688.542	13967
688.567	14155
688.613	14511
688.658	15086
688.663	15092
688.703	14788
688.749	15190
688.784	14556
688.794	14381
688.839	14637
688.884	15118
688.905	14936
688.930	14720
688.975	14115
689.020	13925
689.026	13884
689.065	13744
689.110	14223
689.146	14196
689.155	14250
689.201	14008
689.246	14281
689.267	14483
689.291	14638
689.336	14443
689.381	14531
689.388	14473
689.426	14300
689.471	14866
689.509	14947
689.516	14985
689.561	14999
689.606	15204
689.630	15291
689.651	15181
689.696	14879
689.741	14417
689.750	14372
689.785	14814
689.830	15402
689.871	15681
689.875	15674
689.920	15025
689.965	15274
689.992	14956
690.010	14835
690.054	14621
690.099	14605
690.112	14634
690.144	14739
690.189	14489
690.233	14432
690.233	14449
690.278	15290
690.323	14961
690.354	15166
690.367	15249
690.412	15620
690.457	14893
690.474	14948
690.501	14949
690.546	14750
690.590	14887
690.595	14810
690.635	14633
690.680	14575
690.716	14898
690.724	14972
690.769	15105
690.813	15087
690.836	15176
690.857	15499
690.902	15831
690.946	16270
690.957	16401
690.991	17094
691.035	17887
691.077	18846
691.080	18898
691.124	19046
691.168	19301
691.198	19096
691.213	18700
691.257	17895
691.301	17003
691.318	16640
691.346	16592
691.390	16578
691.434	16907
691.439	16820
691.478	16021
691.522	16077
691.559	15351
691.567	15361
691.611	16085
691.655	16430
691.680	16679
691.699	16800
691.743	16736
691.787	17160
691.800	16973
691.831	16400
691.875	16156
691.919	16347
691.921	16320
691.964	16614
692.008	16572
692.041	16783
692.052	16909
692.096	16884
692.139	17427
692.162	17542
692.183	17393
692.227	16817
692.271	16460
692.282	16338
692.315	16296
692.359	16304
692.402	16426
692.403	16453
692.447	16426
692.490	16270
692.523	16052
692.534	16017
692.578	16106
692.622	16202
692.643	16129
692.666	16166
692.709	16430
692.753	16709
692.763	16611
692.797	16389
692.840	16659
692.884	16764
692.884	16793
692.928	16709
692.971	16694
693.004	16776
693.015	16832
693.059	16665
693.102	16924
693.124	16736
693.146	16669
693.189	17011
693.233	17015
693.245	17092
693.276	17346
693.320	17258
693.363	17105
693.365	17069
693.407	17120
693.450	17460
693.485	17562
693.493	17681
693.537	18354
693.580	18513
693.605	18955
693.624	19093
693.667	18786
693.710	18789
693.725	18662
693.753	19613
693.797	21578
693.840	23441
693.845	23593
693.883	24149
693.926	24688
693.966	25000
693.970	24885
694.013	23376
694.056	21607
694.086	20584
694.099	20481
694.142	19868
694.185	19400
694.206	19133
694.229	19071
694.272	18739
694.315	18644
694.326	18551
694.358	18721
694.401	18824
694.444	18980
694.446	18959
694.487	19041
694.530	18807
694.566	18705
694.573	18767
694.616	18807
694.659	18978
694.686	18949
694.702	19059
694.745	19615
694.787	19743
694.806	19869
694.830	19828
694.873	19421
694.916	19270
694.926	19209
694.959	19616
695.002	19924
695.044	20248
695.046	20229
695.087	20885
695.130	21366
695.166	21533
695.172	21591
695.215	21805
695.258	22105
695.286	22277
695.301	22481
695.343	22868
695.386	23208
695.406	23401
695.428	23937
695.471	24812
695.514	25765
695.526	26044
695.556	28573
695.599	32138
695.641	35179
695.646	35427
695.684	33700
695.726	31923
695.766	30337
695.769	30329
695.811	29133
695.854	28091
695.886	27201
695.896	27310
695.938	27503
695.981	27632
696.005	27800
696.023	28522
696.065	29918
696.108	31476
696.125	32077
696.150	33057
696.192	34579
696.235	35803
696.245	36094
696.277	36180
696.319	36127
696.361	36124
696.365	36032
696.404	35902
696.446	35754
696.485	35608
696.488	35666
696.530	35347
696.572	35144
696.604	34833
696.614	34826
696.656	34531
696.698	34235
696.724	34017
696.740	34203
696.783	34487
696.825	34703
696.844	34711
696.867	35073
696.909	35678
696.951	36217
696.964	36307
696.992	36377
697.034	36470
697.076	36405
697.083	36345
697.118	37674
697.160	39249
697.202	40591
697.203	40539
697.244	40037
697.286	39654
697.323	39051
697.327	39131
697.369	39104
697.411	39114
697.442	39030
697.453	39160
697.494	39362
697.536	39502
697.562	39555
697.578	39584
697.620	39241
697.661	39116
697.682	38936
697.703	39802
697.744	41423
697.786	43038
697.801	43436
697.828	43240
697.869	42978
697.911	42631
697.921	42472
697.952	42531
697.994	42402
698.035	42349
698.040	42236
698.077	42422
698.118	42614
698.160	42777
698.160	42682
698.201	43515
698.243	44307
698.279	44921
698.284	45177
698.325	46569
698.367	47982
698.399	48972
698.408	49244
698.449	50014
698.491	50755
698.518	51103
698.532	51021
698.573	50433
698.614	49888
698.638	49436
698.656	49749
698.697	50248
698.738	50720
698.757	50831
698.779	50891
698.820	50779
698.862	50664
698.877	50506
698.903	50825
698.944	51151
698.985	51477
698.996	51447
699.026	51042
699.067	50321
699.116	49344
699.235	50080
699.354	51119
699.474	47283
699.593	45781
699.713	47530
699.832	46510
699.951	48857
700.070	49596
700.190	45379
700.309	44396
700.428	41721
700.547	42021
700.667	41883
700.786	41679
700.905	40664
701.024	40403
701.143	40752
701.262	42208
701.381	44082
701.500	44501
701.619	43816
701.738	44566
701.857	42960
701.976	40979
702.095	40351
702.214	44471
702.333	41927
702.452	44425
702.571	43896
702.690	44564
702.809	43501
702.928	41909
703.047	39513
703.165	38766
703.284	39991
703.403	37846
703.522	39539
703.640	37198
703.759	38315
703.878	36672
703.997	38541
704.115	38781
704.234	39518
704.353	41550
704.471	37039
704.590	34677
704.708	36315
704.827	33895
704.946	34920
705.064	34560
705.183	33973
705.301	34957
705.420	34098
705.538	32181
705.656	32755
705.775	29639
705.893	32464
706.012	33413
706.130	30765
706.249	33827
706.367	31727
706.485	30585
706.604	31271
706.722	30046
706.840	31854
706.958	32705
707.077	30540
707.195	30043
707.313	30547
707.431	27416
707.549	28511
707.668	26517
707.786	29916
707.904	28973
708.022	28674
708.140	29734
708.258	27824
708.376	30991
708.494	28129
708.612	30950
708.730	32850
708.848	31543
708.966	31808
709.084	30594
709.202	29946
709.320	26587
709.438	26435
709.556	27874
709.674	23894
709.791	24573
709.909	24300
710.027	24678
710.145	25240
710.263	24644
710.380	24606
710.498	24156
710.616	24713
710.733	22408
710.851	22911
710.969	23565
711.086	22311
711.204	24484
711.322	23663
711.439	23790
711.557	22370
711.674	22316
711.792	22829
711.909	22479
712.027	22037
712.144	22648
712.262	22053
712.379	23628
712.497	23166
712.614	22594
712.732	23281
712.849	23324
712.966	22978
713.084	25008
713.201	23009
713.318	23318
713.436	28241
713.553	26116
713.670	31245
713.787	30423
713.905	28190
714.022	30733
714.139	32532
714.256	44613
714.373	69673
714.490	140283
714.608	347435
714.725	1360693
714.842	2296536
714.959	373523
715.076	93004
715.193	55269
715.310	45313
715.427	31972
715.544	29278
715.661	29629
715.778	25603
715.895	24436
716.011	26699
716.128	24101
716.245	23603
716.362	23148
716.479	19370
716.596	19548
716.713	19653
716.829	19483
716.946	18548
717.063	18327
717.180	16918
717.296	17668
717.413	18767
717.530	17318
717.646	15479
717.763	17355
717.880	17560
717.996	16074
718.113	16247
718.229	17122
718.346	15919
718.462	15866
718.579	17594
718.695	17368
718.812	16067
718.928	16919
719.045	16937
719.161	16771
719.277	18187
719.394	18887
719.510	19370
719.626	23896
719.743	31933
719.859	58588
719.975	129562
720.092	476840
720.208	1534857
720.324	423442
720.440	55958
720.557	32697
720.673	26086
720.789	22768
720.905	17975
721.021	18441
721.137	15856
721.253	15159
721.369	15239
721.486	15627
721.602	14915
721.718	13754
721.834	15214
721.950	14918
722.066	13999
722.181	13497
722.297	13934
722.413	14000
722.529	13752
722.645	13537
722.761	13301
722.877	14246
722.993	18612
723.108	30182
723.224	30378
723.340	17684
723.456	14766
723.571	12961
723.687	12062
723.803	13074
723.918	14078
724.034	12627
724.150	12110
724.265	12909
724.381	11681
724.497	11783
724.612	11789
724.728	13159
724.843	12158
724.959	11811
725.074	12909
725.190	12397
725.305	12121
725.421	11056
725.536	12125
725.651	13345
725.767	12658
725.882	12164
725.997	12022
726.113	12209
726.228	11330
726.343	12050
726.459	11237
726.574	11709
726.689	11236
726.804	11347
726.920	11164
727.035	11377
727.150	11636
727.265	10822
727.380	12171
727.495	11124
727.610	10728
727.725	10749
727.841	10790
727.956	11483
728.071	11208
728.186	10850
728.301	10296
728.416	11667
728.531	11681
728.645	11203
728.760	10882
728.875	11090
728.990	11486
729.105	10531
729.220	12016
729.335	11786
729.449	11591
729.564	11177
729.679	11357
729.794	11918
729.908	12440
730.023	11334
730.138	12396
730.253	12916
730.367	11746
730.482	12829
730.596	12003
730.711	14100
730.826	20743
730.940	20789
731.055	18263
731.169	17443
731.284	19533
731.398	20155
731.513	22961
731.627	25147
731.742	31898
731.856	41654
731.970	46442
732.085	62287
732.199	96621
732.313	179301
732.428	437739
732.542	1297301
732.656	1235818
732.771	253926
732.885	100192
732.999	70765
733.113	64907
733.227	56610
733.342	51124
733.456	48468
733.570	46419
733.684	42546
733.798	39522
733.912	40568
734.026	40614
734.140	38642
734.254	38305
734.368	36389
734.482	36687
734.596	37775
734.710	35891
734.824	35381
734.938	34242
735.052	36900
735.166	34289
735.280	34507
735.393	32619
735.507	33309
735.621	32555
735.735	31366
735.849	32953
735.962	31029
736.076	31527
736.190	31320
736.303	31492
736.417	32575
736.531	28330
736.644	31124
736.758	29247
736.872	30967
736.985	28933
737.099	29590
737.212	27790
737.326	29008
737.439	29233
737.553	27999
737.666	28552
737.780	26393
737.893	28983
738.007	25880
738.120	29854
738.233	24735
738.347	28940
738.460	24512
738.573	29099
738.687	26125
738.800	26449
738.913	27130
739.026	27042
739.140	24134
739.253	25894
739.366	25501
739.479	23697
739.592	26825
739.705	22993
739.818	26405
739.932	24631
740.045	24193
740.158	24686
740.271	25564
740.384	25998
740.497	21318
740.610	25387
740.723	22896
740.836	22544
740.949	22756
741.062	26576
741.174	22783
741.287	22743
741.400	25287
741.513	20109
741.626	24151
741.739	24150
741.851	21519
741.964	23275
742.077	22555
742.189	20046
742.302	23694
742.415	22710
742.527	21158
742.640	21817
742.753	18813
742.865	21031
742.978	21634
743.090	20021
743.203	20516
743.316	19808
743.428	19961
743.541	20004
743.653	17037
743.766	19049
743.878	21597
743.990	17930
744.103	21654
744.215	24195
744.327	17584
744.440	22122
744.552	21257
744.664	16727
744.777	20251
744.889	20157
745.001	17460
745.113	20437
745.226	19897
745.338	16337
745.450	20771
745.562	18968
745.674	16101
745.786	20650
745.898	20466
746.010	17240
746.122	18759
746.234	19058
746.347	18987
746.459	18869
746.570	14889
746.682	19158
746.794	27708
746.906	19694
747.018	16638
747.130	19443
747.242	16277
747.354	16320
747.466	17693
747.577	15264
747.689	17660
747.801	18195
747.913	15066
748.024	15065
748.136	15476
748.248	15343
748.359	16006
748.471	16581
748.583	13949
748.694	12870
748.806	15727
748.918	14294
749.029	14213
749.141	15941
749.252	16263
749.364	13719
749.475	14226
749.587	13177
749.698	13653
749.809	14668
749.921	13344
750.032	13847
750.144	12656
750.255	13498
750.366	13592
750.478	12185
750.589	13203
750.700	12851
750.811	14495
750.923	12099
751.034	11964
751.145	15408
751.256	13402
751.367	11645
751.479	13167
751.590	12544
751.701	12477
751.812	10772
751.923	11759
752.034	14508
752.145	15072
752.256	13730
752.367	13013
752.478	12182
752.589	12594
752.700	13082
752.811	11209
752.922	12255
753.032	14359
753.143	14079
753.254	12950
753.365	15106
753.476	17103
753.586	13773
753.697	12163
753.808	13119
753.919	11009
754.029	12710
754.140	11156
754.251	11021
754.361	12535
754.472	13507
754.582	12008
754.693	11859
754.804	12921
754.914	12578
755.025	10038
755.135	11063
755.246	12603
755.356	11575
755.466	10513
755.577	10182
755.687	11127
755.798	10915
755.908	10450
756.018	11183
756.129	11165
756.239	11450
756.349	12860
756.460	14439
756.570	17471
756.680	13486
756.790	11989
756.900	13325
757.011	10459
757.121	9316
757.231	9676
757.341	11116
757.451	10029
757.561	10106
757.671	10185
757.781	12403
757.891	11670
758.001	9701
758.111	11268
758.221	13014
758.331	14018
758.441	14762
758.551	14108
758.661	15792
758.771	16291
758.880	15402
758.990	13939
759.100	13734
759.210	14266
759.320	13836
759.429	15603
759.539	17405
759.649	19045
759.758	23781
759.868	24593
759.978	24928
760.087	28399
760.197	29632
760.307	28876
760.416	24470
760.526	23065
760.635	22752
760.745	25107
760.854	28728
760.964	34504
761.073	34802
761.182	33123
761.292	28054
761.401	22753
761.511	18979
761.620	15394
761.729	14051
761.839	11805
761.948	11455
762.057	11573
762.166	11694
762.276	12694
762.385	12143
762.494	12376
762.603	12167
762.712	11004
762.822	12315
762.931	9677
763.040	8370
763.149	9747
763.258	9717
763.367	9010
763.476	8891
763.585	9095
763.694	9166
763.803	8717
763.912	9910
764.021	9572
764.130	9138
764.238	10296
764.347	10933
764.456	13496
764.565	12769
764.674	10715
764.783	9718
764.891	10694
765.000	10403
765.109	10369
765.217	10331
765.326	11900
765.435	13122
765.543	14754
765.652	15322
765.761	16270
765.869	20862
765.978	27882
766.086	46824
766.195	89134
766.303	214251
766.412	611768
766.520	704773
766.629	230054
766.737	70877
766.846	40704
766.954	27559
767.062	22612
767.171	16788
767.279	15037
767.387	12946
767.496	11273
767.604	10601
767.712	11227
767.820	9809
767.928	10051
768.037	7928
768.145	9086
768.253	8478
768.361	8328
768.469	9210
768.577	8168
768.685	8629
768.793	10418
768.901	10723
769.009	10881
769.117	10127
769.225	12417
769.333	16541
769.441	24077
769.549	39310
769.657	78428
769.765	231504
769.873	597607
769.981	306458
770.088	64759
770.196	30962
770.304	22574
770.412	19209
770.519	16243
770.627	15495
770.735	13884
770.842	13046
770.950	13522
771.058	15381
771.165	15890
771.273	19345
771.380	18396
771.488	22773
771.595	30864
771.703	26336
771.810	23886
771.918	24083
772.025	28929
772.133	35099
772.240	31777
772.348	36170
772.455	35533
772.562	32005
772.670	30612
772.777	31982
772.884	30343
772.991	29121
773.099	31749
773.206	28353
773.313	30073
773.420	29583
773.528	29346
773.635	27247
773.742	29751
773.849	27215
773.956	29159
774.063	26784
774.170	28913
774.277	27401
774.384	26493
774.491	26823
774.598	27696
774.705	26585
774.812	26494
774.919	26618
775.026	25612
775.133	24967
775.239	26840
775.346	24773
775.453	24817
775.560	25610
775.667	24528
775.773	25530
775.880	23267
775.987	24322
776.093	22844
776.200	27329
776.307	20130
776.413	20355
776.520	26136
776.627	25012
776.733	20577
776.840	20334
776.946	27039
777.053	27942
777.159	32235
777.266	27158
777.372	27929
777.478	30971
777.585	27776
777.691	19977
777.798	23532
777.904	21380
778.010	18505
778.117	21109
778.223	19881
778.329	21212
778.435	17906
778.542	21260
778.648	20042
778.754	17983
778.860	19525
778.966	20444
779.072	19030
779.178	19978
779.284	17663
779.391	17273
779.497	20617
779.603	20205
779.708	18419
779.815	15730
779.920	20614
780.026	19994
780.132	18115
780.238	18930
780.344	14524
780.450	20925
780.556	16659
780.661	12647
780.767	20901
780.873	14175
780.979	13474
781.085	20261
781.190	16649
781.296	15044
781.402	15625
781.507	17295
781.613	13813
781.719	13509
781.824	18521
781.930	15722
782.035	14754
782.141	18279
782.246	13325
782.352	12761
782.457	15845
782.563	15420
782.668	15480
782.773	13202
782.879	12903
782.984	14127
783.090	15184
783.195	14180
783.300	17343
783.405	14212
783.511	12644
783.616	12372
783.721	14946
783.826	14766
783.932	11201
784.037	13912
784.142	13766
784.247	12749
784.352	13999
784.457	11200
784.562	12149
784.667	14859
784.772	12172
784.877	8839
784.982	13543
785.087	15015
785.192	11247
785.297	11553
785.402	13324
785.507	14147
785.611	12354
785.716	10220
785.821	11670
785.926	12577
786.031	11850
786.135	11796
786.240	12613
786.345	9636
786.450	9346
786.554	11644
786.659	9911
786.763	11014
786.868	11908
786.973	11818
787.077	10772
787.182	9018
787.286	11260
787.391	14535
787.495	9750
787.600	7764
787.704	10471
787.809	10792
787.913	10337
788.017	10290
788.122	12311
788.226	9957
788.330	6648
788.435	9614
788.539	11150
788.643	10790
788.747	7242
788.852	8943
788.956	10843
789.060	10684
789.164	10274
789.268	8955
789.372	11430
789.476	9626
789.580	7976
789.684	7537
789.788	9636
789.892	10476
789.996	8346
790.100	6968
790.204	8935
790.308	11529
790.412	9133
790.516	7392
790.620	8014
790.724	11039
790.828	9863
790.931	6316
791.035	7386
791.139	7593
791.242	9007
791.346	9496
791.450	9389
791.554	8400
791.657	5970
791.761	8606
791.864	8535
791.968	9117
792.072	9494
792.175	6514
792.279	7353
792.382	7240
792.486	6491
792.589	8215
792.693	9001
792.796	8299
792.899	7755
793.003	7908
793.106	7037
793.209	8694
793.313	7361
793.416	4714
793.519	6129
793.623	8810
793.726	9068
793.829	6547
793.932	4466
794.035	5283
794.138	8085
794.242	9879
794.345	7716
794.448	6197
794.551	5796
794.654	8722
794.757	10183
794.860	7522
794.963	7641
795.066	6482
795.169	7382
795.272	6593
795.375	8274
795.477	6265
795.580	5573
795.683	4657
795.786	7993
795.889	6123
795.991	6902
796.094	6640
796.197	6716
796.300	7757
796.402	9042
796.505	6715
796.608	5389
796.710	6692
796.813	7737
796.915	9750
797.018	9162
797.120	7250
797.223	6725
797.326	7795
797.428	6170
797.530	5558
797.633	6930
797.735	9347
797.838	8694
797.940	8645
798.042	7728
798.145	6486
798.247	5597
798.349	5191
798.452	7233
798.554	6963
798.656	9176
798.758	11983
798.860	8352
798.962	7332
799.065	6810
799.167	5745
799.269	7108
799.371	8613
799.473	13417
799.575	12329
799.677	9062
799.779	7279
799.881	6731
799.983	9217
800.085	6064
800.187	6423
800.289	5541
800.390	5770
800.492	7314
800.594	6769
800.696	4553
800.798	4504
800.899	5477
801.001	6720
801.103	7477
801.205	6476
801.306	7345
801.408	6865
801.509	6916
801.611	6447
801.713	5658
801.814	4691
801.916	4241
802.017	3274
802.119	4260
802.220	5367
802.322	5523
802.423	5290
802.525	4160
802.626	4934
802.727	6203
802.829	6354
802.930	3127
803.031	5482
803.133	5054
803.234	5189
803.335	5735
803.436	5247
803.538	5463
803.639	4042
803.740	5382
803.841	5230
803.942	6033
804.043	5173
804.144	4418
804.245	4708
804.346	4853
804.447	4544
804.548	4313
804.649	5260
804.750	4691
804.851	3399
804.952	5939
805.053	3668
805.154	3915
805.255	5429
805.355	4322
805.456	4010
805.557	3805
805.658	3213
805.758	4410
805.859	3683
805.960	4753
806.061	4495
806.161	4105
806.262	3171
806.362	3602
806.463	2947
806.564	5430
806.664	4956
806.765	3977
806.865	3237
806.966	2605
807.066	3080
807.166	3715
807.267	5141
807.367	4158
807.468	4816
807.568	3026
807.668	3741
807.769	4910
807.869	3975
807.969	4286
808.069	4368
808.170	3130
808.270	3983
808.370	4102
808.470	4316
808.570	3997
808.670	4092
808.770	3835
808.870	2890
808.970	3820
809.070	3055
809.170	3701
809.271	3351
809.370	4018
809.470	4090
809.570	3288
809.670	2497
809.770	3667
809.870	3521
809.970	3924
810.070	4163
810.169	3987
810.269	2682
810.369	4865
810.469	3397
810.568	3866
810.668	3040
810.768	3328
810.867	3248
810.967	2287
811.066	3369
811.166	3546
811.265	3556
811.365	2665
811.464	3337
811.564	3511
811.663	3155
811.763	3507
811.862	3417
811.962	4553
812.061	2963
812.160	3675
812.260	3876
812.359	2506
812.458	3352
812.557	4486
812.657	3208
812.756	3022
812.855	3211
812.954	3991
813.053	3880
813.153	3369
813.252	3503
813.351	3958
813.450	4217
813.549	3188
813.648	3919
813.747	3805
813.846	4108
813.945	4846
814.044	4474
814.143	3988
814.242	4104
814.341	4114
814.439	5381
814.538	4273
814.637	5527
814.736	5904
814.835	4638
814.933	6098
815.032	7601
815.131	9733
815.229	17468
815.328	26946
815.427	21866
815.525	17392
815.624	16694
815.722	16823
815.821	18803
815.919	17788
816.018	18046
816.116	18431
816.215	17797
816.313	19046
816.412	21740
816.510	24188
816.609	24839
816.707	26595
816.805	26505
816.904	24833
817.002	26531
817.100	25937
817.198	26147
817.296	26273
817.395	24958
817.493	24541
817.591	21467
817.689	22984
817.787	22350
817.885	21697
817.983	18985
818.081	23140
818.179	21137
818.277	28172
818.375	28693
818.473	23986
818.571	19261
818.669	20611
818.767	24737
818.865	20809
818.963	15751
819.061	19212
819.158	19418
819.256	23246
819.354	23164
819.452	31082
819.549	31651
819.647	24322
819.745	18308
819.842	17674
819.940	18391
820.038	18266
820.135	16557
820.233	18340
820.330	17756
820.428	16097
820.525	18715
820.623	16219
820.720	15165
820.818	16478
820.915	17689
821.012	16720
821.110	15462
821.207	16909
821.304	15951
821.402	18009
821.499	19436
821.596	17252
821.693	16627
821.791	17372
821.888	15256
821.985	17769
822.082	14271
822.179	15174
822.276	18677
822.373	15043
822.470	12390
822.567	15918
822.664	13259
822.761	13431
822.858	15594
822.955	13709
823.052	12580
823.149	14649
823.246	16156
823.343	12858
823.440	12125
823.536	13745
823.633	15925
823.730	12259
823.827	13716
823.923	15056
824.020	11346
824.117	14432
824.213	16869
824.310	13454
824.407	11154
824.503	14070
824.600	14448
824.696	10519
824.793	15422
824.889	14859
824.986	13450
825.082	9542
825.179	10601
825.275	13271
825.371	17233
825.468	11572
825.564	7592
825.660	11785
825.757	17111
825.853	12786
825.949	10793
826.045	10331
826.142	10563
826.238	13638
826.334	12399
826.430	12682
826.526	8956
826.622	7241
826.718	12362
826.814	14001
826.910	13102
827.006	7497
827.102	7401
827.198	11270
827.294	13936
827.390	13473
827.486	9985
827.582	7983
827.678	7427
827.774	13002
827.869	9409
827.965	8660
828.061	7584
828.157	11996
828.252	13083
828.348	11633
828.444	9366
828.539	8735
828.635	11300
828.731	9942
828.826	9138
828.922	11145
829.017	13085
829.113	13803
829.208	10108
829.304	11072
829.399	14557
829.495	14338
829.590	9833
829.685	10713
829.781	11908
829.876	13181
829.971	7554
830.066	6833
830.162	8404
830.257	14783
830.352	11809
830.447	8215
830.543	8156
830.638	10774
830.733	13993
830.828	9430
830.923	10699
831.018	10685
831.113	12151
831.208	10193
831.303	6193
831.398	7119
831.493	8682
831.588	12908
831.683	10501
831.778	7398
831.873	7534
831.967	10174
832.062	11619
832.157	10775
832.252	9239
832.346	8561
832.441	10816
832.536	9621
832.631	10245
832.725	7129
832.820	6764
832.914	9208
833.009	7375
833.104	6690
833.198	5937
833.293	7282
833.387	10244
833.482	9266
833.576	9397
833.670	9809
833.765	10892
833.859	13962
833.954	11794
834.048	8079
834.142	7781
834.237	5869
834.331	6799
834.425	8478
834.519	7849
834.613	5878
834.708	5494
834.802	5899
834.896	7503
834.990	8545
835.084	6506
835.178	6070
835.272	6619
835.366	9579
835.460	10364
835.554	7895
835.648	5835
835.742	4839
835.836	5228
835.930	5757
836.024	7807
836.117	7335
836.211	7105
836.305	5199
836.399	4746
836.493	5051
836.586	7312
836.680	6385
836.774	5964
836.867	4758
836.961	4007
837.055	5517
837.148	4983
837.242	5667
837.335	6050
837.429	6029
837.522	4294
837.616	5012
837.709	5330
837.803	6043
837.896	7455
837.989	7862
838.083	4920
838.176	3557
838.269	3280
838.363	5534
838.456	4989
838.549	5998
838.642	5439
838.735	5829
838.829	5945
838.922	5518
839.015	5050
839.108	5343
839.201	4481
839.294	5650
839.387	5097
839.480	3634
839.573	4811
839.666	3736
839.759	4603
839.852	3921
839.945	5669
840.038	4562
840.131	3715
840.223	3976
840.316	4654
840.409	5586
840.502	6364
840.594	7064
840.687	3537
840.780	2706
840.873	1983
840.965	3567
841.058	4745
841.150	5866
841.243	3791
841.336	4332
841.428	3824
841.521	3875
841.613	4057
841.706	4971
841.798	3451
841.890	5656
841.983	4309
842.075	3979
842.167	3500
842.260	4389
842.352	5596
842.444	5835
842.537	4570
842.629	2856
842.721	2147
842.813	4124
842.905	4409
842.997	5094
843.090	4753
843.182	4571
843.274	2050
843.366	2921
843.458	4192
843.550	5894
843.642	4479
843.734	5149
843.826	2994
843.918	2535
844.009	4244
844.101	4190
844.193	4014
844.285	4792
844.377	6121
844.469	4711
844.560	4331
844.652	4526
844.744	4044
844.835	3762
844.927	4613
845.019	4617
845.110	4063
845.202	4270
845.293	4080
845.385	2264
845.476	2657
845.568	4772
845.659	3438
845.751	3905
845.842	3512
845.934	2816
846.025	3523
846.116	3196
846.208	3145
846.299	3066
846.390	2907
846.482	3383
846.573	3539
846.664	3935
846.755	3633
846.846	4229
846.937	2225
847.029	2655
847.120	3173
847.211	2929
847.302	4695
847.393	3787
847.484	4469
847.575	3084
847.666	2130
847.757	3064
847.847	3718
847.938	4532
848.029	4818
848.120	3974
848.211	3693
848.302	3285
848.392	2593
848.483	3948
848.574	3761
848.664	3784
848.755	4510
848.846	3784
848.936	3692
849.027	4734
849.118	6354
849.208	7412
849.299	9964
849.389	17940
849.480	36076
849.570	71279
849.661	124409
849.751	237855
849.841	160008
849.932	33680
850.022	11272
850.112	8090
850.203	7381
850.293	6159
850.383	4099
850.474	4297
850.564	4028
850.654	3343
850.744	3818
850.834	3481
850.924	4658
851.014	6056
851.104	5306
851.194	4408
851.284	4104
851.374	3684
851.464	3080
851.554	4149
851.644	3847
851.734	4205
851.824	3965
851.914	3881
852.004	4977
852.094	3706
852.183	3183
852.273	4051
852.363	3981
852.452	5352
852.542	5017
852.632	4356
852.721	4947
852.811	5327
852.901	6707
852.990	7238
853.080	7897
853.169	8096
853.259	9950
853.348	11776
853.438	14020
853.527	19071
853.617	27213
853.706	46349
853.795	78258
853.885	147712
853.974	258168
854.063	417409
854.152	644594
854.242	437642
854.331	156783
854.420	62925
854.509	37230
854.598	26655
854.687	19383
854.777	15358
854.866	11895
854.955	10679
855.044	7798
855.133	7895
855.222	6750
855.311	6691
855.400	6088
855.488	5351
855.577	4499
855.666	4589
855.755	4981
855.844	4539
855.933	4893
856.021	4977
856.110	4394
856.199	4196
856.288	2898
856.376	3763
856.465	3022
856.554	4534
856.642	4660
856.731	5432
856.819	3794
856.908	4106
856.996	4702
857.085	3636
857.173	2917
857.262	2525
857.350	3519
857.438	2951
857.527	3148
857.615	3113
857.703	4028
857.792	3720
857.880	2444
857.968	2338
858.056	3003
858.145	2825
858.233	2969
858.321	3333
858.409	3300
858.497	3282
858.585	2899
858.673	3270
858.761	1852
858.849	2424
858.937	2732
859.025	2608
859.113	3513
859.201	3717
859.289	4897
859.377	4466
859.465	3405
859.552	3210
859.640	2163
859.728	3600
859.816	2907
859.903	3232
859.991	2807
860.079	3543
860.166	2903
860.254	2612
860.342	3643
860.429	2687
860.517	3380
860.604	2696
860.692	2504
860.779	1559
860.867	2986
860.954	2908
861.042	3953
861.129	4675
861.216	2949
861.304	3433
861.391	4130
861.478	3113
861.565	3127
861.653	3647
861.740	2873
861.827	2311
861.914	3075
862.001	2416
862.089	2861
862.176	3545
862.263	2368
862.350	2674
862.437	3678
862.524	3385
862.611	3077
862.698	4533
862.785	3152
862.871	5488
862.958	5408
863.045	4743
863.132	4573
863.219	4084
863.306	2921
863.392	4908
863.479	3438
863.566	4341
863.652	4594
863.739	3994
863.826	5056
863.912	4855
863.999	4552
864.086	5508
864.172	5870
864.259	6495
864.345	6007
864.432	6441
864.518	6045
864.604	5591
864.691	5785
864.777	7635
864.863	9019
864.950	12387
865.036	15699
865.122	25658
865.209	32600
865.295	28567
865.381	28972
865.467	29742
865.553	31898
865.639	41268
865.726	57973
865.812	93431
865.898	157864
865.984	233364
866.070	355441
866.156	479345
866.242	250873
866.328	87785
866.414	47528
866.499	36038
866.585	30314
866.671	27610
866.757	24624
866.843	24552
866.928	22710
867.014	20637
867.100	21309
867.186	20732
867.271	19632
867.357	19010
867.442	19233
867.528	19768
867.614	18285
867.699	18413
867.785	19854
867.870	18497
867.956	20408
868.041	20149
868.127	17315
868.212	18866
868.297	17241
868.383	18725
868.468	17463
868.553	18376
868.639	17388
868.724	16764
868.809	18168
868.894	16503
868.979	15537
869.065	16772
869.150	13869
869.235	15507
869.320	16651
869.405	14122
869.490	16047
869.575	17808
869.660	13198
869.745	14424
869.830	18663
869.915	14863
870.000	14908
870.085	13834
870.169	16054
870.254	19784
870.339	14123
870.424	11045
870.509	14353
870.593	15817
870.678	16776
870.763	14877
870.847	11779
870.932	14800
871.016	16728
871.101	13316
871.186	12655
871.270	17603
871.355	13446
871.439	11493
871.523	15116
871.608	13785
871.692	10821
871.777	15115
871.861	15742
871.945	13399
872.030	13487
872.114	12966
872.198	12693
872.282	10911
872.367	12601
872.451	12506
872.535	11527
872.619	12846
872.703	12128
872.787	14064
872.871	13259
872.955	12679
873.039	9147
873.123	11259
873.207	14748
873.291	9352
873.375	9553
873.459	13559
873.543	12020
873.627	11203
873.711	9569
873.794	12264
873.878	11880
873.962	9534
874.045	10412
874.129	10504
874.137	10611
874.213	11677
874.245	11451
874.296	11094
874.352	9498
874.380	8720
874.460	10690
874.464	10773
874.547	9948
874.568	10234
874.631	11078
874.676	10839
874.714	10629
874.784	12747
874.798	13170
874.881	10802
874.892	10431
874.965	7957
874.999	8737
875.048	9759
875.107	11157
875.131	11729
875.215	8979
875.215	8977
875.298	7465
875.323	7952
875.381	9222
875.430	11352
875.465	12773
875.538	11922
875.548	11803
875.631	8843
875.646	8679
875.714	7918
875.753	7369
875.798	6863
875.861	9013
875.881	9619
875.964	9792
875.968	9666
876.047	7508
876.076	7708
876.130	8135
876.183	8384
876.213	8549
876.291	10692
876.296	10819
876.379	9264
876.398	8964
876.462	8035
876.506	7583
876.545	7196
876.613	7054
876.628	7056
876.711	8462
876.721	8585
876.794	9426
876.828	9737
876.877	9984
876.935	8059
876.960	7328
877.043	6396
877.043	6402
877.125	7926
877.150	8637
877.208	10049
877.258	9294
877.291	8773
877.365	6698
877.374	6449
877.456	7533
877.472	7253
877.539	6298
877.579	7230
877.622	8180
877.687	9260
877.704	9539
877.787	8156
877.794	8188
877.869	8469
877.901	8602
877.952	8641
878.008	7482
878.034	6984
878.115	5611
878.117	5584
878.199	6779
878.222	6985
878.282	7815
878.329	8236
878.364	8490
878.437	9027
878.447	9025
878.529	7040
878.544	6835
878.611	6080
878.651	6099
878.694	6457
878.758	7876
878.776	8180
878.858	8453
878.865	8400
878.941	7410
878.972	6733
879.023	5565
879.078	5753
879.105	6135
879.185	7801
879.187	7829
879.269	7818
879.292	8230
879.351	8923
879.399	7646
879.433	6638
879.506	5936
879.516	5939
879.598	6753
879.613	6859
879.680	6895
879.720	7120
879.762	7470
879.827	7522
879.844	7489
879.926	7339
879.933	7478
880.007	8890
880.040	9263
880.089	9779
880.147	11154
880.171	12029
880.253	19295
880.254	19349
880.335	25802
880.360	27408
880.417	33991
880.467	43950
880.499	52555
880.574	79661
880.580	80250
880.662	46684
880.680	39737
880.744	17699
880.787	11084
880.825	8352
880.893	7671
880.907	7690
880.989	7183
881.000	7219
881.070	7889
881.106	8176
881.152	7932
881.213	6502
881.233	6002
881.315	5063
881.319	5104
881.396	7225
881.426	6987
881.478	5863
881.532	6840
881.559	7587
881.639	7849
881.641	7813
881.722	5850
881.745	5520
881.803	6009
881.852	6624
881.885	6777
881.958	6119
881.966	6026
882.047	6145
882.064	6074
882.129	5677
882.171	5119
882.210	4601
882.277	4195
882.291	4249
882.372	5298
882.383	5476
882.454	7029
882.489	7320
882.535	7016
882.596	6713
882.616	6849
882.697	7519
882.702	7507
882.778	5710
882.808	5157
882.859	4525
882.914	4213
882.940	4377
883.020	5353
883.021	5360
883.102	5579
883.127	6068
883.183	7526
883.233	7805
883.264	7171
883.339	5201
883.345	5029
883.426	3619
883.445	3399
883.507	3892
883.551	4297
883.587	4923
883.657	5651
883.668	5705
883.749	7150
883.763	7070
883.830	5721
883.869	5101
883.910	4230
883.975	3841
883.991	4092
884.072	5058
884.081	5144
884.152	6028
884.187	6536
884.233	7589
884.292	8567
884.314	8022
884.394	4912
884.398	4800
884.475	3312
884.504	3031
884.555	3623
884.610	3664
884.636	3665
884.716	4595
884.716	4608
884.797	6961
884.821	7492
884.877	7523
884.927	7209
884.958	6601
885.033	5198
885.038	5074
885.118	3171
885.139	2806
885.199	3352
885.244	3802
885.279	4424
885.350	5627
885.359	5815
885.439	7696
885.456	7876
885.520	7104
885.561	6530
885.600	5309
885.667	3904
885.680	4112
885.760	5347
885.773	5487
885.840	5099
885.878	4738
885.920	4066
885.984	3901
886.000	4329
886.080	5547
886.089	5738
886.160	6111
886.195	6064
886.240	5869
886.300	5631
886.320	5542
886.400	5438
886.406	5393
886.480	4973
886.511	5017
886.560	4660
886.616	4166
886.640	4365
886.720	4910
886.722	4924
886.800	4702
886.827	4568
886.879	4717
886.932	5054
886.959	5295
887.038	5651
887.039	5660
887.119	6055
887.143	6297
887.198	5749
887.248	5065
887.278	5002
887.354	4889
887.358	4894
887.437	4899
887.459	4923
887.517	5324
887.564	5591
887.596	5502
887.669	5117
887.676	4986
887.755	3539
887.774	3192
887.835	3222
887.880	3282
887.914	3864
887.985	5001
887.994	5085
888.073	5851
888.090	6006
888.153	7615
888.195	8505
888.232	7466
888.300	5693
888.311	5594
888.391	4953
888.405	4823
888.470	3976
888.510	3450
888.549	3591
888.615	3928
888.628	4136
888.708	5326
888.720	5488
888.787	6483
888.825	7067
888.866	5526
888.930	3155
888.945	3228
889.024	3691
889.035	3747
889.103	5573
889.140	6529
889.182	5952
889.245	5097
889.261	4929
889.340	4138
889.349	4045
889.419	5091
889.454	5618
889.498	4868
889.559	3837
889.577	4050
889.656	4989
889.664	5083
889.735	5118
889.768	5125
889.814	5111
889.873	5074
889.978	4773
890.083	4344
890.187	4892
890.292	5992
890.397	3944
890.501	5585
890.606	3513
890.710	4575
890.815	6225
890.919	5687
891.024	5584
891.128	4550
891.233	3167
891.337	5402
891.442	5813
891.546	5331
891.650	3940
891.755	3474
891.859	4814
891.963	5756
892.068	5647
892.172	4775
892.276	3043
892.380	3716
892.484	4595
892.589	7068
892.693	5219
892.797	3934
892.901	3142
893.005	3736
893.109	5585
893.213	6749
893.317	4970
893.421	3050
893.525	2873
893.629	3589
893.733	5218
893.837	5391
893.941	4485
894.045	3292
894.148	2532
894.252	3029
894.356	3896
894.460	7400
894.564	3578
894.667	4590
894.771	3141
894.875	2960
894.978	2546
895.082	4770
895.186	5173
895.289	4556
895.393	3376
895.496	4694
895.600	4555
895.703	3064
895.807	3061
895.910	3956
896.014	3915
896.117	3881
896.221	4083
896.324	5523
896.427	3202
896.531	3199
896.634	3627
896.737	3797
896.840	3524
896.944	5907
897.047	5818
897.150	3979
897.253	2839
897.356	2578
897.460	2338
897.563	2803
897.666	3887
897.769	5414
897.872	2868
897.975	2689
898.078	3410
898.181	2772
898.284	3094
898.387	5091
898.490	5334
898.593	3535
898.695	2490
898.798	3625
898.901	3403
899.004	3684
899.107	3102
899.209	3381
899.312	4518
899.415	3772
899.518	2831
899.620	2633
899.723	2186
899.826	3339
899.928	2000
900.031	2881
900.133	4972
900.236	3361
900.338	2147
900.441	2323
900.543	2498
900.646	3162
900.748	3459
900.851	4126
900.953	4014
901.055	1984
901.158	2325
901.260	2483
901.362	1806
901.465	1853
901.567	3531
901.669	4947
901.771	3277
901.873	3346
901.976	2301
902.078	3635
902.180	2420
902.282	3054
902.384	3138
902.486	4372
902.588	4959
902.690	2564
902.792	3004
902.894	3078
902.996	3673
903.098	4145
903.200	2551
903.302	1934
903.404	2332
903.505	3460
903.607	3141
903.709	4095
903.811	5255
903.913	3554
904.014	1997
904.116	2626
904.218	2205
904.319	2629
904.421	4711
904.523	5242
904.624	3050
904.726	2657
904.827	1992
904.929	3023
905.030	2853
905.132	3546
905.233	3380
905.335	2264
905.436	2070
905.537	2700
905.639	1660
905.740	3018
905.841	4656
905.943	4394
906.044	2538
906.145	2770
906.247	2015
906.348	2604
906.449	2876
906.550	3265
906.651	2726
906.752	2834
906.854	1526
906.955	1109
907.056	2417
907.157	3710
907.258	4877
907.359	2501
907.460	1308
907.561	1674
907.662	2025
907.762	2575
907.863	2963
907.964	3569
908.065	2797
908.166	2827
908.267	2347
908.367	1765
908.468	1956
908.569	2307
908.670	3509
908.770	3561
908.871	2881
908.971	4185
909.072	2574
909.173	2016
909.273	2374
909.374	3101
909.474	3127
909.575	2535
909.675	2159
909.776	3292
909.876	2811
909.977	2890
910.077	3602
910.177	4209
910.278	3427
910.378	2133
910.478	2813
910.579	3139
910.679	3474
910.779	3547
910.879	3253
910.980	3824
911.080	2901
911.180	2241
911.280	2110
911.380	1208
911.480	1968
911.580	2060
911.680	2824
911.780	3396
911.880	3251
911.980	2108
912.080	1783
912.180	3354
912.280	2315
912.380	2785
912.480	1552
912.580	2084
912.679	1361
912.779	3161
912.879	3882
912.979	2221
913.078	2113
913.178	2219
913.278	1155
913.377	1777
913.477	997
913.577	1852
913.676	3546
913.776	4353
913.875	2617
913.975	2281
914.074	2510
914.174	3049
914.273	2582
914.373	2098
914.472	2090
914.572	1153
914.671	1915
914.770	1932
914.870	2481
914.969	2682
915.068	2703
915.167	4549
915.267	1923
915.366	3292
915.465	2291
915.564	2757
915.663	2821
915.763	3060
915.862	3352
915.961	4225
916.060	2832
916.159	2612
916.258	2482
916.357	2775
916.456	2906
916.555	2661
916.654	3188
916.752	3828
916.851	3522
916.950	2097
917.049	1513
917.148	2520
917.247	2754
917.345	2391
917.444	1476
917.543	1882
917.642	1867
917.740	3031
917.839	4372
917.937	4554
918.036	3516
918.135	3109
918.233	1723
918.332	2579
918.430	2584
918.529	1888
918.627	2725
918.726	4292
918.824	4392
918.923	2855
919.021	2122
919.119	2322
919.218	1042
919.316	2823
919.414	3662
919.512	3761
919.611	3901
919.709	3615
919.807	4017
919.905	5344
920.003	5055
920.102	4108
920.200	3820
920.298	5032
920.396	4816
920.494	4524
920.592	3994
920.690	3406
920.788	4009
920.886	4165
920.984	4705
921.082	5161
921.180	5293
921.277	4621
921.375	5886
921.473	8660
921.571	8665
921.669	8472
921.766	6883
921.864	7686
921.962	8155
922.060	7152
922.157	7437
922.255	8134
922.352	7877
922.450	8642
922.548	9115
922.645	10209
922.743	12277
922.840	18011
922.938	24924
923.035	21832
923.133	20154
923.230	22543
923.327	28081
923.425	27335
923.522	25444
923.619	25076
923.717	22559
923.814	21041
923.911	20500
924.008	22900
924.106	20102
924.203	19508
924.300	20300
924.397	20646
924.494	19650
924.591	19964
924.688	18388
924.786	20813
924.883	19388
924.979	20449
925.077	20550
925.173	18412
925.270	19936
925.367	19970
925.464	21506
925.561	22506
925.658	23370
925.755	20786
925.852	21327
925.948	21952
926.045	20217
926.142	20588
926.239	21658
926.335	17977
926.432	17843
926.529	21703
926.625	22095
926.722	19725
926.818	16843
926.915	20310
927.011	18721
927.108	17760
927.204	18400
927.301	17357
927.397	16912
927.494	21587
927.590	16609
927.687	13437
927.783	18821
927.879	21911
927.976	17610
928.072	15671
928.168	17270
928.264	19222
928.361	16299
928.457	19453
928.553	17494
928.649	15092
928.745	18461
928.841	15829
928.937	15769
929.033	17536
929.129	16231
929.225	18482
929.321	17251
929.417	13017
929.513	17541
929.609	16592
929.705	13643
929.801	17594
929.897	16057
929.993	14433
930.089	16700
930.184	14877
930.280	14524
930.376	18397
930.471	16281
930.567	12934
930.663	13487
930.758	13924
930.854	13963
930.950	14508
931.045	13328
931.141	12306
931.236	16491
931.332	17134
931.427	10652
931.523	16141
931.618	16726
931.714	12184
931.809	10507
931.905	15080
932.000	12430
932.095	8801
932.191	14165
932.286	18481
932.381	16120
932.476	10916
932.572	12729
932.667	13067
932.762	11061
932.857	13792
932.952	15796
933.047	15346
933.142	11293
933.237	12564
933.332	15208
933.427	15231
933.522	13733
933.617	11211
933.712	11879
933.807	13923
933.902	16331
933.997	16621
934.092	12985
934.187	10915
934.282	14438
934.376	13560
934.471	14716
934.566	12718
934.661	10871
934.755	12738
934.850	14354
934.945	13094
935.039	10460
935.134	9260
935.228	10618
935.323	16619
935.417	13163
935.512	8163
935.606	8032
935.701	11838
935.795	13213
935.890	13051
935.984	10701
936.079	9573
936.173	9943
936.267	10967
936.362	10000
936.456	11064
936.550	15094
936.644	12861
936.738	8682
936.833	8949
936.927	6731
937.021	8970
937.115	11749
937.209	12151
937.303	11753
937.397	8626
937.491	9458
937.585	11788
937.679	12108
937.773	8850
937.867	8523
937.961	7508
938.055	11112
938.149	13193
938.243	8097
938.337	6761
938.430	7784
938.524	12782
938.618	13332
938.712	9824
938.805	8449
938.899	10342
938.993	14099
939.086	11693
939.180	7281
939.274	11041
939.367	11306
939.461	13356
939.554	9556
939.648	8400
939.741	7323
939.835	9659
939.928	13260
940.022	12021
940.115	9429
940.208	10155
940.302	12232
940.395	14070
940.488	10590
940.582	8580
940.675	7616
940.768	7383
940.861	10106
940.954	13459
941.048	8486
941.141	6129
941.234	7390
941.327	8945
941.420	9062
941.513	11056
941.606	9018
941.699	8615
941.792	10756
941.885	10704
941.978	8441
942.071	9953
942.164	6837
942.257	6010
942.349	7582
942.442	9248
942.535	7538
942.628	6885
942.721	7825
942.813	8664
942.906	8565
942.999	8434
943.091	6078
943.184	7386
943.277	7582
943.369	7388
943.462	4452
943.554	7257
943.647	8564
943.739	9686
943.832	10641
943.924	6687
944.017	4905
944.109	5768
944.201	6502
944.294	7332
944.386	7106
944.478	6854
944.571	5945
944.663	6332
944.755	6012
944.847	7677
944.940	8069
945.032	6172
945.124	4975
945.216	6300
945.308	7359
945.400	7297
945.492	5607
945.584	8412
945.676	9659
945.768	8623
945.860	7715
945.952	9102
946.044	9096
946.136	6356
946.228	6598
946.320	6246
946.412	7339
946.503	8659
946.595	9846
946.687	6141
946.779	5559
946.870	4307
946.962	6304
947.054	4955
947.145	6693
947.237	7160
947.329	5108
947.420	6911
947.512	6862
947.603	4640
947.695	4741
947.786	5039
947.878	5518
947.969	6604
948.061	7012
948.152	8194
948.243	4507
948.335	3657
948.426	4816
948.517	5608
948.609	7019
948.700	6837
948.791	6451
948.882	4984
948.973	3484
949.065	5829
949.156	6585
949.247	5425
949.338	5042
949.429	4937
949.520	3907
949.611	5137
949.702	7133
949.793	5262
949.884	4419
949.975	6252
950.066	3910
950.157	4331
950.247	3924
950.338	3900
950.429	3741
950.520	5718
950.611	5057
950.701	4754
950.792	5926
950.883	7526
950.973	4804
951.064	6625
951.155	5336
951.245	6620
951.336	5996
951.427	6635
951.517	6715
951.608	6598
951.698	5843
951.788	4696
951.879	3565
951.969	3472
952.060	4053
952.150	5309
952.240	6657
952.331	6309
952.421	5611
952.511	3825
952.602	3158
952.692	3286
952.782	3923
952.872	3694
952.962	4483
953.052	4644
953.143	3697
953.233	4337
953.323	3734
953.413	5272
953.503	5404
953.593	5657
953.683	4949
953.773	3708
953.863	3622
953.953	4116
954.042	4756
954.132	5239
954.222	5948
954.312	4471
954.402	3905
954.492	4191
954.581	4382
954.671	4656
954.761	4065
954.850	5135
954.940	3154
955.030	1782
955.119	3392
955.209	3307
955.298	4769
955.388	5138
955.477	5824
955.567	3434
955.656	2986
955.746	4299
955.835	3662
955.925	3308
956.014	4219
956.103	5620
956.193	6311
956.282	6320
956.371	3817
956.461	3616
956.550	3834
956.639	3566
956.728	3229
956.817	4562
956.906	3169
956.995	5488
957.085	3736
957.174	4172
957.263	3466
957.352	3889
957.441	4034
957.530	4612
957.619	4187
957.708	3802
957.796	4025
957.885	4045
957.974	3481
958.063	4077
958.152	2478
958.241	2586
958.329	2176
958.418	3522
958.507	3551
958.596	4910
958.684	3734
958.773	3287
958.861	3812
958.950	3054
959.039	2731
959.127	3152
959.216	4327
959.304	3554
959.393	3157
959.481	3711
959.570	2871
959.658	1973
959.746	1918
959.835	3261
959.923	3618
960.011	3539
960.100	2866
960.188	4288
960.276	3104
960.365	2685
960.453	2336
960.541	1659
960.629	2733
960.717	2489
960.805	1003
960.893	2951
960.981	3305
961.069	4135
961.158	5700
961.245	6416
961.333	5388
961.421	4067
961.509	3362
961.597	3747
961.685	2990
961.773	3363
961.861	3698
961.949	4828
962.036	3900
962.124	2427
962.212	1486
962.299	2616
962.387	3267
962.475	2460
962.562	1729
962.650	3298
962.738	3079
962.825	1875
962.913	1807
963.000	2361
963.088	3110
963.175	4108
963.263	2750
963.350	2160
963.438	3127
963.525	2256
963.612	2838
963.700	2574
963.787	2728
963.874	3855
963.962	2110
964.049	1984
964.136	995
964.223	1395
964.310	2075
964.398	2421
964.485	2440
964.572	2858
964.659	3380
964.746	2331
964.833	1920
964.920	1193
965.007	2458
965.094	2352
965.181	2314
965.268	3261
965.355	3250
965.441	2861
965.528	2769
965.615	3358
965.702	2505
965.789	2318
965.875	3031
965.962	4283
966.049	2905
966.136	4232
966.222	4074
966.309	4789
966.395	5062
966.482	4482
966.569	2926
966.655	3684
966.742	3149
966.828	2078
966.915	2574
967.001	2085
967.087	1986
967.174	3148
967.260	2057
967.347	2502
967.433	2683
967.519	4063
967.605	2971
967.692	3138
967.778	3238
967.864	2249
967.950	2728
968.036	2032
968.123	2820
968.209	2537
968.295	2051
968.381	3107
968.467	1422
968.553	1641
968.639	2798
968.725	3633
968.811	5813
968.897	5691
968.983	3373
969.069	2183
969.154	1781
969.240	1673
969.326	952
969.412	2505
969.497	2250
969.583	1988
969.669	2232
969.755	3607
969.840	3505
969.926	5537
970.012	7996
970.097	9720
970.183	10468
970.268	6382
970.354	4242
970.439	1869
970.525	2772
970.610	2138
970.696	3053
970.781	2938
970.866	1421
970.952	2741
971.037	1643
971.122	3279
971.208	2744
971.293	2577
971.378	1636
971.463	2621
971.549	2114
971.634	2434
971.719	2212
971.804	3018
971.889	2416
971.974	1774
972.059	2238
972.144	2745
972.229	1833
972.314	2092
972.399	2525
972.484	2403
972.569	1581
972.654	849
972.739	1834
972.824	2393
972.908	1802
972.993	1941
973.078	2540
973.163	1297
973.247	2512
973.332	1434
973.417	2890
973.501	1459
973.586	2462
973.671	2817
973.755	2109
973.840	1843
973.924	2581
974.009	4990
974.093	4444
974.178	5873
974.262	3157
974.346	3219
974.431	3014
974.515	2989
974.600	2040
974.684	2703
974.768	2852
974.852	2634
974.937	1362
975.021	2826
975.105	2144
975.189	2997
975.273	2404
975.358	2002
975.442	1335
975.526	2318
975.610	1281
975.694	1986
975.778	2425
975.862	2290
975.946	1064
976.030	3185
976.114	1422
976.198	2004
976.281	2326
976.365	2829
976.449	2390
976.533	1636
976.617	1900
976.700	1483
976.784	1844
976.868	1845
976.951	1285
977.035	2040
977.119	1877
977.202	1833
977.286	2107
977.369	3269
977.453	5600
977.536	5812
977.620	4494
977.703	4934
977.787	2249
977.870	3447
977.953	3265
978.037	2807
978.120	2784
978.203	2140
978.287	2387
978.370	3583
978.453	2484
978.536	2084
978.620	2749
978.703	2332
978.786	1951
978.869	2533
978.952	1689
979.035	3553
979.118	3512
979.201	2041
979.284	1878
979.367	2430
979.450	2932
979.533	2395
979.616	988
979.699	2122
979.782	2788
979.865	2381
979.948	2698
980.030	1696
980.113	2739
980.196	2150
980.279	1757
980.361	1488
980.444	1549
980.526	2105
980.609	4060
980.692	7391
980.774	7274
980.857	3871
980.939	3712
981.022	3031
981.104	3124
981.187	2415
981.269	3544
981.352	2356
981.434	3647
981.516	3247
981.599	3440
981.681	3320
981.763	3207
981.846	3435
981.928	3361
982.010	3701
982.092	2214
982.174	3374
982.256	3116
982.339	3509
982.421	3079
982.503	2593
982.585	1900
982.667	2892
982.749	3270
982.831	2628
982.913	2820
982.995	3818
983.077	2750
983.158	4511
983.240	3681
983.322	4952
983.404	6395
983.486	7010
983.568	6129
983.649	5566
983.731	4860
983.813	4145
983.894	3934
983.976	4248
984.058	3642
984.139	4586
984.221	2840
984.302	4372
984.384	3676
984.465	3878
984.547	4004
984.628	3673
984.710	4429
984.791	4341
984.872	4025
984.954	4346
985.035	4086
985.116	4843
985.198	3519
985.279	3846
985.360	4282
985.441	4998
985.522	4189
985.604	4811
985.685	2931
985.766	3849
985.847	4462
985.928	4305
986.009	3833
986.090	3751
986.171	4689
986.252	4773
986.333	3461
986.414	3928
986.495	4928
986.576	4506
986.656	4745
986.737	5684
986.818	4618
986.899	5093
986.980	4474
987.060	5243
987.141	5020
987.222	5576
987.302	5824
987.383	7060
987.464	6876
987.544	6189
987.625	5800
987.705	6635
987.786	6195
987.866	7080
987.947	5927
988.027	6639
988.108	5575
988.188	5948
988.268	4582
988.349	5580
988.429	4678
988.509	4983
988.589	5097
988.670	4397
988.750	6161
988.830	5908
988.910	5250
988.990	6135
989.070	3898
989.151	5435
989.231	4047
989.311	5282
989.391	3651
989.471	5016
989.551	4595
989.631	4225
989.711	5145
989.791	4883
989.870	4628
989.950	4662
990.030	4424
990.110	4766
990.190	3851
990.269	3622
990.349	3580
990.429	5356
990.509	3673
990.588	3264
990.668	3908
990.747	4563
990.827	4007
990.907	4530
990.986	4517
991.066	6195
991.145	3247
991.225	3608
991.304	3652
991.383	3597
991.463	3522
991.542	4235
991.622	3586
991.701	3010
991.780	3234
991.859	2939
991.939	3044
992.018	3651
992.097	3565
992.176	3746
992.256	3456
992.335	2411
992.414	3879
992.493	3831
992.572	3052
992.651	3643
992.730	3531
992.809	3627
992.888	1912
992.967	3224
993.046	2998
993.125	3067
993.203	2357
993.282	2854
993.361	2936
993.440	2637
993.519	2396
993.597	2876
993.676	2427
993.755	3682
993.834	2605
993.912	1591
993.991	2826
994.069	2275
994.148	2190
994.226	2334
994.305	2624
994.384	1939
994.462	3505
994.540	2472
994.619	2030
994.697	2888
994.776	2658
994.854	3562
994.932	2086
995.011	2609
995.089	1512
995.167	1575
995.245	1139
995.324	2235
995.402	2725
995.480	2001
995.558	2356
995.636	1023
995.714	2203
995.792	2565
995.870	2752
995.948	1741
996.026	2146
996.104	1464
996.182	1818
996.260	1945
996.338	926
996.416	876
996.494	1395
996.572	2635
996.649	1585
996.727	1034
996.805	1051
996.883	2786
996.960	1963
997.038	2168
997.116	2081
997.193	1081
997.271	1752
997.348	369
997.426	1099
997.504	1178
997.581	2840
997.658	2281
997.736	108
997.813	769
997.891	812
997.968	1808
998.046	831
998.123	1317
998.200	1481
998.277	1492
998.355	2176
998.432	1026
998.509	591
998.586	1188
998.663	1526
998.741	1578
998.818	834
998.895	1111
998.972	695
999.049	2279
999.126	1249
999.203	1609
999.280	786
999.357	687
999.434	1611
999.511	916
999.587	726
999.664	695
999.741	595
999.818	1258
999.895	1022
999.971	1498
1000.048	-26
1000.125	860
1000.202	-44
1000.278	1675
1000.355	913
1000.431	1590
1000.508	-133
1000.584	236
1000.661	1032
1000.738	620
1000.814	859
1000.890	829
1000.967	1270
1001.043	1305
1001.120	127
1001.196	1527
1001.272	216
1001.349	853
1001.425	426
1001.501	1079
1001.577	814
1001.654	1010
1001.730	743
1001.806	665
1001.882	-47
1001.958	1884
1002.034	802
1002.110	807
1002.186	-567
1002.262	-102
1002.338	-201
1002.414	1236
1002.490	978
1002.566	860
1002.642	-79
1002.718	455
1002.794	735
1002.870	436
1002.945	60
1003.021	719
1003.097	-240
1003.173	1144
1003.248	592
1003.324	1011
1003.400	1097
1003.475	616
1003.551	726
1003.626	-132
1003.702	882
1003.777	123
1003.853	458
1003.928	-381
1004.004	-69
1004.079	694
1004.155	347
1004.230	642
1004.305	764
1004.381	-698
1004.456	178
1004.531	68
1004.607	64
1004.682	467
1004.757	559
1004.832	-59
1004.907	960
1004.982	900
1005.057	112
1005.133	79
1005.208	-468
1005.283	-124
1005.358	383
1005.433	-140
1005.508	-311
1005.583	194
1005.657	499
1005.732	707
1005.807	45
1005.882	-220
1005.957	-243
1006.032	526
1006.106	-85
1006.181	-65
1006.256	-423
1006.331	360
1006.405	144
1006.480	-314
1006.554	-294
1006.629	-446
1006.704	-28
1006.778	462
1006.853	-173
1006.927	-245
1007.002	-325
1007.076	121
1007.150	-424
1007.225	114
1007.299	-412
1007.373	-689
1007.448	-398
1007.522	-306
1007.596	-1211
1007.671	-446
1007.745	44
1007.819	-303
1007.893	274
1007.967	-464
1008.041	-152
1008.115	762
1008.190	-477
1008.264	371
1008.338	-1087
1008.412	-269
1008.486	-164
1008.560	-340
1008.633	-1098
1008.707	121
1008.781	650
1008.855	-682
1008.929	-106
1009.003	-200
1009.076	-803
1009.150	-575
1009.224	-151
1009.298	605
1009.371	-1079
1009.445	-359
1009.519	-83
1009.592	-447
1009.666	-546
1009.739	-221
1009.813	-424
1009.886	784
1009.960	-768
1010.033	-373
1010.107	386
1010.180	-204
1010.253	-438
1010.327	-388
1010.400	-457
1010.473	-11
1010.547	274
1010.620	205
1010.693	-134
1010.766	-606
1010.840	-210
1010.913	779
1010.986	-493
1011.059	-555
1011.132	-545
1011.205	407
1011.278	-862
1011.351	179
1011.424	-1200
1011.497	391
1011.570	-518
1011.643	124
1011.716	-467
1011.789	149
1011.862	-84
1011.934	23
1012.007	-660
1012.080	-994
1012.153	-567
1012.225	-39
1012.298	-1470
1012.371	-413
1012.443	30
1012.516	-908
1012.588	-92
1012.661	-280
1012.733	-647
1012.806	-1073
1012.879	-718
1012.951	-71
1013.023	-1010
1013.096	-644
1013.168	-1042
1013.241	627
1013.313	-963
1013.385	-1058
1013.458	9
1013.530	-865
1013.602	-1606
1013.674	-421
1013.746	-885
1013.819	10
1013.891	-379
1013.963	-895
1014.035	-416
1014.107	-203
1014.179	-712
1014.251	-385
1014.323	-520
1014.395	-562
1014.467	-1337
1014.539	-375
1014.611	-208
1014.683	-79
1014.754	-860
1014.826	-1144
1014.898	-632
1014.970	-1301
1015.042	-593
1015.113	243
1015.185	-823
1015.257	-837
1015.328	-239
1015.400	-193
1015.471	-517
1015.543	-1247
1015.615	-273
1015.686	-379
1015.757	-406
1015.829	-1052
1015.901	-1894
1015.972	-1015
1016.043	-1257
1016.115	-1524
1016.186	-877
1016.257	-1589
1016.328	-1396
1016.400	-843
1016.471	-1520
1016.542	-916
1016.613	-120
1016.685	-842
1016.756	-839
1016.827	-1121
1016.898	-927
1016.969	203
1017.040	-1157
1017.111	-675
1017.182	-1529
1017.253	-395
1017.324	-1458
1017.395	-304
1017.466	-1114
1017.537	-1200
1017.608	-448
1017.678	-1023
1017.749	-943
1017.820	-765
1017.891	-1321
1017.961	-769
1018.032	-850
1018.103	-531
1018.173	-766
1018.244	-1635
1018.315	-1488
1018.385	-140
1018.456	-1462
1018.526	-1683
1018.597	-57
1018.667	-177
1018.738	-1271
1018.808	-833
1018.878	-1462
1018.949	-1316
1019.019	-1330
1019.089	-517
1019.160	-725
1019.230	-748
1019.300	-1380
1019.371	-1334
1019.441	-693
1019.511	-843
1019.581	-1026
1019.651	-717
1019.721	-602
1019.791	-1298
1019.861	-1046
1019.931	-1389
1020.001	-1108
1020.071	-68
1020.141	-742
1020.211	-1844
1020.281	-857
1020.351	-1467
1020.421	-982
1020.491	-1106
1020.560	-1780
1020.630	-564
1020.700	-860
1020.770	-677
1020.839	-866
1020.909	-1320
1020.979	-1476
1021.048	-1250
1021.118	-2343
1021.187	-1351
1021.257	-650
1021.326	-939
1021.396	-1754
1021.465	-582
1021.535	-1199
1021.604	-2359
1021.674	-1634
1021.743	-1273
1021.812	-2260
1021.882	-934
1021.951	-1043
1022.020	-1030
1022.089	-812
1022.159	-1027
1022.228	-1227
1022.297	-1124
1022.366	-1067
1022.435	-1165
1022.504	-1438
1022.573	-1671
1022.642	-1476
1022.711	-1790
1022.781	-1439
1022.849	-1235
1022.918	-2186
1022.987	-1249
1023.056	-1267
1023.125	-1606
1023.194	-2011
1023.263	-1141
1023.331	-1138
1023.400	-1587
1023.469	-1719
1023.538	-535
1023.606	-2215
1023.675	-1463
1023.744	-1612
1023.812	-1759
1023.881	-1419
1023.949	-1019
1024.018	-1837
1024.086	-1823
1024.155	-1782
1024.223	-1569
1024.292	-1611
1024.360	-1186
1024.429	-2271
1024.497	-1575
1024.565	-1175
1024.634	-1355
1024.702	-1613
1024.770	-1887
1024.838	-2111
1024.907	-1267
1024.975	-1847
1025.043	-1182
1025.111	-1483
1025.179	-1551
1025.247	-1490
1025.315	-1427
1025.383	-1775
1025.451	-1740
1025.519	-1473
1025.587	-1323
1025.655	-1700
1025.723	-917
1025.791	-1025
1025.859	-1521
1025.927	-837
1025.995	-2271
1026.062	-1992
1026.130	-523
1026.198	-1995
1026.266	-1759
1026.333	-1569
1026.401	-1291
1026.469	-1683
1026.536	-1434
1026.604	-803
1026.671	-989
1026.739	-1685
1026.806	-39
1026.874	-1259
1026.941	-1539
1027.009	-1679
1027.076	-1839
1027.144	-1697
1027.211	-1241
1027.278	-2005
1027.345	-1730
1027.413	-1173
1027.480	-2145
1027.547	-1832
1027.614	-1701
1027.682	-1679
1027.749	-2110
1027.816	-1445
1027.883	-1547
1027.950	-1707
1028.017	-2366
1028.084	-1121
1028.151	-1237
1028.218	-2028
1028.285	-1687
1028.352	-2021
1028.419	-1623
1028.486	-2411
1028.553	-1279
1028.619	-2347
1028.686	-1623
1028.753	-2275
1028.820	-1202
1028.886	-1463
1028.953	-877
1029.020	-1197
1029.086	-1473
1029.153	-1829
1029.220	-1253
1029.286	-1267
1029.353	-1085
1029.419	-1890
1029.486	-684
1029.552	-2005
1029.619	-1235
1029.685	-2019
1029.751	-2029
1029.818	-1537
1029.884	-782
1029.951	-1623
1030.017	-1129
1030.083	-1585
1030.149	-1317
1030.216	-1849
1030.282	-1752
1030.348	-1729
1030.414	-1659
1030.480	-1164
1030.546	-1369
1030.612	-1293
1030.678	-1451
1030.744	-1445
1030.810	-1859
1030.876	-1458
1030.942	-876
1031.008	-1553
1031.074	-1790
1031.140	-2732
1031.206	-1237
1031.272	-1997
1031.337	-2146
1031.403	-1529
1031.469	-1597
1031.534	-1928
1031.600	-1579
1031.666	-1607
1031.731	-1088
1031.797	-2399
1031.863	-1009
1031.928	-1879
1031.994	-1135
1032.059	-1441
1032.125	-2460
1032.190	-1485
1032.256	-1697
1032.321	-2178
1032.386	-1548
1032.452	-1595
1032.517	-1589
1032.582	-2051
1032.647	-1851
1032.713	-2114
1032.778	-1707
1032.843	-1627
1032.908	-779
1032.974	-1293
1033.039	-1251
1033.104	-1091
1033.169	-971
1033.234	-2261
1033.299	-1065
1033.364	-840
1033.429	-513
1033.494	-1509
1033.559	-1064
1033.624	-1431
1033.688	-509
1033.753	-1437
1033.818	-520
1033.883	-481
1033.948	92
1034.013	-178
1034.077	863
1034.142	2408
1034.207	2709
1034.271	4879
1034.336	8278
1034.400	8025
1034.465	4739
1034.530	2037
1034.594	571
1034.658	-1351
1034.723	-635
1034.787	-858
1034.852	-1819
1034.916	-2069
1034.981	-1477
1035.045	-1979
1035.109	-2407
1035.173	-1756
1035.238	-1390
1035.302	-1665
1035.366	-1068
1035.430	-1317
1035.495	-1935
1035.559	-1151
1035.623	-928
1035.687	-2033
1035.751	-1891
1035.815	-1525
1035.879	-1993
1035.943	-1540
1036.007	-1197
1036.071	-1429
1036.135	-1379
1036.198	-908
1036.262	-2071
1036.326	-869
1036.390	-746
1036.454	-1321
1036.517	-553
1036.581	-792
1036.645	-418
1036.709	815
1036.772	357
1036.836	-1528
1036.900	-833
1036.963	-1484
1037.026	-1946
1037.090	-1137
1037.154	-1717
1037.217	-1426
1037.280	-1967
1037.344	-2096
1037.407	-1865
1037.471	-997
1037.534	-1994
1037.597	-2104
1037.661	-869
1037.724	-1455
1037.787	-649
1037.850	-1743
1037.913	-1131
1037.977	-769
1038.040	-1246
1038.103	-2467
1038.166	-1716
1038.229	-1537
1038.292	-1663
1038.355	-1592
1038.418	-1217
1038.481	-1899
1038.544	-1882
1038.607	-775
1038.670	-1675
1038.732	-1122
1038.795	-1244
1038.858	-1963
1038.921	-967
1038.984	-1476
1039.046	-1555
1039.109	-2320
1039.172	-1360
1039.234	-1487
1039.297	-1525
1039.360	-1645
1039.422	-1332
1039.485	-2227
1039.547	-972
1039.610	-1244
1039.672	-1845
1039.734	-2155
1039.797	-1441
1039.859	-1223
1039.922	-1975
1039.984	-1841
1040.046	-1381
1040.109	-1361
1040.171	-2228
1040.233	-1743
1040.295	-672
1040.358	-1937
1040.420	-1929
1040.482	-1362
1040.544	-1669
1040.606	-1403
1040.668	-1870
1040.730	-1652
1040.792	-1708
1040.854	-1761
1040.916	-1668
1040.978	-1509
1041.040	-1407
1041.102	-2130
1041.164	-1732
1041.225	-2295
1041.287	-1659
1041.349	-2003
1041.411	-1517
1041.472	-1363
1041.534	-818
1041.596	-1995
1041.657	-1032
1041.719	-1894
1041.781	-1441
1041.842	-1677
1041.904	-1371
1041.965	-757
1042.027	-2125
1042.088	-2218
1042.150	-1320
1042.211	-1326
1042.272	-1383
1042.334	-1274
1042.395	-1579
1042.456	-2083
1042.518	-1368
1042.579	-891
1042.640	-1738
1042.701	-1106
1042.763	-2089
1042.824	-2343
1042.885	-906
1042.946	-1647
1043.007	-1886
1043.068	-1365
1043.129	-1779
1043.190	-2244
1043.251	-1282
1043.312	-2491
1043.373	-1557
1043.434	-1758
1043.495	-1766
1043.556	-1288
1043.616	-1106
1043.677	-1269
1043.738	-1672
1043.799	-2569
1043.859	-1135
1043.920	-1695
1043.981	-1276
1044.041	-1349
1044.102	-1287
1044.162	-2028
1044.223	-1861
1044.284	-1027
1044.344	-1304
1044.405	-1612
1044.465	-1329
1044.525	-1541
1044.586	-766
1044.646	-2581
1044.707	-372
1044.767	-1279
1044.827	-1964
1044.887	-1862
1044.948	-1433
1045.008	-2084
1045.068	-1501
1045.128	-1798
1045.188	-1117
1045.249	-1114
1045.309	-2178
1045.369	-1439
1045.429	-1759
1045.489	-2029
1045.549	-1065
1045.609	-2347
1045.669	-1663
1045.729	-1648
1045.789	-1269
1045.848	-1534
1045.908	-1421
1045.968	-1447
1046.028	-1374
1046.088	-596
1046.147	28
1046.207	-1487
1046.267	-1451
1046.326	-1821
1046.386	-1266
1046.446	-572
1046.505	-1324
1046.565	-498
1046.624	-475
1046.684	-1287
1046.743	-1156
1046.803	-246
1046.862	207
1046.922	0
