'Start Wavelength	183.907
'End Wavelength	1046.922
'Gate Delay	5.000
'Gate Width (ms)	1.050
'Laser Output Level	0.000
'X Position	0.000
'Y Position	0.000
'Z Position	0.000
'Grid Point Number	1.000
'Shot Number	100.000
183.907	823.000
183.977	61.000
184.047	99
184.116	1194
184.186	958
184.256	364
184.325	1184
184.395	459
184.465	404
184.534	2027
184.604	832
184.674	555
184.743	-194
184.813	158
184.883	411
184.952	0
185.022	695
185.092	722
185.161	878
185.231	1915
185.301	1922
185.370	874
185.440	110
185.509	87
185.579	315
185.649	935
185.718	523
185.788	1163
185.857	1396
185.927	659
185.996	762
186.066	409
186.136	1081
186.205	1579
186.275	2435
186.344	636
186.414	1028
186.483	72
186.553	1303
186.622	2581
186.692	386
186.761	924
186.831	722
186.900	322
186.970	391
187.039	971
187.109	2189
187.178	431
187.248	754
187.317	1480
187.387	941
187.456	1898
187.526	3167
187.595	1389
187.664	884
187.734	649
187.803	748
187.873	1167
187.942	1725
188.012	715
188.081	1213
188.150	1769
188.220	2880
188.289	1985
188.358	1305
188.428	790
188.497	589
188.567	907
188.636	257
188.705	502
188.775	919
188.844	441
188.913	1184
188.983	730
189.052	2091
189.121	1194
189.191	2272
189.260	3050
189.329	4827
189.399	2321
189.468	1726
189.537	1653
189.606	1696
189.676	1798
189.745	1747
189.814	1956
189.883	1294
189.953	2958
190.022	5308
190.091	24410
190.161	23737
190.230	6347
190.299	2992
190.368	2286
190.437	2092
190.507	1773
190.576	1922
190.645	1592
190.714	1214
190.783	1029
190.853	1503
190.922	1517
190.991	946
191.060	1262
191.129	601
191.198	982
191.268	296
191.337	684
191.406	2234
191.475	1405
191.544	1514
191.613	448
191.682	857
191.752	549
191.821	948
191.890	1705
191.959	1039
192.028	901
192.097	1524
192.166	710
192.235	713
192.304	1257
192.373	1259
192.442	1109
192.511	767
192.580	489
192.650	958
192.719	1230
192.788	1030
192.857	1703
192.926	1182
192.995	1839
193.064	4926
193.133	4408
193.202	5390
193.271	3573
193.340	3236
193.409	2814
193.478	3898
193.547	5843
193.615	7887
193.684	5525
193.753	3622
193.822	2115
193.891	1757
193.960	2318
194.029	1348
194.098	2136
194.167	1649
194.236	1121
194.305	691
194.374	1769
194.443	720
194.512	1677
194.580	2127
194.649	1642
194.718	1277
194.787	1483
194.856	874
194.925	2054
194.994	847
195.062	1371
195.131	589
195.200	1791
195.269	2193
195.338	1736
195.407	1962
195.475	2264
195.544	2321
195.613	1691
195.682	1803
195.751	1679
195.819	1607
195.888	1280
195.957	1863
196.026	1354
196.094	2572
196.163	1870
196.232	2004
196.301	1140
196.369	2000
196.438	1937
196.507	2130
196.576	2045
196.644	1637
196.713	1774
196.782	1632
196.850	1827
196.919	1707
196.988	2139
197.056	1633
197.125	2647
197.194	2339
197.262	2522
197.331	2552
197.400	1891
197.468	2664
197.537	3185
197.606	3672
197.674	11233
197.743	24808
197.812	8448
197.880	27034
197.949	11465
198.017	23354
198.086	10393
198.155	4566
198.223	9342
198.292	31503
198.360	8628
198.429	5435
198.497	5965
198.566	19982
198.635	22882
198.703	6708
198.772	7175
198.840	42047
198.909	27458
198.977	8850
199.046	8081
199.114	4543
199.183	4301
199.251	2965
199.320	2728
199.388	2141
199.457	2991
199.525	3230
199.594	2277
199.662	2167
199.731	2142
199.799	2884
199.867	2558
199.936	2547
200.004	3084
200.073	2554
200.141	2363
200.210	1585
200.278	1799
200.346	2135
200.415	2194
200.483	2781
200.552	2538
200.620	2127
200.688	1415
200.757	2462
200.825	2433
200.893	1932
200.962	1666
201.030	1914
201.098	1546
201.167	2716
201.235	1594
201.303	2039
201.372	1757
201.440	2151
201.508	3280
201.577	2606
201.645	2040
201.713	2371
201.781	2013
201.850	2308
201.918	2295
201.986	1810
202.055	2565
202.123	2513
202.191	2358
202.259	2216
202.327	2210
202.396	2177
202.464	2002
202.532	2837
202.600	8378
202.669	3538
202.737	2082
202.805	1745
202.873	3057
202.941	2249
203.009	1751
203.078	2875
203.146	2099
203.214	2131
203.282	2779
203.350	3068
203.418	2196
203.487	2545
203.555	2793
203.623	2156
203.691	2624
203.759	2273
203.827	3025
203.895	2533
203.963	2916
204.031	2419
204.099	2663
204.168	2028
204.236	2931
204.304	3225
204.372	2983
204.440	3807
204.508	3040
204.576	2972
204.644	2540
204.712	2342
204.780	2554
204.848	2375
204.916	2259
204.984	2472
205.052	3249
205.120	2242
205.188	3079
205.256	3424
205.324	3841
205.392	3227
205.460	5681
205.528	7158
205.596	4170
205.664	4968
205.732	6226
205.799	40156
205.867	42137
205.935	9914
206.003	4985
206.071	5475
206.139	7129
206.207	4928
206.275	3940
206.343	3979
206.411	3355
206.478	3542
206.546	4530
206.614	3967
206.682	3639
206.750	2565
206.818	6661
206.885	4874
206.953	2409
207.021	3215
207.089	3905
207.157	3689
207.225	5118
207.292	6292
207.360	4191
207.428	3166
207.496	3049
207.563	3296
207.631	3097
207.699	3023
207.767	2757
207.834	2816
207.902	3209
207.970	3084
208.038	3863
208.105	2142
208.173	5897
208.241	7437
208.309	6078
208.376	5727
208.444	13334
208.512	7060
208.579	3249
208.647	5260
208.715	4853
208.782	3219
208.850	3034
208.918	3418
208.985	3787
209.053	3807
209.120	3063
209.188	3250
209.256	3289
209.323	3929
209.391	3864
209.459	4469
209.526	3303
209.594	3605
209.661	3581
209.729	3778
209.796	3034
209.864	4100
209.932	3299
209.999	4346
210.067	4412
210.134	4332
210.202	4405
210.269	5616
210.337	5912
210.404	4891
210.472	3666
210.539	4043
210.607	4413
210.674	4143
210.742	4094
210.809	4048
210.877	4808
210.944	5388
211.012	3922
211.079	5035
211.146	4396
211.214	5275
211.281	7627
211.349	6565
211.416	5263
211.484	5036
211.551	5188
211.618	5569
211.686	5143
211.753	4272
211.821	5780
211.888	5094
211.955	6340
212.023	6351
212.090	6836
212.157	8711
212.225	11041
212.292	26355
212.359	76391
212.427	208096
212.494	54294
212.561	18183
212.629	10114
212.696	8211
212.763	7512
212.831	6151
212.898	6488
212.965	6149
213.032	5553
213.100	5684
213.167	5831
213.234	6134
213.301	4907
213.369	5439
213.436	5772
213.503	5447
213.570	8686
213.638	12451
213.705	5798
213.772	4161
213.839	5682
213.906	5777
213.973	5215
214.041	5120
214.108	4246
214.175	4163
214.242	4327
214.309	4621
214.376	5031
214.444	4663
214.511	5968
214.578	4760
214.645	5256
214.712	4583
214.779	5017
214.846	5504
214.913	10386
214.980	7706
215.048	8499
215.115	7471
215.182	5207
215.249	5863
215.316	5123
215.383	5143
215.450	4680
215.517	3844
215.584	3649
215.651	3172
215.718	3077
215.785	4477
215.852	3708
215.919	4514
215.986	3509
216.053	3413
216.120	3763
216.187	4845
216.254	4095
216.321	4762
216.388	5043
216.455	5199
216.522	4889
216.589	6315
216.656	13639
216.722	11596
216.789	9050
216.856	9052
216.923	6733
216.990	6549
217.057	5564
217.124	5980
217.191	6563
217.258	9384
217.324	11982
217.391	13905
217.458	9622
217.525	6395
217.592	5449
217.659	5788
217.725	7026
217.792	12861
217.859	8612
217.926	4258
217.993	4519
218.059	4378
218.126	4158
218.193	3169
218.260	3705
218.327	3153
218.393	3505
218.460	3735
218.527	3578
218.594	4563
218.660	8474
218.727	7514
218.794	3538
218.860	3834
218.927	3176
218.994	2883
219.061	3002
219.127	4342
219.194	8523
219.261	3550
219.327	2552
219.394	2992
219.461	2918
219.527	3436
219.594	7226
219.661	4692
219.727	4199
219.794	5115
219.860	4198
219.927	4536
219.994	6621
220.060	7662
220.127	5801
220.193	6332
220.260	7023
220.326	9838
220.393	16400
220.460	22743
220.526	13372
220.593	9218
220.659	10398
220.726	18636
220.792	76552
220.859	33227
220.925	31108
220.992	45380
221.058	85042
221.125	89392
221.191	67245
221.258	17683
221.324	10724
221.391	9359
221.457	8828
221.524	9324
221.590	22159
221.657	113685
221.723	47473
221.789	68773
221.856	38522
221.922	16706
221.989	8394
222.055	6930
222.121	5111
222.188	6012
222.254	5074
222.321	4347
222.387	4698
222.453	3776
222.520	3817
222.586	4194
222.652	4205
222.719	3719
222.785	3816
222.851	3036
222.918	2749
222.984	3842
223.050	3810
223.116	2801
223.183	3343
223.249	2914
223.315	2519
223.382	3005
223.448	3407
223.514	1756
223.580	1989
223.647	2910
223.713	2652
223.779	3118
223.845	2076
223.911	2786
223.978	1982
224.044	2908
224.110	2655
224.176	3188
224.242	2742
224.309	2637
224.375	2136
224.441	3218
224.507	2204
224.573	1882
224.639	2937
224.705	1556
224.772	2496
224.838	1954
224.904	4345
224.970	2629
225.036	3428
225.102	3253
225.168	3308
225.234	2399
225.300	3084
225.366	3542
225.432	2420
225.499	3102
225.565	4227
225.631	3920
225.697	4168
225.763	5216
225.829	5166
225.895	6766
225.961	13121
226.027	9892
226.093	7535
226.159	10462
226.225	13552
226.291	38637
226.357	57977
226.423	20897
226.489	11778
226.554	8552
226.620	9653
226.686	10913
226.752	15899
226.818	32978
226.884	98753
226.950	62448
227.016	20339
227.082	10304
227.148	8280
227.214	8059
227.279	5786
227.345	4854
227.411	5299
227.477	4864
227.543	6873
227.609	7491
227.674	3768
227.740	3766
227.806	6391
227.872	5501
227.938	4601
228.003	5629
228.069	3658
228.135	3863
228.201	3633
228.267	3507
228.332	3614
228.398	5077
228.464	3599
228.530	3451
228.595	2864
228.661	3184
228.727	5862
228.792	3618
228.858	3224
228.924	5572
228.990	8205
229.055	5712
229.121	6518
229.187	3057
229.252	3428
229.318	2317
229.384	1883
229.449	3446
229.515	2069
229.581	1622
229.646	3972
229.712	3525
229.777	10663
229.843	9458
229.909	6550
229.974	5721
230.040	5331
230.105	6347
230.171	8121
230.236	17038
230.302	27882
230.368	14514
230.433	13813
230.499	7316
230.564	5764
230.630	4586
230.695	4064
230.761	4391
230.826	2072
230.892	5720
230.957	3668
231.023	3249
231.088	3086
231.154	3716
231.219	4019
231.284	6176
231.350	5241
231.415	3198
231.481	3715
231.546	3613
231.612	3308
231.677	2691
231.742	3443
231.808	4555
231.873	3679
231.939	2480
232.004	5662
232.069	4775
232.135	5336
232.200	3861
232.265	2832
232.331	2756
232.396	2871
232.461	2937
232.527	3454
232.592	2652
232.657	4794
232.723	17676
232.788	8171
232.853	4535
232.918	2899
232.984	3228
233.049	5436
233.114	16310
233.179	9992
233.245	32149
233.310	28220
233.375	6891
233.440	6743
233.506	15118
233.571	8322
233.636	4307
233.701	4973
233.766	22748
233.832	19790
233.897	6683
233.962	5220
234.027	5313
234.092	5187
234.157	5154
234.222	6383
234.288	26193
234.353	85509
234.418	50195
234.483	18457
234.548	10661
234.613	7322
234.678	8329
234.743	15604
234.808	69717
234.873	29224
234.938	10332
235.004	6729
235.069	5990
235.134	6749
235.199	5934
235.264	5401
235.329	4674
235.394	6832
235.459	11447
235.524	8966
235.589	6270
235.654	6282
235.719	5342
235.784	6279
235.849	12542
235.913	31212
235.978	36534
236.043	31555
236.108	10046
236.173	12251
236.238	10759
236.303	7021
236.368	8654
236.433	23444
236.498	38484
236.563	16569
236.627	36213
236.692	139717
236.757	72827
236.822	34758
236.887	27996
236.952	19638
237.017	19676
237.081	17823
237.146	23708
237.211	50257
237.276	161602
237.341	218476
237.405	73499
237.470	29943
237.535	25210
237.600	13865
237.664	12140
237.729	10617
237.794	15921
237.859	22781
237.923	25179
237.988	13879
238.053	28971
238.118	29629
238.182	155016
238.247	82161
238.312	34261
238.376	16973
238.441	15948
238.506	12129
238.570	7714
238.635	7897
238.700	7397
238.764	9266
238.829	50038
238.893	43497
238.958	12624
239.023	9242
239.087	7481
239.152	9905
239.216	6952
239.281	7557
239.346	6836
239.410	9294
239.475	18516
239.539	138942
239.604	72773
239.668	16380
239.733	9704
239.797	10421
239.862	26663
239.926	68762
239.991	19847
240.055	9785
240.120	7318
240.184	7636
240.249	8165
240.313	7654
240.378	11942
240.442	71568
240.507	95098
240.571	22491
240.635	51726
240.700	40114
240.764	12231
240.829	7920
240.893	7271
240.957	11198
241.022	66311
241.086	86072
241.151	28176
241.215	9528
241.279	21595
241.344	38978
241.408	12380
241.472	8054
241.537	8034
241.601	7277
241.665	6048
241.730	6706
241.794	8670
241.858	6439
241.922	6284
241.987	5777
242.051	5634
242.115	4594
242.179	5112
242.244	6738
242.308	7857
242.372	10583
242.436	12501
242.501	7265
242.565	6652
242.629	5477
242.693	6599
242.757	6072
242.822	8144
242.886	8363
242.950	9544
243.014	11451
243.078	8810
243.142	7864
243.206	12833
243.271	15855
243.335	17214
243.399	30637
243.463	210057
243.527	388750
243.591	79713
243.655	28036
243.719	16177
243.783	14977
243.847	34931
243.911	36938
243.975	23999
244.040	12580
244.104	9290
244.168	7668
244.232	10611
244.296	22356
244.360	28488
244.424	16321
244.488	13839
244.552	12726
244.615	8172
244.679	7541
244.743	8816
244.807	6946
244.871	5738
244.935	6016
244.999	6132
245.063	5749
245.127	7975
245.191	25854
245.255	16669
245.319	8197
245.383	6972
245.446	7927
245.510	4476
245.574	5061
245.638	5627
245.702	6426
245.766	13124
245.829	9942
245.893	12113
245.957	7206
246.021	8265
246.085	9356
246.149	14028
246.212	26840
246.276	35349
246.340	13334
246.404	10722
246.467	11713
246.531	15313
246.595	11272
246.659	12344
246.722	8892
246.786	8704
246.850	10164
246.913	11039
246.977	7151
247.041	10664
247.104	8946
247.168	8763
247.232	24231
247.295	55559
247.359	17758
247.423	9875
247.486	15627
247.550	9864
247.614	8159
247.677	9433
247.741	7776
247.804	8378
247.868	12322
247.932	27997
247.995	49168
248.059	15471
248.122	9549
248.186	14686
248.249	26406
248.313	115293
248.376	72691
248.440	47274
248.503	15041
248.567	13574
248.630	19511
248.694	20439
248.757	41971
248.821	106874
248.884	36774
248.948	55672
249.011	72196
249.075	129376
249.138	81052
249.202	26255
249.265	26329
249.328	54349
249.392	23370
249.455	15075
249.519	13734
249.582	14750
249.645	19701
249.709	15642
249.772	17689
249.835	18878
249.899	26382
249.962	17557
250.025	14783
250.089	43670
250.152	37023
250.215	21439
250.279	20035
250.342	24997
250.405	24766
250.468	25150
250.532	34900
250.595	71335
250.658	501191
250.721	527257
250.785	114287
250.848	53956
250.911	35413
250.974	33032
251.038	47334
251.101	69674
251.164	48787
251.227	46239
251.290	51302
251.354	115024
251.417	653051
251.480	385352
251.543	337094
251.606	1166518
251.669	516775
251.732	160948
251.795	134145
251.859	207227
251.922	641567
251.985	210997
252.048	76563
252.111	55439
252.174	49340
252.237	84983
252.300	151684
252.363	342235
252.426	694244
252.489	178643
252.552	88485
252.615	64135
252.678	65108
252.741	137751
252.804	366864
252.867	740380
252.930	225184
252.993	91431
253.056	51347
253.119	37722
253.182	45437
253.245	102352
253.308	51653
253.371	45570
253.434	36566
253.497	30794
253.559	53283
253.622	31398
253.685	44737
253.748	28199
253.811	21853
253.874	47049
253.937	31814
254.000	18521
254.062	37891
254.125	45028
254.188	33449
254.251	23354
254.314	19689
254.376	27603
254.439	21473
254.502	21736
254.565	38178
254.628	46079
254.690	23247
254.753	13765
254.816	14334
254.878	20867
254.941	45789
255.004	33598
255.067	19043
255.129	12510
255.192	8521
255.255	6594
255.317	10861
255.380	8684
255.443	6598
255.505	8646
255.568	7622
255.631	6857
255.693	6495
255.756	6608
255.819	7269
255.881	5683
255.944	6839
256.006	9266
256.069	8335
256.132	7815
256.194	19843
256.257	71932
256.319	44120
256.382	33316
256.444	13390
256.507	9519
256.569	8803
256.632	13739
256.694	26897
256.757	75477
256.819	151404
256.882	51223
256.944	20908
257.007	14905
257.069	15567
257.132	15062
257.194	12184
257.257	10138
257.319	11189
257.381	16165
257.444	52484
257.506	248116
257.569	142533
257.631	52391
257.693	29041
257.756	22903
257.818	23192
257.880	11835
257.943	9507
258.005	8781
258.067	7556
258.130	8170
258.192	11559
258.254	30294
258.317	15397
258.379	10453
258.441	23268
258.503	22652
258.566	115107
258.628	90705
258.690	19015
258.753	14569
258.815	15986
258.877	9427
258.939	7846
259.001	8605
259.064	8809
259.126	20084
259.188	21551
259.250	14798
259.312	14962
259.375	26547
259.437	13579
259.499	9217
259.561	8856
259.623	9588
259.685	10517
259.747	18128
259.809	121830
259.872	157839
259.934	337562
259.996	135517
260.058	32347
260.120	18160
260.182	12467
260.244	11058
260.306	9639
260.368	8843
260.430	8550
260.492	12032
260.554	22378
260.616	20895
260.678	104140
260.740	118982
260.802	24277
260.864	15705
260.926	11543
260.988	12655
261.050	12808
261.112	24730
261.174	176296
261.236	100646
261.298	26452
261.359	80245
261.421	71700
261.483	18116
261.545	12356
261.607	9839
261.669	11683
261.731	46866
261.793	65088
261.854	15693
261.916	12933
261.978	9861
262.040	13056
262.102	12528
262.164	34408
262.225	17835
262.287	9915
262.349	15920
262.411	11793
262.472	11593
262.534	56283
262.596	79630
262.658	20324
262.719	13809
262.781	34206
262.843	90462
262.904	30223
262.966	27855
263.028	43511
263.090	339416
263.151	541303
263.213	109616
263.275	40111
263.336	21503
263.398	15823
263.459	12045
263.521	11631
263.583	15483
263.644	10581
263.706	7086
263.767	7064
263.829	6576
263.891	5457
263.952	5201
264.014	5355
264.075	5094
264.137	5822
264.198	6144
264.260	3936
264.321	4529
264.383	8161
264.444	7633
264.506	4182
264.567	4793
264.629	5337
264.690	3084
264.752	4969
264.813	4438
264.875	4308
264.936	5198
264.998	3882
265.059	5013
265.120	6033
265.182	13605
265.243	75465
265.305	40641
265.366	10955
265.427	6803
265.489	5489
265.550	3801
265.611	5546
265.673	4953
265.734	4303
265.795	5377
265.857	6569
265.918	7366
265.979	24992
266.040	139878
266.102	59148
266.163	16983
266.224	9474
266.286	6455
266.347	4318
266.408	6225
266.469	12949
266.530	6839
266.592	4300
266.653	12566
266.714	10288
266.775	4762
266.836	3950
266.898	4984
266.959	4699
267.020	3994
267.081	3744
267.142	3037
267.203	3788
267.264	2185
267.326	3973
267.387	2861
267.448	1966
267.509	4267
267.570	3318
267.631	2517
267.692	1781
267.753	3919
267.814	3198
267.875	10713
267.936	11207
267.997	5353
268.058	4131
268.119	3098
268.180	2962
268.241	3190
268.302	3547
268.363	3088
268.424	3678
268.485	6750
268.546	2756
268.607	3265
268.668	2908
268.729	2433
268.790	3105
268.851	3036
268.912	8477
268.972	7833
269.033	3646
269.094	3197
269.155	3015
269.216	4314
269.277	7984
269.338	4585
269.398	4170
269.459	3483
269.520	4477
269.581	5939
269.642	5873
269.702	4388
269.763	4654
269.824	4079
269.885	4500
269.945	5527
270.006	4988
270.067	3809
270.128	2948
270.188	3134
270.249	3678
270.310	2856
270.370	5974
270.431	7300
270.492	3218
270.553	4438
270.613	7861
270.674	12274
270.734	5580
270.795	3855
270.856	6296
270.916	4889
270.977	3944
271.038	5277
271.098	4115
271.159	9972
271.219	9068
271.280	5223
271.340	5143
271.401	14343
271.462	38809
271.522	11516
271.583	7097
271.643	7990
271.704	6256
271.764	7192
271.825	15752
271.885	94728
271.946	87405
272.006	22444
272.066	59204
272.127	69460
272.187	16142
272.248	11975
272.308	15667
272.369	45293
272.429	16724
272.489	16444
272.550	11597
272.610	11790
272.671	10377
272.731	30055
272.791	36732
272.852	10653
272.912	9230
272.972	6353
273.033	8806
273.093	16529
273.153	8728
273.214	6888
273.274	8975
273.334	32166
273.394	40696
273.455	15009
273.515	20534
273.575	30011
273.635	14949
273.696	49999
273.756	62607
273.816	20045
273.876	18714
273.936	122516
273.997	129275
274.057	26660
274.117	17340
274.177	20530
274.237	80929
274.297	83215
274.358	76173
274.418	45925
274.478	24165
274.538	16772
274.598	34148
274.658	155284
274.718	142704
274.778	40830
274.838	25516
274.898	108133
274.958	221686
275.018	102357
275.078	40420
275.138	18994
275.198	12885
275.258	12707
275.318	21786
275.378	21468
275.438	15322
275.498	21297
275.558	151251
275.618	158091
275.678	41185
275.738	22420
275.798	12250
275.858	9309
275.918	8085
275.978	7235
276.038	6956
276.098	5904
276.157	13124
276.217	21707
276.277	9288
276.337	7417
276.397	6253
276.457	5472
276.517	5428
276.576	5089
276.636	4718
276.696	8187
276.756	27071
276.815	13215
276.875	8755
276.935	10849
276.995	6072
277.055	4853
277.114	5851
277.174	9502
277.234	16685
277.293	6411
277.353	5959
277.413	6197
277.472	5793
277.532	6055
277.592	7622
277.651	20581
277.711	23288
277.771	12060
277.830	36041
277.890	22026
277.950	43312
278.009	83919
278.069	21592
278.128	26167
278.188	23028
278.248	14172
278.307	33085
278.367	21138
278.426	12232
278.486	8568
278.545	8672
278.605	7026
278.664	7605
278.724	8826
278.783	35064
278.843	56954
278.902	16891
278.962	12878
279.021	16855
279.081	47274
279.140	29934
279.199	18500
279.259	18540
279.318	23740
279.378	32858
279.437	57683
279.496	226051
279.556	1169620
279.615	550458
279.675	132608
279.734	76942
279.793	112825
279.853	90912
279.912	37662
279.971	28661
280.031	27050
280.090	35480
280.149	47359
280.208	129745
280.268	875988
280.327	517323
280.386	110553
280.445	63314
280.505	37115
280.564	23382
280.623	20348
280.682	24086
280.742	22071
280.801	11993
280.860	11094
280.919	9373
280.978	8075
281.037	7770
281.097	7433
281.156	8044
281.215	7562
281.274	10760
281.333	35524
281.392	17740
281.451	8764
281.510	6967
281.569	6646
281.628	11564
281.688	8796
281.747	6856
281.806	5378
281.865	6303
281.924	5256
281.983	4817
282.042	4159
282.101	4701
282.160	4678
282.219	4116
282.278	4442
282.337	11862
282.396	6112
282.454	4251
282.513	6510
282.572	16035
282.631	7428
282.690	3504
282.749	4394
282.808	4523
282.867	5156
282.926	4282
282.985	2887
283.043	3312
283.102	4020
283.161	7543
283.220	14338
283.279	19619
283.338	6162
283.396	5097
283.455	4929
283.514	3911
283.573	6991
283.631	5678
283.690	3938
283.749	5357
283.808	8424
283.866	6897
283.925	3837
283.984	5484
284.043	7489
284.101	6677
284.160	4262
284.219	5666
284.277	4408
284.336	8456
284.395	25126
284.453	15910
284.512	7582
284.570	8225
284.629	6329
284.688	6325
284.746	6828
284.805	9105
284.863	11380
284.922	11335
284.981	12565
285.039	18590
285.098	32338
285.156	123619
285.215	558284
285.273	320882
285.332	85576
285.390	43492
285.449	24600
285.507	16569
285.566	13543
285.624	11662
285.683	10362
285.741	8146
285.799	8084
285.858	9071
285.916	7089
285.975	5565
286.033	4615
286.091	4932
286.150	4461
286.208	5069
286.267	5082
286.325	6000
286.383	7213
286.442	5964
286.500	5434
286.558	4896
286.616	4513
286.675	5684
286.733	5056
286.791	5465
286.850	6985
286.908	7770
286.966	10181
287.024	5605
287.083	5648
287.141	6575
287.199	6325
287.257	8153
287.315	8104
287.374	9397
287.432	12562
287.490	9510
287.548	10206
287.606	9557
287.664	10498
287.723	12634
287.781	16906
287.839	18131
287.897	25835
287.955	38494
288.013	64158
288.071	159786
288.129	902149
288.187	1702338
288.245	518366
288.303	182520
288.361	102684
288.419	61248
288.477	42304
288.535	32895
288.593	26073
288.651	19794
288.709	16033
288.767	13878
288.825	11799
288.883	9881
288.941	9232
288.999	9158
289.057	7801
289.115	6277
289.173	6423
289.231	6586
289.289	5661
289.346	5691
289.404	6231
289.462	8004
289.520	7898
289.578	5417
289.636	4412
289.694	4144
289.751	4462
289.809	4445
289.867	4579
289.925	5688
289.983	4486
290.040	3929
290.098	4051
290.156	4070
290.214	3974
290.271	3223
290.329	2626
290.387	3071
290.444	2881
290.502	2211
290.560	2694
290.617	3124
290.675	3181
290.733	3371
290.790	3103
290.848	2612
290.906	2704
290.963	2500
291.021	3377
291.078	1791
291.136	1613
291.194	8190
291.251	10229
291.309	3220
291.366	2419
291.424	1882
291.481	2287
291.539	2732
291.596	3222
291.654	2153
291.711	1954
291.769	3323
291.826	6191
291.884	3805
291.941	2140
291.999	2075
292.056	2435
292.114	1655
292.171	2107
292.228	2943
292.286	3081
292.343	6331
292.401	5979
292.458	3163
292.515	3088
292.573	3637
292.630	4923
292.687	8167
292.745	5337
292.802	4999
292.859	12586
292.917	21458
292.974	9282
293.031	3421
293.089	3114
293.146	1967
293.203	2303
293.260	2118
293.318	4076
293.375	3221
293.432	2762
293.489	2520
293.546	3336
293.604	9618
293.661	39672
293.718	59208
293.775	19123
293.832	9450
293.889	7128
293.947	7315
294.004	4934
294.061	4482
294.118	8421
294.175	9225
294.232	6059
294.289	3411
294.346	3876
294.403	4109
294.460	7872
294.517	4604
294.574	3797
294.631	3506
294.688	5316
294.745	23292
294.802	60337
294.859	27340
294.916	14384
294.973	8502
295.030	6957
295.087	5390
295.144	4376
295.201	3760
295.258	3540
295.315	6754
295.372	29970
295.429	39149
295.486	13233
295.542	6696
295.599	6885
295.656	7378
295.713	17319
295.770	24920
295.827	8536
295.883	5194
295.940	4874
295.997	8157
296.054	5889
296.111	3416
296.167	3796
296.224	3113
296.281	3231
296.338	2970
296.394	3776
296.451	5985
296.508	17240
296.564	21136
296.621	20516
296.678	84435
296.734	78723
296.791	23856
296.848	12468
296.904	11713
296.961	20865
297.018	41045
297.074	25936
297.131	10955
297.187	8646
297.244	16249
297.301	75691
297.357	89848
297.414	28569
297.470	12152
297.527	7431
297.583	5186
297.640	5161
297.696	4740
297.753	3554
297.809	3650
297.866	3035
297.922	4547
297.979	3539
298.035	4660
298.092	7621
298.148	22282
298.204	15929
298.261	11197
298.317	34123
298.374	79852
298.430	38145
298.486	26509
298.543	19408
298.599	13244
298.656	12880
298.712	37827
298.768	122569
298.824	68475
298.881	20749
298.937	11771
298.993	7874
299.050	7163
299.106	5881
299.162	6137
299.218	4993
299.275	5077
299.331	8008
299.387	21693
299.443	77037
299.500	50262
299.556	18349
299.612	9415
299.668	7046
299.724	6672
299.780	5868
299.837	5501
299.893	11225
299.949	34203
300.005	30795
300.061	46467
300.117	76018
300.173	30404
300.229	15287
300.285	15544
300.341	11144
300.397	6871
300.453	4702
300.510	4212
300.566	4477
300.622	5896
300.678	13112
300.734	21934
300.790	37110
300.845	45496
300.901	24164
300.957	25465
301.013	15881
301.069	7767
301.125	6109
301.181	6163
301.237	4444
301.293	3578
301.349	3709
301.405	2683
301.461	3068
301.516	2760
301.572	4836
301.628	6646
301.684	5688
301.740	12674
301.796	16080
301.851	13896
301.907	21686
301.963	29053
302.019	97156
302.074	242654
302.130	186402
302.186	70459
302.242	30277
302.297	17939
302.353	15320
302.409	21858
302.464	16945
302.520	19919
302.576	51886
302.631	43897
302.687	21170
302.743	10585
302.798	7045
302.854	5864
302.910	5068
302.965	7264
303.021	10748
303.076	8962
303.132	11292
303.187	10003
303.243	6410
303.299	3498
303.354	4085
303.410	3523
303.465	3153
303.521	4017
303.576	5143
303.632	7587
303.687	22782
303.743	60845
303.798	37488
303.853	14432
303.909	7267
303.964	5845
304.020	7610
304.075	8272
304.130	8937
304.186	13247
304.241	13190
304.297	10220
304.352	5324
304.358	5303
304.407	5135
304.449	4848
304.463	4754
304.518	4347
304.539	4165
304.573	3923
304.629	5870
304.630	6079
304.684	15855
304.720	42075
304.739	55038
304.794	60861
304.811	50575
304.850	26688
304.902	13316
304.905	12469
304.960	9420
304.992	10175
305.015	10570
305.071	7923
305.083	7209
305.126	4811
305.173	3636
305.181	3443
305.236	3577
305.264	3724
305.292	3942
305.347	3924
305.354	4111
305.402	5462
305.445	9388
305.457	10379
305.512	10216
305.535	9220
305.567	8349
305.622	9319
305.626	10076
305.678	24219
305.716	47326
305.733	55700
305.788	44632
305.807	40228
305.843	34411
305.897	60506
305.898	60805
305.953	47968
305.988	30083
306.008	20906
306.063	11030
306.078	9670
306.118	6565
306.168	5419
306.173	5304
306.228	4928
306.259	4495
306.283	4376
306.338	5130
306.349	5553
306.393	7159
306.440	9345
306.448	9640
306.503	7258
306.530	7808
306.558	9601
306.613	15636
306.620	16416
306.668	20452
306.711	28840
306.723	30212
306.778	20599
306.801	15759
306.833	10716
306.888	6068
306.892	5915
306.943	4658
306.982	4618
306.997	4576
307.052	3875
307.072	4044
307.107	4794
307.162	5721
307.163	5732
307.217	6353
307.253	7118
307.272	7328
307.327	6849
307.343	6575
307.381	6684
307.434	7307
307.436	7474
307.491	14224
307.524	19835
307.546	20900
307.600	18902
307.614	16820
307.655	12153
307.704	9399
307.710	9298
307.765	10347
307.795	11976
307.819	13320
307.874	16933
307.885	17151
307.929	18052
307.975	20670
307.984	23407
308.038	45300
308.065	61673
308.093	124937
308.148	301764
308.156	343019
308.202	474481
308.246	449407
308.257	424198
308.312	185733
308.336	110273
308.366	73034
308.421	40614
308.426	38454
308.475	24854
308.517	18806
308.530	17345
308.585	15471
308.607	14697
308.639	13853
308.694	14275
308.697	14396
308.748	18310
308.787	22029
308.803	22141
308.857	18792
308.877	17950
308.912	19087
308.967	22991
308.967	23071
309.021	34494
309.058	45057
309.076	67701
309.130	146064
309.148	181904
309.185	397614
309.238	820187
309.239	820323
309.293	721634
309.328	505912
309.348	400656
309.402	153008
309.418	99360
309.457	63148
309.508	37426
309.511	36299
309.566	27824
309.598	25501
309.620	24735
309.674	26644
309.688	27040
309.729	23676
309.778	17060
309.783	16715
309.837	14768
309.868	14247
309.892	17241
309.946	26965
309.959	29633
310.001	30783
310.049	29002
310.055	27944
310.109	15997
310.139	9638
310.163	7942
310.218	6125
310.229	5948
310.272	5668
310.319	5229
310.326	5067
310.381	4373
310.409	4121
310.435	4007
310.489	3729
310.499	3699
310.543	4601
310.589	5643
310.598	5545
310.652	4760
310.679	4353
310.706	3952
310.760	3055
310.769	2940
310.814	2873
310.859	2917
310.868	2899
310.923	2747
310.948	2669
310.977	2946
311.031	3789
311.038	3859
311.085	3153
311.128	2458
311.139	2492
311.193	2925
311.218	3031
311.247	3028
311.301	3183
311.308	3194
311.356	3003
311.398	2778
311.410	2817
311.464	3070
311.488	3196
311.518	3176
311.572	3135
311.578	3126
311.626	3542
311.668	3972
311.680	3913
311.734	3535
311.758	3384
311.788	3262
311.842	3021
311.847	3000
311.896	3426
311.937	3780
311.950	3694
312.004	3314
312.027	3143
312.058	2909
312.112	2510
312.117	2474
312.165	3119
312.207	3682
312.297	2354
312.386	2999
312.476	3909
312.566	6359
312.656	3223
312.745	3104
312.835	3946
312.925	4999
313.015	4896
313.104	4955
313.194	3390
313.284	3764
313.374	4265
313.463	3520
313.553	2639
313.643	3057
313.732	2542
313.822	3703
313.912	3836
314.001	3645
314.091	2730
314.180	2926
314.270	4119
314.360	4757
314.449	3595
314.539	3313
314.628	2458
314.718	2517
314.808	2837
314.897	3744
314.987	2978
315.076	4769
315.166	4197
315.255	4826
315.345	4870
315.434	5368
315.524	5209
315.613	8192
315.703	13476
315.792	56092
315.881	158465
315.971	36189
316.060	9475
316.150	8670
316.239	7728
316.328	4015
316.418	3497
316.507	5190
316.597	7541
316.686	3268
316.775	5288
316.865	7238
316.954	2751
317.043	2912
317.133	3553
317.222	3908
317.311	3409
317.400	3515
317.490	6923
317.579	7596
317.668	8472
317.757	23071
317.847	118387
317.936	288829
318.025	62037
318.114	43647
318.203	15403
318.293	7808
318.382	4587
318.471	4810
318.560	5008
318.649	6845
318.738	3116
318.828	4609
318.917	3491
319.006	5114
319.095	9535
319.184	10361
319.273	11009
319.362	7122
319.451	3787
319.540	5593
319.629	11327
319.718	9234
319.807	3377
319.896	8081
319.985	14182
320.074	6644
320.163	3198
320.252	5845
320.341	3668
320.430	4151
320.519	5848
320.608	2538
320.697	2572
320.786	3843
320.875	4514
320.964	7422
321.053	10674
321.142	16202
321.230	10513
321.319	16203
321.408	16734
321.497	6844
321.586	8831
321.675	10855
321.764	6002
321.852	7256
321.941	12276
322.030	5579
322.119	12803
322.207	18185
322.296	7650
322.385	6135
322.474	13865
322.562	25640
322.651	8093
322.740	13907
322.829	11668
322.917	10312
323.006	6855
323.095	7170
323.183	5423
323.272	8035
323.361	18140
323.449	31175
323.538	10174
323.626	22913
323.715	8646
323.804	7205
323.892	20441
323.981	8509
324.069	6429
324.158	14775
324.246	10227
324.335	6992
324.424	6668
324.512	3358
324.601	5144
324.689	15492
324.778	18302
324.866	7695
324.954	2100
325.043	4350
325.131	6119
325.220	8430
325.308	7278
325.397	7812
325.485	3499
325.574	3257
325.662	2545
325.750	2527
325.839	2714
325.927	3231
326.015	3472
326.104	5762
326.192	4916
326.280	2731
326.369	2817
326.457	5277
326.545	6104
326.634	2538
326.722	1932
326.810	2369
326.898	2320
326.987	3512
327.075	7072
327.163	8580
327.251	13342
327.340	14571
327.428	7967
327.516	2877
327.604	2391
327.692	2868
327.781	4533
327.869	10188
327.957	7197
328.045	3570
328.133	3089
328.221	4259
328.309	2691
328.397	5299
328.485	5247
328.574	8583
328.662	14427
328.750	6563
328.838	3934
328.926	3948
329.014	2173
329.102	3852
329.190	5990
329.278	3517
329.366	1953
329.454	2155
329.542	2258
329.630	2009
329.718	2792
329.806	3211
329.893	2889
329.981	1929
330.069	5725
330.157	37204
330.245	69975
330.333	22224
330.421	4298
330.509	10926
330.597	22598
330.684	7266
330.772	2867
330.860	3427
330.948	2698
331.036	2810
331.123	1256
331.211	2468
331.299	2439
331.387	3757
331.475	4033
331.562	1790
331.650	1603
331.738	1481
331.825	2308
331.913	2255
332.001	2154
332.089	2537
332.176	4094
332.264	10727
332.352	5560
332.439	2017
332.527	2010
332.614	2444
332.702	3663
332.790	5245
332.877	6232
332.965	7841
333.052	2341
333.140	5098
333.228	5715
333.315	2091
333.403	3951
333.490	7323
333.578	5854
333.665	8230
333.753	3984
333.840	2984
333.928	3767
334.015	7857
334.103	10551
334.190	17009
334.278	3973
334.365	4095
334.452	4045
334.540	2786
334.627	3432
334.715	3787
334.802	10140
334.889	47582
334.977	31266
335.064	4672
335.151	2314
335.239	2106
335.326	3025
335.413	7434
335.501	6629
335.588	5093
335.675	4197
335.762	4052
335.850	3551
335.937	5151
336.024	17009
336.111	39262
336.199	12142
336.286	4174
336.373	2298
336.460	1871
336.547	1935
336.635	3022
336.722	2692
336.809	2340
336.896	4315
336.983	7414
337.070	11192
337.157	11550
337.245	24321
337.332	12712
337.419	3017
337.506	2494
337.593	1825
337.680	3645
337.767	5038
337.854	4302
337.941	4577
338.028	7365
338.115	3523
338.202	3121
338.289	9490
338.376	21305
338.463	4987
338.550	4588
338.637	3999
338.724	6835
338.811	8687
338.898	3006
338.984	2838
339.071	5983
339.158	24259
339.245	16988
339.332	5223
339.419	6081
339.506	3475
339.593	1408
339.679	2288
339.766	1781
339.853	4712
339.940	6371
340.027	2767
340.113	2936
340.200	3749
340.287	3330
340.374	4894
340.460	5946
340.547	2532
340.634	7938
340.720	20383
340.807	7053
340.894	2463
340.980	5028
341.067	2757
341.154	2660
341.240	5806
341.327	7002
341.414	2719
341.500	2437
341.587	2123
341.674	2924
341.760	7192
341.847	6077
341.933	2724
342.020	1346
342.106	1508
342.193	3737
342.279	4812
342.366	4509
342.452	5196
342.539	4256
342.625	12461
342.712	17995
342.798	6175
342.885	2423
342.971	2860
343.058	4673
343.144	2042
343.230	3281
343.317	3425
343.403	1685
343.490	1889
343.576	2299
343.662	4071
343.749	14224
343.835	17364
343.921	22834
344.008	141823
344.094	146315
344.180	16826
344.267	11635
344.353	32871
344.439	17364
344.525	7854
344.612	4371
344.698	4039
344.784	2366
344.870	2077
344.957	2476
345.043	3079
345.129	3855
345.215	3880
345.301	2647
345.387	1640
345.474	1392
345.560	1740
345.646	3269
345.732	3661
345.818	2939
345.904	3157
345.990	3635
346.076	2770
346.162	3182
346.249	3542
346.335	3282
346.421	6171
346.507	26964
346.593	38853
346.679	4584
346.765	2238
346.851	3061
346.937	2165
347.023	2792
347.108	3472
347.194	2466
347.280	2085
347.366	5198
347.452	28603
347.538	62463
347.624	32871
347.710	14823
347.796	3986
347.882	6906
347.967	5187
348.053	6087
348.139	4565
348.225	3052
348.311	3061
348.397	2654
348.482	2977
348.568	2903
348.654	1362
348.740	3572
348.825	2099
348.911	9776
348.997	44623
349.083	40637
349.168	4753
349.254	2652
349.340	1919
349.425	2344
349.511	6935
349.597	17062
349.682	14061
349.768	22927
349.854	5696
349.939	2485
350.025	2411
350.110	2599
350.196	1490
350.282	1567
350.367	2461
350.453	5094
350.538	7602
350.624	3727
350.709	1244
350.795	2090
350.880	2595
350.966	4192
351.051	3573
351.137	2985
351.222	2856
351.308	11185
351.393	15083
351.479	2261
351.564	1651
351.649	2128
351.735	1396
351.820	2292
351.906	3674
351.991	6541
352.076	16671
352.162	12534
352.247	3552
352.332	2538
352.418	4125
352.503	10118
352.588	27960
352.673	13988
352.759	4244
352.844	2716
352.929	3869
353.014	3712
353.100	2980
353.185	5168
353.270	8118
353.355	5915
353.441	2848
353.526	3725
353.611	8139
353.696	5915
353.781	3774
353.866	3407
353.952	3725
354.037	9842
354.122	15073
354.207	12121
354.292	4425
354.377	2072
354.462	2522
354.547	4071
354.632	2848
354.717	4946
354.802	4119
354.887	4082
354.972	3228
355.057	1869
355.142	3756
355.227	5741
355.312	6664
355.397	14843
355.482	22550
355.567	9713
355.652	13535
355.737	14602
355.822	35872
355.907	14668
355.991	3786
356.076	2628
356.161	2045
356.246	2649
356.331	4077
356.416	25286
356.501	100098
356.585	52346
356.670	5306
356.755	5080
356.840	16510
356.924	107432
357.009	215602
357.094	43039
357.179	13587
357.263	12601
357.348	7367
357.433	5635
357.517	6086
357.602	6850
357.687	6605
357.771	4765
357.856	3926
357.941	15274
358.025	119401
358.110	298457
358.195	72245
358.279	7327
358.364	8757
358.448	30735
358.533	49420
358.617	35024
358.702	32186
358.787	10924
358.871	7044
358.956	4635
359.040	2599
359.125	1937
359.209	1886
359.294	2790
359.378	2745
359.462	4953
359.547	2376
359.631	1573
359.716	696
359.800	1679
359.885	2872
359.969	3359
360.053	8639
360.138	8090
360.222	5506
360.306	7352
360.391	4321
360.475	7911
360.559	14931
360.644	21330
360.728	16450
360.812	71731
360.896	105761
360.981	24149
361.065	9451
361.149	6687
361.233	5028
361.318	4865
361.402	5564
361.486	5780
361.570	3211
361.654	4831
361.739	26737
361.823	110905
361.907	95806
361.991	10570
362.075	9363
362.159	13003
362.243	8335
362.327	8467
362.411	9681
362.495	4665
362.580	2311
362.664	2348
362.748	833
362.832	3065
362.916	4988
363.000	30272
363.084	115699
363.168	118438
363.252	17263
363.336	7400
363.420	7350
363.503	9367
363.587	7399
363.671	4384
363.755	4163
363.839	5881
363.923	3374
364.007	7583
364.091	5197
364.175	5116
364.258	14736
364.342	16286
364.426	25492
364.510	11271
364.594	8598
364.677	40650
364.761	115598
364.845	45829
364.929	11590
365.013	7856
365.096	9687
365.180	6837
365.264	5336
365.347	11220
365.431	3289
365.515	2300
365.598	2050
365.682	2568
365.766	1214
365.849	1526
365.933	2032
366.017	2850
366.100	525
366.184	759
366.267	2582
366.351	3891
366.435	2366
366.518	1384
366.602	1423
366.685	2085
366.769	2680
366.852	3714
366.936	5150
367.019	4011
367.103	1464
367.186	2691
367.270	1098
367.353	2114
367.436	3208
367.520	2745
367.603	3072
367.687	5958
367.770	7540
367.853	7928
367.937	24303
368.020	24493
368.104	4694
368.187	7808
368.270	6827
368.353	6374
368.437	8406
368.520	15475
368.603	13338
368.687	29965
368.770	30137
368.853	5943
368.936	5412
369.020	4003
369.103	1993
369.186	1372
369.269	2235
369.352	7405
369.436	6396
369.519	3902
369.602	925
369.685	4554
369.768	5185
369.851	3707
369.934	1304
370.018	4105
370.101	6442
370.184	4528
370.267	3168
370.350	5956
370.433	17576
370.516	60281
370.599	71626
370.682	27475
370.765	21225
370.848	35214
370.931	50866
371.014	16358
371.097	4840
371.180	2838
371.263	1932
371.346	1623
371.429	2586
371.511	2570
371.594	4821
371.677	4602
371.760	4740
371.843	26858
371.926	144863
372.009	204904
372.091	36897
372.174	32132
372.257	51216
372.340	12747
372.423	5682
372.505	5403
372.588	5784
372.671	27242
372.754	52595
372.836	15817
372.919	5812
373.002	6970
373.085	5732
373.167	11065
373.250	29778
373.332	71474
373.415	188346
373.498	278728
373.580	99212
373.663	217217
373.746	188689
373.828	25652
373.911	8121
373.993	5945
374.076	7216
374.159	8324
374.241	18914
374.324	40293
374.406	31927
374.489	104890
374.571	164894
374.654	41123
374.736	46568
374.819	130711
374.901	206625
374.983	155511
375.066	16942
375.148	7252
375.231	7549
375.313	9506
375.395	4748
375.478	2803
375.560	3239
375.643	10402
375.725	63418
375.807	156300
375.890	65510
375.972	14497
376.054	9163
376.136	12007
376.219	12657
376.301	57668
376.383	98377
376.465	25466
376.548	17766
376.630	38693
376.712	73706
376.794	20021
376.877	2927
376.959	2319
377.041	2532
377.123	1570
377.205	2188
377.287	1704
377.369	3941
377.452	6168
377.534	2769
377.616	2217
377.698	1878
377.780	951
377.862	1797
377.944	2385
378.026	2330
378.108	2259
378.190	1756
378.272	1455
378.354	1122
378.436	1812
378.518	2328
378.600	6373
378.682	12756
378.764	27611
378.846	15403
378.928	5521
379.010	5391
379.091	3754
379.173	2719
379.255	2490
379.337	5803
379.419	21122
379.501	36196
379.583	8980
379.664	4600
379.746	13251
379.828	27789
379.910	34038
379.991	22681
380.073	4429
380.155	3133
380.237	2368
380.318	1469
380.400	2799
380.482	7400
380.564	8397
380.645	7088
380.727	4887
380.809	3432
380.890	2543
380.972	1684
381.053	2379
381.135	3617
381.217	13243
381.298	22372
381.380	10395
381.461	33196
381.543	104139
381.624	78489
381.706	10240
381.787	5820
381.869	16794
381.951	101755
382.032	226813
382.113	81914
382.195	8952
382.276	9122
382.358	32562
382.439	77045
382.521	124705
382.602	153129
382.684	60029
382.765	88205
382.846	63507
382.928	59512
383.009	26069
383.090	43453
383.172	128756
383.253	134909
383.334	70899
383.416	102398
383.497	34232
383.578	15947
383.659	40385
383.741	148395
383.822	251379
383.903	88504
383.984	69051
384.066	102769
384.147	43878
384.228	8181
384.309	6979
384.390	5089
384.471	4230
384.553	4532
384.634	6904
384.715	5689
384.796	4424
384.877	10382
384.958	28138
385.039	22156
385.120	6228
385.201	4466
385.282	4953
385.363	4576
385.444	6787
385.525	26599
385.606	65742
385.687	36853
385.768	8416
385.849	29160
385.930	123878
386.011	147224
386.092	23856
386.173	7287
386.254	8787
386.335	7865
386.416	8691
386.496	17975
386.577	18676
386.658	5660
386.739	3403
386.820	3334
386.901	2870
386.981	3538
387.062	4231
387.143	12414
387.224	26311
387.304	15612
387.385	6142
387.466	1946
387.547	3693
387.627	4390
387.708	21327
387.789	59956
387.869	53470
387.950	10481
388.031	2487
388.111	883
388.192	4146
388.273	5792
388.353	5003
388.434	6435
388.514	31742
388.595	88506
388.676	66772
388.756	24009
388.837	23003
388.917	9870
388.998	4721
389.078	7275
389.159	8422
389.239	6235
389.320	6579
389.400	4724
389.480	15067
389.561	24663
389.641	10484
389.722	5742
389.802	8263
389.883	19073
389.963	36615
390.043	14083
390.124	4946
390.204	15071
390.284	31530
390.365	25873
390.445	130309
390.525	375027
390.605	255885
390.686	31174
390.766	8228
390.846	4910
390.927	3378
391.007	2926
391.087	3938
391.167	3088
391.247	2930
391.328	5848
391.408	3998
391.488	3599
391.568	3270
391.648	4487
391.728	6665
391.808	6546
391.888	8421
391.969	17644
392.049	20277
392.129	9871
392.209	20258
392.289	33259
392.369	13734
392.449	7369
392.529	9021
392.609	11789
392.689	22246
392.769	41456
392.849	29434
392.929	33064
393.009	56192
393.089	50734
393.169	117162
393.248	644539
393.328	2094716
393.408	1913119
393.488	323944
393.568	57180
393.648	29470
393.728	18559
393.807	14623
393.887	13562
393.967	12748
394.047	13824
394.127	18741
394.206	50789
394.286	316256
394.366	967843
394.446	782493
394.525	116129
394.605	20895
394.685	13688
394.764	14604
394.844	14188
394.924	12888
395.003	9403
395.083	9218
395.163	8153
395.242	7391
395.322	7732
395.402	6797
395.481	9559
395.561	13573
395.640	20874
395.720	21317
395.799	21177
395.879	25587
395.958	71655
396.038	427360
396.117	1275386
396.197	1082416
396.276	178245
396.356	36046
396.435	23295
396.515	23279
396.594	34389
396.673	125936
396.753	705147
396.832	1761112
396.912	990925
396.991	120964
397.070	28122
397.150	15592
397.229	13056
397.308	12393
397.388	12523
397.467	7704
397.546	6568
397.625	4235
397.705	6992
397.784	6049
397.863	3221
397.942	3371
398.022	3665
398.101	4590
398.180	6691
398.259	5106
398.338	3587
398.417	3613
398.497	2562
398.576	2689
398.655	1723
398.734	2445
398.813	2724
398.892	4719
398.971	5982
399.050	3577
399.129	1321
399.208	1864
399.287	1915
399.366	1554
399.445	1066
399.524	2199
399.603	1318
399.682	5067
399.761	6286
399.840	9995
399.919	5704
399.998	1023
400.077	399
400.156	14
400.235	2294
400.313	1738
400.392	3516
400.471	17501
400.550	16395
400.629	2500
400.708	1297
400.786	339
400.865	786
400.944	1940
401.023	2396
401.102	305
401.180	1170
401.259	1066
401.338	1786
401.416	2283
401.495	1027
401.574	1421
401.652	431
401.731	1831
401.810	-348
401.888	628
401.967	-193
402.046	255
402.124	1832
402.203	1357
402.281	1321
402.360	506
402.438	1562
402.517	942
402.596	1024
402.674	271
402.753	-61
402.831	1741
402.910	1846
402.988	5924
403.066	9087
403.145	5089
403.223	5533
403.302	7221
403.380	5494
403.459	3730
403.537	449
403.615	445
403.694	-934
403.772	1739
403.850	918
403.929	784
404.007	508
404.085	3278
404.164	1353
404.242	1693
404.320	7354
404.398	19173
404.477	55239
404.555	133893
404.633	76973
404.711	11883
404.789	3848
404.868	2191
404.946	613
405.024	1676
405.102	1023
405.180	307
405.258	-624
405.336	1349
405.415	462
405.493	2752
405.571	2121
405.649	316
405.727	-97
405.805	1706
405.883	1741
405.961	1281
406.039	0
406.117	852
406.195	7616
406.273	38497
406.351	81912
406.429	30422
406.507	2039
406.585	376
406.663	1724
406.740	2572
406.818	1652
406.896	542
406.974	1984
407.052	16380
407.130	54023
407.208	48614
407.285	8580
407.363	848
407.441	967
407.519	1857
407.596	5471
407.674	29358
407.752	73764
407.830	44217
407.907	5113
407.985	1749
408.063	2518
408.141	1960
408.218	1572
408.296	480
408.373	958
408.451	2439
408.529	1060
408.606	638
408.684	1180
408.762	38
408.839	-893
408.917	544
408.994	824
409.072	-65
409.149	387
409.227	1751
409.304	985
409.382	861
409.459	1335
409.537	2970
409.614	1457
409.692	1021
409.769	1337
409.846	3127
409.924	3605
410.001	286
410.079	1148
410.156	2061
410.233	4350
410.311	4278
410.388	1401
410.465	-140
410.543	-745
410.620	990
410.697	1814
410.775	2852
410.852	683
410.929	2875
411.006	2568
411.083	660
411.161	14
411.238	655
411.315	-312
411.392	366
411.469	1091
411.547	484
411.624	-522
411.701	925
411.778	3123
411.855	4620
411.932	1222
412.009	774
412.086	762
412.163	1054
412.240	211
412.317	1477
412.394	60
412.471	1705
412.548	-171
412.625	659
412.702	2420
412.779	3507
412.856	3323
412.933	1661
413.010	5202
413.087	12512
413.164	15880
413.241	14002
413.318	2572
413.395	2944
413.471	2027
413.548	1356
413.625	1481
413.702	275
413.779	424
413.855	464
413.932	-453
414.009	-741
414.086	-288
414.162	1294
414.239	5208
414.316	18565
414.393	25105
414.469	5032
414.546	-130
414.623	-27
414.699	679
414.776	755
414.853	1407
414.929	3058
415.006	620
415.082	832
415.159	1217
415.236	1250
415.312	1937
415.389	4384
415.465	2818
415.542	1117
415.618	276
415.695	2759
415.771	746
415.848	587
415.924	447
416.000	505
416.077	915
416.153	126
416.230	-987
416.306	110
416.383	-483
416.459	545
416.535	-266
416.612	487
416.688	1207
416.764	433
416.841	-447
416.917	-304
416.993	-119
417.069	1353
417.146	1832
417.222	2040
417.298	462
417.374	391
417.451	1325
417.527	1631
417.603	646
417.679	1211
417.755	772
417.831	175
417.908	-392
417.984	-267
418.060	-71
418.136	3178
418.212	2792
418.288	570
418.364	438
418.440	29
418.516	314
418.592	1695
418.668	5304
418.744	7816
418.820	3170
418.896	549
418.972	-67
419.048	1375
419.124	4247
419.200	691
419.276	1173
419.352	-226
419.428	941
419.504	1479
419.579	589
419.655	963
419.731	1434
419.807	7574
419.883	9721
419.959	5353
420.034	1940
420.110	7641
420.186	17142
420.262	8395
420.337	1047
420.413	862
420.489	357
420.565	1023
420.640	-49
420.716	449
420.792	-510
420.867	1388
420.943	556
421.019	2033
421.094	560
421.170	556
421.245	-33
421.321	1388
421.397	2369
421.472	15903
421.548	34280
421.623	16833
421.699	2744
421.774	1284
421.850	601
421.925	3647
422.001	1608
422.076	1354
422.152	1984
422.227	3436
422.302	4913
422.378	6816
422.453	14071
422.529	66453
422.604	284109
422.679	510771
422.755	195476
422.830	26874
422.905	8032
422.981	4328
423.056	2673
423.131	2428
423.207	1568
423.282	2446
423.357	5327
423.432	3026
423.508	4034
423.583	7997
423.658	3370
423.733	1739
423.808	2045
423.883	4386
423.959	3249
424.034	1574
424.109	2893
424.184	1782
424.259	-147
424.334	252
424.409	-269
424.484	647
424.559	179
424.634	332
424.709	1457
424.784	3016
424.859	2198
424.934	3801
425.009	13541
425.084	16126
425.159	2788
425.234	342
425.309	42
425.384	-805
425.459	-16
425.534	-206
425.609	-608
425.683	-21
425.758	-471
425.833	57
425.908	2157
425.983	10001
426.058	18909
426.132	4194
426.207	-675
426.282	921
426.357	-932
426.431	-577
426.506	538
426.581	-366
426.655	23
426.730	350
426.805	-539
426.879	27
426.954	132
427.029	7143
427.103	35550
427.178	60638
427.253	16731
427.327	1131
427.402	-841
427.476	349
427.551	-270
427.625	-602
427.700	-584
427.774	-511
427.849	-300
427.923	-380
427.998	-834
428.072	-348
428.147	3629
428.221	21406
428.296	41008
428.370	14184
428.444	553
428.519	-88
428.593	-286
428.667	-26
428.742	185
428.816	5376
428.890	23144
428.965	28177
429.039	4543
429.113	776
429.188	-189
429.262	19
429.336	2785
429.410	6955
429.485	2514
429.559	698
429.633	349
429.707	-140
429.781	4813
429.855	21840
429.930	27324
430.004	6551
430.078	6015
430.152	29600
430.226	86440
430.300	66361
430.374	6717
430.448	2060
430.522	2306
430.596	5738
430.670	19351
430.744	71220
430.818	72528
430.892	11004
430.966	1769
431.040	158
431.114	-945
431.188	-115
431.262	-984
431.336	-128
431.410	1009
431.484	2341
431.557	1250
431.631	448
431.705	715
431.779	12936
431.853	36137
431.927	16696
432.000	951
432.074	-984
432.148	-783
432.222	-63
432.295	-467
432.369	310
432.443	5686
432.516	37347
432.590	62721
432.664	13718
432.737	575
432.811	-880
432.885	-432
432.958	107
433.032	-726
433.106	-817
433.179	-762
433.253	-193
433.326	-320
433.400	-366
433.473	-569
433.547	-967
433.620	473
433.694	549
433.767	1067
433.841	-748
433.914	-967
433.988	-733
434.061	-39
434.134	852
434.208	-259
434.281	-30
434.355	-1396
434.428	165
434.501	-956
434.575	-442
434.648	-738
434.721	-57
434.795	537
434.868	-535
434.941	-431
435.014	-970
435.088	-886
435.161	263
435.234	785
435.307	520
435.381	-338
435.454	-117
435.527	322
435.600	628
435.673	-283
435.746	-27
435.819	-200
435.892	111
435.966	-640
436.039	-1290
436.112	-308
436.185	-460
436.258	-837
436.331	-1259
436.404	-1025
436.477	-1347
436.550	-1262
436.623	-559
436.696	-1047
436.769	-4
436.842	-149
436.915	-76
436.987	-259
437.060	326
437.133	-1514
437.206	-1350
437.279	-330
437.352	-763
437.425	28
437.498	1736
437.570	1617
437.643	10
437.716	-591
437.789	-1380
437.861	-711
437.934	-309
438.007	-593
438.080	-858
438.152	77
438.225	10804
438.298	64996
438.370	115458
438.443	27830
438.516	1509
438.588	-969
438.661	-953
438.734	-160
438.806	-949
438.879	-496
438.951	-129
439.024	-868
439.096	-638
439.169	12
439.241	-604
439.314	-1851
439.386	-305
439.459	-393
439.531	-190
439.604	-945
439.676	-97
439.749	-1710
439.821	-515
439.893	-592
439.966	-183
440.038	-890
440.110	-613
440.183	-825
440.255	-313
440.327	2659
440.400	19608
440.472	53261
440.544	23011
440.617	785
440.689	450
440.761	-465
440.833	-306
440.905	-1505
440.978	-345
441.050	-1471
441.122	-187
441.194	-1360
441.266	-550
441.338	-574
441.411	3486
441.483	13347
441.555	13183
441.627	895
441.699	-381
441.771	-1300
441.843	-895
441.915	-1010
441.987	-33
442.059	-1270
442.131	-126
442.203	-207
442.275	-83
442.347	280
442.419	2593
442.491	14139
442.563	26020
442.635	6157
442.706	1358
442.778	-35
442.850	-783
442.922	-1245
442.994	-414
443.066	259
443.137	49
443.209	-615
443.281	66
443.353	3177
443.425	23236
443.496	65437
443.568	46911
443.640	10737
443.711	658
443.783	-670
443.855	349
443.926	-1126
443.998	-362
444.070	-574
444.141	-648
444.213	688
444.285	1263
444.356	-471
444.428	-1014
444.499	-1235
444.571	-1315
444.642	-842
444.714	-674
444.785	-49
444.857	-257
444.928	-1036
445.000	-301
445.071	-345
445.143	-596
445.214	-239
445.285	1133
445.357	10339
445.428	58788
445.500	105478
445.571	43278
445.642	16165
445.714	3246
445.785	1714
445.856	103
445.928	1489
445.999	222
446.070	-1554
446.141	536
446.213	-132
446.284	-1255
446.355	-820
446.426	-975
446.497	-978
446.569	-94
446.640	300
446.711	88
446.782	-502
446.853	-218
446.924	453
446.995	-593
447.066	-451
447.138	-1067
447.209	-285
447.280	-928
447.351	-1520
447.422	-932
447.493	-1027
447.564	-328
447.635	-147
447.706	-767
447.777	-2110
447.847	-417
447.918	-1424
447.989	163
448.060	-565
448.131	-282
448.202	177
448.273	92
448.344	-446
448.414	-426
448.485	-1281
448.556	-445
448.627	-1393
448.698	2
448.768	-1354
448.839	-335
448.910	-681
448.981	-629
449.051	-723
449.122	-158
449.193	-699
449.263	-658
449.334	-758
449.405	424
449.475	1059
449.546	73
449.616	-480
449.687	260
449.758	-318
449.828	-559
449.899	-1346
449.969	-1323
450.040	-1089
450.110	-281
450.181	-133
450.251	-1449
450.322	-1901
450.392	-840
450.463	-1157
450.533	-661
450.604	-1092
450.674	-739
450.744	-254
450.815	-669
450.885	-814
450.955	-439
451.026	-1493
451.096	-1555
451.166	-1040
451.237	-919
451.307	-97
451.377	-299
451.447	-1330
451.518	-947
451.588	-738
451.658	-563
451.728	-726
451.799	-208
451.869	-528
451.939	-405
452.009	-1324
452.079	-860
452.149	-808
452.219	-888
452.289	-243
452.360	-357
452.430	-775
452.500	961
452.570	722
452.640	939
452.710	1461
452.780	2902
452.850	3124
452.920	2819
452.990	99
453.060	990
453.129	-259
453.199	-589
453.269	251
453.339	1351
453.409	2455
453.479	2965
453.549	3272
453.619	3510
453.688	189
453.758	-108
453.828	-749
453.898	-661
453.968	-759
454.037	-1014
454.087	-607
454.107	-459
454.168	-320
454.177	-325
454.247	-45
454.249	-43
454.316	-402
454.330	-426
454.386	-647
454.411	-463
454.456	-214
454.492	-159
454.525	-129
454.574	-351
454.595	-474
454.655	-798
454.665	-881
454.734	-179
454.736	-148
454.804	-49
454.817	78
454.873	377
454.898	523
454.943	745
454.979	569
455.013	490
455.060	988
455.082	1746
455.141	3190
455.152	4399
455.221	16647
455.222	17386
455.291	35326
455.303	47061
455.360	86978
455.384	118655
455.430	163185
455.465	105042
455.499	58606
455.546	23517
455.569	7287
455.627	2487
455.638	1591
455.707	1169
455.708	1183
455.777	-101
455.789	32
455.846	523
455.869	332
455.916	-61
455.950	199
455.985	391
456.031	228
456.054	166
456.112	225
456.124	205
456.193	359
456.193	339
456.262	496
456.274	509
456.332	529
456.355	649
456.401	858
456.436	306
456.470	-317
456.516	465
456.540	879
456.597	390
456.609	260
456.678	967
456.678	953
456.747	-120
456.759	-122
456.817	-70
456.840	-165
456.886	-367
456.920	271
456.955	955
457.001	263
457.024	-178
457.082	716
457.093	915
457.162	789
457.163	808
457.232	875
457.243	813
457.301	674
457.324	771
457.370	1168
457.405	1367
457.439	1412
457.485	1610
457.508	1699
457.566	1871
457.577	1857
457.646	2514
457.647	2520
457.715	2072
457.727	2605
457.784	5710
457.808	7032
457.853	6696
457.889	6262
457.922	6695
457.969	5649
457.991	5998
458.050	8706
458.060	8985
458.129	12818
458.130	12937
458.198	7950
458.211	6203
458.267	3158
458.292	2625
458.336	3343
458.372	4332
458.405	5816
458.453	8366
458.474	10099
458.533	15656
458.543	15126
458.611	15377
458.614	15187
458.680	6562
458.694	4820
458.749	2518
458.775	2085
458.818	1486
458.855	1713
458.887	1925
458.936	1008
458.955	802
459.016	1654
459.024	1717
459.093	1490
459.097	1500
459.162	1689
459.177	1823
459.230	2444
459.257	2626
459.299	2456
459.338	2251
459.368	2047
459.418	2307
459.437	2418
459.499	1836
459.505	1790
459.574	2006
459.579	2030
459.643	2013
459.659	1994
459.711	2157
459.740	2316
459.780	2439
459.820	2627
459.849	2532
459.900	1753
459.917	1727
459.981	2095
459.986	2090
460.054	2247
460.061	2290
460.123	3219
460.141	3437
460.191	4290
460.222	4979
460.260	4615
460.302	3931
460.328	3546
460.382	3163
460.397	3498
460.462	4235
460.465	4521
460.534	12168
460.543	13089
460.602	23726
460.623	28168
460.671	42782
460.703	54515
460.739	38450
460.783	13905
460.808	11647
460.864	4312
460.876	3627
460.944	3730
460.945	3719
461.013	3389
461.024	3391
461.081	3894
461.104	4079
461.150	3184
461.184	2487
461.218	2565
461.264	2524
461.286	2367
461.345	2582
461.355	2666
461.423	2347
461.425	2349
461.491	1813
461.505	1765
461.559	2836
461.585	3282
461.628	3509
461.665	3849
461.696	3847
461.745	3605
461.764	3498
461.825	2814
461.832	2836
461.901	3674
461.905	3718
461.969	2819
461.985	2638
462.037	3379
462.065	3663
462.105	3090
462.145	2475
462.173	2815
462.225	3582
462.241	3564
462.305	3810
462.310	3853
462.378	4037
462.385	4075
462.446	4000
462.465	3880
462.514	3748
462.545	3991
462.582	4057
462.625	3757
462.650	3743
462.705	3571
462.718	3472
462.785	3316
462.786	3316
462.854	3385
462.865	3317
462.922	3192
462.945	3160
462.990	3112
463.025	3240
463.058	3232
463.104	2917
463.126	3113
463.184	3865
463.194	3981
463.262	4708
463.264	4733
463.330	6259
463.344	6591
463.398	5220
463.424	4438
463.466	3688
463.504	3186
463.533	3486
463.583	3652
463.601	3747
463.663	4317
463.669	4402
463.737	5279
463.743	5366
463.805	5187
463.823	5078
463.873	5631
463.903	5925
463.940	5617
463.982	5391
464.008	4880
464.062	3797
464.076	3875
464.142	3917
464.144	3924
464.211	4270
464.221	4233
464.279	4386
464.301	4647
464.347	4545
464.381	4388
464.414	4516
464.461	4648
464.482	4677
464.540	4691
464.550	4858
464.617	5861
464.620	5888
464.685	8121
464.699	8666
464.753	10558
464.779	11324
464.820	10760
464.859	10436
464.888	9679
464.938	7929
464.956	7770
465.018	7287
465.023	7329
465.091	7646
465.098	7696
465.158	7726
465.177	7630
465.226	8018
465.257	8365
465.293	8680
465.336	8927
465.361	9739
465.416	11504
465.428	11188
465.495	9435
465.496	9455
465.563	9835
465.575	9919
465.631	9684
465.654	9569
465.698	8811
465.734	8054
465.765	8091
465.813	8225
465.833	8273
465.893	8301
465.900	8375
465.968	8833
465.972	8849
466.035	9171
466.052	9260
466.102	9302
466.131	9255
466.170	9434
466.210	9628
466.237	10024
466.290	10638
466.304	10540
466.369	10106
466.372	10128
466.439	10087
466.449	10065
466.506	12237
466.528	13043
466.573	14060
466.607	14766
466.641	16978
466.687	19935
466.708	19569
466.766	18495
466.775	18140
466.842	15122
466.845	14948
466.909	14011
466.925	13740
466.977	13471
467.004	13325
467.044	14238
467.083	15060
467.111	16543
467.163	19251
467.178	18927
467.242	17361
467.245	17331
467.312	15958
467.321	15743
467.379	14615
467.400	14159
467.446	13686
467.480	13292
467.559	13179
467.638	12413
467.717	12896
467.796	15086
467.875	15359
467.955	12302
468.034	12307
468.113	15288
468.192	16263
468.271	13741
468.350	14829
468.429	15783
468.508	15752
468.588	15668
468.667	23622
468.746	36835
468.825	17501
468.904	11966
468.983	11051
469.062	12950
469.141	12168
469.220	10094
469.299	11159
469.378	11977
469.456	16620
469.535	14149
469.614	11914
469.693	12188
469.772	13285
469.851	14003
469.930	12541
470.009	12048
470.088	13463
470.166	16380
470.245	21849
470.324	20125
470.403	13703
470.482	11845
470.560	12151
470.639	13908
470.718	15610
470.797	13471
470.875	19458
470.954	29059
471.033	16435
471.111	10109
471.190	10686
471.269	9810
471.347	10063
471.426	10508
471.505	11378
471.583	13483
471.662	11887
471.740	11975
471.819	11652
471.898	12447
471.976	10615
472.055	9568
472.133	9923
472.212	10442
472.290	9862
472.369	9735
472.447	10697
472.526	10112
472.604	10446
472.683	11595
472.761	10710
472.839	10817
472.918	9387
472.996	9603
473.075	10052
473.153	11636
473.231	10780
473.310	10198
473.388	9299
473.466	10399
473.545	14883
473.623	19858
473.701	13144
473.780	13032
473.858	18640
473.936	22365
474.014	10260
474.093	10272
474.171	11133
474.249	11474
474.327	8919
474.405	9168
474.484	9742
474.562	9859
474.640	9730
474.718	10461
474.796	10119
474.874	9823
474.952	8673
475.030	9560
475.108	9753
475.187	11553
475.265	11587
475.343	11509
475.421	11259
475.499	8629
475.577	8612
475.655	9545
475.733	11166
475.811	11350
475.889	11734
475.966	8924
476.044	8443
476.122	9533
476.200	11940
476.278	8554
476.356	7810
476.434	8217
476.512	8522
476.590	9665
476.667	7906
476.745	7119
476.823	7920
476.901	6914
476.979	7047
477.056	10446
477.134	14824
477.212	18762
477.290	8799
477.367	7586
477.445	7291
477.523	6698
477.601	5809
477.678	7268
477.756	6495
477.834	6097
477.911	7070
477.989	7083
478.066	6225
478.144	7319
478.222	8432
478.299	11071
478.377	9655
478.454	9541
478.532	7091
478.609	7824
478.687	8766
478.764	8392
478.842	10642
478.919	8845
478.997	6939
479.074	6340
479.152	6633
479.229	7179
479.307	5857
479.384	6153
479.461	6663
479.539	5270
479.616	6028
479.694	5542
479.771	5946
479.848	6137
479.926	5279
480.003	8012
480.080	6378
480.157	5931
480.235	5940
480.312	6047
480.389	6663
480.467	7021
480.544	9788
480.621	6319
480.698	5949
480.775	6880
480.853	7828
480.930	7458
481.007	6665
481.084	6526
481.161	8130
481.238	6199
481.315	6359
481.392	8047
481.470	14216
481.547	15007
481.624	4981
481.701	4390
481.778	5271
481.855	5232
481.932	6148
482.009	7109
482.086	6260
482.163	6477
482.240	9427
482.317	12162
482.393	9856
482.470	6736
482.547	5897
482.624	5777
482.701	6593
482.778	8106
482.855	4590
482.932	5060
483.009	5237
483.085	6323
483.162	7459
483.239	6866
483.316	6582
483.393	5992
483.469	6262
483.546	5655
483.623	5886
483.699	6120
483.776	7482
483.853	9037
483.930	9862
484.006	12052
484.083	19369
484.160	36563
484.236	51037
484.313	32021
484.389	25229
484.466	23973
484.543	24003
484.619	24267
484.696	25029
484.772	21951
484.849	23485
484.925	22759
485.002	22845
485.078	24709
485.155	22820
485.231	20645
485.308	20960
485.384	22204
485.461	23701
485.537	24361
485.614	22828
485.690	20548
485.766	22084
485.843	25977
485.919	35009
485.995	25656
486.072	19232
486.148	19772
486.224	19434
486.301	18976
486.377	19008
486.453	19906
486.530	25240
486.606	34966
486.682	29790
486.758	26436
486.835	26431
486.911	27924
486.987	40301
487.063	63512
487.139	65202
487.215	40361
487.292	23600
487.368	22087
487.444	21447
487.520	25287
487.596	28747
487.672	46526
487.748	90967
487.824	77359
487.900	24242
487.976	20872
488.052	21424
488.128	21402
488.204	19852
488.280	20798
488.356	22524
488.432	22108
488.508	22101
488.584	19380
488.660	19069
488.736	18979
488.812	21572
488.888	29010
488.964	46876
489.039	90929
489.115	101426
489.191	30905
489.267	18058
489.343	16609
489.418	14886
489.494	15366
489.570	14992
489.646	15449
489.722	15569
489.797	15166
489.873	20408
489.949	27668
490.024	20242
490.100	14650
490.176	16305
490.251	20566
490.327	22425
490.403	12960
490.478	13244
490.554	12453
490.629	12709
490.705	11839
490.781	13664
490.856	13343
490.932	17067
491.007	16257
491.083	13899
491.158	12898
491.234	14481
491.309	14875
491.385	15333
491.460	11946
491.536	14531
491.611	13229
491.686	18270
491.762	28398
491.837	60067
491.913	73566
491.988	124543
492.063	78293
492.139	15040
492.214	13358
492.289	11191
492.365	14305
492.440	13377
492.515	11272
492.590	12228
492.666	11085
492.741	14870
492.816	13967
492.891	15084
492.967	16122
493.042	18253
493.117	23797
493.192	51752
493.267	195480
493.342	536270
493.418	381233
493.493	22604
493.568	12086
493.643	12487
493.718	13512
493.793	17126
493.868	19181
493.943	11768
494.018	10853
494.093	8015
494.168	9441
494.243	9649
494.318	7440
494.393	8208
494.468	8485
494.543	9215
494.618	11378
494.693	7104
494.768	8671
494.842	9272
494.917	8473
494.992	10603
495.067	8917
495.142	9442
495.217	9536
495.292	8584
495.366	10660
495.441	10354
495.516	17960
495.591	47170
495.665	146373
495.740	205432
495.815	23403
495.890	8524
495.964	7227
496.039	9391
496.114	7848
496.188	10731
496.263	8426
496.338	6793
496.412	8628
496.487	9738
496.561	14193
496.636	10766
496.710	8963
496.785	9411
496.860	8757
496.934	9281
497.009	9790
497.083	8246
497.158	9126
497.232	10608
497.307	12517
497.381	11286
497.455	11063
497.530	12757
497.604	11223
497.679	14658
497.753	20822
497.827	25848
497.902	25203
497.976	26623
498.050	40697
498.125	77982
498.199	57722
498.273	48210
498.348	40313
498.422	29852
498.496	27189
498.570	17978
498.645	14491
498.719	11595
498.793	13011
498.867	14254
498.941	16587
499.016	33886
499.090	47351
499.164	11392
499.238	7711
499.312	9477
499.386	12301
499.460	8409
499.534	7055
499.609	8141
499.683	7379
499.757	7559
499.831	17879
499.905	38797
499.979	15313
500.053	11950
500.127	20393
500.201	13815
500.275	7739
500.349	7422
500.422	10373
500.496	23491
500.570	41892
500.644	33109
500.718	26871
500.792	7743
500.866	7233
500.940	5636
501.013	6315
501.087	9468
501.161	17448
501.235	10340
501.309	16444
501.382	31102
501.456	20602
501.530	9856
501.603	8736
501.677	5475
501.751	6740
501.825	9290
501.898	9419
501.972	11895
502.046	6196
502.119	8188
502.193	13592
502.266	11328
502.340	6088
502.413	8547
502.487	9580
502.561	6199
502.634	7272
502.708	9573
502.781	7068
502.855	4279
502.928	4012
503.002	4110
503.075	3646
503.149	4404
503.222	4486
503.295	3685
503.369	4894
503.442	6058
503.516	13738
503.589	17791
503.662	8362
503.736	7925
503.809	11915
503.882	10312
503.956	18382
504.029	26417
504.102	51830
504.175	36203
504.249	8531
504.322	7017
504.395	5947
504.468	4771
504.542	5151
504.615	5610
504.688	4997
504.761	4736
504.834	8142
504.907	13043
504.980	13662
505.053	6950
505.127	9809
505.200	6773
505.273	4010
505.346	3541
505.419	5340
505.492	5788
505.565	7179
505.638	8636
505.711	5614
505.784	4287
505.857	3040
505.930	5585
506.003	3116
506.076	5050
506.149	3914
506.221	2883
506.294	5920
506.367	10057
506.440	21904
506.513	9900
506.586	4968
506.659	4908
506.731	5968
506.804	8439
506.877	8006
506.950	5250
507.022	4599
507.095	4622
507.168	6444
507.241	5518
507.313	4834
507.386	8682
507.459	11000
507.531	4459
507.604	4591
507.677	4634
507.749	6891
507.822	14271
507.894	22060
507.967	16699
508.040	10049
508.112	8332
508.185	8327
508.257	9168
508.330	11024
508.402	7143
508.475	8560
508.547	7192
508.620	6440
508.692	8104
508.765	7030
508.837	5397
508.909	6376
508.982	7488
509.054	9732
509.127	5987
509.199	5881
509.271	6020
509.344	5920
509.416	5982
509.488	5172
509.560	7184
509.633	9174
509.705	9966
509.777	9280
509.849	12665
509.922	6146
509.994	6262
510.066	8110
510.138	11432
510.210	20019
510.283	13358
510.355	11664
510.427	10665
510.499	11494
510.571	10544
510.643	12181
510.715	17163
510.787	9819
510.859	10872
510.931	10983
511.003	14841
511.076	10850
511.148	8052
511.219	8896
511.291	9996
511.363	9462
511.435	8861
511.507	8542
511.579	8506
511.651	8459
511.723	7514
511.795	6771
511.867	8010
511.939	8230
512.010	8312
512.082	8724
512.154	8348
512.226	10942
512.298	19801
512.369	19299
512.441	16275
512.513	15930
512.585	11876
512.656	12076
512.728	10729
512.800	9605
512.871	9464
512.943	10206
513.015	9105
513.086	10374
513.158	11738
513.230	13764
513.301	23774
513.373	18367
513.444	10199
513.516	9476
513.588	10129
513.659	12606
513.731	13754
513.802	15438
513.874	37469
513.945	31969
514.016	9411
514.088	8959
514.159	11897
514.231	18207
514.302	16447
514.374	12875
514.445	10342
514.516	12831
514.588	9712
514.659	11028
514.730	13192
514.802	16065
514.873	13978
514.944	14019
515.016	12431
515.087	11010
515.158	12512
515.229	13577
515.301	18908
515.372	16615
515.443	10401
515.514	11527
515.585	8669
515.656	9390
515.728	10430
515.799	9940
515.870	10072
515.941	10716
516.012	12717
516.083	16866
516.154	19033
516.225	22264
516.296	17663
516.367	13585
516.438	17648
516.509	22143
516.580	45200
516.651	159674
516.722	264255
516.793	39156
516.864	24000
516.935	20301
517.006	26720
517.077	52813
517.148	154998
517.219	500225
517.289	232353
517.360	25383
517.431	13628
517.502	11382
517.573	12531
517.643	13552
517.714	15551
517.785	15111
517.856	15621
517.926	18016
517.997	21778
518.068	25778
518.138	41575
518.209	112844
518.280	498034
518.350	731720
518.421	70044
518.492	16610
518.562	14124
518.633	14507
518.703	16825
518.774	34881
518.845	64910
518.915	30765
518.986	14689
519.056	21947
519.127	39124
519.197	43212
519.268	24727
519.338	11744
519.408	14609
519.479	19387
519.549	11407
519.620	8893
519.690	7161
519.760	8524
519.831	9140
519.901	6393
519.971	6514
520.042	7450
520.112	7458
520.182	12913
520.253	9197
520.323	6773
520.393	6873
520.463	8390
520.534	5438
520.604	9013
520.674	6257
520.744	7865
520.814	11208
520.885	9250
520.955	12361
521.025	15942
521.095	5863
521.165	5606
521.235	5348
521.305	5627
521.375	6423
521.445	10554
521.515	11030
521.585	14938
521.655	8609
521.725	11537
521.795	8117
521.865	4129
521.935	7188
522.005	5413
522.075	6035
522.145	5664
522.215	5037
522.285	6749
522.355	7045
522.424	10873
522.494	9554
522.564	17400
522.634	56983
522.704	74527
522.774	9668
522.843	7834
522.913	9049
522.983	10742
523.053	7001
523.122	10063
523.192	24723
523.262	68479
523.331	19117
523.401	6178
523.471	6185
523.540	6310
523.610	3506
523.680	4490
523.749	4262
523.819	4932
523.888	3895
523.958	4388
524.027	4655
524.097	4517
524.166	5422
524.236	5731
524.305	5878
524.375	4629
524.444	3140
524.514	5954
524.583	4833
524.653	4862
524.722	4903
524.791	3420
524.861	5478
524.930	4047
524.999	6804
525.069	6653
525.138	4360
525.207	3653
525.277	5224
525.346	4552
525.415	5003
525.484	5700
525.554	4277
525.623	5526
525.692	5730
525.761	5968
525.830	7679
525.900	7937
525.969	13373
526.038	21564
526.107	63494
526.176	109024
526.245	46067
526.314	34341
526.383	75044
526.452	72998
526.522	167792
526.591	70961
526.660	33789
526.729	18489
526.797	36077
526.867	134316
526.935	337120
527.004	333642
527.073	53369
527.142	7831
527.211	6804
527.280	10691
527.349	7241
527.418	4111
527.487	5785
527.555	4465
527.624	3573
527.693	4453
527.762	5099
527.831	3417
527.899	3594
527.968	4513
528.037	3167
528.106	10323
528.174	11727
528.243	7135
528.312	17516
528.380	10321
528.449	2689
528.518	3687
528.586	1641
528.655	3475
528.723	2632
528.792	2974
528.861	2326
528.929	1289
528.998	3570
529.066	2906
529.135	2738
529.203	1864
529.272	2106
529.340	2794
529.409	3597
529.477	2278
529.545	2144
529.614	5237
529.682	1848
529.751	2102
529.819	4795
529.887	3028
529.956	2286
530.024	3159
530.092	3116
530.161	8570
530.229	8263
530.297	2435
530.365	3721
530.434	3011
530.502	1860
530.570	3234
530.638	1453
530.707	4604
530.775	2854
530.843	2708
530.911	2377
530.979	2572
531.047	1950
531.115	3384
531.183	2694
531.252	2604
531.320	1872
531.388	1620
531.456	3164
531.524	1270
531.592	3010
531.660	4786
531.728	2456
531.796	1849
531.864	2653
531.932	3712
532.000	2273
532.067	3749
532.135	4414
532.203	6136
532.271	6882
532.339	24349
532.407	38711
532.475	8740
532.542	7576
532.610	9995
532.678	25772
532.746	123358
532.814	102218
532.881	9974
532.949	4516
533.017	3618
533.084	3510
533.152	3980
533.220	3926
533.287	3241
533.355	3269
533.423	3722
533.490	2674
533.558	3246
533.625	4048
533.693	4063
533.761	4023
533.828	4051
533.896	6333
533.963	16346
534.031	14433
534.098	14022
534.166	3694
534.233	3872
534.300	4517
534.368	3678
534.435	2994
534.503	4092
534.570	4032
534.637	3498
534.705	3956
534.772	7901
534.840	19463
534.907	72678
534.974	27151
535.041	4543
535.109	3250
535.176	3193
535.243	4423
535.310	4875
535.378	3120
535.445	3527
535.512	3202
535.579	3201
535.646	2100
535.714	4607
535.781	5367
535.848	5364
535.915	5316
535.982	4597
536.049	4602
536.116	5248
536.183	4144
536.250	5179
536.317	4503
536.384	8524
536.451	14266
536.518	10148
536.585	5798
536.652	12538
536.719	17114
536.786	7767
536.853	7515
536.920	17704
536.987	23093
537.053	33585
537.120	95769
537.187	19661
537.254	3368
537.321	4058
537.388	4751
537.454	2286
537.521	2512
537.588	3200
537.654	6899
537.721	5571
537.788	6011
537.855	3742
537.921	4429
537.988	4343
538.055	5232
538.121	4904
538.188	7846
538.254	19851
538.321	26967
538.388	8016
538.454	5684
538.521	5364
538.587	4107
538.654	4710
538.720	3933
538.787	4335
538.853	4610
538.920	5630
538.986	4670
539.053	4909
539.119	5023
539.185	6203
539.252	9931
539.318	10883
539.385	7222
539.451	5826
539.517	7534
539.583	12159
539.650	35315
539.716	34339
539.782	7443
539.849	4888
539.915	5875
539.981	7097
540.047	8043
540.114	4880
540.180	6263
540.246	6818
540.312	16188
540.378	31421
540.444	19793
540.510	41361
540.576	42963
540.643	5967
540.709	4372
540.775	4432
540.841	5003
540.907	7301
540.973	10045
541.039	15203
541.105	10175
541.171	6103
541.237	4856
541.303	6753
541.369	9952
541.435	17250
541.500	23091
541.566	6961
541.632	4382
541.698	4529
541.764	5020
541.830	4578
541.896	3321
541.961	4925
542.027	4688
542.093	5652
542.159	5745
542.224	8267
542.290	15406
542.356	31113
542.421	18767
542.487	6632
542.553	5140
542.618	5332
542.684	4707
542.750	5280
542.815	9125
542.881	25474
542.947	56314
543.012	12469
543.078	4530
543.143	5218
543.209	5755
543.274	6708
543.340	9852
543.405	28019
543.471	14938
543.536	4083
543.602	4556
543.667	3547
543.732	6254
543.798	3976
543.863	4688
543.928	4520
543.994	3795
544.059	4379
544.124	4665
544.190	4160
544.255	5251
544.320	5155
544.386	6048
544.451	12044
544.516	10892
544.581	15028
544.646	48064
544.712	24988
544.777	6108
544.842	4608
544.907	4824
544.972	4537
545.037	4025
545.102	4393
545.168	4541
545.233	6346
545.298	6387
545.363	7164
545.428	11855
545.493	32791
545.558	31921
545.623	6459
545.688	4482
545.753	4584
545.818	4736
545.883	5731
545.947	4625
546.012	5254
546.077	4932
546.142	7410
546.207	7026
546.272	12246
546.337	8342
546.401	7601
546.466	6651
546.531	5381
546.596	7898
546.661	6655
546.725	6648
546.790	5387
546.855	5979
546.919	4882
546.984	6065
547.049	5760
547.113	7199
547.178	6807
547.243	8731
547.307	10349
547.372	11105
547.436	9708
547.501	10119
547.565	12673
547.630	14218
547.695	10432
547.759	10620
547.823	9409
547.888	9823
547.952	9905
548.017	11517
548.081	12690
548.146	10049
548.210	10509
548.274	10736
548.339	9826
548.403	9492
548.468	8725
548.532	8045
548.596	9402
548.660	9571
548.725	12244
548.789	11346
548.853	11081
548.917	9420
548.982	10306
549.046	9776
549.110	7605
549.174	9169
549.238	9761
549.303	10271
549.367	11665
549.431	9944
549.495	9263
549.559	9964
549.623	13116
549.687	15092
549.751	16223
549.815	13239
549.879	13441
549.943	12165
550.007	14118
550.071	14608
550.135	15429
550.199	11118
550.263	11560
550.327	11874
550.391	11420
550.455	12151
550.519	13817
550.582	16669
550.646	20255
550.710	15268
550.774	14866
550.838	14659
550.901	15592
550.965	17405
551.029	16292
551.093	20027
551.156	23527
551.220	33423
551.284	31191
551.347	19298
551.411	18345
551.475	16451
551.538	15900
551.602	14406
551.666	13854
551.729	11871
551.793	13018
551.856	14121
551.920	13133
551.983	11237
552.047	11742
552.110	11491
552.174	11611
552.237	11962
552.301	10918
552.364	10785
552.428	11461
552.491	10457
552.554	12314
552.618	11429
552.681	13980
552.745	15643
552.808	26890
552.871	20810
552.934	13696
552.998	12209
553.061	11507
553.124	12231
553.187	12868
553.251	13825
553.314	15530
553.377	18719
553.440	40597
553.503	123950
553.567	71076
553.630	13626
553.693	11599
553.756	12086
553.819	11305
553.882	10225
553.945	11031
554.008	10248
554.071	9753
554.134	10301
554.197	9061
554.260	10086
554.323	11539
554.386	10643
554.449	9581
554.512	10973
554.575	8867
554.638	9970
554.701	9543
554.764	9727
554.827	8812
554.889	8792
554.952	7869
555.015	7425
555.078	8269
555.141	9032
555.203	8849
555.266	7926
555.329	9217
555.391	8569
555.454	10588
555.517	8794
555.580	8847
555.642	8031
555.705	7994
555.768	9136
555.830	8445
555.893	6560
555.955	8252
556.018	6449
556.080	7724
556.143	6874
556.206	6516
556.268	7477
556.330	7906
556.393	7347
556.455	6765
556.518	9133
556.580	7680
556.643	6027
556.705	6975
556.767	5252
556.830	7766
556.892	11995
556.955	13832
557.017	7065
557.079	6960
557.142	7427
557.204	13494
557.266	21270
557.328	8332
557.391	4968
557.453	5550
557.515	6706
557.577	9781
557.639	7549
557.701	6130
557.764	3799
557.826	4972
557.888	7147
557.950	6987
558.012	9044
558.074	16422
558.136	49456
558.198	47345
558.260	10220
558.322	7728
558.384	8909
558.446	10611
558.508	13743
558.570	22767
558.632	42322
558.694	46093
558.756	88750
558.818	325838
558.880	283802
558.942	56785
559.003	55785
559.065	13436
559.127	11258
559.189	11797
559.251	18457
559.312	41766
559.374	144260
559.436	204671
559.498	28851
559.559	10695
559.621	11744
559.683	19844
559.744	48810
559.806	151741
559.868	70327
559.929	10692
559.991	14415
560.052	38826
560.114	58959
560.176	23358
560.237	57267
560.299	33303
560.360	4715
560.422	3996
560.483	3437
560.545	2896
560.606	3069
560.667	2720
560.729	2205
560.790	2646
560.852	2769
560.913	3293
560.974	2581
561.036	3177
561.097	2243
561.158	3467
561.220	3695
561.281	2724
561.342	4602
561.403	7221
561.465	13605
561.526	38441
561.587	17465
561.648	2694
561.709	3151
561.771	3083
561.832	2970
561.893	2899
561.954	3271
562.015	3173
562.076	3111
562.137	2521
562.198	3053
562.259	3642
562.320	3893
562.381	5626
562.442	7074
562.503	3074
562.564	2370
562.625	2929
562.686	2039
562.747	2182
562.808	1533
562.869	2777
562.930	2764
562.991	2789
563.051	2446
563.112	2510
563.173	2152
563.234	2440
563.294	2746
563.355	2991
563.416	2782
563.477	3162
563.537	2416
563.598	2723
563.659	3400
563.720	3365
563.780	4520
563.841	2809
563.901	3290
563.962	2803
564.023	2197
564.083	2258
564.144	2224
564.204	3094
564.265	766
564.325	2974
564.386	4435
564.446	2924
564.507	2641
564.567	3628
564.628	3124
564.688	1579
564.749	1514
564.809	3286
564.869	1979
564.930	2869
564.990	3228
565.050	2215
565.111	2883
565.171	2381
565.231	2485
565.292	2859
565.352	1960
565.412	2820
565.472	3241
565.532	3005
565.593	2682
565.653	2552
565.713	2547
565.773	4064
565.833	7567
565.893	6419
565.953	3226
566.013	2746
566.074	3498
566.134	4288
566.194	5792
566.254	7111
566.314	4086
566.374	3924
566.434	4146
566.494	4577
566.554	4844
566.614	4240
566.673	4323
566.733	4609
566.793	4204
566.853	4093
566.913	4854
566.973	5203
567.033	5490
567.092	3518
567.152	4447
567.212	4196
567.272	4666
567.331	4425
567.391	5383
567.451	6488
567.511	7070
567.570	6639
567.630	4998
567.690	5402
567.749	5983
567.809	6935
567.868	7860
567.928	8676
567.988	10410
568.047	14737
568.107	21910
568.166	38940
568.226	69795
568.285	70397
568.345	42593
568.404	32164
568.464	26206
568.523	23220
568.582	27038
568.642	34618
568.701	55885
568.761	107672
568.820	143115
568.879	90048
568.939	50444
568.998	34204
569.057	24938
569.116	16855
569.176	12770
569.235	10237
569.294	8683
569.353	7683
569.413	6356
569.472	5380
569.531	5026
569.590	4859
569.649	4345
569.708	4083
569.767	4803
569.827	3631
569.886	3072
569.945	3534
570.004	3685
570.063	4270
570.122	4971
570.181	3591
570.240	2814
570.299	2787
570.358	1854
570.417	2293
570.475	2944
570.534	4377
570.593	4084
570.652	3095
570.711	3613
570.770	5723
570.829	7839
570.887	6303
570.946	3583
571.005	1999
571.064	2722
571.122	2886
571.181	1125
571.240	1941
571.299	1762
571.357	3164
571.416	2259
571.475	3266
571.533	1392
571.592	1706
571.650	1135
571.709	1503
571.768	2491
571.826	2015
571.885	1779
571.943	995
572.002	1010
572.060	2231
572.119	1632
572.177	1190
572.236	1806
572.294	1340
572.352	2359
572.411	2327
572.469	538
572.528	759
572.586	2032
572.644	1547
572.703	2082
572.761	1444
572.819	1000
572.877	1227
572.936	1243
572.994	2003
573.052	1137
573.110	1796
573.169	2264
573.227	1496
573.285	1975
573.343	1376
573.401	2149
573.459	2182
573.517	2213
573.576	948
573.634	2419
573.692	1181
573.750	1472
573.808	1620
573.866	1947
573.924	1865
573.982	2013
574.040	1116
574.098	1691
574.155	1513
574.213	2177
574.271	1367
574.329	1618
574.387	785
574.445	1561
574.503	1191
574.560	381
574.618	1174
574.676	723
574.734	1531
574.792	2195
574.849	1169
574.907	619
574.965	1688
575.022	598
575.080	1145
575.138	1612
575.195	2417
575.253	2191
575.311	1913
575.368	1990
575.426	1512
575.483	1823
575.541	1248
575.598	1653
575.656	500
575.713	742
575.771	1975
575.828	1050
575.886	1935
575.943	1806
576.001	1536
576.058	839
576.115	2076
576.173	2194
576.230	2723
576.287	2901
576.345	1732
576.402	1546
576.459	1417
576.517	654
576.574	1285
576.631	1581
576.688	1419
576.746	1380
576.803	1034
576.860	1051
576.917	1519
576.974	1086
577.031	1086
577.089	1276
577.146	1249
577.203	2521
577.260	2166
577.317	2238
577.374	1998
577.431	1320
577.488	2138
577.545	683
577.602	1936
577.659	1791
577.716	3502
577.773	2538
577.830	629
577.886	1404
577.943	1399
578.000	2405
578.057	2035
578.114	1952
578.171	3121
578.227	2600
578.284	2473
578.341	2009
578.398	1019
578.454	725
578.511	2382
578.568	2133
578.625	1009
578.681	1230
578.738	398
578.794	1037
578.851	1708
578.908	931
578.964	971
579.021	1790
579.077	1970
579.134	1464
579.190	1045
579.247	1588
579.303	1767
579.360	1343
579.416	1076
579.473	547
579.529	2087
579.586	928
579.642	2181
579.698	2516
579.755	3173
579.811	2406
579.867	1648
579.924	1774
579.980	1435
580.036	2054
580.093	3554
580.149	4315
580.205	3690
580.261	2150
580.317	1217
580.374	1707
580.430	1209
580.486	2060
580.542	1041
580.598	1222
580.619	1441
580.654	1821
580.692	1031
580.710	639
580.765	1093
580.767	1107
580.823	1364
580.838	1455
580.879	1703
580.911	1686
580.935	1671
580.984	1176
580.991	1112
581.047	830
581.057	946
581.103	1464
581.130	1880
581.159	2301
581.203	1814
581.215	1695
581.270	1214
581.276	1165
581.326	655
581.349	765
581.382	913
581.422	1204
581.438	1347
581.494	1159
581.494	1162
581.550	1360
581.567	1664
581.606	2394
581.640	1479
581.661	884
581.713	1156
581.717	1186
581.773	1478
581.786	1326
581.829	770
581.859	934
581.885	1068
581.932	905
581.940	887
581.996	998
582.004	1067
582.052	1466
582.077	1064
582.107	537
582.150	1225
582.163	1439
582.219	1545
582.223	1544
582.274	1535
582.296	1362
582.330	1170
582.368	902
582.386	748
582.441	1732
582.441	1733
582.497	1395
582.514	1658
582.552	2212
582.587	2226
582.608	2231
582.659	2267
582.663	2268
582.719	1120
582.732	1231
582.774	1654
582.805	1549
582.830	1411
582.877	2090
582.885	2220
582.941	1466
582.950	1526
582.996	1680
583.023	1761
583.052	2020
583.095	2462
583.107	2535
583.162	3004
583.168	2948
583.218	2406
583.240	2314
583.273	2259
583.313	2010
583.328	1886
583.384	1677
583.385	1689
583.439	1924
583.458	1702
583.494	1352
583.531	1500
583.549	1640
583.603	2081
583.605	2090
583.660	1883
583.676	1967
583.715	2166
583.748	2086
583.770	2088
583.820	1594
583.825	1524
583.881	1387
583.893	1397
583.936	1511
583.965	1511
583.991	1624
584.038	1672
584.046	1649
584.101	1703
584.110	1719
584.156	1599
584.183	1390
584.211	1506
584.255	1945
584.266	1972
584.321	1814
584.328	1822
584.376	1835
584.400	1998
584.431	2318
584.472	2182
584.486	2041
584.541	1619
584.545	1639
584.596	2381
584.617	2384
584.651	2346
584.689	2484
584.706	2544
584.761	2924
584.762	2918
584.816	2211
584.834	2488
584.871	3066
584.906	3004
584.926	2966
584.978	3040
584.980	3043
585.035	3465
585.051	3571
585.090	4084
585.123	4507
585.145	4649
585.195	5831
585.200	6036
585.254	9587
585.267	11585
585.309	19006
585.340	19732
585.364	18952
585.412	11471
585.419	10115
585.473	8151
585.484	8021
585.528	10008
585.556	12627
585.583	15610
585.628	24668
585.637	27172
585.692	60117
585.700	59477
585.747	53526
585.772	41120
585.801	20174
585.845	8625
585.856	7466
585.910	5490
585.917	5290
585.965	5266
585.989	4881
586.019	4303
586.061	4437
586.074	4521
586.128	4748
586.133	4732
586.183	4652
586.205	4644
586.237	4448
586.277	4205
586.292	4257
586.346	4594
586.349	4618
586.401	4855
586.421	4884
586.455	4761
586.493	4722
586.509	4912
586.564	5355
586.565	5380
586.618	6034
586.637	5830
586.672	5659
586.709	6093
586.727	6190
586.781	6049
586.781	6050
586.835	5668
586.853	5884
586.889	6119
586.925	6052
586.944	6088
586.996	6259
586.998	6279
587.052	6919
587.068	7135
587.106	7479
587.140	7452
587.161	7178
587.212	7148
587.215	7183
587.269	7829
587.284	8011
587.323	8156
587.356	8218
587.377	8570
587.427	9265
587.431	9289
587.485	9746
587.499	9873
587.539	10367
587.571	11066
587.593	11642
587.643	12523
587.648	12566
587.702	13330
587.715	13524
587.755	14771
587.786	15795
587.810	16434
587.858	17334
587.864	17529
587.917	21045
587.930	21662
587.971	23624
588.001	25204
588.025	26668
588.073	30068
588.079	30575
588.133	35839
588.145	36945
588.187	41470
588.217	45342
588.241	48898
588.288	55893
588.295	57017
588.348	67468
588.360	70025
588.402	80733
588.431	88817
588.456	95986
588.503	111399
588.510	114063
588.564	139964
588.575	146655
588.617	173727
588.646	198169
588.671	223750
588.718	288745
588.725	302237
588.778	448907
588.789	492561
588.832	776199
588.861	1024532
588.886	1412957
588.932	2148471
588.939	2237218
588.993	2598961
589.004	2618590
589.047	1609017
589.075	1021295
589.100	753815
589.147	355431
589.154	340499
589.207	254829
589.218	240252
589.261	232084
589.290	234637
589.314	249062
589.361	297953
589.368	312339
589.421	471520
589.433	519599
589.475	896056
589.504	1205370
589.528	1605061
589.576	2187742
589.582	2126778
589.635	1305798
589.647	1160787
589.689	601329
589.718	250357
589.742	198852
589.790	109709
589.795	105787
589.849	73722
589.861	66992
589.902	55375
589.932	47332
589.955	43447
590.004	36175
590.009	35665
590.062	30793
590.075	29634
590.115	26999
590.146	25079
590.168	23889
590.218	21480
590.222	21312
590.275	19511
590.289	18988
590.328	18250
590.360	17597
590.381	16823
590.431	15256
590.435	15195
590.488	14290
590.503	13992
590.541	13674
590.574	13607
590.594	13204
590.645	11960
590.647	11918
590.700	10742
590.716	10449
590.753	10485
590.787	10415
590.806	10086
590.859	9052
590.859	9050
590.912	8937
590.930	8923
590.965	8819
591.001	8584
591.018	8509
591.071	8350
591.072	8343
591.124	8151
591.143	8035
591.177	8012
591.214	8113
591.230	8203
591.283	8475
591.285	8474
591.336	7773
591.356	7569
591.389	7931
591.427	8185
591.442	7910
591.495	6835
591.498	6758
591.547	6796
591.569	6807
591.600	6647
591.640	6419
591.653	6420
591.706	6359
591.711	6344
591.759	6408
591.782	6492
591.811	6706
591.853	6888
591.864	6810
591.917	6437
591.924	6371
591.969	6502
591.995	6581
592.022	6270
592.066	5713
592.075	5804
592.127	6355
592.137	6452
592.180	6041
592.208	5737
592.233	5650
592.279	5490
592.285	5505
592.338	5621
592.350	5639
592.390	5474
592.421	5350
592.443	5528
592.491	5903
592.495	5886
592.548	5600
592.562	5519
592.600	5213
592.633	4958
592.653	5044
592.704	5254
592.705	5284
592.775	5301
592.846	6461
592.916	5588
592.987	5525
593.058	5248
593.128	6187
593.199	5001
593.270	5074
593.341	3858
593.411	5359
593.482	4920
593.553	4919
593.623	4635
593.694	5352
593.764	5275
593.835	5120
593.906	3987
593.976	5717
594.047	3921
594.117	6123
594.188	4708
594.258	5491
594.329	5207
594.399	5026
594.470	4585
594.540	5756
594.611	5148
594.681	5779
594.751	5763
594.822	8266
594.892	8330
594.963	7158
595.033	5499
595.103	5457
595.174	5877
595.244	5776
595.314	6443
595.384	5415
595.455	5446
595.525	5292
595.595	4720
595.665	5570
595.736	5332
595.806	5790
595.876	5353
595.946	5618
596.016	5079
596.087	5947
596.157	5467
596.227	5396
596.297	5710
596.367	6108
596.437	6868
596.507	6885
596.577	6180
596.647	6863
596.717	5644
596.787	6933
596.857	6165
596.927	6932
596.997	6689
597.067	6741
597.137	8882
597.207	8362
597.277	6765
597.347	7354
597.417	6374
597.487	6782
597.557	6550
597.626	6338
597.696	7268
597.766	7555
597.836	7244
597.906	7687
597.975	6679
598.045	6499
598.115	6147
598.185	6509
598.254	7750
598.324	7993
598.394	8323
598.464	7840
598.533	7335
598.603	7352
598.672	6919
598.742	7095
598.812	6811
598.881	7390
598.951	6851
599.020	7311
599.090	7999
599.159	8306
599.229	7173
599.299	7387
599.368	7733
599.437	6697
599.507	6321
599.576	6683
599.646	7375
599.715	8320
599.785	6276
599.854	5584
599.924	6183
599.993	6660
600.062	7091
600.132	6751
600.201	6754
600.270	8340
600.340	8766
600.409	7973
600.478	7657
600.547	8654
600.617	8154
600.686	6029
600.755	6105
600.824	6480
600.894	6656
600.963	6414
601.032	6259
601.101	6386
601.170	6069
601.239	5727
601.308	5302
601.378	5981
601.447	5056
601.516	5368
601.585	5322
601.654	5928
601.723	5011
601.792	4395
601.861	6368
601.930	7777
601.999	5984
602.068	6144
602.137	4902
602.206	5324
602.275	5536
602.343	6342
602.412	6502
602.481	5359
602.550	3494
602.619	5060
602.688	5564
602.756	5996
602.825	5215
602.894	5092
602.963	5294
603.032	6202
603.100	5238
603.169	5968
603.238	5112
603.307	5789
603.375	5857
603.444	5616
603.513	5278
603.581	5720
603.650	5844
603.719	5814
603.787	5075
603.856	6252
603.924	6075
603.993	6535
604.061	6555
604.130	6182
604.198	6904
604.267	7956
604.335	7120
604.404	7076
604.472	7083
604.541	7529
604.609	7389
604.678	7410
604.746	7653
604.815	7361
604.883	7794
604.951	8492
605.020	7860
605.088	7773
605.156	7583
605.225	7514
605.293	8338
605.361	7940
605.429	8480
605.498	8984
605.566	8124
605.634	9119
605.702	9480
605.771	10211
605.839	9779
605.907	9336
605.975	8726
606.043	8633
606.111	8606
606.180	9207
606.248	9839
606.316	11760
606.384	9383
606.452	9547
606.520	9418
606.588	9473
606.656	8538
606.724	8780
606.792	8008
606.860	7229
606.928	6769
606.996	7066
607.064	6207
607.132	6571
607.200	7563
607.267	7619
607.335	7087
607.403	8714
607.471	7662
607.539	6952
607.607	7929
607.674	6895
607.742	6981
607.810	7250
607.878	6679
607.946	7172
608.013	6989
608.081	7060
608.149	6614
608.216	7532
608.284	8026
608.352	7839
608.419	7204
608.487	8164
608.555	7039
608.622	8086
608.690	8200
608.757	8714
608.825	8605
608.893	8583
608.960	8232
609.028	7601
609.095	7836
609.163	7401
609.230	6842
609.298	6589
609.365	6749
609.432	6959
609.500	7702
609.567	8643
609.635	9741
609.702	10781
609.769	9697
609.837	8505
609.904	7385
609.971	7274
610.039	8957
610.106	12010
610.173	20645
610.241	47787
610.308	34104
610.375	11025
610.442	8521
610.509	7666
610.577	8060
610.644	7521
610.711	7580
610.778	8531
610.845	7965
610.912	9259
610.980	10116
611.047	14062
611.114	11797
611.181	8817
611.248	8381
611.315	9710
611.382	9301
611.449	8839
611.516	9723
611.583	10033
611.650	9926
611.717	10116
611.784	9987
611.851	11000
611.918	11919
611.984	15050
612.051	21374
612.118	42782
612.185	115749
612.252	94711
612.319	17921
612.386	12609
612.452	11464
612.519	10785
612.586	10421
612.653	10425
612.719	10642
612.786	9809
612.853	10163
612.919	9048
612.986	9670
613.053	9710
613.120	9066
613.186	8429
613.253	10195
613.319	9100
613.386	9340
613.453	9409
613.519	8795
613.586	9697
613.652	11532
613.719	10983
613.785	11484
613.852	11894
613.918	13552
613.985	19926
614.051	37197
614.118	97641
614.184	129308
614.250	22932
614.317	12465
614.383	10092
614.449	10608
614.516	9705
614.582	9825
614.648	9637
614.715	8882
614.781	8732
614.847	9420
614.914	9848
614.980	9598
615.046	9917
615.112	8858
615.179	10384
615.245	10520
615.311	10746
615.377	15902
615.443	18996
615.509	13614
615.575	13801
615.642	13119
615.708	14555
615.774	15947
615.840	18708
615.906	20907
615.972	27930
616.038	45332
616.104	75919
616.170	158800
616.236	178149
616.302	34668
616.368	20592
616.434	15101
616.500	13959
616.565	14781
616.631	17306
616.697	14178
616.763	14206
616.829	18711
616.895	32814
616.961	34883
617.026	15385
617.092	10630
617.158	10371
617.224	8341
617.289	8431
617.355	7567
617.421	7315
617.487	8407
617.552	7518
617.618	6573
617.684	7147
617.749	8892
617.815	6190
617.880	6779
617.946	7609
618.012	6394
618.077	6483
618.143	6114
618.208	6735
618.274	7216
618.339	7022
618.405	5412
618.470	5684
618.536	5391
618.601	6402
618.667	5489
618.732	5057
618.798	5287
618.863	4890
618.928	4667
618.994	5721
619.059	4899
619.124	6468
619.190	5079
619.255	5059
619.320	4845
619.386	4349
619.451	4449
619.516	4704
619.581	5046
619.647	4737
619.712	4410
619.777	5406
619.842	4230
619.907	4704
619.972	4536
620.038	4882
620.103	4284
620.168	4622
620.233	4436
620.298	4475
620.363	4107
620.428	5198
620.493	4652
620.558	4439
620.623	4007
620.688	5428
620.753	4290
620.818	5052
620.883	4241
620.948	5351
621.013	4766
621.078	5230
621.143	3821
621.207	6136
621.272	4860
621.337	4710
621.402	4271
621.467	5164
621.532	4199
621.596	4772
621.661	4219
621.726	4577
621.791	4318
621.855	4500
621.920	4824
621.985	4666
622.049	5872
622.114	4864
622.179	4432
622.243	5399
622.308	4134
622.373	6335
622.437	4943
622.502	4701
622.566	4639
622.631	3644
622.695	5247
622.760	4797
622.824	5182
622.889	5470
622.953	5120
623.018	6645
623.082	6610
623.147	5622
623.211	4757
623.276	4923
623.340	4030
623.404	4764
623.469	4693
623.533	5222
623.597	3689
623.662	3835
623.726	4507
623.790	4321
623.854	3383
623.919	4519
623.983	4811
624.047	4065
624.111	4215
624.176	5082
624.240	4545
624.304	4371
624.368	4542
624.432	5555
624.496	4547
624.560	4994
624.625	5159
624.689	5573
624.753	5239
624.817	4893
624.881	3789
624.945	4706
625.009	3972
625.073	4288
625.137	4540
625.201	4906
625.265	4893
625.329	4334
625.393	4423
625.456	5734
625.520	4219
625.584	5417
625.648	4077
625.712	5116
625.776	5327
625.839	6136
625.903	3823
625.967	3566
626.031	5275
626.095	5232
626.158	4476
626.222	3558
626.286	2479
626.349	2831
626.413	2176
626.477	3755
626.540	2647
626.604	2766
626.668	2768
626.731	3092
626.795	1890
626.858	3159
626.922	2252
626.986	3084
627.049	1518
627.113	2685
627.176	2869
627.240	2189
627.303	2260
627.366	2005
627.430	2668
627.493	2861
627.557	1809
627.620	3051
627.684	2508
627.747	2755
627.810	1919
627.874	2470
627.937	951
628.000	3752
628.064	1984
628.127	1923
628.190	2191
628.253	2159
628.317	2045
628.380	2662
628.443	1624
628.506	1587
628.569	1708
628.632	1607
628.696	1614
628.759	1652
628.822	960
628.885	887
628.948	1353
629.011	1873
629.074	1212
629.137	1802
629.200	1069
629.263	1956
629.326	393
629.389	1655
629.452	893
629.515	2092
629.578	936
629.641	1673
629.704	439
629.767	1067
629.830	1650
629.892	1700
629.955	75
630.018	2967
630.081	1576
630.144	2194
630.207	874
630.269	1619
630.332	864
630.395	1443
630.458	1392
630.520	809
630.583	927
630.646	852
630.708	728
630.771	460
630.834	1658
630.896	-11
630.959	810
631.021	836
631.084	594
631.146	1853
631.209	296
631.272	1275
631.334	1781
631.397	1195
631.459	595
631.522	1929
631.584	874
631.646	1673
631.709	1733
631.771	1173
631.834	1590
631.896	913
631.958	797
632.021	1716
632.083	-26
632.145	733
632.208	737
632.270	1561
632.332	-51
632.395	516
632.457	1692
632.519	731
632.581	2183
632.643	939
632.706	447
632.768	573
632.830	921
632.892	548
632.954	1226
633.016	1414
633.078	1201
633.141	1171
633.203	596
633.265	698
633.327	1387
633.389	274
633.451	728
633.513	1948
633.575	1068
633.637	1393
633.698	605
633.760	1223
633.822	1150
633.884	1230
633.946	1022
634.008	1791
634.070	1649
634.132	3376
634.193	2193
634.255	2365
634.317	1810
634.379	3069
634.441	2554
634.502	4569
634.564	7129
634.626	13341
634.687	21351
634.749	10272
634.811	3067
634.873	2385
634.934	2175
634.996	2391
635.057	1054
635.119	639
635.181	870
635.242	1235
635.304	898
635.365	2187
635.427	992
635.488	1738
635.550	1017
635.611	1228
635.673	-1125
635.734	1842
635.796	1292
635.857	1239
635.918	829
635.980	1823
636.041	945
636.102	1981
636.164	2027
636.225	3248
636.286	622
636.348	2274
636.409	1190
636.470	1468
636.531	1374
636.593	503
636.654	1346
636.715	1567
636.776	456
636.838	1490
636.899	2727
636.960	1832
637.021	3790
637.082	9595
637.143	8051
637.204	1802
637.265	116
637.326	1277
637.387	1373
637.448	748
637.509	1123
637.570	1501
637.631	902
637.692	411
637.753	-93
637.814	250
637.875	605
637.936	2035
637.997	435
638.058	525
638.119	536
638.179	970
638.240	129
638.301	876
638.362	-239
638.423	458
638.483	1216
638.544	510
638.605	78
638.666	104
638.726	748
638.787	1162
638.848	271
638.908	1018
638.969	655
639.030	400
639.090	-273
639.151	452
639.211	511
639.272	870
639.332	1936
639.393	1424
639.453	766
639.514	967
639.574	527
639.635	956
639.695	782
639.756	-283
639.816	817
639.877	1111
639.937	1537
639.997	2648
640.058	43
640.118	524
640.178	140
640.239	-136
640.299	166
640.359	731
640.420	758
640.480	1701
640.540	312
640.600	1303
640.661	597
640.721	169
640.781	1939
640.841	47
640.901	842
640.961	962
641.021	184
641.082	952
641.142	1030
641.202	2325
641.262	-97
641.322	905
641.382	-923
641.442	1025
641.502	-73
641.562	851
641.622	913
641.682	767
641.742	-55
641.802	967
641.861	814
641.921	1107
641.981	1939
642.041	903
642.101	1121
642.161	510
642.221	868
642.280	733
642.340	248
642.400	72
642.460	635
642.519	631
642.579	-90
642.639	1119
642.698	-2181
642.758	2648
642.818	-43
642.877	-154
642.937	387
642.997	622
643.056	1091
643.116	-60
643.175	1332
643.235	822
643.294	871
643.354	989
643.414	1129
643.473	2755
643.532	2204
643.592	3886
643.651	6013
643.711	11590
643.770	19609
643.830	44243
643.889	129913
643.948	53484
644.008	4929
644.067	2804
644.126	1145
644.186	1653
644.245	2382
644.304	399
644.363	2536
644.423	1153
644.482	925
644.541	1063
644.600	-204
644.659	1593
644.719	1040
644.778	1782
644.837	2728
644.896	6969
644.955	19541
645.014	11120
645.073	2560
645.132	858
645.191	830
645.250	487
645.309	1619
645.368	1187
645.427	2784
645.486	2526
645.545	5315
645.604	2548
645.663	2394
645.722	2255
645.781	2751
645.840	2727
645.898	2320
645.957	4730
646.016	5544
646.075	10310
646.134	17002
646.192	40243
646.251	92284
646.310	21018
646.369	2548
646.427	2189
646.486	217
646.545	1215
646.603	1804
646.662	563
646.721	670
646.779	241
646.838	-21
646.896	1248
646.955	1669
647.014	2908
647.072	2442
647.131	10381
647.189	8304
647.248	655
647.306	44
647.365	616
647.423	-43
647.481	2347
647.540	-907
647.598	604
647.657	248
647.715	1213
647.773	478
647.832	1851
647.890	-318
647.948	926
648.007	1704
648.065	545
648.123	1665
648.181	3432
648.240	3237
648.298	3885
648.356	3439
648.414	4288
648.472	3773
648.531	4179
648.589	3548
648.647	3458
648.705	2885
648.763	3129
648.821	3158
648.879	3249
648.937	2976
648.995	3598
649.053	2893
649.111	3849
649.169	6522
649.227	8642
649.285	12116
649.343	36895
649.401	34278
649.459	10010
649.516	10759
649.574	13146
649.632	32434
649.690	63883
649.748	16245
649.806	4174
649.863	8043
649.921	9177
649.979	8041
650.037	2279
650.094	-323
650.152	1578
650.210	152
650.268	1646
650.325	-41
650.383	735
650.440	-297
650.498	717
650.556	482
650.613	875
650.671	659
650.728	-134
650.786	129
650.843	-366
650.901	-1185
650.958	-244
651.016	248
651.073	512
651.131	-59
651.188	-800
651.246	4
651.303	-750
651.360	-95
651.418	-471
651.475	162
651.532	-759
651.590	90
651.647	-23
651.704	-466
651.762	-618
651.819	-76
651.876	-164
651.933	83
651.990	8
652.048	-1037
652.105	-1015
652.162	128
652.219	175
652.276	-341
652.333	435
652.390	-1208
652.448	64
652.505	-623
652.562	117
652.619	996
652.676	1251
652.733	2863
652.790	800
652.847	-652
652.904	277
652.961	-1148
653.017	-492
653.074	742
653.131	-32
653.188	-742
653.245	330
653.302	-484
653.359	56
653.415	-15
653.472	72
653.529	133
653.586	-63
653.642	-42
653.699	1047
653.756	-1407
653.813	367
653.869	629
653.926	4
653.983	-283
654.039	738
654.096	-666
654.152	1910
654.209	-985
654.266	220
654.322	-260
654.379	852
654.435	1075
654.492	228
654.548	-277
654.605	1490
654.661	1878
654.717	1044
654.774	1644
654.830	1196
654.887	757
654.943	1456
655.000	2097
655.056	1767
655.112	2311
655.168	2101
655.225	2431
655.281	3471
655.337	3039
655.394	4219
655.450	3954
655.506	5598
655.562	5487
655.618	7977
655.675	6502
655.731	9384
655.787	9250
655.843	12685
655.899	14025
655.955	17957
656.011	21635
656.067	25476
656.123	31260
656.179	35994
656.235	40346
656.291	40240
656.347	35676
656.403	29538
656.459	23349
656.515	20514
656.571	15915
656.627	13748
656.683	11160
656.739	10793
656.795	7477
656.850	7813
656.906	5993
656.962	6317
657.018	3900
657.074	3405
657.129	3672
657.185	3689
657.241	3161
657.297	3967
657.352	2430
657.408	1415
657.464	2059
657.519	1138
657.575	481
657.630	1304
657.686	1570
657.742	562
657.797	622
657.853	325
657.908	721
657.964	94
658.019	110
658.075	-63
658.130	1085
658.186	-784
658.241	28
658.297	-466
658.352	-432
658.407	145
658.463	-133
658.518	113
658.573	18
658.629	-626
658.684	-885
658.739	488
658.795	-1001
658.850	45
658.905	-493
658.960	65
659.016	-611
659.071	-1037
659.126	-322
659.181	-1092
659.236	440
659.291	822
659.346	-510
659.401	14
659.457	364
659.512	353
659.567	929
659.622	-855
659.677	-952
659.732	-489
659.787	-672
659.842	-351
659.897	-599
659.952	316
660.007	-404
660.061	-506
660.116	-1692
660.171	-422
660.226	-777
660.281	298
660.336	-1990
660.391	-557
660.445	-1024
660.500	92
660.555	-843
660.610	-1566
660.664	-863
660.719	-1325
660.774	-1328
660.828	99
660.883	-608
660.938	-1012
660.992	-1730
661.047	-129
661.101	-1193
661.156	-1620
661.211	-1182
661.265	-1439
661.320	-1521
661.374	-812
661.429	-878
661.483	-240
661.538	-1821
661.592	-1152
661.647	-757
661.701	-800
661.755	-809
661.810	-64
661.864	-1656
661.919	-572
661.973	-825
662.027	-1398
662.081	-1774
662.136	-684
662.190	-1108
662.244	-7
662.299	-944
662.353	342
662.407	-692
662.461	-934
662.515	-950
662.569	-1906
662.624	-434
662.678	-1637
662.732	-1156
662.786	-1294
662.840	-658
662.894	-741
662.948	-924
663.002	-413
663.056	-1041
663.110	-1261
663.164	-628
663.218	-1596
663.272	-445
663.326	-1111
663.380	-531
663.434	-539
663.488	-1767
663.542	-60
663.595	-618
663.649	-1572
663.703	-937
663.757	-870
663.811	-1725
663.864	-339
663.918	-49
663.972	-808
664.026	-536
664.079	-1081
664.133	-607
664.187	77
664.240	-1217
664.294	299
664.348	-1306
664.401	-777
664.455	-643
664.508	-1013
664.562	46
664.615	-86
664.669	-207
664.722	413
664.776	196
664.829	-383
664.883	-482
664.936	-1406
664.990	-914
665.043	-668
665.097	-1412
665.150	417
665.203	-1192
665.257	-376
665.310	-918
665.363	-99
665.417	-487
665.470	-198
665.523	-370
665.576	-614
665.630	-439
665.683	149
665.736	-660
665.789	-685
665.842	-1083
665.895	-525
665.949	-523
666.002	-672
666.055	-472
666.108	-426
666.161	-1580
666.214	-1032
666.267	-1191
666.320	-643
666.373	-799
666.426	-430
666.479	-154
666.532	-739
666.585	-1604
666.638	-820
666.691	-1896
666.744	445
666.796	-1662
666.849	-1155
666.902	-1111
666.955	-616
667.008	-1373
667.060	-461
667.113	-1355
667.166	-543
667.219	-1300
667.271	-1447
667.324	-401
667.377	-1604
667.430	-470
667.482	-945
667.535	-440
667.587	-197
667.640	-802
667.693	-656
667.745	-811
667.798	516
667.850	-912
667.903	-1333
667.955	-2129
668.008	-945
668.060	-209
668.113	-1348
668.165	-999
668.218	-974
668.270	-1016
668.322	-1486
668.375	-842
668.427	-466
668.479	-1277
668.532	-682
668.584	-1424
668.636	-866
668.689	-1301
668.741	-1773
668.793	-1350
668.845	-1242
668.898	-719
668.950	-978
669.002	-995
669.054	-1258
669.106	-1170
669.158	-319
669.211	-1325
669.263	-1603
669.315	-371
669.367	-523
669.419	-1713
669.471	-569
669.523	-277
669.575	214
669.627	1154
669.679	-1212
669.731	-649
669.783	45
669.835	474
669.886	123
669.938	-715
669.990	-1069
670.042	-1269
670.094	-638
670.146	-482
670.197	-405
670.249	-335
670.301	-238
670.353	-196
670.404	1087
670.456	277
670.508	1874
670.560	2847
670.611	4834
670.663	7735
670.715	17625
670.766	45996
670.818	31609
670.869	3578
670.921	597
670.972	-385
671.024	-246
671.075	-409
671.127	-109
671.178	-695
671.230	-433
671.281	-532
671.333	-640
671.384	-810
671.436	-574
671.487	-536
671.538	502
671.590	102
671.641	1020
671.692	1527
671.744	5657
671.795	6334
671.846	866
671.897	-493
671.949	-608
672.000	-726
672.051	-539
672.102	-499
672.153	-388
672.204	-707
672.256	-244
672.307	-984
672.358	-610
672.409	-874
672.460	179
672.511	-440
672.562	-526
672.613	-557
672.664	588
672.715	-1249
672.766	-592
672.817	-1242
672.868	-209
672.919	-599
672.970	-99
673.021	-595
673.071	-886
673.122	-443
673.173	-252
673.224	-656
673.275	-950
673.326	-693
673.376	169
673.427	-1979
673.478	-1541
673.528	233
673.579	-999
673.630	-943
673.680	-376
673.731	-1507
673.782	-1488
673.832	-1284
673.883	-419
673.934	-1413
673.984	-536
674.035	-1450
674.085	-919
674.136	-1337
674.186	-1119
674.237	-1201
674.287	-1369
674.338	-467
674.388	-1151
674.438	-1914
674.489	-1331
674.539	-1400
674.589	-1156
674.640	-1281
674.690	-1160
674.740	-1701
674.791	-1545
674.841	-909
674.891	-659
674.942	-1393
674.992	-1038
675.042	-992
675.092	-1230
675.142	-1290
675.193	-918
675.243	-1578
675.293	-951
675.343	-1827
675.393	-1042
675.443	-1553
675.493	-1118
675.543	-2458
675.593	-798
675.643	-430
675.693	-646
675.743	-1835
675.793	-878
675.843	-1982
675.893	-1132
675.943	-1592
675.993	-734
676.043	-1349
676.093	-947
676.142	-2022
676.192	-1681
676.242	-1573
676.292	-1094
676.341	-1649
676.391	-1651
676.441	-1564
676.491	-1430
676.540	-1745
676.590	-1229
676.640	-1669
676.689	-1227
676.739	-2035
676.789	-1340
676.838	-1092
676.888	-1346
676.937	-1723
676.987	-1461
677.037	-1759
677.086	-1328
677.136	-1282
677.185	-991
677.235	-1691
677.284	-1606
677.333	-1769
677.383	-1914
677.432	-1527
677.482	-1210
677.531	-1431
677.580	-1327
677.630	-2081
677.679	-1121
677.728	-1168
677.778	-1136
677.827	-2293
677.876	-753
677.925	-2106
677.975	-1463
678.024	-1218
678.073	-1771
678.122	-1746
678.171	-1185
678.220	-1616
678.269	-1086
678.319	-1588
678.368	-1190
678.417	-1031
678.466	-1401
678.515	-1388
678.564	-1117
678.613	-1960
678.662	-1174
678.711	-1620
678.760	-862
678.809	-1764
678.857	-1617
678.906	-2199
678.955	-1697
679.004	-873
679.053	-1304
679.102	-2200
679.151	-1089
679.199	-1812
679.248	-639
679.297	-1098
679.346	-1858
679.394	-2182
679.443	-1678
679.492	-2124
679.540	-1111
679.589	-1279
679.638	-1180
679.686	-1464
679.735	-848
679.784	-1422
679.832	-1468
679.881	-2369
679.929	-545
679.978	-1710
680.026	-981
680.075	-2281
680.123	-1759
680.172	-1870
680.220	-1742
680.268	-1481
680.317	-1101
680.365	-1942
680.414	-2206
680.462	-1734
680.510	-920
680.559	-1541
680.607	-1613
680.655	-1624
680.703	-1470
680.752	-1628
680.800	-1165
680.848	-2259
680.896	-1548
680.945	-2210
680.993	-1841
681.041	-2139
681.089	-1264
681.137	-1633
681.185	-1107
681.233	-1720
681.258	-2004
681.281	-2279
681.329	-1099
681.377	-1268
681.380	-1288
681.425	-1740
681.473	-1196
681.502	-1594
681.521	-1884
681.569	-1740
681.617	-2193
681.624	-2109
681.665	-1591
681.713	-1873
681.745	-1683
681.761	-1606
681.809	-2048
681.857	-1052
681.867	-1220
681.904	-1817
681.952	-1019
681.989	-1551
682.000	-1716
682.048	-1263
682.096	-1111
682.111	-1288
682.143	-1688
682.191	-1694
682.233	-1155
682.239	-1077
682.286	-1309
682.334	-1265
682.354	-973
682.382	-601
682.430	-1153
682.476	-2496
682.477	-2530
682.525	-1159
682.572	-2230
682.598	-1961
682.620	-1721
682.667	-1066
682.715	-1163
682.720	-1148
682.763	-1093
682.810	-1066
682.841	-1278
682.857	-1383
682.905	-1576
682.952	-631
682.963	-663
683.000	-837
683.047	-1523
683.085	-746
683.095	-533
683.142	-1163
683.190	-857
683.206	-1048
683.237	-1393
683.284	-1125
683.328	-1358
683.332	-1385
683.379	-689
683.426	-704
683.449	-888
683.473	-1057
683.521	-990
683.568	-906
683.571	-938
683.615	-1485
683.662	-558
683.693	-1163
683.709	-1481
683.757	-1409
683.804	-289
683.814	-448
683.851	-1050
683.898	-1215
683.936	-923
683.945	-853
683.992	-985
684.039	-1338
684.057	-1433
684.086	-1538
684.133	-781
684.179	-678
684.180	-681
684.227	-451
684.274	-760
684.300	-640
684.321	-530
684.368	-908
684.415	-311
684.422	-350
684.462	-607
684.509	-741
684.543	-1045
684.556	-1171
684.603	-1050
684.649	-287
684.665	-496
684.696	-868
684.743	-1186
684.786	-625
684.790	-589
684.837	-1220
684.883	-241
684.908	-706
684.930	-1114
684.977	-856
685.023	-1186
685.029	-1138
685.070	-892
685.117	-622
685.150	-874
685.164	-934
685.210	-1366
685.257	-507
685.272	-389
685.303	-239
685.350	-934
685.393	-744
685.396	-724
685.443	-708
685.490	-398
685.514	-285
685.536	-186
685.583	-1180
685.629	-249
685.636	-349
685.675	-1032
685.722	-866
685.757	-879
685.768	-870
685.815	-7
685.861	-830
685.878	-673
685.908	-423
685.954	-1068
686.000	-644
686.000	-639
686.047	-1109
686.093	-786
686.121	-955
686.139	-1038
686.185	-633
686.232	-917
686.242	-789
686.278	-336
686.324	-916
686.363	-492
686.370	-435
686.416	-503
686.463	-330
686.484	-621
686.509	-889
686.555	-536
686.601	-1175
686.606	-1072
686.647	-135
686.693	-717
686.727	-510
686.739	-455
686.785	-525
686.831	-5
686.848	73
686.877	149
686.923	-255
686.969	-714
686.969	-716
687.015	-483
687.061	-981
687.090	-699
687.107	-545
687.153	-282
687.199	82
687.211	-68
687.245	-436
687.291	-393
687.332	-241
687.336	-242
687.382	-56
687.428	-395
687.453	-585
687.474	-676
687.520	-647
687.565	-270
687.574	-346
687.611	-638
687.657	388
687.695	-135
687.702	-222
687.748	189
687.794	-321
687.816	73
687.839	433
687.885	206
687.931	-315
687.937	-290
687.976	-189
688.022	-199
688.058	-163
688.067	-139
688.113	-204
688.158	-271
688.179	-193
688.204	-88
688.249	-84
688.295	-121
688.300	-123
688.340	-211
688.386	422
688.421	-169
688.431	-337
688.477	-100
688.522	-317
688.542	-155
688.567	182
688.613	-5
688.658	75
688.663	47
688.703	-311
688.749	142
688.784	315
688.794	347
688.839	243
688.884	-12
688.905	64
688.930	173
688.975	-369
689.020	-424
689.026	-440
689.065	-365
689.110	295
689.146	-69
689.155	-209
689.201	-61
689.246	15
689.267	-122
689.291	-176
689.336	-13
689.381	-98
689.388	-77
689.426	104
689.471	318
689.509	173
689.516	144
689.561	-125
689.606	412
689.630	404
689.651	314
689.696	214
689.741	374
689.750	326
689.785	195
689.830	-63
689.871	-556
689.875	-587
689.920	151
689.965	-167
689.992	-12
690.010	25
690.054	-272
690.099	-6
690.112	-37
690.144	-47
690.189	30
690.233	-202
690.233	-199
690.278	45
690.323	55
690.354	527
690.367	727
690.412	327
690.457	651
690.474	603
690.501	495
690.546	418
690.590	436
690.595	485
690.635	763
690.680	521
690.716	446
690.724	467
690.769	385
690.813	508
690.836	452
690.857	578
690.902	739
690.946	1093
690.957	1230
690.991	1724
691.035	2091
691.077	3169
691.080	3210
691.124	2919
691.168	2684
691.198	2384
691.213	2086
691.257	1765
691.301	812
691.318	674
691.346	806
691.390	522
691.434	969
691.439	958
691.478	776
691.522	396
691.559	439
691.567	514
691.611	931
691.655	993
691.680	1181
691.699	1160
691.743	1313
691.787	1048
691.800	916
691.831	784
691.875	867
691.919	844
691.921	850
691.964	942
692.008	610
692.041	430
692.052	481
692.096	629
692.139	1191
692.162	1112
692.183	832
692.227	1177
692.271	722
692.282	678
692.315	793
692.359	553
692.402	892
692.403	901
692.447	1168
692.490	1443
692.523	1254
692.534	1077
692.578	646
692.622	347
692.643	235
692.666	292
692.709	368
692.753	365
692.763	346
692.797	459
692.840	670
692.884	1029
692.884	1037
692.928	1173
692.971	1175
693.004	1305
693.015	1330
693.059	1372
693.102	1368
693.124	1459
693.146	1488
693.189	1218
693.233	1014
693.245	984
693.276	1023
693.320	1168
693.363	1205
693.365	1202
693.407	1227
693.450	979
693.485	1021
693.493	1108
693.537	1514
693.580	1624
693.605	1915
693.624	2130
693.667	2386
693.710	2650
693.725	2738
693.753	3646
693.797	5380
693.840	7113
693.845	7270
693.883	6928
693.926	5973
693.966	5618
693.970	5516
694.013	4039
694.056	2961
694.086	2002
694.099	1848
694.142	1340
694.185	1255
694.206	1087
694.229	1201
694.272	1262
694.315	1603
694.326	1601
694.358	1513
694.401	1360
694.444	1444
694.446	1449
694.487	1915
694.530	1908
694.566	2304
694.573	2363
694.616	2367
694.659	2604
694.686	2656
694.702	2648
694.745	2616
694.787	2193
694.806	2234
694.830	2175
694.873	1698
694.916	1684
694.926	1582
694.959	1610
695.002	1629
695.044	1682
695.046	1681
695.087	1698
695.130	1759
695.166	1661
695.172	1703
695.215	1767
695.258	2151
695.286	2272
695.301	2224
695.343	2146
695.386	2154
695.406	2072
695.428	2048
695.471	1875
695.514	1972
695.526	1948
695.556	1857
695.599	1792
695.641	1524
695.646	1518
695.684	1584
695.726	1373
695.766	1289
695.769	1307
695.811	1425
695.854	1638
695.886	1688
695.896	1692
695.938	1846
695.981	1646
696.005	1750
696.023	1834
696.065	1827
696.108	1874
696.125	1844
696.150	1709
696.192	1605
696.235	1426
696.245	1370
696.277	1452
696.319	1496
696.361	1589
696.365	1595
696.404	1732
696.446	1737
696.485	1906
696.488	1918
696.530	1852
696.572	1669
696.604	1528
696.614	1558
696.656	1837
696.698	2048
696.724	2077
696.740	2012
696.783	1922
696.825	1911
696.844	1863
696.867	1803
696.909	1598
696.951	1347
696.964	1344
696.992	1586
697.034	1781
697.076	1875
697.083	1896
697.118	1993
697.160	2021
697.202	2175
697.203	2165
697.244	2062
697.286	2091
697.323	1913
697.327	1948
697.369	2333
697.411	2636
697.442	2851
697.453	2789
697.494	2521
697.536	2264
697.562	2038
697.578	2037
697.620	2107
697.661	2083
697.682	2117
697.703	2244
697.744	2374
697.786	2626
697.801	2657
697.828	2703
697.869	2840
697.911	2873
697.921	2912
697.952	3071
697.994	3066
698.035	3225
698.040	3219
698.077	3158
698.118	3132
698.160	3089
698.160	3076
698.201	3051
698.243	2957
698.279	2909
698.284	2920
698.325	2878
698.367	2899
698.399	2814
698.408	2821
698.449	2858
698.491	2889
698.518	2908
698.532	2890
698.573	2791
698.614	2677
698.638	2604
698.656	2581
698.697	2518
698.738	2429
698.757	2379
698.779	2457
698.820	2585
698.862	2728
698.877	2768
698.903	2913
698.944	3130
698.985	3341
698.996	3392
699.026	3200
699.067	2913
699.116	2565
699.235	2437
699.354	2788
699.474	2377
699.593	3245
699.713	3090
699.832	2520
699.951	4098
700.070	3807
700.190	4097
700.309	4398
700.428	3841
700.547	4596
700.667	4016
700.786	4072
700.905	3567
701.024	3577
701.143	1746
701.262	2983
701.381	2776
701.500	3754
701.619	1943
701.738	3017
701.857	3380
701.976	2263
702.095	3154
702.214	1772
702.333	2558
702.452	2465
702.571	2139
702.690	2491
702.809	2371
702.928	2404
703.047	2534
703.165	2125
703.284	1822
703.403	1827
703.522	2653
703.640	3109
703.759	2914
703.878	2652
703.997	1653
704.115	2636
704.234	2878
704.353	2363
704.471	2600
704.590	2034
704.708	1993
704.827	2256
704.946	2197
705.064	1423
705.183	2443
705.301	1945
705.420	1922
705.538	2233
705.656	2671
705.775	3116
705.893	5238
706.012	9409
706.130	2356
706.249	2321
706.367	1701
706.485	2037
706.604	1856
706.722	2556
706.840	2342
706.958	2842
707.077	1740
707.195	1580
707.313	1856
707.431	2070
707.549	1249
707.668	1498
707.786	2507
707.904	1454
708.022	2045
708.140	1402
708.258	1916
708.376	1512
708.494	651
708.612	1870
708.730	1876
708.848	1739
708.966	1584
709.084	1985
709.202	1623
709.320	1505
709.438	1241
709.556	1872
709.674	1900
709.791	2112
709.909	1408
710.027	1398
710.145	2121
710.263	1808
710.380	1591
710.498	1941
710.616	1795
710.733	1623
710.851	718
710.969	1109
711.086	987
711.204	2202
711.322	1652
711.439	1744
711.557	1806
711.674	1193
711.792	756
711.909	1781
712.027	2082
712.144	1753
712.262	1253
712.379	827
712.497	876
712.614	1312
712.732	1765
712.849	1614
712.966	1773
713.084	1988
713.201	1679
713.318	1508
713.436	1361
713.553	1080
713.670	1526
713.787	1226
713.905	1833
714.022	1705
714.139	876
714.256	1877
714.373	1740
714.490	3725
714.608	6637
714.725	30547
714.842	54648
714.959	5323
715.076	1043
715.193	1945
715.310	1608
715.427	2514
715.544	2849
715.661	7421
715.778	4305
715.895	2443
716.011	1359
716.128	2465
716.245	1742
716.362	2503
716.479	2215
716.596	2473
716.713	2642
716.829	3452
716.946	1893
717.063	1837
717.180	1050
717.296	1485
717.413	1257
717.530	1448
717.646	1618
717.763	1353
717.880	1351
717.996	1847
718.113	830
718.229	1003
718.346	1217
718.462	1672
718.579	1872
718.695	2482
718.812	2005
718.928	1798
719.045	1312
719.161	1055
719.277	1485
719.394	2301
719.510	1356
719.626	1403
719.743	1644
719.859	2614
719.975	2282
720.092	7288
720.208	23485
720.324	5304
720.440	1651
720.557	1679
720.673	1697
720.789	2248
720.905	2190
721.021	1678
721.137	573
721.253	1891
721.369	787
721.486	882
721.602	1466
721.718	1234
721.834	843
721.950	643
722.066	421
722.181	874
722.297	1495
722.413	1152
722.529	1333
722.645	2364
722.761	977
722.877	1030
722.993	307
723.108	868
723.224	1435
723.340	1317
723.456	807
723.571	1903
723.687	1519
723.803	1531
723.918	1127
724.034	823
724.150	875
724.265	1243
724.381	1253
724.497	1621
724.612	1003
724.728	1103
724.843	1014
724.959	1461
725.074	2143
725.190	1479
725.305	1523
725.421	1455
725.536	1983
725.651	2173
725.767	685
725.882	1270
725.997	1903
726.113	1396
726.228	996
726.343	714
726.459	1048
726.574	916
726.689	960
726.804	1160
726.920	1018
727.035	502
727.150	1440
727.265	1442
727.380	1521
727.495	2140
727.610	880
727.725	1009
727.841	1510
727.956	4288
728.071	4138
728.186	982
728.301	816
728.416	809
728.531	1290
728.645	1169
728.760	1902
728.875	3899
728.990	3722
729.105	2622
729.220	1304
729.335	1004
729.449	656
729.564	630
729.679	366
729.794	1500
729.908	893
730.023	1020
730.138	1324
730.253	184
730.367	908
730.482	534
730.596	277
730.711	634
730.826	358
730.940	1891
731.055	858
731.169	893
731.284	387
731.398	479
731.513	1487
731.627	1430
731.742	933
731.856	1002
731.970	834
732.085	676
732.199	1074
732.313	548
732.428	2647
732.542	9312
732.656	8984
732.771	2503
732.885	642
732.999	810
733.113	869
733.227	1020
733.342	938
733.456	994
733.570	1368
733.684	969
733.798	834
733.912	1191
734.026	80
734.140	597
734.254	80
734.368	1181
734.482	930
734.596	1031
734.710	786
734.824	546
734.938	837
735.052	576
735.166	1090
735.280	1064
735.393	656
735.507	1348
735.621	272
735.735	618
735.849	1526
735.962	1183
736.076	908
736.190	901
736.303	96
736.417	1673
736.531	703
736.644	1439
736.758	425
736.872	1141
736.985	1029
737.099	425
737.212	307
737.326	1032
737.439	964
737.553	1144
737.666	1232
737.780	883
737.893	314
738.007	1006
738.120	26
738.233	466
738.347	1548
738.460	1453
738.573	1138
738.687	767
738.800	719
738.913	1627
739.026	382
739.140	1021
739.253	490
739.366	1274
739.479	1486
739.592	1186
739.705	208
739.818	1735
739.932	705
740.045	763
740.158	1386
740.271	1221
740.384	996
740.497	2354
740.610	2889
740.723	2080
740.836	3052
740.949	2661
741.062	1308
741.174	2163
741.287	956
741.400	1047
741.513	2147
741.626	3656
741.739	2311
741.851	1938
741.964	1377
742.077	1926
742.189	4162
742.302	15745
742.415	21751
742.527	4751
742.640	1657
742.753	1412
742.865	1207
742.978	1380
743.090	750
743.203	1096
743.316	1026
743.428	1156
743.541	650
743.653	297
743.766	1455
743.878	1089
743.990	3056
744.103	12550
744.215	40534
744.327	20991
744.440	3257
744.552	1779
744.664	1076
744.777	1850
744.889	295
745.001	305
745.113	1096
745.226	329
745.338	1082
745.450	363
745.562	78
745.674	873
745.786	262
745.898	658
746.010	474
746.122	871
746.234	933
746.347	1825
746.459	2805
746.570	4567
746.682	14011
746.794	54667
746.906	44751
747.018	5809
747.130	2619
747.242	1213
747.354	828
747.466	1011
747.577	1306
747.689	1818
747.801	973
747.913	1385
748.024	461
748.136	435
748.248	555
748.359	758
748.471	205
748.583	709
748.694	-65
748.806	1335
748.918	462
749.029	1296
749.141	466
749.252	520
749.364	-104
749.475	812
749.587	608
749.698	-100
749.809	135
749.921	464
750.032	255
750.144	-8
750.255	110
750.366	623
750.478	147
750.589	184
750.700	-112
750.811	-261
750.923	1016
751.034	1106
751.145	999
751.256	22
751.367	887
751.479	261
751.590	-417
751.701	266
751.812	328
751.923	846
752.034	144
752.145	550
752.256	-243
752.367	212
752.478	53
752.589	731
752.700	524
752.811	158
752.922	-495
753.032	-494
753.143	-525
753.254	0
753.365	1354
753.476	-66
753.586	-644
753.697	512
753.808	-219
753.919	-504
754.029	-101
754.140	365
754.251	-411
754.361	251
754.472	728
754.582	158
754.693	295
754.804	432
754.914	-115
755.025	284
755.135	124
755.246	-475
755.356	664
755.466	396
755.577	821
755.687	-3
755.798	-418
755.908	431
756.018	-258
756.129	428
756.239	623
756.349	186
756.460	729
756.570	606
756.680	1167
756.790	-348
756.900	661
757.011	317
757.121	-474
757.231	388
757.341	501
757.451	-497
757.561	-338
757.671	-106
757.781	-14
757.891	990
758.001	-484
758.111	493
758.221	634
758.331	-516
758.441	307
758.551	204
758.661	826
758.771	1176
758.880	-119
758.990	-683
759.100	-379
759.210	-59
759.320	-301
759.429	348
759.539	-230
759.649	115
759.758	-716
759.868	427
759.978	-320
760.087	-101
760.197	177
760.307	708
760.416	190
760.526	-1033
760.635	-50
760.745	492
760.854	14
760.964	296
761.073	364
761.182	725
761.292	233
761.401	1249
761.511	-113
761.620	776
761.729	-60
761.839	907
761.948	-65
762.057	466
762.166	516
762.276	-673
762.385	1325
762.494	695
762.603	-80
762.712	910
762.822	-339
762.931	662
763.040	280
763.149	98
763.258	863
763.367	482
763.476	752
763.585	1481
763.694	933
763.803	453
763.912	-294
764.021	617
764.130	719
764.238	410
764.347	701
764.456	274
764.565	653
764.674	824
764.783	909
764.891	723
765.000	1577
765.109	1869
765.217	2596
765.326	2286
765.435	3176
765.543	3647
765.652	3543
765.761	5554
765.869	8926
765.978	15796
766.086	31373
766.195	67367
766.303	181161
766.412	580832
766.520	658292
766.629	135024
766.737	38050
766.846	20563
766.954	13617
767.062	10663
767.171	7729
767.279	5820
767.387	3803
767.496	3324
767.604	3063
767.712	2243
767.820	2583
767.928	2685
768.037	2503
768.145	2888
768.253	2595
768.361	2819
768.469	1453
768.577	1875
768.685	1993
768.793	2003
768.901	2267
769.009	3189
769.117	1870
769.225	3881
769.333	5601
769.441	11849
769.549	26818
769.657	62669
769.765	211108
769.873	570175
769.981	221627
770.088	33196
770.196	12529
770.304	9180
770.412	7010
770.519	3963
770.627	2766
770.735	2242
770.842	2325
770.950	1712
771.058	1158
771.165	1444
771.273	1098
771.380	1928
771.488	1171
771.595	1398
771.703	472
771.810	1143
771.918	213
772.025	236
772.133	523
772.240	469
772.348	1102
772.455	902
772.562	242
772.670	165
772.777	688
772.884	1252
772.991	256
773.099	884
773.206	502
773.313	288
773.420	98
773.528	549
773.635	528
773.742	-346
773.849	-291
773.956	-30
774.063	1018
774.170	18
774.277	331
774.384	90
774.491	-838
774.598	540
774.705	-704
774.812	775
774.919	-135
775.026	-151
775.133	-158
775.239	206
775.346	-53
775.453	542
775.560	276
775.667	734
775.773	-204
775.880	619
775.987	212
776.093	518
776.200	228
776.307	66
776.413	864
776.520	1145
776.627	1495
776.733	1630
776.840	3666
776.946	10917
777.053	28684
777.159	104973
777.266	99539
777.372	81063
777.478	100273
777.585	56903
777.691	9114
777.798	3788
777.904	2360
778.010	2013
778.117	714
778.223	563
778.329	1016
778.435	-590
778.542	263
778.648	50
778.754	-102
778.860	85
778.966	309
779.072	-230
779.178	-25
779.284	-466
779.391	268
779.497	-147
779.603	784
779.708	459
779.815	1858
779.920	4850
780.026	12041
780.132	2431
780.238	39
780.344	-71
780.450	-154
780.556	-339
780.661	-205
780.767	-448
780.873	122
780.979	92
781.085	-330
781.190	-670
781.296	-455
781.402	-462
781.507	-762
781.613	-487
781.719	-634
781.824	-298
781.930	-146
782.035	-381
782.141	-635
782.246	44
782.352	-842
782.457	-523
782.563	-395
782.668	-554
782.773	-825
782.879	-814
782.984	-272
783.090	330
783.195	-195
783.300	-389
783.405	-242
783.511	-56
783.616	157
783.721	350
783.826	-464
783.932	-476
784.037	-382
784.142	-410
784.247	-303
784.352	-437
784.457	-353
784.562	-108
784.667	-593
784.772	-748
784.877	-215
784.982	106
785.087	-730
785.192	169
785.297	-398
785.402	-1337
785.507	-343
785.611	163
785.716	-726
785.821	-511
785.926	-678
786.031	-72
786.135	-16
786.240	215
786.345	-852
786.450	-222
786.554	-771
786.659	-419
786.763	-1359
786.868	25
786.973	270
787.077	-263
787.182	-179
787.286	5
787.391	-176
787.495	-910
787.600	-560
787.704	-161
787.809	-642
787.913	-1027
788.017	-373
788.122	304
788.226	-417
788.330	-804
788.435	-411
788.539	-555
788.643	-1158
788.747	-148
788.852	-490
788.956	-747
789.060	-321
789.164	-540
789.268	-499
789.372	58
789.476	-266
789.580	-531
789.684	197
789.788	-205
789.892	-1157
789.996	469
790.100	-322
790.204	-81
790.308	-800
790.412	218
790.516	-228
790.620	-53
790.724	-407
790.828	522
790.931	-642
791.035	425
791.139	-389
791.242	-755
791.346	285
791.450	-762
791.554	-812
791.657	-897
791.761	76
791.864	360
791.968	-105
792.072	89
792.175	-558
792.279	-378
792.382	477
792.486	-246
792.589	-463
792.693	64
792.796	-141
792.899	-233
793.003	1
793.106	-788
793.209	-467
793.313	408
793.416	-1337
793.519	-315
793.623	-222
793.726	339
793.829	-497
793.932	-22
794.035	-1418
794.138	-186
794.242	-460
794.345	831
794.448	374
794.551	767
794.654	3562
794.757	8480
794.860	2833
794.963	983
795.066	1487
795.169	2498
795.272	643
795.375	97
795.477	-842
795.580	-343
795.683	-631
795.786	-658
795.889	-1834
795.991	50
796.094	-856
796.197	-574
796.300	-471
796.402	-739
796.505	-1172
796.608	-643
796.710	-724
796.813	-815
796.915	-613
797.018	-296
797.120	-880
797.223	-1153
797.326	-237
797.428	-701
797.530	-1454
797.633	-1388
797.735	-268
797.838	-308
797.940	-438
798.042	-870
798.145	-901
798.247	135
798.349	-1552
798.452	-146
798.554	-917
798.656	-1403
798.758	-150
798.860	-1088
798.962	-725
799.065	-1295
799.167	-1662
799.269	-624
799.371	-971
799.473	-380
799.575	-1231
799.677	-447
799.779	-195
799.881	-1085
799.983	31
800.085	-1322
800.187	-1366
800.289	-1500
800.390	-805
800.492	-381
800.594	-1166
800.696	-831
800.798	-92
800.899	-1215
801.001	-614
801.103	-1517
801.205	-942
801.306	-459
801.408	-1142
801.509	-533
801.611	-238
801.713	-214
801.814	-999
801.916	-778
802.017	-847
802.119	-1130
802.220	-1126
802.322	-2783
802.423	-689
802.525	-705
802.626	-1729
802.727	-545
802.829	-756
802.930	-1974
803.031	441
803.133	-1163
803.234	-1309
803.335	-933
803.436	-919
803.538	-551
803.639	-1015
803.740	-761
803.841	-1371
803.942	-524
804.043	-1084
804.144	-1802
804.245	-755
804.346	-1049
804.447	-1182
804.548	-1320
804.649	-617
804.750	119
804.851	-1362
804.952	-1416
805.053	-993
805.154	-649
805.255	-136
805.355	-905
805.456	-1321
805.557	-898
805.658	-1302
805.758	-856
805.859	-1064
805.960	-1332
806.061	-904
806.161	-1055
806.262	-29
806.362	-1399
806.463	-893
806.564	-529
806.664	-812
806.765	-645
806.865	-234
806.966	-663
807.066	-1712
807.166	-1389
807.267	-232
807.367	-697
807.468	-528
807.568	-2012
807.668	-572
807.769	86
807.869	-1079
807.969	-519
808.069	-710
808.170	-898
808.270	-1276
808.370	-5
808.470	-1453
808.570	-1535
808.670	-1318
808.770	-666
808.870	-1349
808.970	-714
809.070	-1795
809.170	-761
809.271	-581
809.370	-1035
809.470	-1289
809.570	-1467
809.670	-1197
809.770	-1776
809.870	-811
809.970	-870
810.070	-1363
810.169	-457
810.269	-1816
810.369	827
810.469	-1291
810.568	-1273
810.668	-637
810.768	-1523
810.867	-1173
810.967	-1625
811.066	-1080
811.166	-1036
811.265	-487
811.365	-422
811.464	-1137
811.564	-78
811.663	-922
811.763	-1066
811.862	-838
811.962	-641
812.061	-1258
812.160	-929
812.260	-813
812.359	-1408
812.458	-1818
812.557	-486
812.657	-978
812.756	-985
812.855	-648
812.954	-796
813.053	-1306
813.153	-458
813.252	-1379
813.351	-1291
813.450	-1010
813.549	-688
813.648	-1013
813.747	-821
813.846	-1242
813.945	-1671
814.044	-558
814.143	-711
814.242	-732
814.341	-1047
814.439	-1044
814.538	-530
814.637	-1011
814.736	-1657
814.835	-604
814.933	-1057
815.032	-558
815.131	-1092
815.229	-1061
815.328	-728
815.427	-1169
815.525	-855
815.624	-662
815.722	-1211
815.821	-1664
815.919	-993
816.018	-1002
816.116	-174
816.215	-1221
816.313	-1433
816.412	-175
816.510	-1199
816.609	-145
816.707	-1128
816.805	-296
816.904	-301
817.002	-226
817.100	292
817.198	-157
817.296	-2
817.395	-854
817.493	198
817.591	-527
817.689	634
817.787	714
817.885	3168
817.983	5769
818.081	13655
818.179	38459
818.277	109308
818.375	103790
818.473	35563
818.571	16165
818.669	9978
818.767	16374
818.865	16843
818.963	5905
819.061	6502
819.158	14014
819.256	33616
819.354	82068
819.452	215348
819.549	139982
819.647	23657
819.745	5967
819.842	4876
819.940	4188
820.038	3971
820.135	2395
820.233	931
820.330	621
820.428	51
820.525	575
820.623	1500
820.720	857
820.818	740
820.915	1781
821.012	4976
821.110	6741
821.207	3188
821.304	1699
821.402	4817
821.499	14080
821.596	35486
821.693	36010
821.791	7051
821.888	1175
821.985	2500
822.082	1877
822.179	7486
822.276	15467
822.373	13685
822.470	2286
822.567	-78
822.664	-728
822.761	281
822.858	-1346
822.955	885
823.052	241
823.149	-701
823.246	-559
823.343	-449
823.440	-459
823.536	-268
823.633	-1378
823.730	-71
823.827	371
823.923	-357
824.020	3017
824.117	5078
824.213	14124
824.310	11819
824.407	771
824.503	122
824.600	-544
824.696	101
824.793	7
824.889	-887
824.986	-1502
825.082	-649
825.179	-740
825.275	-727
825.371	-746
825.468	-626
825.564	-1250
825.660	-413
825.757	-229
825.853	-204
825.949	-729
826.045	-701
826.142	-1696
826.238	-579
826.334	-667
826.430	-1246
826.526	-707
826.622	-1002
826.718	-1493
826.814	-1624
826.910	-735
827.006	-1169
827.102	-1671
827.198	-318
827.294	-1727
827.390	-1293
827.486	-325
827.582	-1682
827.678	-1809
827.774	-1271
827.869	-1589
827.965	-128
828.061	-2256
828.157	-930
828.252	-1348
828.348	-1310
828.444	-764
828.539	-1440
828.635	-800
828.731	-687
828.826	-2333
828.922	-519
829.017	-1995
829.113	-400
829.208	-1417
829.304	-1553
829.399	-730
829.495	-318
829.590	-645
829.685	-1205
829.781	-574
829.876	-1470
829.971	-1483
830.066	-1205
830.162	-1401
830.257	-1833
830.352	-2078
830.447	-148
830.543	-806
830.638	-1558
830.733	-928
830.828	-1267
830.923	-919
831.018	-1621
831.113	-1184
831.208	-2419
831.303	-766
831.398	-1676
831.493	-1992
831.588	-839
831.683	-1724
831.778	-1225
831.873	-526
831.967	-719
832.062	-1364
832.157	-1917
832.252	-683
832.346	-370
832.441	-277
832.536	-709
832.631	439
832.725	-942
832.820	-1258
832.914	-1579
833.009	-1913
833.104	-499
833.198	-1217
833.293	-1094
833.387	-869
833.482	-1354
833.576	-1515
833.670	-741
833.765	-2160
833.859	-1059
833.954	-975
834.048	-1479
834.142	-41
834.237	-1317
834.331	-1646
834.425	-868
834.519	-2020
834.613	-186
834.708	-1685
834.802	-675
834.896	-1721
834.990	-1386
835.084	-1141
835.178	-1533
835.272	-1090
835.366	-1925
835.460	-1210
835.554	-233
835.648	-927
835.742	-582
835.836	-986
835.930	-1506
836.024	-770
836.117	-1713
836.211	-1572
836.305	-940
836.399	-1299
836.493	-1705
836.586	-1451
836.680	-1066
836.774	-1105
836.867	-179
836.961	-2335
837.055	-1127
837.148	-1096
837.242	-674
837.335	-1292
837.429	-1170
837.522	-1981
837.616	-1791
837.709	-1412
837.803	-1240
837.896	-1157
837.989	-1305
838.083	-880
838.176	-1463
838.269	-1612
838.363	-684
838.456	-2006
838.549	-957
838.642	-2307
838.735	243
838.829	-1150
838.922	-1232
839.015	-959
839.108	-1350
839.201	-1317
839.294	-743
839.387	-1389
839.480	-1718
839.573	-1605
839.666	-1817
839.759	-1982
839.852	-1941
839.945	-1802
840.038	-1537
840.131	-1434
840.223	-822
840.316	-1013
840.409	-1736
840.502	-2565
840.594	-119
840.687	-1611
840.780	-1129
840.873	-789
840.965	-1481
841.058	-1042
841.150	-898
841.243	-1737
841.336	-820
841.428	-1277
841.521	-1647
841.613	-1648
841.706	-940
841.798	-1374
841.890	-1550
841.983	-2085
842.075	-605
842.167	-1435
842.260	-2128
842.352	-1002
842.444	-726
842.537	-769
842.629	-1378
842.721	-1221
842.813	-1670
842.905	-2818
842.997	-820
843.090	-1033
843.182	-867
843.274	-1678
843.366	-790
843.458	-1349
843.550	-1192
843.642	-1554
843.734	-1491
843.826	-1421
843.918	-514
844.009	-487
844.101	-575
844.193	-429
844.285	925
844.377	5911
844.469	12493
844.560	25289
844.652	37630
844.744	14597
844.835	2201
844.927	-214
845.019	-521
845.110	-1165
845.202	-731
845.293	-946
845.385	-1481
845.476	-804
845.568	28
845.659	-1238
845.751	-1046
845.842	-1419
845.934	-986
846.025	-994
846.116	-436
846.208	-1517
846.299	-1528
846.390	-858
846.482	-1484
846.573	-1204
846.664	-993
846.755	-1546
846.846	-724
846.937	-1600
847.029	-984
847.120	-2074
847.211	-1261
847.302	-459
847.393	-1782
847.484	-1271
847.575	-690
847.666	-1013
847.757	-568
847.847	-1293
847.938	-270
848.029	-1576
848.120	-1629
848.211	-2171
848.302	-1642
848.392	-1068
848.483	-827
848.574	-1462
848.664	-1189
848.755	-1586
848.846	-1484
848.936	-1177
849.027	-1312
849.118	-1496
849.208	-1473
849.299	-719
849.389	-486
849.480	906
849.570	4221
849.661	8157
849.751	18223
849.841	8627
849.932	-581
850.022	-1252
850.112	-950
850.203	-2057
850.293	-1718
850.383	-1139
850.474	-468
850.564	-1090
850.654	-877
850.744	-1477
850.834	-1360
850.924	-952
851.014	-1762
851.104	-2106
851.194	-1228
851.284	-1445
851.374	-1160
851.464	-1753
851.554	-1142
851.644	-1561
851.734	-669
851.824	-1174
851.914	-1132
852.004	-605
852.094	-1583
852.183	-1166
852.273	-792
852.363	-1737
852.452	-1709
852.542	-1056
852.632	-1430
852.721	-899
852.811	-1054
852.901	-1145
852.990	-1081
853.080	-1850
853.169	-1472
853.259	-691
853.348	-370
853.438	-1139
853.527	-305
853.617	887
853.706	3878
853.795	8680
853.885	20897
853.974	44696
854.063	72513
854.152	146884
854.242	73361
854.331	7832
854.420	1101
854.509	280
854.598	67
854.687	-592
854.777	-594
854.866	-465
854.955	66
855.044	-918
855.133	-1277
855.222	-1080
855.311	-1642
855.400	-705
855.488	-356
855.577	-1069
855.666	-493
855.755	-217
855.844	-788
855.933	-800
856.021	-507
856.110	-793
856.199	-709
856.288	-1591
856.376	-731
856.465	-943
856.554	-277
856.642	389
856.731	2388
856.819	656
856.908	-870
856.996	-1510
857.085	-1352
857.173	-1524
857.262	-796
857.350	-750
857.438	-1520
857.527	-961
857.615	-1376
857.703	-1067
857.792	-343
857.880	-1967
857.968	-1748
858.056	-1675
858.145	-1401
858.233	-1570
858.321	-1222
858.409	-718
858.497	-1962
858.585	-1326
858.673	-667
858.761	-1605
858.849	-1663
858.937	-1164
859.025	-720
859.113	-646
859.201	1144
859.289	3426
859.377	5120
859.465	1789
859.552	-688
859.640	-1257
859.728	-1676
859.816	-1693
859.903	-1193
859.991	-1636
860.079	-856
860.166	-1234
860.254	-707
860.342	-821
860.429	-950
860.517	-1544
860.604	-753
860.692	-1355
860.779	-1789
860.867	-1789
860.954	-1663
861.042	-1495
861.129	-1222
861.216	-1324
861.304	-2108
861.391	-1289
861.478	-1056
861.565	-1457
861.653	-941
861.740	-2233
861.827	-924
861.914	-1098
862.001	-1131
862.089	-1399
862.176	-1185
862.263	-1163
862.350	-752
862.437	-1353
862.524	248
862.611	1447
862.698	4499
862.785	7702
862.871	14488
862.958	7466
863.045	1553
863.132	-67
863.219	-219
863.306	-1805
863.392	-212
863.479	-1233
863.566	-1174
863.652	-853
863.739	-1075
863.826	-1007
863.912	-820
863.999	-1437
864.086	-1143
864.172	-874
864.259	-1471
864.345	-1368
864.432	-751
864.518	-1667
864.604	-1328
864.691	-1070
864.777	-525
864.863	-585
864.950	-503
865.036	-1253
865.122	-219
865.209	-50
865.295	347
865.381	554
865.467	1935
865.553	3207
865.639	2834
865.726	4163
865.812	9375
865.898	18606
865.984	29014
866.070	52944
866.156	79650
866.242	25767
866.328	2201
866.414	-546
866.499	1228
866.585	-555
866.671	-648
866.757	-575
866.843	-495
866.928	-1164
867.014	-1000
867.100	-505
867.186	-930
867.271	-503
867.357	5
867.442	-404
867.528	1836
867.614	3294
867.699	8542
867.785	15400
867.870	22843
867.956	42157
868.041	29556
868.127	13683
868.212	17395
868.297	24156
868.383	11121
868.468	6574
868.553	9434
868.639	4977
868.724	1414
868.809	676
868.894	-3
868.979	-536
869.065	-1040
869.150	-1535
869.235	-458
869.320	-802
869.405	-1263
869.490	-1001
869.575	-1900
869.660	-1152
869.745	-385
869.830	-743
869.915	-598
870.000	1874
870.085	2274
870.169	3262
870.254	7930
870.339	2761
870.424	-732
870.509	-878
870.593	-1128
870.678	-284
870.763	324
870.847	1474
870.932	1818
871.016	4986
871.101	9376
871.186	3842
871.270	416
871.355	-577
871.439	328
871.523	-23
871.608	920
871.692	2967
871.777	5816
871.861	5101
871.945	-13
872.030	-932
872.114	-1594
872.198	-1475
872.282	-1642
872.367	-1104
872.451	-1505
872.535	-1036
872.619	-868
872.703	-1216
872.787	476
872.871	346
872.955	-1630
873.039	-812
873.123	-1686
873.207	-1175
873.291	-1032
873.375	-993
873.459	-1509
873.543	-489
873.627	-1509
873.711	-1521
873.794	-950
873.878	-1374
873.962	-909
874.045	-2118
874.129	-1514
874.137	-1412
874.213	-394
874.245	-445
874.296	-531
874.352	-873
874.380	-1041
874.460	-644
874.464	-629
874.547	-1340
874.568	-999
874.631	-4
874.676	-141
874.714	-247
874.784	-148
874.798	-131
874.881	-540
874.892	-542
874.965	-571
874.999	-400
875.048	-116
875.107	-613
875.131	-852
875.215	-33
875.215	-34
875.298	-1039
875.323	-1086
875.381	-1189
875.430	-1359
875.465	-1471
875.538	-1563
875.548	-1582
875.631	-1281
875.646	-1218
875.714	-902
875.753	-892
875.798	-878
875.861	-1159
875.881	-1256
875.964	-1505
875.968	-1475
876.047	-901
876.076	-790
876.130	-527
876.183	-1074
876.213	-1418
876.291	-1127
876.296	-1108
876.379	-1294
876.398	-1228
876.462	-1025
876.506	-1127
876.545	-1158
876.613	-715
876.628	-634
876.711	-1033
876.721	-971
876.794	-420
876.828	-603
876.877	-901
876.935	-557
876.960	-398
877.043	-249
877.043	-251
877.125	-732
877.150	-461
877.208	390
877.258	331
877.291	198
877.365	676
877.374	727
877.456	250
877.472	232
877.539	273
877.579	421
877.622	428
877.687	-164
877.704	-267
877.787	-387
877.794	-388
877.869	-309
877.901	-194
877.952	-253
878.008	-550
878.034	-552
878.115	-312
878.117	-308
878.199	-778
878.222	-631
878.282	-189
878.329	-157
878.364	-241
878.437	-576
878.447	-588
878.529	-544
878.544	-535
878.611	-549
878.651	-647
878.694	-667
878.758	-183
878.776	-77
878.858	-330
878.865	-353
878.941	-671
878.972	-661
879.023	-691
879.078	-734
879.105	-610
879.185	-620
879.187	-622
879.269	-791
879.292	-706
879.351	-490
879.399	-626
879.433	-781
879.506	-628
879.516	-590
879.598	-157
879.613	-199
879.680	-418
879.720	-435
879.762	-416
879.827	-551
879.844	-598
879.926	-763
879.933	-775
880.007	-668
880.040	-538
880.089	-420
880.147	-424
880.171	-407
880.253	-216
880.254	-220
880.335	-430
880.360	-293
880.417	400
880.467	783
880.499	1183
880.574	2777
880.580	2787
880.662	852
880.680	580
880.744	-255
880.787	-676
880.825	-608
880.893	-194
880.907	-157
880.989	-468
881.000	-487
881.070	-510
881.106	-532
881.152	-608
881.213	-473
881.233	-354
881.315	-190
881.319	-168
881.396	-178
881.426	-416
881.478	-563
881.532	-364
881.559	-373
881.639	-931
881.641	-930
881.722	-91
881.745	-175
881.803	-650
881.852	-638
881.885	-312
881.958	261
881.966	199
882.047	-330
882.064	-482
882.129	-212
882.171	-116
882.210	-173
882.277	-206
882.291	-145
882.372	710
882.383	702
882.454	182
882.489	160
882.535	151
882.596	-103
882.616	-223
882.697	-564
882.702	-590
882.778	-348
882.808	-269
882.859	-577
882.914	-828
882.940	-719
883.020	-492
883.021	-488
883.102	-74
883.127	-170
883.183	-373
883.233	-190
883.264	-179
883.339	-210
883.345	-198
883.426	-678
883.445	-666
883.507	-529
883.551	-352
883.587	-376
883.657	-795
883.668	-717
883.749	-57
883.763	64
883.830	-3
883.869	124
883.910	147
883.975	-306
883.991	-262
884.072	97
884.081	133
884.152	-187
884.187	-404
884.233	-379
884.292	126
884.314	322
884.394	270
884.398	260
884.475	-137
884.504	-156
884.555	-224
884.610	-194
884.636	-57
884.716	129
884.716	134
884.797	-141
884.821	-151
884.877	23
884.927	97
884.958	69
885.033	200
885.038	223
885.118	-23
885.139	26
885.199	-79
885.244	-248
885.279	-19
885.350	355
885.359	299
885.439	47
885.456	-63
885.520	-214
885.561	-382
885.600	-346
885.667	-24
885.680	84
885.760	484
885.773	543
885.840	-72
885.878	-326
885.920	-132
885.984	53
886.000	64
886.080	12
886.089	-8
886.160	99
886.195	260
886.240	177
886.300	-117
886.320	-44
886.400	361
886.406	371
886.480	137
886.511	68
886.560	498
886.616	1015
886.640	826
886.720	120
886.722	96
886.800	509
886.827	657
886.879	414
886.932	118
886.959	440
887.038	1367
887.039	1365
887.119	376
887.143	69
887.198	17
887.248	-58
887.278	-109
887.354	-337
887.358	-319
887.437	29
887.459	89
887.517	374
887.564	713
887.596	631
887.669	276
887.676	259
887.755	109
887.774	44
887.835	-97
887.880	-182
887.914	49
887.985	476
887.994	428
888.073	-62
888.090	-163
888.153	193
888.195	378
888.232	110
888.300	-237
888.311	-147
888.391	261
888.405	358
888.470	936
888.510	1246
888.549	1105
888.615	838
888.628	781
888.708	373
888.720	315
888.787	494
888.825	550
888.866	421
888.930	217
888.945	277
889.024	606
889.035	637
889.103	1240
889.140	1547
889.182	1185
889.245	673
889.261	819
889.340	1440
889.349	1505
889.419	1201
889.454	1024
889.498	1127
889.559	1278
889.577	1167
889.656	629
889.664	572
889.735	611
889.768	623
889.814	740
889.873	890
889.978	826
890.083	827
890.187	750
890.292	1119
890.397	155
890.501	434
890.606	949
890.710	718
890.815	1087
890.919	196
891.024	1504
891.128	1698
891.233	2051
891.337	347
891.442	1201
891.546	520
891.650	364
891.755	415
891.859	1742
891.963	53
892.068	1314
892.172	1042
892.276	452
892.380	614
892.484	1301
892.589	2192
892.693	2153
892.797	319
892.901	655
893.005	-48
893.109	284
893.213	506
893.317	481
893.421	850
893.525	746
893.629	300
893.733	572
893.837	-904
893.941	382
894.045	1211
894.148	545
894.252	432
894.356	724
894.460	105
894.564	634
894.667	321
894.771	118
894.875	575
894.978	1086
895.082	-495
895.186	1062
895.289	302
895.393	284
895.496	636
895.600	252
895.703	-193
895.807	459
895.910	382
896.014	783
896.117	215
896.221	669
896.324	-24
896.427	236
896.531	69
896.634	306
896.737	1139
896.840	429
896.944	-298
897.047	376
897.150	174
897.253	624
897.356	1390
897.460	500
897.563	445
897.666	566
897.769	639
897.872	713
897.975	-420
898.078	-408
898.181	-125
898.284	413
898.387	233
898.490	444
898.593	-132
898.695	-34
898.798	383
898.901	-501
899.004	-226
899.107	241
899.209	225
899.312	-318
899.415	490
899.518	251
899.620	-229
899.723	47
899.826	504
899.928	915
900.031	24
900.133	489
900.236	265
900.338	764
900.441	481
900.543	428
900.646	500
900.748	-266
900.851	362
900.953	264
901.055	-28
901.158	1400
901.260	185
901.362	-21
901.465	275
901.567	321
901.669	318
901.771	-293
901.873	-148
901.976	430
902.078	690
902.180	753
902.282	474
902.384	536
902.486	607
902.588	-13
902.690	5
902.792	1046
902.894	929
902.996	1372
903.098	-721
903.200	55
903.302	393
903.404	1213
903.505	-106
903.607	738
903.709	20
903.811	-115
903.913	248
904.014	1089
904.116	2
904.218	1085
904.319	800
904.421	1502
904.523	2205
904.624	2433
904.726	283
904.827	1150
904.929	1758
905.030	1574
905.132	563
905.233	-478
905.335	-356
905.436	787
905.537	232
905.639	95
905.740	-258
905.841	1240
905.943	516
906.044	2332
906.145	1629
906.247	1028
906.348	-54
906.449	68
906.550	146
906.651	695
906.752	243
906.854	-238
906.955	-64
907.056	-764
907.157	-332
907.258	-624
907.359	-424
907.460	151
907.561	-233
907.662	-181
907.762	-199
907.863	60
907.964	610
908.065	1641
908.166	-156
908.267	-101
908.367	-260
908.468	-819
908.569	-121
908.670	-58
908.770	371
908.871	340
908.971	-424
909.072	-49
909.173	-526
909.273	-228
909.374	-83
909.474	-1033
909.575	-151
909.675	-250
909.776	498
909.876	940
909.977	-873
910.077	612
910.177	-264
910.278	123
910.378	-249
910.478	246
910.579	-588
910.679	444
910.779	-263
910.879	787
910.980	-225
911.080	-290
911.180	-487
911.280	163
911.380	-993
911.480	121
911.580	-229
911.680	162
911.780	-446
911.880	234
911.980	-168
912.080	-392
912.180	-208
912.280	429
912.380	317
912.480	649
912.580	-802
912.679	123
912.779	96
912.879	470
912.979	-402
913.078	470
913.178	-364
913.278	138
913.377	-741
913.477	-293
913.577	-124
913.676	347
913.776	-1003
913.875	-72
913.975	400
914.074	58
914.174	-25
914.273	341
914.373	209
914.472	692
914.572	-452
914.671	-70
914.770	-884
914.870	-475
914.969	-458
915.068	-703
915.167	192
915.267	181
915.366	119
915.465	-117
915.564	22
915.663	240
915.763	-43
915.862	511
915.961	-553
916.060	41
916.159	214
916.258	236
916.357	190
916.456	-226
916.555	304
916.654	-760
916.752	-588
916.851	-402
916.950	-457
917.049	538
917.148	23
917.247	246
917.345	282
917.444	-510
917.543	179
917.642	74
917.740	-602
917.839	-172
917.937	13
918.036	752
918.135	362
918.233	13
918.332	-758
918.430	586
918.529	-492
918.627	-45
918.726	685
918.824	1647
918.923	-759
919.021	99
919.119	192
919.218	-21
919.316	526
919.414	-138
919.512	-273
919.611	514
919.709	-646
919.807	-211
919.905	19
920.003	-232
920.102	-200
920.200	427
920.298	-505
920.396	347
920.494	301
920.592	-493
920.690	-434
920.788	458
920.886	740
920.984	1044
921.082	201
921.180	417
921.277	146
921.375	837
921.473	222
921.571	357
921.669	-25
921.766	387
921.864	237
921.962	-55
922.060	770
922.157	197
922.255	-190
922.352	585
922.450	-218
922.548	456
922.645	-221
922.743	165
922.840	-368
922.938	290
923.035	-510
923.133	801
923.230	-280
923.327	-40
923.425	303
923.522	657
923.619	-314
923.717	310
923.814	-265
923.911	544
924.008	249
924.106	669
924.203	36
924.300	305
924.397	136
924.494	-234
924.591	550
924.688	717
924.786	113
924.883	716
924.979	761
925.077	-196
925.173	854
925.270	610
925.367	955
925.464	583
925.561	111
925.658	1504
925.755	647
925.852	1808
925.948	1553
926.045	2805
926.142	4080
926.239	5147
926.335	5975
926.432	4209
926.529	4762
926.625	7161
926.722	4444
926.818	2300
926.915	1370
927.011	1065
927.108	695
927.204	424
927.301	-393
927.397	-116
927.494	472
927.590	500
927.687	-214
927.783	620
927.879	421
927.976	750
928.072	-236
928.168	509
928.264	323
928.361	-541
928.457	383
928.553	688
928.649	210
928.745	203
928.841	276
928.937	-141
929.033	-414
929.129	588
929.225	-390
929.321	545
929.417	85
929.513	842
929.609	-177
929.705	338
929.801	-409
929.897	451
929.993	-32
930.089	733
930.184	-389
930.280	445
930.376	-206
930.471	-226
930.567	-303
930.663	-384
930.758	-184
930.854	723
930.950	799
931.045	-68
931.141	-228
931.236	1301
931.332	-216
931.427	-438
931.523	202
931.618	1115
931.714	-749
931.809	102
931.905	-224
932.000	-19
932.095	-1275
932.191	445
932.286	-11
932.381	-230
932.476	-146
932.572	-76
932.667	145
932.762	623
932.857	323
932.952	-5
933.047	450
933.142	-747
933.237	-68
933.332	-161
933.427	37
933.522	-251
933.617	-176
933.712	98
933.807	148
933.902	-139
933.997	-770
934.092	531
934.187	-182
934.282	-248
934.376	-547
934.471	76
934.566	164
934.661	478
934.755	-372
934.850	400
934.945	-1208
935.039	117
935.134	-748
935.228	-149
935.323	142
935.417	-48
935.512	133
935.606	-26
935.701	-138
935.795	-134
935.890	-268
935.984	770
936.079	-491
936.173	-530
936.267	-696
936.362	-737
936.456	303
936.550	-277
936.644	-191
936.738	-452
936.833	321
936.927	251
937.021	-387
937.115	592
937.209	-457
937.303	90
937.397	-842
937.491	-19
937.585	187
937.679	705
937.773	-579
937.867	336
937.961	-315
938.055	-253
938.149	216
938.243	257
938.337	-427
938.430	1047
938.524	1458
938.618	4334
938.712	6873
938.805	2032
938.899	93
938.993	1393
939.086	1440
939.180	5418
939.274	11715
939.367	6406
939.461	1159
939.554	-599
939.648	-234
939.741	-608
939.835	-169
939.928	4
940.022	239
940.115	577
940.208	-433
940.302	-43
940.395	-223
940.488	-630
940.582	14
940.675	468
940.768	-37
940.861	277
940.954	-410
941.048	363
941.141	421
941.234	2202
941.327	5331
941.420	6505
941.513	2710
941.606	701
941.699	803
941.792	708
941.885	391
941.978	-417
942.071	-216
942.164	53
942.257	-2
942.349	-781
942.442	-1169
942.535	652
942.628	-332
942.721	688
942.813	-752
942.906	-376
942.999	-123
943.091	147
943.184	-905
943.277	-77
943.369	-327
943.462	-1237
943.554	327
943.647	39
943.739	-375
943.832	79
943.924	-687
944.017	-113
944.109	-983
944.201	-255
944.294	-350
944.386	182
944.478	-203
944.571	-831
944.663	-680
944.755	-630
944.847	-597
944.940	-263
945.032	364
945.124	70
945.216	54
945.308	-439
945.400	-1487
945.492	591
945.584	-1227
945.676	-743
945.768	-289
945.860	-115
945.952	-1003
946.044	819
946.136	-223
946.228	-677
946.320	-500
946.412	-1030
946.503	-461
946.595	-378
946.687	-667
946.779	-1126
946.870	-83
946.962	-938
947.054	-405
947.145	472
947.237	-542
947.329	-776
947.420	-948
947.512	-142
947.603	-617
947.695	-1739
947.786	-947
947.878	-169
947.969	-395
948.061	-159
948.152	-237
948.243	-79
948.335	-308
948.426	-490
948.517	-905
948.609	-367
948.700	-546
948.791	-998
948.882	-88
948.973	-746
949.065	-180
949.156	68
949.247	-789
949.338	-478
949.429	-953
949.520	-273
949.611	-1648
949.702	354
949.793	-544
949.884	209
949.975	-965
950.066	-705
950.157	-425
950.247	-279
950.338	-708
950.429	-848
950.520	-675
950.611	-892
950.701	-557
950.792	-444
950.883	-24
950.973	-325
951.064	-127
951.155	-569
951.245	-630
951.336	-213
951.427	-392
951.517	7
951.608	-451
951.698	-314
951.788	-888
951.879	-598
951.969	-816
952.060	-556
952.150	-829
952.240	139
952.331	-1678
952.421	256
952.511	-793
952.602	-569
952.692	-972
952.782	-532
952.872	129
952.962	-753
953.052	-390
953.143	-1072
953.233	-444
953.323	-543
953.413	-1248
953.503	-364
953.593	-313
953.683	-789
953.773	-1902
953.863	-484
953.953	-873
954.042	-515
954.132	-1470
954.222	-1024
954.312	-789
954.402	-1268
954.492	-973
954.581	-806
954.671	-1093
954.761	-640
954.850	875
954.940	-946
955.030	-1219
955.119	-1226
955.209	142
955.298	-124
955.388	-783
955.477	-327
955.567	-719
955.656	-312
955.746	-631
955.835	-628
955.925	-1195
956.014	-586
956.103	-907
956.193	-402
956.282	-121
956.371	-211
956.461	-334
956.550	-478
956.639	-494
956.728	178
956.817	-548
956.906	-880
956.995	-94
957.085	-38
957.174	-1099
957.263	-348
957.352	-952
957.441	-712
957.530	-312
957.619	-514
957.708	-975
957.796	-204
957.885	-1278
957.974	36
958.063	-560
958.152	-910
958.241	-520
958.329	-87
958.418	-961
958.507	-442
958.596	-1048
958.684	-167
958.773	-411
958.861	523
958.950	-791
959.039	-703
959.127	-360
959.216	-829
959.304	35
959.393	40
959.481	-205
959.570	-749
959.658	-888
959.746	-199
959.835	-1013
959.923	-640
960.011	-989
960.100	-559
960.188	-383
960.276	-126
960.365	-436
960.453	-987
960.541	-1076
960.629	-65
960.717	-592
960.805	-958
960.893	137
960.981	-473
961.069	492
961.158	-51
961.245	-717
961.333	-189
961.421	-1239
961.509	-49
961.597	-645
961.685	143
961.773	-1537
961.861	-171
961.949	-357
962.036	-471
962.124	-772
962.212	-1042
962.299	-1260
962.387	-1079
962.475	-1163
962.562	-860
962.650	-304
962.738	-175
962.825	-649
962.913	-64
963.000	-439
963.088	65
963.175	-981
963.263	-626
963.350	-1455
963.438	-981
963.525	-789
963.612	-1175
963.700	-987
963.787	-467
963.874	61
963.962	73
964.049	-962
964.136	-800
964.223	-906
964.310	-162
964.398	-690
964.485	-83
964.572	-828
964.659	-491
964.746	-928
964.833	-1129
964.920	-2027
965.007	-599
965.094	-194
965.181	-622
965.268	-597
965.355	-237
965.441	-1024
965.528	-701
965.615	-187
965.702	-541
965.789	-1301
965.875	-475
965.962	-1094
966.049	-574
966.136	-862
966.222	-935
966.309	-1129
966.395	-864
966.482	-785
966.569	-1178
966.655	-432
966.742	-868
966.828	-1359
966.915	-1060
967.001	-976
967.087	-746
967.174	-607
967.260	-612
967.347	-541
967.433	-615
967.519	-429
967.605	-732
967.692	-573
967.778	-461
967.864	-652
967.950	-1252
968.036	-1284
968.123	-216
968.209	-358
968.295	-1231
968.381	195
968.467	-736
968.553	-509
968.639	-594
968.725	-1486
968.811	-1029
968.897	-127
968.983	-564
969.069	-1510
969.154	-659
969.240	92
969.326	-1527
969.412	-730
969.497	-1064
969.583	-1475
969.669	-751
969.755	-1013
969.840	-106
969.926	-310
970.012	-999
970.097	-683
970.183	82
970.268	-484
970.354	-769
970.439	-1481
970.525	-194
970.610	-1725
970.696	-277
970.781	-356
970.866	-1769
970.952	-1126
971.037	-381
971.122	-837
971.208	-616
971.293	-1352
971.378	-1535
971.463	-985
971.549	-170
971.634	-1350
971.719	-1078
971.804	-864
971.889	-735
971.974	-764
972.059	-421
972.144	-606
972.229	-819
972.314	-1558
972.399	-843
972.484	-1517
972.569	-1013
972.654	-1575
972.739	-213
972.824	-972
972.908	-340
972.993	-123
973.078	-903
973.163	-1064
973.247	-805
973.332	-1616
973.417	-11
973.501	-854
973.586	-690
973.671	-1175
973.755	-346
973.840	-511
973.924	-474
974.009	-2
974.093	-600
974.178	-858
974.262	-118
974.346	-1585
974.431	-852
974.515	-1393
974.600	-1397
974.684	-1372
974.768	-1138
974.852	-449
974.937	-1336
975.021	-891
975.105	-233
975.189	-1688
975.273	-720
975.358	-1550
975.442	-1179
975.526	-905
975.610	-961
975.694	-1564
975.778	-312
975.862	-529
975.946	-1796
976.030	-421
976.114	-1773
976.198	-838
976.281	-815
976.365	-1082
976.449	-887
976.533	-605
976.617	-1110
976.700	-1451
976.784	-829
976.868	-1588
976.951	-743
977.035	-959
977.119	-1068
977.202	-1198
977.286	-684
977.369	-432
977.453	-796
977.536	-860
977.620	-916
977.703	-1047
977.787	-1083
977.870	-1012
977.953	-827
978.037	-2155
978.120	-885
978.203	-1304
978.287	-1134
978.370	-1449
978.453	-1421
978.536	-1975
978.620	-577
978.703	-1831
978.786	-719
978.869	-1139
978.952	-1611
979.035	-934
979.118	-866
979.201	-1119
979.284	-493
979.367	-1651
979.450	-991
979.533	-1448
979.616	-1490
979.699	-957
979.782	-5
979.865	-1285
979.948	-164
980.030	-746
980.113	-228
980.196	-1961
980.279	-698
980.361	-468
980.444	-1439
980.526	-785
980.609	-857
980.692	-451
980.774	-1007
980.857	-1326
980.939	-290
981.022	-977
981.104	-1642
981.187	-1918
981.269	-605
981.352	-938
981.434	-1716
981.516	-1671
981.599	34
981.681	-754
981.763	-1136
981.846	-1412
981.928	-1562
982.010	-1756
982.092	-1247
982.174	-383
982.256	-803
982.339	-1346
982.421	-1588
982.503	-1705
982.585	-2039
982.667	-1850
982.749	174
982.831	-1035
982.913	-1655
982.995	-1497
983.077	-1285
983.158	-1045
983.240	-1841
983.322	-889
983.404	-1195
983.486	-1691
983.568	-1202
983.649	-1287
983.731	-373
983.813	-2371
983.894	-652
983.976	-1584
984.058	-1466
984.139	-1056
984.221	-808
984.302	-1255
984.384	-960
984.465	-2159
984.547	-1648
984.628	-1919
984.710	-642
984.791	-1014
984.872	-1661
984.954	-1431
985.035	-1331
985.116	-1569
985.198	-1607
985.279	-1597
985.360	-1186
985.441	-1471
985.522	-1053
985.604	-958
985.685	-2026
985.766	-838
985.847	-1310
985.928	-1609
986.009	-937
986.090	-1972
986.171	-923
986.252	-1028
986.333	118
986.414	-914
986.495	-386
986.576	-1357
986.656	-811
986.737	-1558
986.818	-490
986.899	-1435
986.980	-1811
987.060	-727
987.141	-1104
987.222	-1525
987.302	-815
987.383	-939
987.464	-1432
987.544	-1198
987.625	-1495
987.705	-1364
987.786	-800
987.866	-1209
987.947	-1487
988.027	-1414
988.108	-1383
988.188	-768
988.268	-81
988.349	-970
988.429	-374
988.509	-315
988.589	-1604
988.670	-2155
988.750	-338
988.830	-1792
988.910	-628
988.990	-1179
989.070	-823
989.151	-1416
989.231	-2196
989.311	-144
989.391	-573
989.471	-1501
989.551	-1635
989.631	-1567
989.711	-1068
989.791	-1311
989.870	-1757
989.950	-696
990.030	-1488
990.110	-1538
990.190	-1953
990.269	-1645
990.349	-1641
990.429	-1156
990.509	-948
990.588	-2199
990.668	-1304
990.747	-1238
990.827	-1318
990.907	-1307
990.986	-1330
991.066	-844
991.145	-1736
991.225	-950
991.304	-1818
991.383	-1067
991.463	-986
991.542	-641
991.622	-1245
991.701	-1487
991.780	-600
991.859	-1728
991.939	-878
992.018	-1676
992.097	-1120
992.176	-932
992.256	-1242
992.335	-2099
992.414	-507
992.493	-1389
992.572	-1908
992.651	-1196
992.730	-1769
992.809	-1663
992.888	-1364
992.967	-1195
993.046	-629
993.125	-1752
993.203	-1063
993.282	-1100
993.361	-1939
993.440	-1534
993.519	-1892
993.597	-1298
993.676	-1714
993.755	-677
993.834	-1763
993.912	-2123
993.991	-807
994.069	-1406
994.148	-1554
994.226	-1094
994.305	-400
994.384	-1566
994.462	-353
994.540	-2280
994.619	-1533
994.697	-183
994.776	-1273
994.854	-1309
994.932	-1497
995.011	-1138
995.089	-1566
995.167	-1390
995.245	-1007
995.324	-1762
995.402	-1043
995.480	-1502
995.558	-788
995.636	-2000
995.714	-1537
995.792	-996
995.870	-1844
995.948	-2006
996.026	-1259
996.104	-1825
996.182	-1128
996.260	-1393
996.338	-1006
996.416	-1297
996.494	-1782
996.572	-237
996.649	-1661
996.727	-1720
996.805	-796
996.883	-1512
996.960	-1446
997.038	-1383
997.116	-534
997.193	-1672
997.271	-211
997.348	-1812
997.426	-1742
997.504	-1451
997.581	-905
997.658	-854
997.736	-1206
997.813	-1936
997.891	-825
997.968	-1325
998.046	-1318
998.123	-1806
998.200	-854
998.277	-1526
998.355	-1327
998.432	-1583
998.509	-594
998.586	-1348
998.663	-1245
998.741	-820
998.818	-953
998.895	-1961
998.972	-1339
999.049	-971
999.126	-1477
999.203	-1423
999.280	-696
999.357	-1603
999.434	-742
999.511	-1174
999.587	-746
999.664	-1790
999.741	-1017
999.818	-924
999.895	-424
999.971	-2027
1000.048	-1362
1000.125	-1790
1000.202	-1777
1000.278	-1312
1000.355	-771
1000.431	-2085
1000.508	-1524
1000.584	-843
1000.661	-1398
1000.738	-2049
1000.814	-481
1000.890	-1469
1000.967	-780
1001.043	-1371
1001.120	-1836
1001.196	-1927
1001.272	-1558
1001.349	-2027
1001.425	-608
1001.501	-875
1001.577	-2249
1001.654	-1841
1001.730	-1627
1001.806	-1897
1001.882	-2075
1001.958	-1179
1002.034	-962
1002.110	-1297
1002.186	-1537
1002.262	-1749
1002.338	-1914
1002.414	-300
1002.490	-683
1002.566	-1644
1002.642	-1788
1002.718	-731
1002.794	-1190
1002.870	-2018
1002.945	-742
1003.021	-1998
1003.097	-1588
1003.173	-1828
1003.248	-2065
1003.324	-1284
1003.400	-1681
1003.475	-2405
1003.551	-1263
1003.626	-1553
1003.702	-1850
1003.777	-735
1003.853	-1405
1003.928	-1924
1004.004	-1610
1004.079	-898
1004.155	-1045
1004.230	-2245
1004.305	-547
1004.381	-2147
1004.456	-1479
1004.531	-2331
1004.607	-1328
1004.682	-1745
1004.757	-1159
1004.832	-1737
1004.907	-1804
1004.982	-1699
1005.057	-1390
1005.133	-1373
1005.208	-2108
1005.283	-803
1005.358	-910
1005.433	-1695
1005.508	-1583
1005.583	-1889
1005.657	-1516
1005.732	-1260
1005.807	-2186
1005.882	-1440
1005.957	-900
1006.032	-1863
1006.106	-1839
1006.181	-1365
1006.256	-1186
1006.331	-2561
1006.405	-1111
1006.480	-1558
1006.554	-1762
1006.629	-2149
1006.704	-1662
1006.778	-1938
1006.853	-762
1006.927	-2178
1007.002	-1788
1007.076	-940
1007.150	-1417
1007.225	-1892
1007.299	-670
1007.373	-2482
1007.448	-1508
1007.522	-1443
1007.596	-1601
1007.671	-2694
1007.745	-962
1007.819	-2188
1007.893	-1690
1007.967	-895
1008.041	-2385
1008.115	-937
1008.190	-1354
1008.264	-1387
1008.338	-1645
1008.412	-1983
1008.486	-784
1008.560	-655
1008.633	-1437
1008.707	-2727
1008.781	-1004
1008.855	-2065
1008.929	-1637
1009.003	-2014
1009.076	-1713
1009.150	-1702
1009.224	-1188
1009.298	-1389
1009.371	-1534
1009.445	-962
1009.519	-1445
1009.592	-2354
1009.666	-1276
1009.739	-2256
1009.813	-1662
1009.886	-2019
1009.960	-1695
1010.033	-892
1010.107	-1558
1010.180	-1525
1010.253	-1217
1010.327	-2458
1010.400	-1336
1010.473	-1487
1010.547	-923
1010.620	-2101
1010.693	-981
1010.766	-1488
1010.840	-469
1010.913	-919
1010.986	-1261
1011.059	-1167
1011.132	-591
1011.205	-191
1011.278	-1095
1011.351	-1514
1011.424	-89
1011.497	-778
1011.570	-932
1011.643	-1715
1011.716	-1464
1011.789	-1917
1011.862	-716
1011.934	-1165
1012.007	-2078
1012.080	-1229
1012.153	-1850
1012.225	-1646
1012.298	-1563
1012.371	-2216
1012.443	-1305
1012.516	-2933
1012.588	-1390
1012.661	-1599
1012.733	-1585
1012.806	-1687
1012.879	-1483
1012.951	-2300
1013.023	-2051
1013.096	-1274
1013.168	-2225
1013.241	-1063
1013.313	-2139
1013.385	-1544
1013.458	-1274
1013.530	-1484
1013.602	-2102
1013.674	-964
1013.746	-1982
1013.819	-2415
1013.891	-947
1013.963	-2125
1014.035	-1444
1014.107	-1871
1014.179	-1095
1014.251	-2723
1014.323	-1497
1014.395	-1602
1014.467	-1509
1014.539	-1988
1014.611	-1253
1014.683	-1566
1014.754	-1148
1014.826	-1415
1014.898	-1756
1014.970	-2396
1015.042	-910
1015.113	-2032
1015.185	-1145
1015.257	-2619
1015.328	-1833
1015.400	-1646
1015.471	-1678
1015.543	-2552
1015.615	-1480
1015.686	-2411
1015.757	-1629
1015.829	-1676
1015.901	-2037
1015.972	-2174
1016.043	-1313
1016.115	-1702
1016.186	-2214
1016.257	-2052
1016.328	-1257
1016.400	-1961
1016.471	-1875
1016.542	-2361
1016.613	-1914
1016.685	-801
1016.756	-1448
1016.827	-1860
1016.898	-2206
1016.969	-1434
1017.040	-1186
1017.111	-2488
1017.182	-2613
1017.253	-1612
1017.324	-2526
1017.395	-2289
1017.466	-1633
1017.537	-1856
1017.608	-1482
1017.678	-1548
1017.749	-1683
1017.820	-2106
1017.891	-2448
1017.961	-2372
1018.032	-2354
1018.103	-1911
1018.173	-1318
1018.244	-1617
1018.315	-1642
1018.385	-989
1018.456	-1386
1018.526	-2743
1018.597	-1571
1018.667	-1785
1018.738	-1408
1018.808	-1879
1018.878	-1445
1018.949	-571
1019.019	-1472
1019.089	-1997
1019.160	-1916
1019.230	-2266
1019.300	-2280
1019.371	-2189
1019.441	-1215
1019.511	-1512
1019.581	-2341
1019.651	-2346
1019.721	-1519
1019.791	-1190
1019.861	-2608
1019.931	-1018
1020.001	-1538
1020.071	-1688
1020.141	-2349
1020.211	-1956
1020.281	-784
1020.351	-2089
1020.421	-1073
1020.491	-1990
1020.560	-2074
1020.630	-1419
1020.700	-1008
1020.770	-1791
1020.839	-1586
1020.909	-2726
1020.979	-2008
1021.048	-1885
1021.118	-2063
1021.187	-1800
1021.257	-1934
1021.326	-1676
1021.396	-1733
1021.465	-1690
1021.535	-1715
1021.604	-2305
1021.674	-1462
1021.743	-1963
1021.812	-1507
1021.882	-2243
1021.951	-1360
1022.020	-2035
1022.089	-1500
1022.159	-2515
1022.228	-1659
1022.297	-1350
1022.366	-1000
1022.435	-2405
1022.504	-1734
1022.573	-2182
1022.642	-1328
1022.711	-2477
1022.781	-1568
1022.849	-1886
1022.918	-2108
1022.987	-1037
1023.056	-1960
1023.125	-1655
1023.194	-1377
1023.263	-1261
1023.331	-1653
1023.400	-2148
1023.469	-1626
1023.538	-1253
1023.606	-1356
1023.675	-2254
1023.744	-1623
1023.812	-2979
1023.881	-1768
1023.949	-2707
1024.018	-1213
1024.086	-2175
1024.155	-1028
1024.223	-2062
1024.292	-1231
1024.360	-1357
1024.429	-1312
1024.497	-1790
1024.565	-1543
1024.634	-1896
1024.702	-1285
1024.770	-2000
1024.838	-1201
1024.907	-1426
1024.975	-2098
1025.043	-1393
1025.111	-2127
1025.179	-1865
1025.247	-2163
1025.315	-1538
1025.383	-1769
1025.451	-2089
1025.519	-1275
1025.587	-1402
1025.655	-896
1025.723	-2084
1025.791	-1635
1025.859	-1546
1025.927	-1587
1025.995	-1634
1026.062	-1301
1026.130	-1073
1026.198	-1910
1026.266	-2266
1026.333	-930
1026.401	-1358
1026.469	-1137
1026.536	-1275
1026.604	-1358
1026.671	-1724
1026.739	-1031
1026.806	-2790
1026.874	-1429
1026.941	-2197
1027.009	-2148
1027.076	-2254
1027.144	-1702
1027.211	-2160
1027.278	-1132
1027.345	-2299
1027.413	-1470
1027.480	-2020
1027.547	-1494
1027.614	-1837
1027.682	-2395
1027.749	-1272
1027.816	-2142
1027.883	-2159
1027.950	-1788
1028.017	-2332
1028.084	-1637
1028.151	-1968
1028.218	-1609
1028.285	-1947
1028.352	-1504
1028.419	-2469
1028.486	-2133
1028.553	-1262
1028.619	-2492
1028.686	-1493
1028.753	-2115
1028.820	-2056
1028.886	-1911
1028.953	-2137
1029.020	-1332
1029.086	-1808
1029.153	-1738
1029.220	-2855
1029.286	-2382
1029.353	-1077
1029.419	-1509
1029.486	-2055
1029.552	-1139
1029.619	-1453
1029.685	-1906
1029.751	-2077
1029.818	-1393
1029.884	-2341
1029.951	-801
1030.017	-1903
1030.083	-1918
1030.149	-1475
1030.216	-2174
1030.282	-1267
1030.348	-1809
1030.414	-2127
1030.480	-2381
1030.546	-2314
1030.612	-1854
1030.678	-2104
1030.744	-1697
1030.810	-1966
1030.876	-1779
1030.942	-1864
1031.008	-1265
1031.074	-1927
1031.140	-1992
1031.206	-2127
1031.272	-2363
1031.337	-1822
1031.403	-2187
1031.469	-1601
1031.534	-1770
1031.600	-1939
1031.666	-2418
1031.731	-2240
1031.797	-1619
1031.863	-2784
1031.928	-1959
1031.994	-1872
1032.059	-2130
1032.125	-1420
1032.190	-2230
1032.256	-2675
1032.321	-2298
1032.386	-2490
1032.452	-1680
1032.517	-2189
1032.582	-2159
1032.647	-1915
1032.713	-1817
1032.778	-1477
1032.843	-2167
1032.908	-2197
1032.974	-1145
1033.039	-2451
1033.104	-1830
1033.169	-2167
1033.234	-2013
1033.299	-1635
1033.364	-1608
1033.429	-1720
1033.494	-1247
1033.559	-2462
1033.624	-1797
1033.688	-1340
1033.753	-1949
1033.818	-2313
1033.883	-2038
1033.948	-2176
1034.013	-1368
1034.077	-1884
1034.142	-1819
1034.207	-1643
1034.271	-1273
1034.336	-1221
1034.400	-1157
1034.465	-2443
1034.530	-1662
1034.594	-995
1034.658	-1177
1034.723	-2486
1034.787	-1840
1034.852	-1976
1034.916	-2269
1034.981	-2039
1035.045	-1802
1035.109	-2320
1035.173	-924
1035.238	-2191
1035.302	-2391
1035.366	-2126
1035.430	-1388
1035.495	-2993
1035.559	-2306
1035.623	-2342
1035.687	-2496
1035.751	-2053
1035.815	-2797
1035.879	-2273
1035.943	-1616
1036.007	-2451
1036.071	-1507
1036.135	-2933
1036.198	-1946
1036.262	-2638
1036.326	-1926
1036.390	-2422
1036.454	-1647
1036.517	-2190
1036.581	-1394
1036.645	-1534
1036.709	-868
1036.772	-2195
1036.836	-1932
1036.900	-1653
1036.963	-1911
1037.026	-1901
1037.090	-1780
1037.154	-924
1037.217	-1214
1037.280	-2428
1037.344	-1276
1037.407	-2393
1037.471	-1805
1037.534	-2462
1037.597	-1890
1037.661	-2256
1037.724	-1916
1037.787	-1967
1037.850	-1812
1037.913	-2115
1037.977	-1659
1038.040	-2624
1038.103	-2057
1038.166	-2048
1038.229	-2605
1038.292	-1674
1038.355	-1973
1038.418	-2324
1038.481	-2230
1038.544	-1908
1038.607	-2632
1038.670	-1809
1038.732	-1905
1038.795	-1976
1038.858	-1476
1038.921	-2433
1038.984	-1578
1039.046	-2098
1039.109	-1363
1039.172	-2476
1039.234	-1661
1039.297	-2166
1039.360	-1875
1039.422	-1781
1039.485	-2105
1039.547	-2382
1039.610	-1738
1039.672	-2418
1039.734	-2230
1039.797	-2110
1039.859	-1971
1039.922	-2568
1039.984	-1857
1040.046	-2136
1040.109	-2972
1040.171	-2039
1040.233	-2560
1040.295	-2177
1040.358	-2185
1040.420	-2183
1040.482	-1979
1040.544	-2081
1040.606	-2026
1040.668	-2778
1040.730	-2054
1040.792	-1813
1040.854	-1284
1040.916	-2394
1040.978	-1828
1041.040	-1426
1041.102	-1887
1041.164	-2483
1041.225	-2182
1041.287	-2705
1041.349	-1680
1041.411	-2202
1041.472	-1831
1041.534	-1579
1041.596	-2027
1041.657	-2076
1041.719	-1445
1041.781	-1882
1041.842	-2481
1041.904	-2045
1041.965	-1596
1042.027	-2306
1042.088	-1854
1042.150	-2346
1042.211	-1597
1042.272	-1373
1042.334	-1676
1042.395	-3367
1042.456	-2164
1042.518	-2372
1042.579	-1809
1042.640	-2921
1042.701	-2292
1042.763	-2597
1042.824	-1829
1042.885	-2596
1042.946	-1472
1043.007	-1480
1043.068	-2247
1043.129	-2310
1043.190	-1800
1043.251	-1739
1043.312	-2047
1043.373	-1794
1043.434	-1654
1043.495	-2099
1043.556	-720
1043.616	-1914
1043.677	-2043
1043.738	-1587
1043.799	-2016
1043.859	-1905
1043.920	-1865
1043.981	-2340
1044.041	-2037
1044.102	-2165
1044.162	-1425
1044.223	-1363
1044.284	-1792
1044.344	-1944
1044.405	-1844
1044.465	-2785
1044.525	-2155
1044.586	-1483
1044.646	-2054
1044.707	-1821
1044.767	-1270
1044.827	-2575
1044.887	-995
1044.948	-2091
1045.008	-1777
1045.068	-1978
1045.128	-877
1045.188	-1667
1045.249	-1097
1045.309	-1865
1045.369	-1377
1045.429	-2297
1045.489	-2082
1045.549	-2069
1045.609	-1102
1045.669	-2036
1045.729	-1792
1045.789	-1592
1045.848	-1266
1045.908	-1572
1045.968	-1626
1046.028	-2113
1046.088	-2084
1046.147	-1436
1046.207	-1461
1046.267	-2048
1046.326	-1459
1046.386	-1754
1046.446	-717
1046.505	-1903
1046.565	-1142
1046.624	-1019
1046.684	-977
1046.743	-813
1046.803	-386
1046.862	-873
1046.922	0
