'Start Wavelength	183.907
'End Wavelength	1046.922
'Gate Delay	5.000
'Gate Width (ms)	1.050
'Laser Output Level	0.000
'X Position	0.000
'Y Position	0.000
'Z Position	0.000
'Grid Point Number	1.000
'Shot Number	100.000
183.907	646.000
183.977	-136.000
184.047	22
184.116	668
184.186	429
184.256	78
184.325	175
184.395	675
184.465	-22
184.534	470
184.604	396
184.674	92
184.743	-221
184.813	221
184.883	79
184.952	100
185.022	501
185.092	421
185.161	-299
185.231	-236
185.301	595
185.370	494
185.440	968
185.509	161
185.579	636
185.649	324
185.718	83
185.788	656
185.857	413
185.927	1066
185.996	338
186.066	441
186.136	-27
186.205	186
186.275	-355
186.344	169
186.414	13
186.483	781
186.553	-280
186.622	978
186.692	-283
186.761	145
186.831	-446
186.900	259
186.970	-446
187.039	722
187.109	482
187.178	570
187.248	56
187.317	20
187.387	499
187.456	193
187.526	110
187.595	-180
187.664	105
187.734	620
187.803	354
187.873	436
187.942	87
188.012	658
188.081	127
188.150	397
188.220	562
188.289	435
188.358	604
188.428	200
188.497	-71
188.567	396
188.636	761
188.705	472
188.775	-378
188.844	470
188.913	17
188.983	-119
189.052	946
189.121	791
189.191	218
189.260	124
189.329	838
189.399	-21
189.468	321
189.537	630
189.606	427
189.676	-96
189.745	206
189.814	284
189.883	615
189.953	-158
190.022	514
190.091	1118
190.161	1127
190.230	259
190.299	-244
190.368	601
190.437	259
190.507	593
190.576	-446
190.645	994
190.714	753
190.783	552
190.853	9
190.922	433
190.991	383
191.060	604
191.129	274
191.198	211
191.268	-476
191.337	695
191.406	337
191.475	1110
191.544	564
191.613	163
191.682	-161
191.752	871
191.821	356
191.890	304
191.959	314
192.028	551
192.097	883
192.166	373
192.235	4
192.304	362
192.373	379
192.442	136
192.511	607
192.580	-239
192.650	95
192.719	516
192.788	430
192.857	1085
192.926	-210
192.995	248
193.064	425
193.133	1026
193.202	1849
193.271	945
193.340	1367
193.409	329
193.478	907
193.547	2047
193.615	1743
193.684	1085
193.753	879
193.822	719
193.891	212
193.960	372
194.029	257
194.098	866
194.167	-65
194.236	983
194.305	645
194.374	-160
194.443	10
194.512	592
194.580	394
194.649	730
194.718	393
194.787	218
194.856	355
194.925	770
194.994	322
195.062	148
195.131	-346
195.200	840
195.269	254
195.338	-68
195.407	117
195.475	369
195.544	984
195.613	158
195.682	359
195.751	1302
195.819	635
195.888	355
195.957	799
196.026	1191
196.094	802
196.163	638
196.232	345
196.301	994
196.369	483
196.438	647
196.507	426
196.576	609
196.644	98
196.713	368
196.782	28
196.850	534
196.919	203
196.988	839
197.056	-102
197.125	755
197.194	542
197.262	1066
197.331	169
197.400	454
197.468	119
197.537	776
197.606	631
197.674	2093
197.743	362
197.812	956
197.880	761
197.949	838
198.017	1162
198.086	970
198.155	499
198.223	1206
198.292	889
198.360	498
198.429	517
198.497	975
198.566	1246
198.635	960
198.703	367
198.772	628
198.840	1404
198.909	976
198.977	239
199.046	-145
199.114	933
199.183	742
199.251	-102
199.320	317
199.388	602
199.457	-286
199.525	248
199.594	373
199.662	-81
199.731	726
199.799	-125
199.867	973
199.936	461
200.004	148
200.073	634
200.141	661
200.210	352
200.278	918
200.346	844
200.415	975
200.483	-127
200.552	939
200.620	701
200.688	465
200.757	523
200.825	1166
200.893	-182
200.962	612
201.030	231
201.098	-5
201.167	569
201.235	368
201.303	734
201.372	1074
201.440	587
201.508	753
201.577	707
201.645	174
201.713	976
201.781	574
201.850	863
201.918	399
201.986	949
202.055	911
202.123	616
202.191	594
202.259	568
202.327	319
202.396	563
202.464	807
202.532	781
202.600	1669
202.669	607
202.737	923
202.805	577
202.873	1081
202.941	657
203.009	777
203.078	281
203.146	771
203.214	689
203.282	855
203.350	865
203.418	695
203.487	693
203.555	134
203.623	587
203.691	961
203.759	759
203.827	1295
203.895	837
203.963	221
204.031	296
204.099	1014
204.168	558
204.236	934
204.304	362
204.372	548
204.440	324
204.508	698
204.576	286
204.644	124
204.712	446
204.780	322
204.848	54
204.916	602
204.984	716
205.052	1619
205.120	724
205.188	1678
205.256	1157
205.324	572
205.392	708
205.460	1086
205.528	1345
205.596	359
205.664	821
205.732	1040
205.799	2662
205.867	2316
205.935	462
206.003	698
206.071	926
206.139	1228
206.207	1242
206.275	1278
206.343	796
206.411	796
206.478	1156
206.546	1151
206.614	418
206.682	902
206.750	462
206.818	690
206.885	856
206.953	799
207.021	1065
207.089	1345
207.157	179
207.225	965
207.292	453
207.360	685
207.428	738
207.496	1220
207.563	676
207.631	644
207.699	736
207.767	742
207.834	324
207.902	940
207.970	736
208.038	45
208.105	282
208.173	948
208.241	867
208.309	1094
208.376	1766
208.444	1253
208.512	855
208.579	1283
208.647	878
208.715	1272
208.782	776
208.850	1166
208.918	421
208.985	1133
209.053	313
209.120	910
209.188	1070
209.256	784
209.323	882
209.391	1030
209.459	738
209.526	1125
209.594	562
209.661	1138
209.729	1112
209.796	1190
209.864	790
209.932	1350
209.999	1277
210.067	1247
210.134	783
210.202	1503
210.269	1027
210.337	1394
210.404	781
210.472	1485
210.539	1157
210.607	1109
210.674	941
210.742	169
210.809	806
210.877	1054
210.944	1174
211.012	1155
211.079	1480
211.146	1324
211.214	1097
211.281	1382
211.349	1066
211.416	1420
211.484	977
211.551	1719
211.618	819
211.686	730
211.753	1034
211.821	1591
211.888	1566
211.955	1598
212.023	819
212.090	948
212.157	1458
212.225	1384
212.292	2445
212.359	5455
212.427	5837
212.494	2759
212.561	1522
212.629	2200
212.696	828
212.763	1556
212.831	926
212.898	1399
212.965	1731
213.032	883
213.100	885
213.167	1799
213.234	1245
213.301	1082
213.369	1602
213.436	2050
213.503	1266
213.570	954
213.638	1306
213.705	859
213.772	973
213.839	1353
213.906	905
213.973	1032
214.041	1271
214.108	1261
214.175	565
214.242	1640
214.309	778
214.376	1433
214.444	687
214.511	1885
214.578	1120
214.645	1486
214.712	1474
214.779	1221
214.846	1461
214.913	1655
214.980	1928
215.048	1818
215.115	1722
215.182	1823
215.249	1189
215.316	719
215.383	422
215.450	1003
215.517	1308
215.584	1100
215.651	999
215.718	1505
215.785	1737
215.852	2088
215.919	1777
215.986	1305
216.053	1091
216.120	539
216.187	1149
216.254	767
216.321	893
216.388	695
216.455	1069
216.522	2179
216.589	1001
216.656	2251
216.722	2239
216.789	2169
216.856	2689
216.923	2432
216.990	2241
217.057	1878
217.124	2018
217.191	1873
217.258	2341
217.324	4105
217.391	2828
217.458	2596
217.525	1953
217.592	2222
217.659	1390
217.725	1980
217.792	1534
217.859	1600
217.926	966
217.993	1580
218.059	776
218.126	1358
218.193	436
218.260	276
218.327	596
218.393	1179
218.460	1470
218.527	1231
218.594	590
218.660	1650
218.727	927
218.794	143
218.860	1121
218.927	701
218.994	154
219.061	438
219.127	1864
219.194	1441
219.261	570
219.327	956
219.394	700
219.461	444
219.527	210
219.594	1410
219.661	606
219.727	1210
219.794	1764
219.860	993
219.927	766
219.994	2161
220.060	1943
220.127	1416
220.193	1306
220.260	1649
220.326	2811
220.393	5090
220.460	5075
220.526	3037
220.593	2173
220.659	1735
220.726	2878
220.792	4672
220.859	4507
220.925	7890
220.992	8188
221.058	6478
221.125	5040
221.191	3774
221.258	1632
221.324	1761
221.391	886
221.457	925
221.524	1646
221.590	3096
221.657	4847
221.723	2972
221.789	3053
221.856	1376
221.922	1346
221.989	844
222.055	847
222.121	1260
222.188	1447
222.254	1259
222.321	448
222.387	1150
222.453	1160
222.520	761
222.586	614
222.652	802
222.719	910
222.785	1611
222.851	444
222.918	1059
222.984	923
223.050	1022
223.116	1022
223.183	496
223.249	419
223.315	549
223.382	-14
223.448	999
223.514	-135
223.580	488
223.647	303
223.713	982
223.779	310
223.845	1013
223.911	661
223.978	1019
224.044	424
224.110	750
224.176	1365
224.242	319
224.309	590
224.375	1043
224.441	306
224.507	414
224.573	819
224.639	533
224.705	499
224.772	171
224.838	132
224.904	768
224.970	204
225.036	94
225.102	558
225.168	697
225.234	460
225.300	866
225.366	141
225.432	591
225.499	649
225.565	765
225.631	836
225.697	1111
225.763	1232
225.829	1662
225.895	1267
225.961	2146
226.027	1494
226.093	2235
226.159	2019
226.225	4096
226.291	9999
226.357	8577
226.423	3703
226.489	2530
226.554	1712
226.620	2403
226.686	3204
226.752	4340
226.818	8724
226.884	12139
226.950	7671
227.016	3758
227.082	2255
227.148	2228
227.214	2035
227.279	2194
227.345	1252
227.411	1018
227.477	936
227.543	2218
227.609	1811
227.674	1542
227.740	938
227.806	1720
227.872	843
227.938	1805
228.003	1203
228.069	600
228.135	1124
228.201	1238
228.267	1007
228.332	1349
228.398	571
228.464	560
228.530	738
228.595	673
228.661	349
228.727	1089
228.792	776
228.858	835
228.924	196
228.990	1560
229.055	1491
229.121	1302
229.187	688
229.252	899
229.318	725
229.384	1007
229.449	435
229.515	311
229.581	-481
229.646	1275
229.712	469
229.777	2047
229.843	1223
229.909	1755
229.974	2035
230.040	1092
230.105	1415
230.171	1669
230.236	2789
230.302	2474
230.368	1423
230.433	1532
230.499	588
230.564	1528
230.630	958
230.695	1132
230.761	877
230.826	559
230.892	1672
230.957	866
231.023	872
231.088	1008
231.154	808
231.219	1570
231.284	1984
231.350	1160
231.415	1030
231.481	671
231.546	1014
231.612	1046
231.677	739
231.742	611
231.808	1072
231.873	899
231.939	252
232.004	2001
232.069	1024
232.135	1532
232.200	235
232.265	1441
232.331	422
232.396	289
232.461	535
232.527	894
232.592	842
232.657	1476
232.723	1352
232.788	574
232.853	180
232.918	935
232.984	482
233.049	964
233.114	1124
233.179	509
233.245	2084
233.310	1222
233.375	121
233.440	895
233.506	817
233.571	710
233.636	244
233.701	513
233.766	1880
233.832	278
233.897	1922
233.962	602
234.027	815
234.092	553
234.157	1246
234.222	1356
234.288	2586
234.353	4731
234.418	3282
234.483	2250
234.548	585
234.613	1607
234.678	1988
234.743	3308
234.808	4690
234.873	1567
234.938	1501
235.004	937
235.069	1213
235.134	1152
235.199	522
235.264	746
235.329	1025
235.394	1760
235.459	1133
235.524	1221
235.589	1196
235.654	1205
235.719	221
235.784	777
235.849	1146
235.913	3284
235.978	3268
236.043	2143
236.108	936
236.173	1479
236.238	1223
236.303	1739
236.368	1549
236.433	3085
236.498	2364
236.563	3159
236.627	9287
236.692	16375
236.757	8031
236.822	4438
236.887	4021
236.952	3120
237.017	2542
237.081	2472
237.146	5160
237.211	11587
237.276	19957
237.341	17003
237.405	6089
237.470	4637
237.535	2756
237.600	2273
237.664	1590
237.729	1281
237.794	5018
237.859	5012
237.923	1819
237.988	1796
238.053	2816
238.118	3673
238.182	6376
238.247	3581
238.312	2522
238.376	2299
238.441	1186
238.506	1613
238.570	942
238.635	1567
238.700	889
238.764	1863
238.829	3336
238.893	2340
238.958	1455
239.023	996
239.087	1305
239.152	1423
239.216	611
239.281	976
239.346	1412
239.410	1172
239.475	2414
239.539	7486
239.604	2264
239.668	1401
239.733	1213
239.797	2047
239.862	3961
239.926	4269
239.991	1561
240.055	1155
240.120	1714
240.184	1073
240.249	999
240.313	633
240.378	938
240.442	5418
240.507	3447
240.571	1554
240.635	4083
240.700	1851
240.764	1047
240.829	487
240.893	494
240.957	1440
241.022	5462
241.086	4463
241.151	1111
241.215	1133
241.279	1732
241.344	2490
241.408	830
241.472	1550
241.537	1181
241.601	1556
241.665	1288
241.730	1691
241.794	1141
241.858	1339
241.922	1350
241.987	1350
242.051	1177
242.115	1238
242.179	843
242.244	576
242.308	1229
242.372	1789
242.436	1287
242.501	1747
242.565	1713
242.629	645
242.693	1207
242.757	1529
242.822	555
242.886	834
242.950	1245
243.014	1382
243.078	1470
243.142	1452
243.206	1251
243.271	1569
243.335	1563
243.399	2513
243.463	15832
243.527	13250
243.591	2933
243.655	2887
243.719	1351
243.783	2382
243.847	3631
243.911	3820
243.975	3908
244.040	1918
244.104	1532
244.168	978
244.232	3246
244.296	3733
244.360	2380
244.424	1677
244.488	1396
244.552	1123
244.615	1119
244.679	1119
244.743	2449
244.807	600
244.871	1171
244.935	713
244.999	924
245.063	1675
245.127	1577
245.191	3563
245.255	1456
245.319	2049
245.383	376
245.446	1583
245.510	740
245.574	1302
245.638	854
245.702	2367
245.766	3122
245.829	1315
245.893	931
245.957	1183
246.021	2166
246.085	1287
246.149	2322
246.212	6181
246.276	3236
246.340	2584
246.404	1746
246.467	3712
246.531	1892
246.595	2311
246.659	2105
246.722	2230
246.786	1839
246.850	3495
246.913	2901
246.977	1208
247.041	1761
247.104	1623
247.168	2020
247.232	6457
247.295	6380
247.359	2637
247.423	2595
247.486	2808
247.550	1423
247.614	1603
247.677	2505
247.741	1534
247.804	1191
247.868	1550
247.932	6014
247.995	5039
248.059	1403
248.122	2130
248.186	2602
248.249	6768
248.313	13891
248.376	9385
248.440	4920
248.503	2470
248.567	2836
248.630	4656
248.694	5871
248.757	9797
248.821	10382
248.884	6562
248.948	8554
249.011	11428
249.075	15107
249.138	8129
249.202	4086
249.265	3981
249.328	3894
249.392	3358
249.455	1851
249.519	2504
249.582	3413
249.645	4799
249.709	2797
249.772	2709
249.835	2166
249.899	1913
249.962	2771
250.025	3338
250.089	7383
250.152	4785
250.215	2786
250.279	3245
250.342	3687
250.405	2890
250.468	2595
250.532	3759
250.595	8450
250.658	32184
250.721	18411
250.785	7462
250.848	4798
250.911	3870
250.974	3159
251.038	6676
251.101	6477
251.164	4604
251.227	5071
251.290	4620
251.354	12742
251.417	33614
251.480	14802
251.543	31388
251.606	49484
251.669	19630
251.732	12182
251.795	12660
251.859	20992
251.922	27808
251.985	9174
252.048	6339
252.111	3998
252.174	4912
252.237	12370
252.300	15061
252.363	31569
252.426	27584
252.489	9809
252.552	8587
252.615	5421
252.678	8049
252.741	13072
252.804	31037
252.867	30600
252.930	15946
252.993	8710
253.056	6526
253.119	5378
253.182	5434
253.245	6650
253.308	4496
253.371	4978
253.434	4961
253.497	5684
253.559	7426
253.622	4991
253.685	8289
253.748	3687
253.811	3388
253.874	4220
253.937	3704
254.000	3055
254.062	8114
254.125	5681
254.188	9654
254.251	4125
254.314	3428
254.376	7119
254.439	6442
254.502	3928
254.565	8096
254.628	6804
254.690	4906
254.753	2362
254.816	2997
254.878	3402
254.941	6704
255.004	3488
255.067	3085
255.129	2525
255.192	1323
255.255	1537
255.317	1811
255.380	753
255.443	1620
255.505	1319
255.568	1685
255.631	1391
255.693	1827
255.756	427
255.819	1565
255.881	844
255.944	1687
256.006	974
256.069	1464
256.132	1756
256.194	2835
256.257	3506
256.319	3116
256.382	1641
256.444	2131
256.507	1983
256.569	1011
256.632	2406
256.694	3602
256.757	19046
256.819	17393
256.882	5426
256.944	3512
257.007	3625
257.069	3074
257.132	2246
257.194	2530
257.257	2063
257.319	1426
257.381	3213
257.444	14774
257.506	36081
257.569	21579
257.631	11774
257.693	5164
257.756	3558
257.818	2395
257.880	1885
257.943	1776
258.005	2111
258.067	2471
258.130	1761
258.192	3657
258.254	2574
258.317	1606
258.379	2550
258.441	6478
258.503	3854
258.566	9571
258.628	3797
258.690	1600
258.753	3591
258.815	3875
258.877	1699
258.939	1346
259.001	1432
259.064	1611
259.126	2319
259.188	2381
259.250	2393
259.312	5204
259.375	8210
259.437	2396
259.499	1995
259.561	2304
259.623	2295
259.685	1603
259.747	1487
259.809	10880
259.872	11224
259.934	20069
259.996	9671
260.058	3798
260.120	2282
260.182	1536
260.244	1329
260.306	533
260.368	1353
260.430	1724
260.492	8381
260.554	8449
260.616	4648
260.678	12577
260.740	5505
260.802	2179
260.864	1801
260.926	1456
260.988	1671
261.050	3444
261.112	12461
261.174	14699
261.236	4549
261.298	2842
261.359	7635
261.421	4016
261.483	1699
261.545	2411
261.607	391
261.669	2067
261.731	6535
261.793	5427
261.854	1704
261.916	2248
261.978	3126
262.040	1616
262.102	2026
262.164	2753
262.225	1132
262.287	2395
262.349	4178
262.411	1991
262.472	1269
262.534	5944
262.596	3709
262.658	2737
262.719	1380
262.781	4861
262.843	4289
262.904	1906
262.966	1807
263.028	4462
263.090	28594
263.151	21776
263.213	8151
263.275	4951
263.336	1741
263.398	1690
263.459	1304
263.521	2729
263.583	3862
263.644	2057
263.706	765
263.767	1331
263.829	1330
263.891	1048
263.952	374
264.014	1608
264.075	8080
264.137	5876
264.198	1566
264.260	1058
264.321	2328
264.383	10637
264.444	8388
264.506	2347
264.567	1741
264.629	11099
264.690	6565
264.752	2163
264.813	1597
264.875	862
264.936	1974
264.998	1049
265.059	398
265.120	1193
265.182	5787
265.243	19141
265.305	5851
265.366	2198
265.427	1542
265.489	1154
265.550	1064
265.611	1904
265.673	496
265.734	1009
265.795	548
265.857	357
265.918	1066
265.979	11695
266.040	26026
266.102	7120
266.163	4848
266.224	2769
266.286	1751
266.347	1214
266.408	1008
266.469	893
266.530	426
266.592	1343
266.653	4432
266.714	2171
266.775	797
266.836	649
266.898	1174
266.959	3204
267.020	756
267.081	1169
267.142	104
267.203	353
267.264	395
267.326	1197
267.387	303
267.448	500
267.509	565
267.570	783
267.631	239
267.692	160
267.753	403
267.814	634
267.875	4562
267.936	4069
267.997	3547
268.058	1837
268.119	1828
268.180	1581
268.241	-255
268.302	1357
268.363	393
268.424	451
268.485	622
268.546	-87
268.607	116
268.668	423
268.729	394
268.790	583
268.851	2016
268.912	4746
268.972	2537
269.033	629
269.094	-458
269.155	1067
269.216	1574
269.277	630
269.338	399
269.398	729
269.459	915
269.520	2552
269.581	2410
269.642	1749
269.702	1570
269.763	1966
269.824	457
269.885	2428
269.945	1701
270.006	709
270.067	-63
270.128	105
270.188	497
270.249	466
270.310	78
270.370	1475
270.431	994
270.492	354
270.553	1217
270.613	3778
270.674	3950
270.734	803
270.795	1037
270.856	2243
270.916	191
270.977	1934
271.038	1708
271.098	1480
271.159	3092
271.219	602
271.280	1077
271.340	1296
271.401	2167
271.462	2980
271.522	1474
271.583	775
271.643	1409
271.704	568
271.764	1958
271.825	7428
271.885	16808
271.946	7728
272.006	3910
272.066	13010
272.127	6037
272.187	1521
272.248	1390
272.308	4457
272.369	7711
272.429	2021
272.489	5278
272.550	2766
272.610	3873
272.671	2602
272.731	4917
272.791	3441
272.852	1886
272.912	1392
272.972	1017
273.033	2000
273.093	2271
273.153	2013
273.214	1164
273.274	3526
273.334	14424
273.394	7896
273.455	3793
273.515	10361
273.575	7852
273.635	3144
273.696	10202
273.756	6981
273.816	1817
273.876	2991
273.936	11512
273.997	6068
274.057	1809
274.117	2176
274.177	8278
274.237	18769
274.297	9370
274.358	8944
274.418	9389
274.478	4118
274.538	1930
274.598	4363
274.658	11577
274.718	6578
274.778	2447
274.838	2531
274.898	11434
274.958	12643
275.018	12069
275.078	4461
275.138	1937
275.198	1453
275.258	1467
275.318	2201
275.378	4330
275.438	3648
275.498	2748
275.558	13228
275.618	12072
275.678	5758
275.738	6340
275.798	4528
275.858	1866
275.918	990
275.978	2361
276.038	1034
276.098	1530
276.157	6164
276.217	6082
276.277	3582
276.337	2166
276.397	1533
276.457	1968
276.517	1072
276.576	808
276.636	894
276.696	3193
276.756	6109
276.815	959
276.875	1606
276.935	1434
276.995	1158
277.055	522
277.114	1170
277.174	4474
277.234	5190
277.293	1955
277.353	1868
277.413	1290
277.472	1211
277.532	618
277.592	2230
277.651	8988
277.711	4337
277.771	5508
277.830	13054
277.890	4771
277.950	13452
278.009	12593
278.069	4667
278.128	9753
278.188	4439
278.248	5049
278.307	8811
278.367	2838
278.426	1710
278.486	1752
278.545	1390
278.605	1065
278.664	1504
278.724	1624
278.783	10810
278.843	7042
278.902	2062
278.962	1725
279.021	2257
279.081	3164
279.140	2272
279.199	1044
279.259	1480
279.318	1925
279.378	3128
279.437	11475
279.496	36362
279.556	61662
279.615	17832
279.675	6421
279.734	7813
279.793	15681
279.853	11148
279.912	4027
279.971	3280
280.031	3492
280.090	11567
280.149	7680
280.208	18942
280.268	52733
280.327	16193
280.386	5680
280.445	8341
280.505	4121
280.564	3552
280.623	2421
280.682	7010
280.742	3293
280.801	1549
280.860	576
280.919	2053
280.978	1381
281.037	1837
281.097	241
281.156	1431
281.215	920
281.274	4325
281.333	9686
281.392	2852
281.451	1338
281.510	1068
281.569	716
281.628	651
281.688	1288
281.747	2292
281.806	684
281.865	1064
281.924	1338
281.983	461
282.042	93
282.101	1306
282.160	1312
282.219	310
282.278	2216
282.337	5467
282.396	1614
282.454	964
282.513	4285
282.572	7002
282.631	2309
282.690	982
282.749	641
282.808	1998
282.867	1872
282.926	1013
282.985	696
283.043	778
283.102	679
283.161	1574
283.220	8544
283.279	5493
283.338	1047
283.396	1366
283.455	843
283.514	2451
283.573	2454
283.631	1609
283.690	630
283.749	1898
283.808	3688
283.866	1756
283.925	871
283.984	1623
284.043	1991
284.101	881
284.160	1684
284.219	2644
284.277	1874
284.336	5824
284.395	11532
284.453	4206
284.512	2596
284.570	3974
284.629	1849
284.688	2338
284.746	1988
284.805	2872
284.863	4004
284.922	3222
284.981	3869
285.039	8232
285.098	18401
285.156	51758
285.215	70071
285.273	45427
285.332	20255
285.390	12384
285.449	8077
285.507	6245
285.566	4231
285.624	3648
285.683	2116
285.741	1988
285.799	1814
285.858	2468
285.916	1213
285.975	1118
286.033	1054
286.091	663
286.150	862
286.208	1968
286.267	1115
286.325	1784
286.383	2531
286.442	1259
286.500	209
286.558	848
286.616	929
286.675	1681
286.733	684
286.791	1908
286.850	1797
286.908	3575
286.966	2987
287.024	1603
287.083	736
287.141	454
287.199	1641
287.257	1958
287.315	1470
287.374	3374
287.432	4444
287.490	1566
287.548	1430
287.606	1290
287.664	1473
287.723	3122
287.781	1775
287.839	2055
287.897	2028
287.955	2580
288.013	4824
288.071	20507
288.129	88180
288.187	83853
288.245	25469
288.303	11176
288.361	8683
288.419	6991
288.477	3900
288.535	2640
288.593	1790
288.651	959
288.709	720
288.767	528
288.825	634
288.883	1896
288.941	1183
288.999	1204
289.057	537
289.115	1326
289.173	698
289.231	1285
289.289	501
289.346	1133
289.404	1414
289.462	2587
289.520	1646
289.578	452
289.636	-16
289.694	1178
289.751	248
289.809	1091
289.867	415
289.925	2121
289.983	796
290.040	908
290.098	581
290.156	1040
290.214	1023
290.271	968
290.329	57
290.387	-133
290.444	94
290.502	508
290.560	867
290.617	165
290.675	393
290.733	652
290.790	789
290.848	448
290.906	1149
290.963	1294
291.021	186
291.078	1171
291.136	2513
291.194	12875
291.251	8037
291.309	2639
291.366	988
291.424	1266
291.481	875
291.539	437
291.596	131
291.654	504
291.711	176
291.769	1627
291.826	1578
291.884	1281
291.941	627
291.999	1025
292.056	1062
292.114	1561
292.171	671
292.228	367
292.286	2468
292.343	3728
292.401	2357
292.458	1533
292.515	1278
292.573	2288
292.630	1915
292.687	2085
292.745	1702
292.802	6605
292.859	10719
292.917	9597
292.974	2885
293.031	1536
293.089	1478
293.146	1129
293.203	750
293.260	1459
293.318	2967
293.375	3498
293.432	1152
293.489	1161
293.546	1257
293.604	3515
293.661	11772
293.718	13785
293.775	5524
293.832	3231
293.889	2588
293.947	3303
294.004	2736
294.061	3242
294.118	8692
294.175	17419
294.232	11860
294.289	4181
294.346	2231
294.403	2602
294.460	1692
294.517	1273
294.574	1080
294.631	962
294.688	2803
294.745	12820
294.802	29137
294.859	17727
294.916	7631
294.973	4824
295.030	3225
295.087	3033
295.144	2359
295.201	1675
295.258	1857
295.315	3862
295.372	11787
295.429	9147
295.486	4490
295.542	7421
295.599	21580
295.656	16544
295.713	14349
295.770	9938
295.827	4044
295.883	3350
295.940	4152
295.997	5622
296.054	3143
296.111	1836
296.167	1681
296.224	1763
296.281	1090
296.338	1208
296.394	709
296.451	3382
296.508	11020
296.564	12131
296.621	10092
296.678	21724
296.734	14800
296.791	6464
296.848	3073
296.904	7024
296.961	13292
297.018	15304
297.074	8002
297.131	3743
297.187	2894
297.244	8798
297.301	23047
297.357	15792
297.414	5423
297.470	3906
297.527	2556
297.583	2089
297.640	2022
297.696	1744
297.753	1302
297.809	1316
297.866	742
297.922	1426
297.979	891
298.035	1770
298.092	4919
298.148	9732
298.204	5662
298.261	4969
298.317	14708
298.374	15337
298.430	7090
298.486	4778
298.543	2824
298.599	2992
298.656	4559
298.712	12585
298.768	17606
298.824	7468
298.881	2760
298.937	2128
298.993	3105
299.050	2736
299.106	2210
299.162	1972
299.218	2165
299.275	790
299.331	2423
299.387	9013
299.443	17450
299.500	9330
299.556	4046
299.612	3149
299.668	2133
299.724	2272
299.780	1747
299.837	3068
299.893	6873
299.949	17323
300.005	13720
300.061	20141
300.117	17967
300.173	7338
300.229	5483
300.285	7478
300.341	4480
300.397	2839
300.453	1657
300.510	1634
300.566	2057
300.622	3140
300.678	8560
300.734	12315
300.790	14585
300.845	12359
300.901	10369
300.957	13394
301.013	6822
301.069	4075
301.125	3813
301.181	3922
301.237	2192
301.293	2148
301.349	976
301.405	1596
301.461	988
301.516	1821
301.572	2854
301.628	4276
301.684	4359
301.740	9246
301.796	7824
301.851	8383
301.907	11464
301.963	12802
302.019	31577
302.074	46525
302.130	29848
302.186	14247
302.242	6955
302.297	5606
302.353	7909
302.409	10950
302.464	6961
302.520	11731
302.576	20400
302.631	16814
302.687	8476
302.743	4537
302.798	3206
302.854	2002
302.910	3348
302.965	5888
303.021	6134
303.076	6644
303.132	9538
303.187	7566
303.243	4548
303.299	3161
303.354	2628
303.410	2818
303.465	2300
303.521	2398
303.576	2530
303.632	4119
303.687	9957
303.743	15446
303.798	8318
303.853	4425
303.909	2845
303.964	4095
304.020	6378
304.075	6752
304.130	8791
304.186	12714
304.241	10780
304.297	7908
304.352	4272
304.358	4166
304.407	3307
304.449	3901
304.463	4103
304.518	3224
304.539	3318
304.573	3461
304.629	3941
304.630	4022
304.684	7774
304.720	13986
304.739	17183
304.794	13331
304.811	11828
304.850	7889
304.902	4550
304.905	4353
304.960	3536
304.992	3448
305.015	3377
305.071	2893
305.083	2758
305.126	2244
305.173	2162
305.181	2153
305.236	1606
305.264	2047
305.292	2515
305.347	2527
305.354	2595
305.402	3127
305.445	4519
305.457	4884
305.512	4463
305.535	4272
305.567	3999
305.622	5067
305.626	5496
305.678	13310
305.716	19653
305.733	22106
305.788	17324
305.807	16905
305.843	15662
305.897	17539
305.898	17564
305.953	13013
305.988	10046
306.008	8153
306.063	4966
306.078	4419
306.118	3618
306.168	2942
306.173	2880
306.228	2157
306.259	2270
306.283	2455
306.338	2152
306.349	2416
306.393	3456
306.440	3556
306.448	3570
306.503	4182
306.530	5892
306.558	8858
306.613	17973
306.620	18422
306.668	19818
306.711	20566
306.723	20120
306.778	13137
306.801	10742
306.833	7917
306.888	3767
306.892	3615
306.943	3202
306.982	3202
306.997	3197
307.052	3254
307.072	3589
307.107	4632
307.162	7385
307.163	7421
307.217	11993
307.253	15169
307.272	16128
307.327	13809
307.343	13114
307.381	9781
307.434	8521
307.436	8804
307.491	20103
307.524	24741
307.546	25081
307.600	18567
307.614	17016
307.655	10914
307.704	6111
307.710	6074
307.765	8785
307.795	12398
307.819	17371
307.874	24546
307.885	24710
307.929	16451
307.975	10985
307.984	10974
308.038	13588
308.065	17774
308.093	27505
308.148	59769
308.156	64710
308.202	101828
308.246	114678
308.257	107696
308.312	60094
308.336	42435
308.366	33219
308.421	19783
308.426	18788
308.475	12990
308.517	9223
308.530	8642
308.585	7035
308.607	6739
308.639	6940
308.694	8869
308.697	9175
308.748	20612
308.787	28085
308.803	28009
308.857	20568
308.877	18738
308.912	15216
308.967	11058
308.967	11009
309.021	13180
309.058	16170
309.076	19541
309.130	34681
309.148	41991
309.185	74531
309.238	126310
309.239	126932
309.293	139901
309.328	136793
309.348	115264
309.402	56182
309.418	41093
309.457	29270
309.508	16659
309.511	16319
309.566	13522
309.598	12565
309.620	13480
309.674	16811
309.688	17440
309.729	16503
309.778	13892
309.783	13518
309.837	10103
309.868	8816
309.892	10335
309.946	16391
309.959	17878
310.001	26819
310.049	33721
310.055	32474
310.109	19391
310.139	12846
310.163	10254
310.218	5533
310.229	4682
310.272	4154
310.319	4033
310.326	4108
310.381	4558
310.409	4729
310.435	4471
310.489	4097
310.499	4054
310.543	4729
310.589	5300
310.598	5411
310.652	6177
310.679	6449
310.706	5589
310.760	3781
310.769	3507
310.814	2783
310.859	2167
310.868	2221
310.923	2420
310.948	2660
310.977	3149
311.031	3924
311.038	4032
311.085	4182
311.128	4071
311.139	4002
311.193	3944
311.218	3848
311.247	3619
311.301	3185
311.308	3120
311.356	3277
311.398	3525
311.410	3538
311.464	3444
311.488	3411
311.518	3280
311.572	3079
311.578	3059
311.626	4191
311.668	5116
311.680	5297
311.734	6145
311.758	6491
311.788	6556
311.842	6645
311.847	6647
311.896	7261
311.937	7861
311.950	8217
312.004	9648
312.027	10262
312.058	8083
312.112	4172
312.117	3778
312.165	3671
312.207	3579
312.297	6759
312.386	5936
312.476	3960
312.566	6712
312.656	4334
312.745	3227
312.835	3953
312.925	4549
313.015	4567
313.104	5856
313.194	3516
313.284	3415
313.374	3673
313.463	3429
313.553	3078
313.643	3857
313.732	2805
313.822	2487
313.912	3648
314.001	4387
314.091	5037
314.180	8223
314.270	5795
314.360	6675
314.449	4544
314.539	3669
314.628	3557
314.718	4293
314.808	6692
314.897	3601
314.987	2773
315.076	3931
315.166	5682
315.255	7252
315.345	4606
315.434	6457
315.524	5194
315.613	6160
315.703	5193
315.792	5477
315.881	10100
315.971	6306
316.060	8399
316.150	21877
316.239	24903
316.328	11026
316.418	3296
316.507	2780
316.597	3999
316.686	3899
316.775	7242
316.865	25836
316.954	7365
317.043	3357
317.133	3034
317.222	2945
317.311	2688
317.400	2657
317.490	3611
317.579	4092
317.668	2697
317.757	3867
317.847	5895
317.936	15829
318.025	11591
318.114	6325
318.203	4902
318.293	4765
318.382	8822
318.471	9193
318.560	13726
318.649	45083
318.738	15091
318.828	4221
318.917	5345
319.006	7621
319.095	23035
319.184	49696
319.273	34570
319.362	12461
319.451	4801
319.540	4006
319.629	6285
319.718	12800
319.807	6400
319.896	13502
319.985	59159
320.074	32120
320.163	7300
320.252	13538
320.341	11048
320.430	10763
320.519	7672
320.608	5401
320.697	5205
320.786	3927
320.875	4847
320.964	5134
321.053	7513
321.142	10267
321.230	13996
321.319	10436
321.408	23672
321.497	16534
321.586	10421
321.675	18351
321.764	22145
321.852	11681
321.941	13534
322.030	10042
322.119	9933
322.207	24187
322.296	34147
322.385	16411
322.474	12339
322.562	24307
322.651	22249
322.740	11595
322.829	22661
322.917	30541
323.006	17339
323.095	9606
323.183	9015
323.272	12113
323.361	18596
323.449	72374
323.538	35056
323.626	48417
323.715	50890
323.804	12750
323.892	48152
323.981	37119
324.069	8429
324.158	24423
324.246	38354
324.335	7216
324.424	9831
324.512	4288
324.601	5289
324.689	4966
324.778	7523
324.866	22638
324.954	8841
325.043	4059
325.131	10153
325.220	25460
325.308	33623
325.397	19601
325.485	15672
325.574	3937
325.662	3509
325.750	2870
325.839	3890
325.927	2711
326.015	4746
326.104	7917
326.192	18286
326.280	4487
326.369	3759
326.457	4176
326.545	7142
326.634	4593
326.722	2300
326.810	2949
326.898	2956
326.987	2538
327.075	6296
327.163	10479
327.251	7109
327.340	3826
327.428	3045
327.516	2770
327.604	2713
327.692	3992
327.781	4734
327.869	11348
327.957	7427
328.045	4623
328.133	2490
328.221	4869
328.309	3891
328.397	2734
328.485	3210
328.574	4144
328.662	12329
328.750	12787
328.838	7538
328.926	3396
329.014	2172
329.102	3485
329.190	12506
329.278	10882
329.366	2055
329.454	2395
329.542	3454
329.630	1757
329.718	2403
329.806	2799
329.893	3334
329.981	3799
330.069	1777
330.157	5022
330.245	16667
330.333	11812
330.421	2926
330.509	3517
330.597	13966
330.684	14731
330.772	5961
330.860	11383
330.948	16022
331.036	8349
331.123	2205
331.211	2916
331.299	4123
331.387	7929
331.475	23757
331.562	8338
331.650	3339
331.738	3785
331.825	7714
331.913	2892
332.001	2449
332.089	4264
332.176	12281
332.264	26043
332.352	31939
332.439	6222
332.527	4699
332.614	3349
332.702	7697
332.790	3159
332.877	9210
332.965	32366
333.052	7615
333.140	3428
333.228	10837
333.315	3984
333.403	4162
333.490	15417
333.578	18077
333.665	7362
333.753	5273
333.840	2595
333.928	3971
334.015	15808
334.103	22352
334.190	70296
334.278	29578
334.365	8131
334.452	5971
334.540	3270
334.627	4992
334.715	8928
334.802	11058
334.889	75363
334.977	118467
335.064	14140
335.151	5258
335.239	4651
335.326	6635
335.413	22884
335.501	58822
335.588	8854
335.675	3967
335.762	4790
335.850	13014
335.937	7069
336.024	13650
336.111	85327
336.199	57995
336.286	8633
336.373	4098
336.460	2750
336.547	3164
336.635	4455
336.722	4239
336.809	3807
336.896	4328
336.983	13908
337.070	49836
337.157	76540
337.245	58742
337.332	63252
337.419	6328
337.506	3557
337.593	3776
337.680	11810
337.767	59691
337.854	20020
337.941	17473
338.028	25577
338.115	12385
338.202	6665
338.289	12916
338.376	62639
338.463	29526
338.550	23965
338.637	45574
338.724	11049
338.811	28338
338.898	5735
338.984	2904
339.071	4652
339.158	3529
339.245	8764
339.332	7855
339.419	11367
339.506	19491
339.593	2398
339.679	1561
339.766	1690
339.853	3038
339.940	6052
340.027	3316
340.113	2358
340.200	2960
340.287	2910
340.374	3110
340.460	5319
340.547	2714
340.634	3235
340.720	12490
340.807	12901
340.894	2620
340.980	1908
341.067	2689
341.154	2148
341.240	2860
341.327	7842
341.414	2764
341.500	2687
341.587	2391
341.674	2531
341.760	4027
341.847	5953
341.933	2397
342.020	1624
342.106	1367
342.193	1986
342.279	3901
342.366	2407
342.452	5249
342.539	2849
342.625	5260
342.712	15445
342.798	9038
342.885	3806
342.971	1927
343.058	1216
343.144	565
343.230	931
343.317	2879
343.403	1727
343.490	1066
343.576	1335
343.662	1849
343.749	2232
343.835	2609
343.921	4399
344.008	19133
344.094	72771
344.180	24880
344.267	5626
344.353	16056
344.439	33286
344.525	12354
344.612	4194
344.698	4612
344.784	3240
344.870	1625
344.957	1330
345.043	3140
345.129	2338
345.215	5186
345.301	3246
345.387	2096
345.474	1380
345.560	1155
345.646	3492
345.732	2305
345.818	2526
345.904	2412
345.990	2412
346.076	3446
346.162	10765
346.249	4748
346.335	1066
346.421	1967
346.507	5018
346.593	28969
346.679	11948
346.765	3162
346.851	2098
346.937	2393
347.023	1727
347.108	2271
347.194	2080
347.280	2101
347.366	2346
347.452	5598
347.538	29912
347.624	28002
347.710	27967
347.796	8213
347.882	2449
347.967	2077
348.053	4225
348.139	3331
348.225	1836
348.311	2547
348.397	1846
348.482	2086
348.568	3265
348.654	1997
348.740	1669
348.825	2082
348.911	3053
348.997	10778
349.083	36717
349.168	11879
349.254	1837
349.340	1727
349.425	1173
349.511	2033
349.597	3943
349.682	4524
349.768	16511
349.854	14931
349.939	3086
350.025	2101
350.110	1131
350.196	1581
350.282	807
350.367	1037
350.453	4270
350.538	7914
350.624	2729
350.709	3938
350.795	1142
350.880	1496
350.966	2071
351.051	4797
351.137	4665
351.222	1761
351.308	3946
351.393	17441
351.479	7226
351.564	1114
351.649	1492
351.735	1689
351.820	752
351.906	2271
351.991	2502
352.076	9068
352.162	19920
352.247	4863
352.332	1707
352.418	2876
352.503	5266
352.588	18105
352.673	24118
352.759	4554
352.844	2429
352.929	1866
353.014	3693
353.100	2479
353.185	7057
353.270	9845
353.355	6463
353.441	2013
353.526	2655
353.611	5388
353.696	6974
353.781	3722
353.866	1639
353.952	949
354.037	3871
354.122	10816
354.207	10581
354.292	6515
354.377	2071
354.462	1835
354.547	2376
354.632	2869
354.717	5504
354.802	12353
354.887	5721
354.972	1557
355.057	1599
355.142	1089
355.227	1312
355.312	2377
355.397	5896
355.482	15482
355.567	12289
355.652	5732
355.737	7099
355.822	16678
355.907	26741
355.991	3680
356.076	1744
356.161	1577
356.246	1707
356.331	1809
356.416	3683
356.501	25617
356.585	52565
356.670	8436
356.755	3748
356.840	3934
356.924	19732
357.009	87863
357.094	53967
357.179	7317
357.263	6041
357.348	4765
357.433	6188
357.517	4049
357.602	3631
357.687	3032
357.771	4953
357.856	9940
357.941	7764
358.025	10791
358.110	69961
358.195	58264
358.279	6290
358.364	3683
358.448	9954
358.533	37222
358.617	35865
358.702	32100
358.787	16708
358.871	5658
358.956	5825
359.040	2472
359.125	1334
359.209	1249
359.294	2493
359.378	7687
359.462	4782
359.547	4379
359.631	3960
359.716	2154
359.800	2368
359.885	4709
359.969	3455
360.053	2329
360.138	3411
360.222	2915
360.306	4740
360.391	4917
360.475	4484
360.559	13731
360.644	13368
360.728	15324
360.812	12745
360.896	58291
360.981	32814
361.065	20361
361.149	4033
361.233	3496
361.318	3009
361.402	3857
361.486	3003
361.570	2157
361.654	2693
361.739	5460
361.823	23217
361.907	65976
361.991	17296
362.075	4433
362.159	10623
362.243	9697
362.327	6459
362.411	9454
362.495	7329
362.580	3565
362.664	1684
362.748	2162
362.832	2062
362.916	2939
363.000	7706
363.084	32899
363.168	73794
363.252	24679
363.336	5141
363.420	6563
363.503	30472
363.587	71484
363.671	13602
363.755	4756
363.839	7164
363.923	3639
364.007	5349
364.091	7892
364.175	10660
364.258	60210
364.342	57538
364.426	28149
364.510	22262
364.594	9780
364.677	10155
364.761	37490
364.845	50394
364.929	10726
365.013	9293
365.096	6262
365.180	8400
365.264	10340
365.347	67391
365.431	52244
365.515	11177
365.598	3981
365.682	2984
365.766	5096
365.849	13961
365.933	5097
366.017	5641
366.100	7534
366.184	2782
366.267	2566
366.351	1886
366.435	1667
366.518	1654
366.602	1329
366.685	2228
366.769	1678
366.852	4201
366.936	11741
367.019	5652
367.103	3778
367.186	13221
367.270	5683
367.353	1141
367.436	1447
367.520	938
367.603	2604
367.687	3212
367.770	6074
367.853	4967
367.937	7948
368.020	26373
368.104	9388
368.187	4200
368.270	6768
368.353	6434
368.437	10054
368.520	41813
368.603	32731
368.687	12700
368.770	35582
368.853	12636
368.936	6828
369.020	12122
369.103	4964
369.186	1445
369.269	1923
369.352	3141
369.436	8352
369.519	4897
369.602	2341
369.685	2555
369.768	3105
369.851	2695
369.934	1822
370.018	2634
370.101	5784
370.184	5610
370.267	4063
370.350	4063
370.433	8216
370.516	18018
370.599	37028
370.682	10941
370.765	13813
370.848	18208
370.931	38573
371.014	26913
371.097	5738
371.180	2337
371.263	1462
371.346	798
371.429	1849
371.511	1605
371.594	3393
371.677	6338
371.760	13550
371.843	6883
371.926	16954
372.009	64838
372.091	33444
372.174	12111
372.257	35697
372.340	24317
372.423	11870
372.505	21451
372.588	9932
372.671	6944
372.754	33423
372.836	29920
372.919	13445
373.002	50788
373.085	20756
373.167	5450
373.250	11519
373.332	32047
373.415	37310
373.498	90523
373.580	51184
373.663	27098
373.746	65581
373.828	21138
373.911	7414
373.993	6357
374.076	31316
374.159	59023
374.241	16508
374.324	26490
374.406	28700
374.489	15914
374.571	70023
374.654	50684
374.736	12328
374.819	39537
374.901	62095
374.983	82135
375.066	22654
375.148	5075
375.231	20029
375.313	73086
375.395	38350
375.478	7910
375.560	2753
375.643	3886
375.725	9175
375.807	50762
375.890	73887
375.972	52329
376.054	18270
376.136	36984
376.219	23982
376.301	10876
376.383	50108
376.465	34128
376.548	10149
376.630	11784
376.712	38388
376.794	35459
376.877	4372
376.959	1534
377.041	2109
377.123	7010
377.205	16136
377.287	4243
377.369	1494
377.452	2276
377.534	1698
377.616	959
377.698	1502
377.780	1070
377.862	1613
377.944	1241
378.026	1022
378.108	592
378.190	1639
378.272	816
378.354	662
378.436	1286
378.518	2817
378.600	15510
378.682	16637
378.764	17312
378.846	23245
378.928	5740
379.010	7509
379.091	4964
379.173	2319
379.255	1444
379.337	2140
379.419	5685
379.501	28669
379.583	21040
379.664	3943
379.746	5085
379.828	16701
379.910	28885
379.991	31191
380.073	8732
380.155	2669
380.237	2115
380.318	1136
380.400	1568
380.482	2784
380.564	7627
380.645	9540
380.727	11637
380.809	5230
380.890	2385
380.972	3152
381.053	2357
381.135	2335
381.217	4344
381.298	18564
381.380	17008
381.461	7239
381.543	29168
381.624	67914
381.706	17480
381.787	5663
381.869	4917
381.951	9815
382.032	57692
382.113	65639
382.195	13899
382.276	7288
382.358	11993
382.439	33793
382.521	40807
382.602	68830
382.684	40445
382.765	41464
382.846	57277
382.928	41579
383.009	32608
383.090	12824
383.172	37703
383.253	105734
383.334	52754
383.416	55109
383.497	47653
383.578	9566
383.659	11527
383.741	31882
383.822	129741
383.903	116901
383.984	30692
384.066	64103
384.147	61566
384.228	14551
384.309	5807
384.390	5160
384.471	3668
384.553	3310
384.634	5553
384.715	7261
384.796	3178
384.877	3124
384.958	12726
385.039	27551
385.120	12282
385.201	4255
385.282	5337
385.363	7167
385.444	5312
385.525	4374
385.606	21045
385.687	34671
385.768	9752
385.849	8331
385.930	19681
386.011	57274
386.092	27312
386.173	4791
386.254	3159
386.335	4292
386.416	3441
386.496	8496
386.577	24740
386.658	15708
386.739	6759
386.820	7122
386.901	7292
386.981	5824
387.062	2512
387.143	3084
387.224	14743
387.304	26218
387.385	10026
387.466	5216
387.547	8678
387.627	5641
387.708	4580
387.789	24959
387.869	54725
387.950	22957
388.031	2937
388.111	2495
388.192	9712
388.273	22666
388.353	16018
388.434	4314
388.514	4905
388.595	23165
388.676	50756
388.756	29152
388.837	18182
388.917	17079
388.998	4205
389.078	2383
389.159	2366
389.239	1860
389.320	3382
389.400	3908
389.480	5160
389.561	22348
389.641	19730
389.722	4186
389.802	6550
389.883	7699
389.963	23711
390.043	30602
390.124	13399
390.204	5973
390.284	18821
390.365	21996
390.445	19860
390.525	56288
390.605	59233
390.686	20186
390.766	5499
390.846	3084
390.927	1961
391.007	1256
391.087	2389
391.167	4605
391.247	2736
391.328	5949
391.408	11672
391.488	10469
391.568	2628
391.648	1710
391.728	3681
391.808	4139
391.888	4016
391.969	7571
392.049	21487
392.129	15496
392.209	9459
392.289	22396
392.369	20843
392.449	18073
392.529	17019
392.609	6134
392.689	6281
392.769	18212
392.849	29301
392.929	13765
393.009	37588
393.089	39165
393.169	15371
393.248	27978
393.328	155401
393.408	316381
393.488	113928
393.568	21360
393.648	10376
393.728	6923
393.807	5080
393.887	4397
393.967	4384
394.047	5334
394.127	6769
394.206	9501
394.286	25405
394.366	134494
394.446	253750
394.525	92156
394.605	18131
394.685	10431
394.764	20556
394.844	45601
394.924	48012
395.003	13757
395.083	5882
395.163	4597
395.242	3230
395.322	4178
395.402	4095
395.481	4536
395.561	10312
395.640	45088
395.720	44045
395.799	45001
395.879	63906
395.958	23336
396.038	40185
396.117	178912
396.197	329583
396.276	143862
396.356	41597
396.435	26492
396.515	18420
396.594	10367
396.673	12367
396.753	31722
396.832	167301
396.912	233928
396.991	68197
397.070	14925
397.150	6546
397.229	4899
397.308	3894
397.388	8814
397.467	6387
397.546	2538
397.625	1506
397.705	3442
397.784	3242
397.863	2415
397.942	1695
398.022	1680
398.101	6809
398.180	45556
398.259	44846
398.338	10295
398.417	3107
398.497	2641
398.576	3486
398.655	2328
398.734	1371
398.813	1337
398.892	6456
398.971	45023
399.050	48465
399.129	6413
399.208	1248
399.287	1739
399.366	966
399.445	1176
399.524	1402
399.603	1200
399.682	2075
399.761	6509
399.840	39128
399.919	64992
399.998	13732
400.077	1659
400.156	383
400.235	2186
400.313	2095
400.392	2182
400.471	6132
400.550	18604
400.629	9410
400.708	2075
400.786	2920
400.865	9384
400.944	16869
401.023	7935
401.102	1623
401.180	599
401.259	1439
401.338	2215
401.416	3181
401.495	2596
401.574	2676
401.652	1660
401.731	2591
401.810	4526
401.888	2635
401.967	557
402.046	694
402.124	1818
402.203	4322
402.281	2638
402.360	1412
402.438	11360
402.517	17826
402.596	4415
402.674	4316
402.753	3212
402.831	1207
402.910	1307
402.988	5866
403.066	38485
403.145	47208
403.223	11984
403.302	33877
403.380	41318
403.459	34405
403.537	25107
403.615	7339
403.694	1617
403.772	830
403.850	920
403.929	849
404.007	469
404.085	2842
404.164	9461
404.242	4692
404.320	2454
404.398	11070
404.477	19585
404.555	38226
404.633	69656
404.711	23320
404.789	10231
404.868	3479
404.946	2837
405.024	446
405.102	585
405.180	175
405.258	9
405.336	345
405.415	473
405.493	2889
405.571	7144
405.649	2354
405.727	1152
405.805	2472
405.883	2913
405.961	3321
406.039	4465
406.117	2813
406.195	1328
406.273	4662
406.351	36401
406.429	48433
406.507	11272
406.585	3137
406.663	602
406.740	1281
406.818	2051
406.896	490
406.974	404
407.052	1702
407.130	13721
407.208	44626
407.285	17958
407.363	733
407.441	654
407.519	-60
407.596	406
407.674	1165
407.752	6300
407.830	15302
407.907	13182
407.985	5287
408.063	1173
408.141	-71
408.218	2187
408.296	4724
408.373	3660
408.451	1795
408.529	743
408.606	492
408.684	-342
408.762	-475
408.839	-548
408.917	-836
408.994	121
409.072	-394
409.149	77
409.227	490
409.304	942
409.382	-121
409.459	299
409.537	1266
409.614	2076
409.692	-125
409.769	-244
409.846	1295
409.924	2031
410.001	1497
410.079	476
410.156	686
410.233	32
410.311	74
410.388	936
410.465	268
410.543	-421
410.620	-462
410.697	151
410.775	574
410.852	-70
410.929	1
411.006	641
411.083	486
411.161	734
411.238	2094
411.315	4246
411.392	1186
411.469	145
411.547	617
411.624	55
411.701	-263
411.778	468
411.855	1167
411.932	1810
412.009	-236
412.086	35
412.163	-58
412.240	1312
412.317	1208
412.394	2098
412.471	469
412.548	-443
412.625	-216
412.702	172
412.779	2966
412.856	2340
412.933	-521
413.010	-97
413.087	94
413.164	4708
413.241	15249
413.318	7000
413.395	1676
413.471	998
413.548	1584
413.625	-160
413.702	806
413.779	1539
413.855	-152
413.932	-1133
414.009	-457
414.086	-31
414.162	-37
414.239	638
414.316	4058
414.393	19846
414.469	15825
414.546	1353
414.623	-33
414.699	-512
414.776	186
414.853	72
414.929	180
415.006	-123
415.082	1616
415.159	1340
415.236	482
415.312	461
415.389	824
415.465	2458
415.542	1262
415.618	50
415.695	1260
415.771	1120
415.848	1118
415.924	704
416.000	745
416.077	544
416.153	-453
416.230	-752
416.306	243
416.383	-446
416.459	467
416.535	-476
416.612	-908
416.688	-332
416.764	-684
416.841	-251
416.917	-707
416.993	-424
417.069	146
417.146	1675
417.222	1705
417.298	1491
417.374	-162
417.451	713
417.527	206
417.603	1151
417.679	679
417.755	673
417.831	-29
417.908	-420
417.984	-363
418.060	-654
418.136	171
418.212	3046
418.288	1496
418.364	-234
418.440	-56
418.516	862
418.592	1653
418.668	5411
418.744	5655
418.820	6463
418.896	1873
418.972	574
419.048	-225
419.124	1013
419.200	1753
419.276	-58
419.352	-1124
419.428	-708
419.504	-986
419.579	726
419.655	280
419.731	-204
419.807	911
419.883	5768
419.959	7322
420.034	2128
420.110	546
420.186	8661
420.262	15939
420.337	3878
420.413	1647
420.489	453
420.565	-582
420.640	-424
420.716	386
420.792	-125
420.867	-311
420.943	-240
421.019	781
421.094	712
421.170	76
421.245	-229
421.321	134
421.397	-139
421.472	277
421.548	2989
421.623	4332
421.699	2060
421.774	620
421.850	292
421.925	1285
422.001	1961
422.076	1348
422.152	1071
422.227	1634
422.302	4238
422.378	3455
422.453	7694
422.529	15597
422.604	51027
422.679	150682
422.755	156630
422.830	59532
422.905	16421
422.981	7094
423.056	4386
423.131	2400
423.207	1786
423.282	1817
423.357	2914
423.432	3527
423.508	2549
423.583	5193
423.658	7378
423.733	2342
423.808	1539
423.883	1611
423.959	1993
424.034	1012
424.109	1171
424.184	229
424.259	-61
424.334	378
424.409	-412
424.484	-167
424.559	100
424.634	-480
424.709	-505
424.784	975
424.859	449
424.934	651
425.009	4953
425.084	14829
425.159	12151
425.234	2139
425.309	-90
425.384	37
425.459	2589
425.534	2089
425.609	210
425.683	1101
425.758	-929
425.833	-208
425.908	628
425.983	1481
426.058	12784
426.132	14448
426.207	2881
426.282	1584
426.357	5141
426.431	2397
426.506	248
426.581	328
426.655	457
426.730	-86
426.805	-331
426.879	716
426.954	-256
427.029	432
427.103	6345
427.178	32443
427.253	38432
427.327	7056
427.402	1837
427.476	6566
427.551	6428
427.625	1958
427.700	1035
427.774	1120
427.849	1547
427.923	1294
427.998	-116
428.072	50
428.147	2041
428.221	5273
428.296	24527
428.370	31166
428.444	5252
428.519	2833
428.593	8979
428.667	14659
428.742	10522
428.816	13449
428.890	14005
428.965	41695
429.039	24705
429.113	15298
429.188	11825
429.262	1371
429.336	834
429.410	5566
429.485	8218
429.559	7107
429.633	12645
429.707	3137
429.781	2274
429.855	15815
429.930	49744
430.004	37305
430.078	47456
430.152	63104
430.226	37684
430.300	56545
430.374	21500
430.448	2854
430.522	6167
430.596	37931
430.670	51783
430.744	22419
430.818	64417
430.892	39386
430.966	3947
431.040	641
431.114	90
431.188	-489
431.262	102
431.336	1193
431.410	2538
431.484	10802
431.557	17194
431.631	3233
431.705	284
431.779	678
431.853	13708
431.927	30651
432.000	8125
432.074	296
432.148	629
432.222	2181
432.295	528
432.369	-520
432.443	323
432.516	5943
432.590	36039
432.664	40116
432.737	6463
432.811	374
432.885	-518
432.958	-1291
433.032	-202
433.106	-40
433.179	-588
433.253	-1077
433.326	-1105
433.400	-1058
433.473	-480
433.547	-553
433.620	-102
433.694	170
433.767	1947
433.841	1504
433.914	187
433.988	-955
434.061	-487
434.134	-625
434.208	-652
434.281	-1271
434.355	-1463
434.428	-441
434.501	-377
434.575	-946
434.648	-167
434.721	-86
434.795	-622
434.868	-939
434.941	-988
435.014	-870
435.088	-1626
435.161	-966
435.234	307
435.307	1394
435.381	981
435.454	306
435.527	-180
435.600	-382
435.673	790
435.746	-386
435.819	-294
435.892	-522
435.966	-179
436.039	-915
436.112	445
436.185	145
436.258	-719
436.331	-1577
436.404	-1271
436.477	-1236
436.550	-949
436.623	-936
436.696	-868
436.769	-248
436.842	-220
436.915	-358
436.987	858
437.060	693
437.133	-629
437.206	-931
437.279	71
437.352	-170
437.425	-627
437.498	-380
437.570	434
437.643	2227
437.716	1190
437.789	-766
437.861	-531
437.934	1336
438.007	2917
438.080	-87
438.152	641
438.225	671
438.298	6835
438.370	50081
438.443	61941
438.516	12524
438.588	2551
438.661	-67
438.734	244
438.806	-355
438.879	427
438.951	347
439.024	1373
439.096	627
439.169	491
439.241	-312
439.314	-1191
439.386	440
439.459	2823
439.531	3862
439.604	3592
439.676	82
439.749	-692
439.821	-154
439.893	-495
439.966	-580
440.038	467
440.110	461
440.183	619
440.255	-164
440.327	-337
440.400	2292
440.472	25101
440.544	51331
440.617	15601
440.689	1364
440.761	947
440.833	2645
440.905	3597
440.978	1085
441.050	-432
441.122	-775
441.194	-587
441.266	381
441.338	-323
441.411	218
441.483	3838
441.555	20946
441.627	15250
441.699	2746
441.771	4754
441.843	3173
441.915	361
441.987	-665
442.059	-90
442.131	-108
442.203	936
442.275	2139
442.347	2489
442.419	1706
442.491	3438
442.563	20818
442.635	26624
442.706	12974
442.778	19993
442.850	7651
442.922	703
442.994	915
443.066	1926
443.137	2415
443.209	1333
443.281	94
443.353	2193
443.425	7487
443.496	30888
443.568	64523
443.640	36688
443.711	9353
443.783	1916
443.855	953
443.926	1182
443.998	232
444.070	1142
444.141	2061
444.213	1689
444.285	2620
444.356	3118
444.428	3901
444.499	2408
444.571	-44
444.642	532
444.714	110
444.785	1431
444.857	2872
444.928	7649
445.000	13714
445.071	7205
445.143	11400
445.214	8596
445.285	4385
445.357	12572
445.428	27669
445.500	71024
445.571	94210
445.642	49406
445.714	19223
445.785	22990
445.856	17294
445.928	4854
445.999	2582
446.070	2323
446.141	1750
446.213	3944
446.284	3702
446.355	2356
446.426	2730
446.497	1118
446.569	1631
446.640	5360
446.711	5339
446.782	1569
446.853	1160
446.924	3755
446.995	2043
447.066	878
447.138	3354
447.209	5552
447.280	731
447.351	449
447.422	210
447.493	1060
447.564	1890
447.635	2524
447.706	2112
447.777	769
447.847	211
447.918	-329
447.989	526
448.060	2611
448.131	4917
448.202	11523
448.273	6945
448.344	4839
448.414	1128
448.485	859
448.556	744
448.627	-379
448.698	305
448.768	698
448.839	-151
448.910	1816
448.981	5782
449.051	2554
449.122	-87
449.193	407
449.263	-348
449.334	556
449.405	597
449.475	3448
449.546	4727
449.616	4007
449.687	6198
449.758	3202
449.828	488
449.899	459
449.969	1049
450.040	317
450.110	1831
450.181	3350
450.251	1230
450.322	587
450.392	762
450.463	940
450.533	172
450.604	680
450.674	403
450.744	822
450.815	878
450.885	1874
450.955	770
451.026	7
451.096	453
451.166	1717
451.237	2300
451.307	12060
451.377	16757
451.447	4714
451.518	229
451.588	1174
451.658	1562
451.728	2246
451.799	7733
451.869	24299
451.939	15528
452.009	2895
452.079	935
452.149	1101
452.219	1773
452.289	9145
452.360	24532
452.430	11848
452.500	2000
452.570	1944
452.640	2523
452.710	5282
452.780	18085
452.850	18184
452.920	11782
452.990	9247
453.060	3031
453.129	2312
453.199	3966
453.269	7888
453.339	54729
453.409	101616
453.479	67228
453.549	92031
453.619	122656
453.688	108226
453.758	31612
453.828	4899
453.898	2907
453.968	3098
454.037	2183
454.087	2348
454.107	2410
454.168	1948
454.177	1870
454.247	1543
454.249	1560
454.316	1600
454.330	1771
454.386	2127
454.411	2950
454.456	3958
454.492	10311
454.525	16050
454.574	14398
454.595	13780
454.655	4985
454.665	3576
454.734	3158
454.736	3248
454.804	3423
454.817	4754
454.873	9057
454.898	14856
454.943	25516
454.979	22910
455.013	21017
455.060	11716
455.082	7576
455.141	4859
455.152	4242
455.221	7210
455.222	7509
455.291	22471
455.303	23435
455.360	27694
455.384	26197
455.430	21720
455.465	23728
455.499	26142
455.546	20722
455.569	17771
455.627	18145
455.638	18513
455.707	9231
455.708	9205
455.777	2968
455.789	2923
455.846	2748
455.869	2511
455.916	1945
455.950	1923
455.985	1850
456.031	2349
456.054	2610
456.112	1814
456.124	1663
456.193	1776
456.193	1759
456.262	2608
456.274	2731
456.332	2994
456.355	3421
456.401	3768
456.436	3547
456.470	3530
456.516	2122
456.540	1515
456.597	1489
456.609	1451
456.678	1196
456.678	1182
456.747	1541
456.759	1484
456.817	1172
456.840	1141
456.886	1175
456.920	1716
456.955	2190
457.001	2330
457.024	2568
457.082	3031
457.093	3063
457.162	3760
457.163	3790
457.232	4426
457.243	4331
457.301	4645
457.324	3703
457.370	2077
457.405	1915
457.439	1661
457.485	1809
457.508	1990
457.566	2272
457.577	2249
457.646	2683
457.647	2694
457.715	2767
457.727	2889
457.784	3662
457.808	3876
457.853	3727
457.889	4523
457.922	5443
457.969	5438
457.991	5505
458.050	4932
458.060	4848
458.129	5874
458.130	5947
458.198	6851
458.211	6575
458.267	6187
458.292	5040
458.336	3539
458.372	3171
458.405	3058
458.453	3763
458.474	4138
458.533	5607
458.543	5629
458.611	7606
458.614	7750
458.680	9650
458.694	8695
458.749	6455
458.775	5450
458.818	3828
458.855	3235
458.887	2885
458.936	2896
458.955	2706
459.016	2915
459.024	3024
459.093	3406
459.097	3408
459.162	3042
459.177	3084
459.230	3432
459.257	3856
459.299	4310
459.338	4446
459.368	4296
459.418	4073
459.437	3992
459.499	3717
459.505	3740
459.574	3741
459.579	3719
459.643	3157
459.659	3170
459.711	3289
459.740	3624
459.780	4244
459.820	4433
459.849	4499
459.900	4507
459.917	4288
459.981	4084
459.986	4104
460.054	4556
460.061	4501
460.123	4218
460.141	4281
460.191	5109
460.222	5627
460.260	5434
460.302	5468
460.328	5156
460.382	4719
460.397	4968
460.462	5282
460.465	5307
460.534	5728
460.543	5858
460.602	9662
460.623	11170
460.671	14907
460.703	17763
460.739	13449
460.783	10537
460.808	11732
460.864	9538
460.876	9332
460.944	4851
460.945	4793
461.013	3903
461.024	3844
461.081	4165
461.104	4498
461.150	4412
461.184	4137
461.218	3941
461.264	3685
461.286	3788
461.345	4002
461.355	3981
461.423	4014
461.425	4012
461.491	5277
461.505	5678
461.559	11397
461.585	13743
461.628	19568
461.665	25087
461.696	22480
461.745	21288
461.764	19340
461.825	13301
461.832	13852
461.901	8654
461.905	8424
461.969	4401
461.985	4359
462.037	4922
462.065	5000
462.105	6186
462.145	7468
462.173	9835
462.225	14436
462.241	14949
462.305	17257
462.310	16633
462.378	10160
462.385	9026
462.446	8561
462.465	7492
462.514	5248
462.545	5058
462.582	4800
462.625	4694
462.650	4693
462.705	4989
462.718	5333
462.785	6938
462.786	6985
462.854	9337
462.865	9796
462.922	9175
462.945	9172
462.990	7008
463.025	5352
463.058	6219
463.104	5763
463.126	5217
463.184	4365
463.194	4303
463.262	4654
463.264	4669
463.330	5422
463.344	5474
463.398	5750
463.424	6034
463.466	6223
463.504	6226
463.533	5979
463.583	5759
463.601	6144
463.663	7101
463.669	7345
463.737	10688
463.743	10953
463.805	16718
463.823	18452
463.873	26740
463.903	31796
463.940	27757
463.982	24401
464.008	20139
464.062	11122
464.076	11431
464.142	7889
464.144	7797
464.211	5294
464.221	5222
464.279	5691
464.301	5937
464.347	6421
464.381	6775
464.414	7722
464.461	9078
464.482	9036
464.540	8976
464.550	8717
464.617	6754
464.620	6677
464.685	9212
464.699	9674
464.753	11892
464.779	13150
464.820	13889
464.859	14708
464.888	14200
464.938	13170
464.956	12792
465.018	11023
465.023	10937
465.091	10106
465.098	9949
465.158	9665
465.177	9605
465.226	9933
465.257	10225
465.293	10479
465.336	10656
465.361	11466
465.416	13331
465.428	14711
465.495	22070
465.496	22182
465.563	34299
465.575	36355
465.631	33695
465.654	32902
465.698	21272
465.734	11487
465.765	11636
465.813	10005
465.833	9671
465.893	9514
465.900	9407
465.968	8945
465.972	8913
466.035	9008
466.052	8994
466.102	9279
466.131	9420
466.170	9721
466.210	10002
466.237	9556
466.290	8692
466.304	8897
466.369	9610
466.372	9643
466.439	10255
466.449	10309
466.506	11909
466.528	12533
466.573	19655
466.607	24918
466.641	34554
466.687	47865
466.708	47161
466.766	45034
466.775	41460
466.842	14627
466.845	13334
466.909	12324
466.925	11965
466.977	11386
467.004	11335
467.044	12264
467.083	13228
467.111	15296
467.163	19096
467.178	19114
467.242	19031
467.245	18963
467.312	16853
467.321	16543
467.379	16740
467.400	16769
467.446	18297
467.480	19348
467.559	15222
467.638	13185
467.717	13908
467.796	14571
467.875	16622
467.955	17181
468.034	30186
468.113	59857
468.192	60719
468.271	14370
468.350	12563
468.429	12985
468.508	11855
468.588	13177
468.667	13645
468.746	13768
468.825	13136
468.904	12617
468.983	16399
469.062	24366
469.141	21483
469.220	12607
469.299	13981
469.378	16229
469.456	18346
469.535	15081
469.614	14991
469.693	15985
469.772	20129
469.851	25327
469.930	15402
470.009	13150
470.088	13540
470.166	14044
470.245	15713
470.324	15494
470.403	13458
470.482	11719
470.560	13309
470.639	12772
470.718	13647
470.797	13420
470.875	16884
470.954	21082
471.033	18347
471.111	10712
471.190	11765
471.269	11194
471.347	11414
471.426	13363
471.505	16012
471.583	15544
471.662	14305
471.740	12615
471.819	12349
471.898	12800
471.976	12655
472.055	12934
472.133	14970
472.212	18422
472.290	17941
472.369	11538
472.447	11550
472.526	10917
472.604	12434
472.683	12409
472.761	13133
472.839	12424
472.918	11953
472.996	11869
473.075	13966
473.153	11918
473.231	11588
473.310	14258
473.388	12264
473.466	13005
473.545	14235
473.623	16225
473.701	13930
473.780	11609
473.858	11408
473.936	12261
474.014	12427
474.093	14042
474.171	20326
474.249	24072
474.327	12958
474.405	10901
474.484	10710
474.562	10092
474.640	10362
474.718	10778
474.796	10142
474.874	9501
474.952	10033
475.030	9616
475.108	9340
475.187	10689
475.265	12219
475.343	17735
475.421	15647
475.499	10322
475.577	12867
475.655	16491
475.733	33560
475.811	47848
475.889	43395
475.966	18175
476.044	12236
476.122	15773
476.200	16934
476.278	12242
476.356	11007
476.434	13230
476.512	14740
476.590	17599
476.667	11993
476.745	10632
476.823	11587
476.901	10884
476.979	11301
477.056	10889
477.134	11894
477.212	11549
477.290	10528
477.367	10018
477.445	10628
477.523	9379
477.601	10340
477.678	10997
477.756	14138
477.834	12466
477.911	9641
477.989	10016
478.066	10802
478.144	12810
478.222	14528
478.299	20676
478.377	13149
478.454	8886
478.532	9222
478.609	9629
478.687	9263
478.764	9412
478.842	9688
478.919	9542
478.997	9375
479.074	8822
479.152	12077
479.229	14215
479.307	8392
479.384	7873
479.461	8625
479.539	9294
479.616	10810
479.694	8500
479.771	10914
479.848	11113
479.926	15816
480.003	12528
480.080	9413
480.157	8434
480.235	8414
480.312	9110
480.389	12441
480.467	18828
480.544	17995
480.621	9107
480.698	10519
480.775	11692
480.853	10741
480.930	9758
481.007	10748
481.084	11354
481.161	11640
481.238	10324
481.315	8329
481.392	8513
481.470	9080
481.547	8785
481.624	8908
481.701	9264
481.778	9286
481.855	12212
481.932	18176
482.009	28465
482.086	12767
482.163	10760
482.240	15653
482.317	23818
482.393	12129
482.470	8833
482.547	9050
482.624	8383
482.701	9504
482.778	8077
482.855	7830
482.932	6608
483.009	8017
483.085	7771
483.162	8104
483.239	7966
483.316	7967
483.393	7398
483.469	7203
483.546	9972
483.623	8864
483.699	8357
483.776	8479
483.853	11158
483.930	20544
484.006	50583
484.083	65493
484.160	41556
484.236	58724
484.313	39556
484.389	31285
484.466	28551
484.543	29059
484.619	27714
484.696	28816
484.772	29791
484.849	30758
484.925	25775
485.002	27092
485.078	26848
485.155	26513
485.231	24939
485.308	24950
485.384	27172
485.461	33503
485.537	51572
485.614	45339
485.690	25422
485.766	24537
485.843	25014
485.919	29883
485.995	25657
486.072	21413
486.148	22039
486.224	22211
486.301	22241
486.377	24317
486.453	24062
486.530	27010
486.606	37447
486.682	37891
486.758	44094
486.835	43024
486.911	41793
486.987	60180
487.063	49175
487.139	48930
487.215	36130
487.292	23609
487.368	24217
487.444	24987
487.520	25757
487.596	24307
487.672	26652
487.748	39525
487.824	39994
487.900	23666
487.976	23050
488.052	24552
488.128	24755
488.204	23243
488.280	23082
488.356	31565
488.432	61506
488.508	64825
488.584	22318
488.660	19990
488.736	20045
488.812	22753
488.888	26324
488.964	33182
489.039	56139
489.115	66083
489.191	31848
489.267	21176
489.343	19859
489.418	16764
489.494	17705
489.570	17158
489.646	17613
489.722	19462
489.797	20413
489.873	35259
489.949	61874
490.024	34128
490.100	16747
490.176	17619
490.251	19353
490.327	21552
490.403	15328
490.478	16341
490.554	13666
490.629	14571
490.705	14934
490.781	16531
490.856	15816
490.932	17407
491.007	15864
491.083	16940
491.158	16049
491.234	25419
491.309	47419
491.385	33621
491.460	15161
491.536	15918
491.611	13308
491.686	15807
491.762	20470
491.837	37671
491.913	52253
491.988	78093
492.063	60323
492.139	27716
492.214	18086
492.289	12235
492.365	13867
492.440	14381
492.515	14549
492.590	14607
492.666	11259
492.741	20618
492.816	24398
492.891	13369
492.967	10389
493.042	10528
493.117	11958
493.192	13131
493.267	27567
493.342	70298
493.418	53894
493.493	11725
493.568	9172
493.643	12023
493.718	14052
493.793	21757
493.868	18025
493.943	11190
494.018	11037
494.093	10389
494.168	10440
494.243	8804
494.318	9242
494.393	9563
494.468	8945
494.543	9298
494.618	10959
494.693	9394
494.768	10627
494.842	8570
494.917	8053
494.992	10112
495.067	7693
495.142	8412
495.217	9752
495.292	9431
495.366	12045
495.441	13543
495.516	16896
495.591	27256
495.665	78918
495.740	122992
495.815	27470
495.890	13947
495.964	12171
496.039	12863
496.114	11339
496.188	11592
496.263	12818
496.338	11963
496.412	14871
496.487	15499
496.561	15953
496.636	14133
496.710	12863
496.785	15035
496.860	16170
496.934	11334
497.009	11019
497.083	11805
497.158	12765
497.232	14601
497.307	17111
497.381	13518
497.455	18660
497.530	21371
497.604	12399
497.679	16661
497.753	27378
497.827	27181
497.902	24049
497.976	40164
498.050	127807
498.125	405773
498.199	204084
498.273	26892
498.348	20562
498.422	17498
498.496	17557
498.570	14675
498.645	13686
498.719	15845
498.793	21589
498.867	37560
498.941	58434
499.016	192321
499.090	358849
499.164	53068
499.238	12653
499.312	12271
499.386	15921
499.460	13736
499.534	12748
499.609	18980
499.683	29298
499.757	31212
499.831	95698
499.905	296599
499.979	140269
500.053	32474
500.127	27035
500.201	15629
500.275	13498
500.349	13206
500.422	17276
500.496	26414
500.570	60491
500.644	171768
500.718	219955
500.792	26070
500.866	15482
500.940	20696
501.013	13731
501.087	17119
501.161	28761
501.235	42015
501.309	109754
501.382	269548
501.456	122956
501.530	47247
501.603	72775
501.677	18224
501.751	13410
501.825	17510
501.898	42506
501.972	103395
502.046	33719
502.119	19930
502.193	53399
502.266	100944
502.340	33137
502.413	57607
502.487	81440
502.561	37569
502.634	11749
502.708	12591
502.781	9995
502.855	8276
502.928	8405
503.002	8209
503.075	8855
503.149	8919
503.222	8945
503.295	11004
503.369	13751
503.442	26951
503.516	93070
503.589	171941
503.662	75531
503.736	36752
503.809	85550
503.882	53251
503.956	105407
504.029	52202
504.102	23468
504.175	20666
504.249	10700
504.322	13319
504.395	11366
504.468	9595
504.542	9192
504.615	7368
504.688	7085
504.761	7932
504.834	8950
504.907	12087
504.980	13936
505.053	9340
505.127	11806
505.200	12090
505.273	14476
505.346	8278
505.419	7869
505.492	6800
505.565	5755
505.638	6622
505.711	6739
505.784	6487
505.857	5414
505.930	6631
506.003	6866
506.076	7903
506.149	12003
506.221	12578
506.294	15462
506.367	53466
506.440	132206
506.513	34882
506.586	13846
506.659	6768
506.731	6997
506.804	9922
506.877	12000
506.950	9174
507.022	6753
507.095	11220
507.168	10375
507.241	6233
507.313	6653
507.386	7714
507.459	8390
507.531	6048
507.604	5907
507.677	6419
507.749	5938
507.822	10622
507.894	21673
507.967	21219
508.040	12678
508.112	11716
508.185	10500
508.257	10912
508.330	13119
508.402	10760
508.475	10448
508.547	10187
508.620	12757
508.692	18334
508.765	10609
508.837	8576
508.909	9077
508.982	8975
509.054	10065
509.127	8683
509.199	7815
509.271	8383
509.344	8414
509.416	7971
509.488	8296
509.560	8393
509.633	9028
509.705	10115
509.777	10205
509.849	12222
509.922	9605
509.994	9908
510.066	10574
510.138	14200
510.210	23155
510.283	18486
510.355	14242
510.427	13763
510.499	11601
510.571	12190
510.643	13521
510.715	16938
510.787	12310
510.859	13378
510.931	13899
511.003	16484
511.076	13503
511.148	12515
511.219	13423
511.291	21163
511.363	17968
511.435	10308
511.507	10014
511.579	9911
511.651	9914
511.723	9639
511.795	9557
511.867	10090
511.939	15018
512.010	26960
512.082	15277
512.154	10742
512.226	11248
512.298	19333
512.369	22084
512.441	16845
512.513	16173
512.585	12934
512.656	13127
512.728	13354
512.800	11767
512.871	12020
512.943	11737
513.015	10965
513.086	10861
513.158	12211
513.230	12324
513.301	16397
513.373	14898
513.444	11250
513.516	10473
513.588	10397
513.659	11231
513.731	13340
513.802	12710
513.874	23242
513.945	24466
514.016	10593
514.088	9936
514.159	12034
514.231	16472
514.302	20015
514.374	16231
514.445	18577
514.516	30847
514.588	18012
514.659	17093
514.730	26662
514.802	14805
514.873	12094
514.944	11365
515.016	13266
515.087	14050
515.158	20631
515.229	21619
515.301	10647
515.372	11449
515.443	9989
515.514	10026
515.585	9407
515.656	8772
515.728	9724
515.799	9369
515.870	9683
515.941	10521
516.012	12509
516.083	14992
516.154	15529
516.225	15824
516.296	13791
516.367	12263
516.438	14587
516.509	16691
516.580	25573
516.651	70070
516.722	160234
516.793	40811
516.864	21549
516.935	20910
517.006	23870
517.077	34957
517.148	73260
517.219	210175
517.289	188306
517.360	124616
517.431	29159
517.502	15255
517.573	15112
517.643	15699
517.714	16506
517.785	15075
517.856	14945
517.926	16294
517.997	17679
518.068	20950
518.138	26300
518.209	47271
518.280	165583
518.350	355762
518.421	60513
518.492	18318
518.562	16053
518.633	16416
518.703	13936
518.774	17799
518.845	27409
518.915	22712
518.986	16154
519.056	20795
519.127	35116
519.197	61182
519.268	141775
519.338	51601
519.408	20492
519.479	19764
519.549	14040
519.620	12333
519.690	10550
519.760	11002
519.831	11109
519.901	10224
519.971	9854
520.042	11673
520.112	13013
520.182	13517
520.253	13442
520.323	11498
520.393	13509
520.463	14542
520.534	14323
520.604	19768
520.674	11910
520.744	16266
520.814	25606
520.885	24977
520.955	66688
521.025	160603
521.095	33291
521.165	12505
521.235	12012
521.305	10444
521.375	9706
521.445	10056
521.515	12068
521.585	15096
521.655	11323
521.725	12707
521.795	10253
521.865	10009
521.935	17000
522.005	11690
522.075	9033
522.145	10637
522.215	12964
522.285	16067
522.355	25596
522.424	44841
522.494	28440
522.564	16589
522.634	33464
522.704	58487
522.774	14923
522.843	9879
522.913	9285
522.983	9978
523.053	9088
523.122	9390
523.192	15449
523.262	39271
523.331	20645
523.401	8276
523.471	6975
523.540	7993
523.610	5848
523.680	7431
523.749	8352
523.819	10314
523.888	9353
523.958	8129
524.027	8773
524.097	8023
524.166	8101
524.236	8937
524.305	7930
524.375	7747
524.444	8146
524.514	8035
524.583	9495
524.653	11939
524.722	11821
524.791	6689
524.861	7511
524.930	7353
524.999	8488
525.069	10690
525.138	9858
525.207	12068
525.277	8009
525.346	7452
525.415	7452
525.484	8537
525.554	10621
525.623	8246
525.692	7010
525.761	7940
525.830	6457
525.900	8156
525.969	10441
526.038	10973
526.107	17358
526.176	33611
526.245	22914
526.314	17838
526.383	23834
526.452	24546
526.522	49077
526.591	46121
526.660	26603
526.729	15388
526.797	20923
526.867	59370
526.935	178742
527.004	125896
527.073	41047
527.142	9342
527.211	6963
527.280	8797
527.349	7887
527.418	5622
527.487	6011
527.555	6008
527.624	5364
527.693	5134
527.762	6523
527.831	5018
527.899	6371
527.968	5878
528.037	6311
528.106	8645
528.174	12897
528.243	10915
528.312	19052
528.380	15571
528.449	6746
528.518	5633
528.586	4463
528.655	4880
528.723	4589
528.792	5266
528.861	6623
528.929	5037
528.998	4958
529.066	4567
529.135	4816
529.203	4895
529.272	4493
529.340	5580
529.409	5515
529.477	5479
529.545	9353
529.614	7764
529.682	10355
529.751	10036
529.819	10433
529.887	5968
529.956	4903
530.024	4875
530.092	4630
530.161	6526
530.229	7724
530.297	4203
530.365	4659
530.434	4612
530.502	4552
530.570	5012
530.638	4077
530.707	6037
530.775	5140
530.843	4460
530.911	5188
530.979	4310
531.047	4895
531.115	4855
531.183	5186
531.252	5459
531.320	5631
531.388	5079
531.456	4687
531.524	4852
531.592	5536
531.660	4743
531.728	4749
531.796	3781
531.864	4153
531.932	4596
532.000	5393
532.067	4893
532.135	5777
532.203	6423
532.271	7276
532.339	14183
532.407	26205
532.475	10000
532.542	8291
532.610	10455
532.678	17906
532.746	72406
532.814	97250
532.881	15555
532.949	5598
533.017	5179
533.084	5085
533.152	5104
533.220	6209
533.287	5723
533.355	5126
533.423	5011
533.490	4842
533.558	5060
533.625	6477
533.693	6506
533.761	6691
533.828	7230
533.896	7454
533.963	14208
534.031	14534
534.098	17456
534.166	7932
534.233	5613
534.300	6519
534.368	6657
534.435	5954
534.503	6081
534.570	5316
534.637	4618
534.705	5928
534.772	5510
534.840	7242
534.907	18740
534.974	15991
535.041	7612
535.109	8020
535.176	4956
535.243	4659
535.310	5957
535.378	4694
535.445	5027
535.512	5024
535.579	5164
535.646	5384
535.714	6347
535.781	7731
535.848	7765
535.915	8631
535.982	9586
536.049	7503
536.116	7110
536.183	6747
536.250	5932
536.317	6518
536.384	7078
536.451	10579
536.518	8684
536.585	7186
536.652	9695
536.719	12413
536.786	8361
536.853	8136
536.920	14826
536.987	19379
537.053	20644
537.120	71369
537.187	29845
537.254	6695
537.321	5967
537.388	6312
537.454	5291
537.521	5824
537.588	5805
537.654	7941
537.721	9369
537.788	7930
537.855	6253
537.921	6289
537.988	6924
538.055	6420
538.121	6292
538.188	6811
538.254	10931
538.321	17641
538.388	7935
538.454	6488
538.521	5790
538.587	6267
538.654	5992
538.720	5705
538.787	5536
538.853	7015
538.920	8574
538.986	8003
539.053	7473
539.119	7136
539.185	7331
539.252	8239
539.318	10658
539.385	10020
539.451	9582
539.517	9547
539.583	12267
539.650	27007
539.716	40865
539.782	9525
539.849	6288
539.915	7251
539.981	6867
540.047	7850
540.114	6466
540.180	7017
540.246	7843
540.312	10479
540.378	19639
540.444	17135
540.510	26408
540.576	45494
540.643	10376
540.709	6696
540.775	7050
540.841	7059
540.907	11921
540.973	14817
541.039	11959
541.105	10259
541.171	7436
541.237	7488
541.303	7597
541.369	9264
541.435	11160
541.500	16112
541.566	8287
541.632	6432
541.698	5239
541.764	6647
541.830	6680
541.896	5912
541.961	6873
542.027	7217
542.093	7343
542.159	7516
542.224	8548
542.290	12089
542.356	16687
542.421	15353
542.487	7644
542.553	8510
542.618	8737
542.684	6661
542.750	7868
542.815	9686
542.881	19194
542.947	48363
543.012	19665
543.078	7306
543.143	7317
543.209	8582
543.274	8154
543.340	10219
543.405	22524
543.471	20889
543.536	6353
543.602	7311
543.667	6585
543.732	6842
543.798	6421
543.863	7301
543.928	5995
543.994	6419
544.059	6506
544.124	6683
544.190	6600
544.255	6587
544.320	6249
544.386	8047
544.451	10693
544.516	10540
544.581	14224
544.646	36227
544.712	32310
544.777	10316
544.842	10490
544.907	10841
544.972	9324
545.037	8289
545.102	9784
545.168	9585
545.233	10164
545.298	11130
545.363	14135
545.428	14544
545.493	22693
545.558	34334
545.623	12529
545.688	9953
545.753	9620
545.818	9165
545.883	10100
545.947	9967
546.012	10695
546.077	10998
546.142	9630
546.207	9606
546.272	12115
546.337	10819
546.401	11138
546.466	10485
546.531	9691
546.596	11347
546.661	9915
546.725	9556
546.790	8250
546.855	8778
546.919	8395
546.984	10031
547.049	10603
547.113	11836
547.178	9868
547.243	11498
547.307	13253
547.372	14671
547.436	14954
547.501	10344
547.565	11259
547.630	13625
547.695	13419
547.759	17365
547.823	11580
547.888	10710
547.952	10732
548.017	11675
548.081	14522
548.146	18493
548.210	13083
548.274	10267
548.339	10661
548.403	9479
548.468	9431
548.532	9827
548.596	9799
548.660	9897
548.725	11487
548.789	14397
548.853	14164
548.917	12165
548.982	19108
549.046	15429
549.110	10493
549.174	9928
549.238	9437
549.303	9497
549.367	10753
549.431	10287
549.495	10234
549.559	9713
549.623	11544
549.687	13707
549.751	16246
549.815	13034
549.879	13042
549.943	11994
550.007	13740
550.071	13856
550.135	14480
550.199	12760
550.263	12303
550.327	15412
550.391	17687
550.455	12161
550.519	12230
550.582	13396
550.646	17270
550.710	15752
550.774	13161
550.838	14720
550.901	13407
550.965	15190
551.029	14519
551.093	17797
551.156	23583
551.220	45970
551.284	37195
551.347	24898
551.411	56248
551.475	42088
551.538	14086
551.602	13454
551.666	12779
551.729	12132
551.793	12229
551.856	11990
551.920	11916
551.983	11201
552.047	11585
552.110	11096
552.174	11889
552.237	11746
552.301	10735
552.364	11211
552.428	10657
552.491	10528
552.554	11639
552.618	11545
552.681	12182
552.745	12949
552.808	16496
552.871	15709
552.934	11634
552.998	12108
553.061	12477
553.124	11466
553.187	11957
553.251	13741
553.314	14354
553.377	14872
553.440	20579
553.503	49018
553.567	46622
553.630	13949
553.693	12435
553.756	12426
553.819	11591
553.882	11119
553.945	11438
554.008	10336
554.071	10766
554.134	11518
554.197	10227
554.260	9967
554.323	11771
554.386	11764
554.449	10768
554.512	11300
554.575	9593
554.638	10548
554.701	11102
554.764	10773
554.827	10202
554.889	10164
554.952	8954
555.015	9878
555.078	9027
555.141	9696
555.203	9080
555.266	9532
555.329	9554
555.391	9013
555.454	9937
555.517	10220
555.580	9965
555.642	8987
555.705	8527
555.768	9409
555.830	9783
555.893	7533
555.955	8145
556.018	8782
556.080	9028
556.143	8226
556.206	7522
556.268	9860
556.330	8851
556.393	9484
556.455	10235
556.518	15162
556.580	12462
556.643	8361
556.705	8100
556.767	7457
556.830	9201
556.892	9756
556.955	12480
557.017	8942
557.079	8517
557.142	8154
557.204	10080
557.266	17260
557.328	11144
557.391	8005
557.453	7943
557.515	8107
557.577	9770
557.639	9082
557.701	7097
557.764	6614
557.826	7381
557.888	8493
557.950	7408
558.012	8186
558.074	9344
558.136	16763
558.198	25226
558.260	11078
558.322	8309
558.384	8045
558.446	10063
558.508	10508
558.570	14416
558.632	24221
558.694	26364
558.756	26697
558.818	68735
558.880	118281
558.942	30621
559.003	27379
559.065	12494
559.127	10022
559.189	10553
559.251	11788
559.312	15446
559.374	32621
559.436	77763
559.498	28641
559.559	9610
559.621	10424
559.683	12922
559.744	22919
559.806	48725
559.868	48825
559.929	14063
559.991	13058
560.052	15962
560.114	29843
560.176	18192
560.237	22307
560.299	24264
560.360	10364
560.422	8937
560.483	9091
560.545	9036
560.606	8416
560.667	7674
560.729	7898
560.790	7981
560.852	8227
560.913	8179
560.974	8307
561.036	8299
561.097	7893
561.158	8997
561.220	8269
561.281	8470
561.342	8245
561.403	11197
561.465	12566
561.526	25898
561.587	21901
561.648	9151
561.709	8710
561.771	7776
561.832	8623
561.893	7796
561.954	8343
562.015	8837
562.076	8002
562.137	7905
562.198	7957
562.259	8885
562.320	8564
562.381	9638
562.442	10596
562.503	9230
562.564	8198
562.625	8113
562.686	7950
562.747	8018
562.808	8512
562.869	9237
562.930	11602
562.991	10959
563.051	10324
563.112	9413
563.173	8666
563.234	8208
563.294	8451
563.355	8118
563.416	8252
563.477	7752
563.537	9680
563.598	9853
563.659	8905
563.720	10031
563.780	9171
563.841	9454
563.901	8348
563.962	8913
564.023	9112
564.083	8826
564.144	9295
564.204	9547
564.265	9868
564.325	12197
564.386	23105
564.446	15867
564.507	8365
564.567	8482
564.628	8282
564.688	7588
564.749	8928
564.809	10879
564.869	11102
564.930	7825
564.990	8085
565.050	7463
565.111	8712
565.171	9091
565.231	7881
565.292	7980
565.352	7920
565.412	7716
565.472	8056
565.532	8665
565.593	8308
565.653	7184
565.713	8352
565.773	8721
565.833	10276
565.893	10363
565.953	7611
566.013	8709
566.074	10466
566.134	13225
566.194	21190
566.254	17187
566.314	11442
566.374	9331
566.434	8313
566.494	8166
566.554	8636
566.614	8504
566.673	8467
566.733	9373
566.793	9852
566.853	9343
566.913	8748
566.973	9084
567.033	8975
567.092	8973
567.152	9026
567.212	9273
567.272	10096
567.331	10575
567.391	9603
567.451	10976
567.511	16105
567.570	12565
567.630	9173
567.690	8483
567.749	9570
567.809	8484
567.868	9839
567.928	10343
567.988	11371
568.047	10747
568.107	12398
568.166	13964
568.226	18149
568.285	20744
568.345	17442
568.404	14495
568.464	13274
568.523	12398
568.582	13753
568.642	15245
568.701	18756
568.761	24484
568.820	32384
568.879	30448
568.939	26185
568.998	17222
569.057	14017
569.116	11537
569.176	10404
569.235	10073
569.294	9391
569.353	9300
569.413	9117
569.472	9937
569.531	8408
569.590	8308
569.649	8090
569.708	7050
569.767	9258
569.827	8772
569.886	7536
569.945	7859
570.004	7884
570.063	8277
570.122	9029
570.181	9754
570.240	9967
570.299	9634
570.358	9083
570.417	7272
570.475	7202
570.534	7874
570.593	8178
570.652	8854
570.711	8624
570.770	8716
570.829	9380
570.887	8079
570.946	8463
571.005	7560
571.064	7720
571.122	8226
571.181	9654
571.240	7549
571.299	8332
571.357	8581
571.416	9534
571.475	10206
571.533	10720
571.592	8089
571.650	8639
571.709	6741
571.768	7634
571.826	6717
571.885	6742
571.943	7694
572.002	7840
572.060	7502
572.119	6850
572.177	6949
572.236	6717
572.294	6834
572.352	7317
572.411	6421
572.469	7136
572.528	6251
572.586	6246
572.644	7269
572.703	8387
572.761	6818
572.819	7137
572.877	6561
572.936	6583
572.994	6747
573.052	7233
573.110	6850
573.169	6437
573.227	6384
573.285	6801
573.343	5898
573.401	6182
573.459	6453
573.517	6149
573.576	6888
573.634	6442
573.692	6734
573.750	6502
573.808	6598
573.866	7871
573.924	10243
573.982	9232
574.040	6374
574.098	6604
574.155	6470
574.213	6631
574.271	6202
574.329	5728
574.387	5715
574.445	5934
574.503	5965
574.560	5461
574.618	6157
574.676	5580
574.734	5476
574.792	6713
574.849	5938
574.907	5389
574.965	5465
575.022	5876
575.080	5168
575.138	5925
575.195	6459
575.253	6674
575.311	6845
575.368	5581
575.426	6194
575.483	6345
575.541	5996
575.598	6306
575.656	5960
575.713	6172
575.771	5865
575.828	5494
575.886	5873
575.943	6585
576.001	6511
576.058	6956
576.115	7106
576.173	8703
576.230	8920
576.287	9756
576.345	7669
576.402	6832
576.459	7561
576.517	6884
576.574	8596
576.631	9200
576.688	7960
576.746	7562
576.803	7013
576.860	8036
576.917	7181
576.974	7540
577.031	6613
577.089	6946
577.146	6405
577.203	6750
577.260	7443
577.317	7589
577.374	9279
577.431	9142
577.488	7504
577.545	6908
577.602	7086
577.659	7070
577.716	6983
577.773	7735
577.830	6998
577.886	6865
577.943	6560
578.000	7386
578.057	8277
578.114	8406
578.171	8925
578.227	11511
578.284	9907
578.341	8807
578.398	7643
578.454	8127
578.511	9135
578.568	9270
578.625	7907
578.681	6907
578.738	5675
578.794	7357
578.851	6110
578.908	6914
578.964	6605
579.021	6939
579.077	6040
579.134	6582
579.190	6511
579.247	6716
579.303	6274
579.360	6146
579.416	6763
579.473	6594
579.529	5829
579.586	6348
579.642	5460
579.698	6794
579.755	7116
579.811	6601
579.867	6896
579.924	7600
579.980	6747
580.036	8786
580.093	11479
580.149	14927
580.205	15026
580.261	12135
580.317	9734
580.374	9517
580.430	10216
580.486	9486
580.542	7434
580.598	7525
580.619	7527
580.654	7537
580.692	7536
580.710	7547
580.765	7128
580.767	7119
580.823	7283
580.838	7119
580.879	6702
580.911	7172
580.935	7525
580.984	6536
580.991	6407
581.047	6750
581.057	7034
581.103	8283
581.130	8555
581.159	8907
581.203	9445
581.215	9566
581.270	8908
581.276	8811
581.326	7966
581.349	7766
581.382	7470
581.422	7499
581.438	7529
581.494	8383
581.494	8379
581.550	8249
581.567	8163
581.606	7927
581.640	7956
581.661	8032
581.713	7245
581.717	7175
581.773	6761
581.786	6829
581.829	7124
581.859	7398
581.885	7658
581.932	8017
581.940	8063
581.996	8007
582.004	8000
582.052	7990
582.077	7981
582.107	7989
582.150	7496
582.163	7356
582.219	8080
582.223	8031
582.274	7483
582.296	7619
582.330	7817
582.368	8135
582.386	8272
582.441	7779
582.441	7778
582.497	7658
582.514	7696
582.552	8005
582.587	8358
582.608	8472
582.659	8020
582.663	8005
582.719	7543
582.732	7661
582.774	7868
582.805	8237
582.830	8594
582.877	8260
582.885	8195
582.941	7994
582.950	8176
582.996	9159
583.023	9392
583.052	9655
583.095	10353
583.107	10586
583.162	11942
583.168	11988
583.218	12224
583.240	11590
583.273	10647
583.313	9904
583.328	9566
583.384	8930
583.385	8932
583.439	8966
583.458	8910
583.494	8970
583.531	8745
583.549	8591
583.603	8067
583.605	8050
583.660	7970
583.676	8078
583.715	8489
583.748	8656
583.770	8739
583.820	8919
583.825	8942
583.881	8595
583.893	8707
583.936	8889
583.965	8336
583.991	8017
584.038	8970
584.046	9108
584.101	9213
584.110	9110
584.156	8604
584.183	8694
584.211	8862
584.255	8818
584.266	8789
584.321	8199
584.328	8302
584.376	9107
584.400	8955
584.431	8816
584.472	8930
584.486	8946
584.541	9233
584.545	9185
584.596	8408
584.617	8472
584.651	8841
584.689	9433
584.706	9613
584.761	9967
584.762	9961
584.816	9494
584.834	9566
584.871	9748
584.906	9821
584.926	9997
584.978	10325
584.980	10321
585.035	10576
585.051	10536
585.090	10890
585.123	11172
585.145	11311
585.195	11451
585.200	11457
585.254	12330
585.267	12490
585.309	13336
585.340	14556
585.364	15613
585.412	14943
585.419	14781
585.473	15773
585.484	16253
585.528	18523
585.556	19426
585.583	21513
585.628	27358
585.637	30241
585.692	55495
585.700	59182
585.747	96602
585.772	103460
585.801	79871
585.845	51580
585.856	45019
585.910	19743
585.917	16807
585.965	14543
585.989	13813
586.019	14003
586.061	13489
586.074	13373
586.128	13603
586.133	13610
586.183	13918
586.205	14123
586.237	14722
586.277	14959
586.292	14970
586.346	15169
586.349	15191
586.401	15323
586.421	15290
586.455	15635
586.493	16588
586.509	17366
586.564	20957
586.565	21115
586.618	32643
586.637	33279
586.672	32560
586.709	31182
586.727	26679
586.781	17901
586.781	17917
586.835	16600
586.853	16325
586.889	15924
586.925	15042
586.944	14875
586.996	15555
586.998	15584
587.052	15042
587.068	15120
587.106	15695
587.140	16165
587.161	16343
587.212	16356
587.215	16384
587.269	17238
587.284	17138
587.323	16919
587.356	17306
587.377	17595
587.427	18303
587.431	18367
587.485	18562
587.499	18678
587.539	19065
587.571	19219
587.593	19379
587.643	20356
587.648	20483
587.702	20780
587.715	20914
587.755	21748
587.786	22365
587.810	22713
587.858	23576
587.864	23669
587.917	24397
587.930	24487
587.971	26103
588.001	27693
588.025	28771
588.073	29831
588.079	29927
588.133	31394
588.145	31788
588.187	34250
588.217	35970
588.241	38146
588.288	42849
588.295	43522
588.348	48824
588.360	50255
588.402	56764
588.431	61650
588.456	66385
588.503	76967
588.510	78614
588.564	94236
588.575	98015
588.617	114745
588.646	128236
588.671	141785
588.718	173335
588.725	180016
588.778	242971
588.789	259644
588.832	363278
588.861	446279
588.886	572527
588.932	821120
588.939	861071
588.993	1082926
589.004	1118142
589.047	1003171
589.075	905228
589.100	729915
589.147	435499
589.154	413505
589.207	259127
589.218	229008
589.261	199427
589.290	182798
589.314	183543
589.361	190718
589.368	195214
589.421	243707
589.433	257834
589.475	374908
589.504	471980
589.528	618634
589.576	870135
589.582	881420
589.635	890083
589.647	887997
589.689	588308
589.718	395047
589.742	309196
589.790	148885
589.795	144140
589.849	101368
589.861	91933
589.902	83328
589.932	76149
589.955	71052
590.004	60020
590.009	58882
590.062	46904
590.075	43882
590.115	40847
590.146	38654
590.168	37564
590.218	34935
590.222	34826
590.275	32891
590.289	32368
590.328	32425
590.360	32135
590.381	31284
590.431	29344
590.435	29301
590.488	27789
590.503	27381
590.541	27393
590.574	27195
590.594	27086
590.645	26890
590.647	26893
590.700	25517
590.716	25010
590.753	25022
590.787	25245
590.806	25194
590.859	24600
590.859	24643
590.912	24374
590.930	24259
590.965	24308
591.001	24296
591.018	24230
591.071	23725
591.072	23673
591.124	23795
591.143	23789
591.177	23889
591.214	23917
591.230	23904
591.283	23796
591.285	23739
591.336	24045
591.356	24123
591.389	24391
591.427	24485
591.442	24289
591.495	23434
591.498	23315
591.547	22537
591.569	22210
591.600	22357
591.640	22324
591.653	22354
591.706	22301
591.711	22251
591.759	22852
591.782	23155
591.811	24838
591.853	27062
591.864	26988
591.917	26234
591.924	26069
591.969	24276
591.995	23167
592.022	23570
592.066	24118
592.075	24235
592.127	24632
592.137	24675
592.180	27496
592.208	29162
592.233	29505
592.279	29917
592.285	29475
592.338	25109
592.350	24055
592.390	23387
592.421	22794
592.443	22859
592.491	22840
592.495	22951
592.548	23759
592.562	23923
592.600	23896
592.633	23775
592.653	23677
592.704	23143
592.705	23277
592.775	23316
592.846	23069
592.916	23697
592.987	24309
593.058	24852
593.128	24312
593.199	23073
593.270	22684
593.341	22376
593.411	22680
593.482	23308
593.553	23695
593.623	22997
593.694	23182
593.764	24274
593.835	24924
593.906	23655
593.976	23034
594.047	23756
594.117	26071
594.188	29815
594.258	27266
594.329	23722
594.399	24201
594.470	24033
594.540	23412
594.611	24469
594.681	24306
594.751	25494
594.822	25791
594.892	26456
594.963	27114
595.033	27582
595.103	28216
595.174	28733
595.244	32707
595.314	44545
595.384	41556
595.455	28067
595.525	28313
595.595	29018
595.665	30229
595.736	29883
595.806	29311
595.876	28861
595.946	29155
596.016	28881
596.087	29065
596.157	30624
596.227	30020
596.297	30126
596.367	32273
596.437	34522
596.507	37297
596.577	46421
596.647	45571
596.717	33871
596.787	34756
596.857	35557
596.927	34390
596.997	35416
597.067	34509
597.137	35268
597.207	36693
597.277	36140
597.347	35874
597.417	35868
597.487	35005
597.557	34796
597.626	36535
597.696	36743
597.766	38510
597.836	45053
597.906	46080
597.975	33514
598.045	33662
598.115	32552
598.185	33710
598.254	36042
598.324	38654
598.394	39196
598.464	40490
598.533	39828
598.603	37793
598.672	35906
598.742	36620
598.812	36525
598.881	37423
598.951	37531
599.020	36428
599.090	37446
599.159	37342
599.229	37552
599.299	37179
599.368	36810
599.437	37112
599.507	35958
599.576	35266
599.646	35462
599.715	34113
599.785	34346
599.854	33817
599.924	35852
599.993	37173
600.062	34360
600.132	33030
600.201	33614
600.270	37545
600.340	40598
600.409	39940
600.478	39635
600.547	39254
600.617	39697
600.686	35938
600.755	32304
600.824	30788
600.894	30738
600.963	29249
601.032	28923
601.101	29627
601.170	28148
601.239	28628
601.308	30118
601.378	32964
601.447	29823
601.516	28476
601.585	28675
601.654	32701
601.723	35241
601.792	29596
601.861	29920
601.930	29509
601.999	33190
602.068	31609
602.137	33499
602.206	39498
602.275	32814
602.343	31520
602.412	32874
602.481	32580
602.550	30583
602.619	30292
602.688	33015
602.756	31496
602.825	32189
602.894	30797
602.963	32399
603.032	32033
603.100	33485
603.169	32457
603.238	32143
603.307	33818
603.375	32909
603.444	33155
603.513	34338
603.581	33128
603.650	34090
603.719	34419
603.787	33505
603.856	33654
603.924	33774
603.993	35203
604.061	35135
604.130	37057
604.198	37591
604.267	39090
604.335	38485
604.404	39075
604.472	39839
604.541	39355
604.609	40510
604.678	39723
604.746	40378
604.815	41058
604.883	43350
604.951	42355
605.020	41564
605.088	42234
605.156	42741
605.225	43900
605.293	43509
605.361	44371
605.429	44307
605.498	44297
605.566	44779
605.634	46774
605.702	48442
605.771	49644
605.839	50862
605.907	49297
605.975	48835
606.043	47437
606.111	46625
606.180	46331
606.248	47765
606.316	49105
606.384	48315
606.452	48472
606.520	49948
606.588	49927
606.656	46432
606.724	46857
606.792	46097
606.860	41999
606.928	38953
606.996	36759
607.064	35314
607.132	35168
607.200	36209
607.267	38218
607.335	38656
607.403	40292
607.471	40451
607.539	37844
607.607	39216
607.674	37221
607.742	35706
607.810	35259
607.878	35804
607.946	34430
608.013	35715
608.081	36699
608.149	36734
608.216	36854
608.284	38356
608.352	38378
608.419	39586
608.487	41723
608.555	46717
608.622	38986
608.690	38210
608.757	40229
608.825	44132
608.893	44104
608.960	43755
609.028	42485
609.095	45096
609.163	48507
609.230	40154
609.298	36648
609.365	34841
609.432	36387
609.500	37948
609.567	41096
609.635	47414
609.702	52526
609.769	54811
609.837	50503
609.904	42504
609.971	37360
610.039	40433
610.106	45753
610.173	66625
610.241	143289
610.308	280888
610.375	145773
610.442	68530
610.509	41586
610.577	39070
610.644	37309
610.711	38073
610.778	38077
610.845	39920
610.912	42026
610.980	44892
611.047	46700
611.114	47723
611.181	44343
611.248	40951
611.315	42778
611.382	43610
611.449	45248
611.516	45260
611.583	47524
611.650	46405
611.717	46999
611.784	48231
611.851	49441
611.918	51769
611.984	57379
612.051	72065
612.118	114564
612.185	261233
612.252	569138
612.319	181419
612.386	65892
612.452	60313
612.519	55263
612.586	56527
612.653	62406
612.719	54419
612.786	55274
612.853	51517
612.919	48186
612.986	48170
613.053	47085
613.120	45495
613.186	41476
613.253	42405
613.319	41709
613.386	42458
613.453	42905
613.519	43440
613.586	44594
613.652	48276
613.719	50560
613.785	48309
613.852	45740
613.918	44003
613.985	44167
614.051	45859
614.118	52348
614.184	66540
614.250	52048
614.317	42823
614.383	42152
614.449	43396
614.516	44107
614.582	44101
614.648	45345
614.715	42178
614.781	42451
614.847	41752
614.914	42733
614.980	43433
615.046	40571
615.112	41357
615.179	42041
615.245	42669
615.311	42693
615.377	43769
615.443	48007
615.509	47591
615.575	45038
615.642	45937
615.708	45672
615.774	47695
615.840	51463
615.906	56248
615.972	63365
616.038	85673
616.104	145888
616.170	315567
616.236	760141
616.302	337047
616.368	91652
616.434	75794
616.500	57922
616.565	57170
616.631	64377
616.697	72750
616.763	59245
616.829	67466
616.895	108105
616.961	173990
617.026	123268
617.092	55886
617.158	48640
617.224	46643
617.289	45181
617.355	42708
617.421	41927
617.487	42822
617.552	41275
617.618	38940
617.684	39787
617.749	39843
617.815	38488
617.880	37647
617.946	36668
618.012	37764
618.077	37844
618.143	38612
618.208	38190
618.274	37761
618.339	41750
618.405	39907
618.470	35139
618.536	35561
618.601	37383
618.667	37387
618.732	34320
618.798	33734
618.863	32173
618.928	32209
618.994	31792
619.059	33839
619.124	35550
619.190	38596
619.255	33653
619.320	32822
619.386	33204
619.451	32002
619.516	32064
619.581	31400
619.647	32899
619.712	32295
619.777	32003
619.842	31823
619.907	31235
619.972	31575
620.038	32183
620.103	32284
620.168	31698
620.233	31539
620.298	31437
620.363	30993
620.428	32033
620.493	32072
620.558	33944
620.623	32434
620.688	33611
620.753	32690
620.818	32435
620.883	32909
620.948	34401
621.013	32444
621.078	32450
621.143	31983
621.207	35006
621.272	33954
621.337	35067
621.402	34988
621.467	37359
621.532	43549
621.596	40206
621.661	35772
621.726	34714
621.791	33147
621.855	34541
621.920	34751
621.985	35068
622.049	38597
622.114	39516
622.179	39098
622.243	36712
622.308	39102
622.373	38342
622.437	38503
622.502	37522
622.566	35884
622.631	35727
622.695	37070
622.760	36477
622.824	35774
622.889	35314
622.953	38074
623.018	38153
623.082	45521
623.147	40072
623.211	36939
623.276	36650
623.340	37023
623.404	35288
623.469	34192
623.533	33632
623.597	34918
623.662	33794
623.726	32864
623.790	31085
623.854	29701
623.919	31235
623.983	30104
624.047	31665
624.111	30228
624.176	31408
624.240	30511
624.304	32701
624.368	33259
624.432	31860
624.496	31281
624.560	32693
624.625	34772
624.689	34886
624.753	32541
624.817	33932
624.881	32454
624.945	31256
625.009	30076
625.073	30141
625.137	30296
625.201	31812
625.265	34227
625.329	32104
625.393	30413
625.456	31665
625.520	31815
625.584	32999
625.648	34610
625.712	41890
625.776	59763
625.839	106796
625.903	98748
625.967	38681
626.031	33394
626.095	52192
626.158	62562
626.222	30619
626.286	24580
626.349	23704
626.413	23106
626.477	22430
626.540	22850
626.604	22711
626.668	22022
626.731	22227
626.795	22061
626.858	22991
626.922	22087
626.986	20855
627.049	21317
627.113	21696
627.176	21990
627.240	20411
627.303	20254
627.366	21197
627.430	21038
627.493	21321
627.557	21633
627.620	21688
627.684	20532
627.747	22397
627.810	21745
627.874	20461
627.937	18642
628.000	18656
628.064	20274
628.127	19212
628.190	17452
628.253	18138
628.317	17896
628.380	17175
628.443	16500
628.506	16086
628.569	17343
628.632	16007
628.696	16612
628.759	15378
628.822	14965
628.885	15846
628.948	15830
629.011	14577
629.074	15421
629.137	14415
629.200	14173
629.263	14780
629.326	14935
629.389	13992
629.452	13709
629.515	14383
629.578	15652
629.641	14371
629.704	14676
629.767	15034
629.830	14564
629.892	13021
629.955	12766
630.018	13128
630.081	14296
630.144	15164
630.207	14426
630.269	15249
630.332	14748
630.395	16583
630.458	13881
630.520	12780
630.583	13224
630.646	12766
630.708	12984
630.771	12586
630.834	12337
630.896	12443
630.959	12600
631.021	11939
631.084	12347
631.146	12717
631.209	15789
631.272	15592
631.334	12902
631.397	12437
631.459	12203
631.522	11793
631.584	11848
631.646	12566
631.709	13466
631.771	14568
631.834	15994
631.896	13393
631.958	11909
632.021	11866
632.083	10806
632.145	12667
632.208	12319
632.270	11862
632.332	10804
632.395	11665
632.457	12002
632.519	11726
632.581	11420
632.643	10866
632.706	11281
632.768	10589
632.830	10733
632.892	10636
632.954	11899
633.016	11580
633.078	11337
633.141	10727
633.203	11396
633.265	11142
633.327	10563
633.389	10543
633.451	11005
633.513	12193
633.575	14087
633.637	14381
633.698	13373
633.760	12109
633.822	10948
633.884	10241
633.946	11199
634.008	11013
634.070	11619
634.132	11234
634.193	13177
634.255	12866
634.317	13800
634.379	12408
634.441	13345
634.502	13339
634.564	11652
634.626	10654
634.687	10186
634.749	10530
634.811	9691
634.873	10779
634.934	9776
634.996	9231
635.057	10356
635.119	9055
635.181	10111
635.242	9579
635.304	9340
635.365	10022
635.427	9186
635.488	10518
635.550	9552
635.611	10164
635.673	9772
635.734	9570
635.796	10423
635.857	11372
635.918	11598
635.980	11690
636.041	11955
636.102	13703
636.164	13263
636.225	13070
636.286	11926
636.348	11419
636.409	10267
636.470	9616
636.531	9924
636.593	10878
636.654	12237
636.715	10072
636.776	7397
636.838	8979
636.899	8584
636.960	9355
637.021	9098
637.082	7647
637.143	8721
637.204	7993
637.265	8040
637.326	8842
637.387	8089
637.448	8308
637.509	7911
637.570	8406
637.631	8061
637.692	7927
637.753	7785
637.814	7751
637.875	7675
637.936	7786
637.997	8217
638.058	7817
638.119	8085
638.179	8401
638.240	8118
638.301	7357
638.362	7899
638.423	7644
638.483	8714
638.544	7902
638.605	8145
638.666	7336
638.726	7710
638.787	7899
638.848	7037
638.908	8020
638.969	7067
639.030	7401
639.090	7047
639.151	7945
639.211	7260
639.272	8158
639.332	8550
639.393	12315
639.453	7857
639.514	7607
639.574	7109
639.635	7257
639.695	6792
639.756	7079
639.816	7433
639.877	7460
639.937	8301
639.997	11525
640.058	11984
640.118	7177
640.178	7025
640.239	6693
640.299	6042
640.359	6975
640.420	5853
640.480	6389
640.540	6883
640.600	7260
640.661	7473
640.721	6686
640.781	7553
640.841	8228
640.901	7162
640.961	7131
641.021	5915
641.082	7037
641.142	8040
641.202	8411
641.262	6460
641.322	6083
641.382	6158
641.442	6067
641.502	6328
641.562	6582
641.622	5687
641.682	6879
641.742	6400
641.802	8084
641.861	7438
641.921	7038
641.981	6856
642.041	6216
642.101	7263
642.161	8504
642.221	6700
642.280	6013
642.340	5947
642.400	6260
642.460	6239
642.519	6023
642.579	5997
642.639	6468
642.698	6089
642.758	6412
642.818	5659
642.877	5819
642.937	6708
642.997	7028
643.056	7720
643.116	7952
643.175	6735
643.235	6295
643.294	6526
643.354	6137
643.414	7077
643.473	6687
643.532	8724
643.592	10243
643.651	14899
643.711	21997
643.770	40556
643.830	82039
643.889	205237
643.948	361628
644.008	57228
644.067	13914
644.126	10431
644.186	8221
644.245	8082
644.304	6156
644.363	6293
644.423	5871
644.482	6083
644.541	5566
644.600	6046
644.659	6495
644.719	8000
644.778	9804
644.837	12689
644.896	20911
644.955	42218
645.014	85054
645.073	20945
645.132	8573
645.191	7922
645.250	6935
645.309	6517
645.368	6470
645.427	7533
645.486	7454
645.545	12276
645.604	17046
645.663	6838
645.722	5862
645.781	6405
645.840	7002
645.898	7865
645.957	9569
646.016	11794
646.075	20113
646.134	36812
646.192	68856
646.251	201078
646.310	228972
646.369	24756
646.427	10870
646.486	8730
646.545	6447
646.603	6526
646.662	6031
646.721	5442
646.779	5146
646.838	4564
646.896	6054
646.955	6434
647.014	7699
647.072	12551
647.131	21831
647.189	56309
647.248	20775
647.306	6230
647.365	5195
647.423	5041
647.481	5343
647.540	3831
647.598	4371
647.657	4994
647.715	4459
647.773	3954
647.832	3960
647.890	4082
647.948	4422
648.007	4645
648.065	4159
648.123	4363
648.181	5571
648.240	4276
648.298	4754
648.356	4657
648.414	4630
648.472	4920
648.531	4375
648.589	4371
648.647	4483
648.705	3948
648.763	4396
648.821	3850
648.879	4491
648.937	4519
648.995	4977
649.053	5933
649.111	7005
649.169	10823
649.227	16035
649.285	27979
649.343	57490
649.401	161113
649.459	57537
649.516	16847
649.574	10178
649.632	8360
649.690	13479
649.748	13762
649.806	8459
649.863	12263
649.921	17670
649.979	39167
650.037	21462
650.094	5525
650.152	4206
650.210	3663
650.268	4002
650.325	4050
650.383	3787
650.440	3474
650.498	4069
650.556	3374
650.613	3900
650.671	3234
650.728	3771
650.786	3331
650.843	3854
650.901	4133
650.958	4357
651.016	3368
651.073	2428
651.131	3838
651.188	2631
651.246	3624
651.303	3518
651.360	3377
651.418	2804
651.475	3707
651.532	2770
651.590	3536
651.647	2703
651.704	3464
651.762	3842
651.819	3511
651.876	3529
651.933	3863
651.990	3292
652.048	2477
652.105	3953
652.162	3164
652.219	2843
652.276	2956
652.333	3142
652.390	2947
652.448	2864
652.505	2544
652.562	3347
652.619	2694
652.676	3469
652.733	4239
652.790	3758
652.847	1998
652.904	3333
652.961	2048
653.017	2769
653.074	2236
653.131	2494
653.188	2341
653.245	2382
653.302	2300
653.359	2145
653.415	2930
653.472	2761
653.529	2169
653.586	2723
653.642	2660
653.699	2835
653.756	2326
653.813	2869
653.869	2676
653.926	2950
653.983	2020
654.039	2093
654.096	3189
654.152	2241
654.209	2762
654.266	2778
654.322	2805
654.379	2985
654.435	4670
654.492	3301
654.548	3558
654.605	4863
654.661	8160
654.717	3172
654.774	3464
654.830	3510
654.887	3585
654.943	2925
655.000	3247
655.056	3298
655.112	3243
655.168	3321
655.225	2865
655.281	3202
655.337	3535
655.394	4768
655.450	8413
655.506	5954
655.562	4478
655.618	8814
655.675	5486
655.731	2953
655.787	2565
655.843	3026
655.899	3093
655.955	2707
656.011	3051
656.067	2485
656.123	3769
656.179	3712
656.235	3735
656.291	3194
656.347	3036
656.403	3419
656.459	4047
656.515	3478
656.571	3306
656.627	4268
656.683	2747
656.739	3420
656.795	2438
656.850	3126
656.906	2750
656.962	3104
657.018	2309
657.074	2625
657.129	2292
657.185	3927
657.241	4255
657.297	5881
657.352	4734
657.408	2454
657.464	2660
657.519	2630
657.575	3006
657.630	2341
657.686	2989
657.742	2079
657.797	2207
657.853	2740
657.908	2423
657.964	2829
658.019	2054
658.075	2848
658.130	2370
658.186	3035
658.241	2455
658.297	2170
658.352	2290
658.407	2413
658.463	2444
658.518	1908
658.573	2647
658.629	2152
658.684	1605
658.739	2079
658.795	2720
658.850	2762
658.905	2127
658.960	2916
659.016	1512
659.071	1858
659.126	2554
659.181	2031
659.236	2342
659.291	4068
659.346	3527
659.401	2812
659.457	3351
659.512	2593
659.567	3281
659.622	2989
659.677	2330
659.732	2089
659.787	2746
659.842	2735
659.897	3669
659.952	4119
660.007	2200
660.061	2000
660.116	2810
660.171	2631
660.226	2046
660.281	3114
660.336	2032
660.391	2194
660.445	1758
660.500	2061
660.555	2244
660.610	1875
660.664	2361
660.719	2109
660.774	2403
660.828	2751
660.883	2677
660.938	2769
660.992	2035
661.047	2614
661.101	2540
661.156	2162
661.211	2683
661.265	1872
661.320	2303
661.374	2550
661.429	2610
661.483	2075
661.538	1683
661.592	1879
661.647	2400
661.701	2694
661.755	1962
661.810	2654
661.864	2580
661.919	2408
661.973	2456
662.027	2485
662.081	1898
662.136	2535
662.190	2570
662.244	2858
662.299	3023
662.353	2778
662.407	2387
662.461	2527
662.515	2739
662.569	1800
662.624	2382
662.678	2921
662.732	2159
662.786	2552
662.840	2603
662.894	2888
662.948	2655
663.002	2065
663.056	2776
663.110	2025
663.164	2146
663.218	2452
663.272	1932
663.326	2308
663.380	2741
663.434	2843
663.488	2676
663.542	2841
663.595	2623
663.649	1951
663.703	3795
663.757	2172
663.811	2459
663.864	2241
663.918	2671
663.972	1977
664.026	2520
664.079	1840
664.133	2357
664.187	2363
664.240	2066
664.294	2037
664.348	1747
664.401	2235
664.455	2677
664.508	2069
664.562	2381
664.615	1894
664.669	2498
664.722	2229
664.776	2854
664.829	2142
664.883	2740
664.936	2130
664.990	3242
665.043	2619
665.097	1899
665.150	2829
665.203	2371
665.257	2486
665.310	3082
665.363	2430
665.417	2514
665.470	2339
665.523	2578
665.576	3482
665.630	2492
665.683	2647
665.736	2674
665.789	3056
665.842	2859
665.895	1913
665.949	3172
666.002	2463
666.055	2795
666.108	2711
666.161	3224
666.214	2852
666.267	2789
666.320	3784
666.373	3044
666.426	2764
666.479	3041
666.532	3088
666.585	3252
666.638	4256
666.691	3372
666.744	3465
666.796	3603
666.849	4178
666.902	3134
666.955	2201
667.008	2222
667.060	2424
667.113	2790
667.166	1825
667.219	2184
667.271	2810
667.324	2553
667.377	1818
667.430	3258
667.482	1877
667.535	2832
667.587	2548
667.640	3015
667.693	2431
667.745	3334
667.798	4526
667.850	4676
667.903	3004
667.955	2905
668.008	2911
668.060	2705
668.113	3295
668.165	3558
668.218	3547
668.270	2855
668.322	2512
668.375	3272
668.427	3175
668.479	2364
668.532	3395
668.584	2510
668.636	3471
668.689	3354
668.741	3027
668.793	3272
668.845	2686
668.898	2296
668.950	2646
669.002	2807
669.054	3121
669.106	3315
669.158	3022
669.211	3377
669.263	3317
669.315	3167
669.367	3253
669.419	3078
669.471	3517
669.523	4443
669.575	4083
669.627	4720
669.679	4512
669.731	3283
669.783	3748
669.835	3589
669.886	3550
669.938	3893
669.990	3613
670.042	3093
670.094	3325
670.146	2899
670.197	4384
670.249	5131
670.301	5212
670.353	5994
670.404	7583
670.456	10091
670.508	15971
670.560	24209
670.611	39227
670.663	66356
670.715	112514
670.766	248115
670.818	425126
670.869	161832
670.921	28531
670.972	14671
671.024	10002
671.075	7643
671.127	6121
671.178	5727
671.230	4911
671.281	4496
671.333	4658
671.384	3758
671.436	4152
671.487	5470
671.538	5233
671.590	5775
671.641	7030
671.692	9484
671.744	13273
671.795	25939
671.846	16340
671.897	6854
671.949	4873
672.000	4362
672.051	2825
672.102	3237
672.153	3901
672.204	2904
672.256	2891
672.307	2941
672.358	3961
672.409	4385
672.460	3522
672.511	2793
672.562	2875
672.613	3346
672.664	2818
672.715	3297
672.766	3175
672.817	3285
672.868	2481
672.919	2601
672.970	2817
673.021	3055
673.071	2755
673.122	2372
673.173	2344
673.224	2106
673.275	2670
673.326	2803
673.376	2357
673.427	2622
673.478	3018
673.528	2576
673.579	3296
673.630	2754
673.680	2715
673.731	1528
673.782	2062
673.832	2522
673.883	3178
673.934	2909
673.984	2797
674.035	1710
674.085	2287
674.136	3606
674.186	2559
674.237	3491
674.287	3564
674.338	5223
674.388	3415
674.438	2319
674.489	2840
674.539	2896
674.589	2910
674.640	3121
674.690	2853
674.740	2354
674.791	3238
674.841	3300
674.891	2495
674.942	2565
674.992	2335
675.042	2313
675.092	2226
675.142	3496
675.193	1799
675.243	2337
675.293	2222
675.343	2574
675.393	2901
675.443	1810
675.493	2549
675.543	2075
675.593	2772
675.643	2983
675.693	2038
675.743	2287
675.793	2650
675.843	2624
675.893	2024
675.943	2477
675.993	2400
676.043	2005
676.093	2822
676.142	2024
676.192	1966
676.242	2077
676.292	1615
676.341	1063
676.391	2065
676.441	1795
676.491	2009
676.540	1622
676.590	2240
676.640	1594
676.689	1939
676.739	1382
676.789	1760
676.838	1939
676.888	1890
676.937	1622
676.987	1834
677.037	2131
677.086	2085
677.136	1695
677.185	1598
677.235	1804
677.284	1686
677.333	1769
677.383	1726
677.432	1843
677.482	1225
677.531	2070
677.580	1795
677.630	2173
677.679	1618
677.728	1031
677.778	1948
677.827	1792
677.876	1657
677.925	1586
677.975	1493
678.024	2260
678.073	1254
678.122	2019
678.171	2378
678.220	1499
678.269	2008
678.319	2051
678.368	2650
678.417	2515
678.466	2617
678.515	2085
678.564	2441
678.613	2926
678.662	2137
678.711	1592
678.760	2505
678.809	2584
678.857	2166
678.906	2044
678.955	2027
679.004	1864
679.053	2150
679.102	1557
679.151	2111
679.199	2328
679.248	1911
679.297	1461
679.346	2432
679.394	2365
679.443	1970
679.492	2521
679.540	1985
679.589	1689
679.638	2297
679.686	1939
679.735	1237
679.784	1721
679.832	1822
679.881	2133
679.929	1837
679.978	1371
680.026	1904
680.075	1774
680.123	1305
680.172	1156
680.220	1598
680.268	1448
680.317	933
680.365	1858
680.414	1297
680.462	1720
680.510	1288
680.559	1319
680.607	1165
680.655	1157
680.703	1483
680.752	1680
680.800	1767
680.848	1362
680.896	990
680.945	1250
680.993	1297
681.041	1919
681.089	1600
681.137	1469
681.185	1081
681.233	1748
681.258	1809
681.281	1823
681.329	1811
681.377	1630
681.380	1724
681.425	2569
681.473	1479
681.502	1985
681.521	2255
681.569	2548
681.617	2636
681.624	2622
681.665	2182
681.713	2284
681.745	2697
681.761	2825
681.809	2605
681.857	2607
681.867	2756
681.904	3064
681.952	3049
681.989	3376
682.000	3419
682.048	2485
682.096	2468
682.111	2806
682.143	3403
682.191	3211
682.233	3575
682.239	3582
682.286	3310
682.334	3570
682.354	3542
682.382	3401
682.430	2955
682.476	3523
682.477	3493
682.525	4568
682.572	4025
682.598	3972
682.620	3853
682.667	4075
682.715	4012
682.720	4117
682.763	4696
682.810	4388
682.841	4532
682.857	4589
682.905	4632
682.952	4762
682.963	4761
683.000	4424
683.047	5129
683.085	4954
683.095	4897
683.142	4849
683.190	4739
683.206	5040
683.237	5414
683.284	5953
683.328	5203
683.332	5116
683.379	5331
683.426	4777
683.449	5198
683.473	5491
683.521	5590
683.568	5659
683.571	5665
683.615	5362
683.662	5793
683.693	5631
683.709	5505
683.757	5999
683.804	6041
683.814	6059
683.851	5994
683.898	6760
683.936	6900
683.945	6889
683.992	6777
684.039	6128
684.057	6235
684.086	6368
684.133	6518
684.179	6506
684.180	6480
684.227	6954
684.274	7649
684.300	7360
684.321	7051
684.368	7236
684.415	7350
684.422	7404
684.462	7539
684.509	7892
684.543	7450
684.556	7272
684.603	7785
684.649	7991
684.665	8017
684.696	7979
684.743	8229
684.786	8197
684.790	8177
684.837	8096
684.883	7849
684.908	8436
684.930	9014
684.977	9280
685.023	9238
685.029	9274
685.070	9412
685.117	9370
685.150	9671
685.164	9618
685.210	9592
685.257	10103
685.272	10096
685.303	10389
685.350	9893
685.393	10542
685.396	10541
685.443	10518
685.490	10093
685.514	10176
685.536	10340
685.583	10360
685.629	10604
685.636	10718
685.675	11275
685.722	11075
685.757	10906
685.768	10770
685.815	11045
685.861	10742
685.878	10647
685.908	10710
685.954	11216
686.000	11579
686.000	11569
686.047	11695
686.093	11732
686.121	11606
686.139	11739
686.185	13006
686.232	12853
686.242	13085
686.278	13270
686.324	13080
686.363	12877
686.370	12779
686.416	12168
686.463	11870
686.484	11621
686.509	11629
686.555	11309
686.601	11534
686.606	11543
686.647	11549
686.693	11467
686.727	11858
686.739	12032
686.785	11926
686.831	12396
686.848	12307
686.877	11979
686.923	12297
686.969	12072
686.969	12069
687.015	11894
687.061	12024
687.090	11985
687.107	11934
687.153	12246
687.199	11894
687.211	12057
687.245	12713
687.291	12429
687.332	12776
687.336	12779
687.382	13132
687.428	12701
687.453	12920
687.474	13290
687.520	13500
687.565	13992
687.574	13995
687.611	13443
687.657	13141
687.695	12868
687.702	12898
687.748	12835
687.794	12807
687.816	12912
687.839	13118
687.885	13806
687.931	13678
687.937	13689
687.976	13322
688.022	13632
688.058	12917
688.067	12825
688.113	13084
688.158	13371
688.179	13616
688.204	13875
688.249	14116
688.295	13949
688.300	13924
688.340	13810
688.386	13937
688.421	14026
688.431	14157
688.477	14411
688.522	14899
688.542	14931
688.567	14635
688.613	14898
688.658	14917
688.663	14862
688.703	14635
688.749	14813
688.784	14176
688.794	14046
688.839	14713
688.884	15216
688.905	15041
688.930	14901
688.975	14945
689.020	15141
689.026	15203
689.065	15219
689.110	14763
689.146	14292
689.155	14366
689.201	14789
689.246	15223
689.267	15399
689.291	15239
689.336	14918
689.381	14793
689.388	14789
689.426	15253
689.471	15337
689.509	15066
689.516	15018
689.561	15631
689.606	15296
689.630	15470
689.651	15552
689.696	15240
689.741	15082
689.750	15068
689.785	15283
689.830	14893
689.871	15037
689.875	15064
689.920	15146
689.965	15282
689.992	15100
690.010	15069
690.054	14978
690.099	15278
690.112	15402
690.144	15808
690.189	15460
690.233	15990
690.233	16014
690.278	16192
690.323	16323
690.354	16410
690.367	16431
690.412	16060
690.457	16026
690.474	15945
690.501	16109
690.546	16208
690.590	17102
690.595	17085
690.635	17209
690.680	17712
690.716	17492
690.724	17528
690.769	18766
690.813	19311
690.836	19534
690.857	20376
690.902	22404
690.946	24553
690.957	24869
690.991	27680
691.035	32621
691.077	36784
691.080	37692
691.124	55109
691.168	70424
691.198	80393
691.213	81506
691.257	85153
691.301	88936
691.318	90318
691.346	79347
691.390	61350
691.434	42964
691.439	40862
691.478	35607
691.522	29572
691.559	24531
691.567	24390
691.611	23281
691.655	22098
691.680	21358
691.699	21132
691.743	20559
691.787	20091
691.800	19831
691.831	19669
691.875	19518
691.919	19551
691.921	19512
691.964	19548
692.008	19871
692.041	19705
692.052	19765
692.096	19751
692.139	20330
692.162	20456
692.183	20353
692.227	19709
692.271	19284
692.282	19270
692.315	19643
692.359	19279
692.402	19687
692.403	19727
692.447	19521
692.490	19594
692.523	19658
692.534	19761
692.578	19878
692.622	20096
692.643	20091
692.666	20079
692.709	20072
692.753	19812
692.763	19823
692.797	20036
692.840	19750
692.884	19613
692.884	19654
692.928	19856
692.971	19926
693.004	19969
693.015	20083
693.059	20334
693.102	20607
693.124	20631
693.146	20828
693.189	21346
693.233	21756
693.245	21799
693.276	21762
693.320	21933
693.363	21963
693.365	21919
693.407	23176
693.450	24421
693.485	25341
693.493	25746
693.537	27556
693.580	29556
693.605	30371
693.624	31814
693.667	35826
693.710	39280
693.725	40609
693.753	47900
693.797	58763
693.840	70398
693.845	71804
693.883	105456
693.926	141912
693.966	173896
693.970	174833
694.013	181677
694.056	189013
694.086	193735
694.099	180712
694.142	137574
694.185	94661
694.206	73861
694.229	67657
694.272	55915
694.315	43682
694.326	40530
694.358	37768
694.401	33878
694.444	29835
694.446	29564
694.487	28514
694.530	27306
694.566	26383
694.573	26295
694.616	25395
694.659	24202
694.686	23496
694.702	23374
694.745	22943
694.787	22469
694.806	22183
694.830	21823
694.873	21239
694.916	20555
694.926	20332
694.959	20554
695.002	20588
695.044	20939
695.046	20897
695.087	20697
695.130	20699
695.166	20395
695.172	20474
695.215	20828
695.258	21000
695.286	21146
695.301	21170
695.343	21204
695.386	21112
695.406	21015
695.428	21170
695.471	21344
695.514	21487
695.526	21550
695.556	21456
695.599	21045
695.641	20606
695.646	20512
695.684	20735
695.726	20915
695.766	21058
695.769	21087
695.811	20686
695.854	20392
695.886	20112
695.896	20302
695.938	20724
695.981	21227
696.005	21537
696.023	21454
696.065	20921
696.108	20516
696.125	20292
696.150	20452
696.192	20652
696.235	20887
696.245	20864
696.277	20935
696.319	21028
696.361	21073
696.365	21023
696.404	21101
696.446	21157
696.485	21262
696.488	21347
696.530	21610
696.572	21925
696.604	22123
696.614	22122
696.656	21835
696.698	21575
696.724	21398
696.740	21453
696.783	21232
696.825	21200
696.844	21086
696.867	20954
696.909	20711
696.951	20380
696.964	20246
696.992	20520
697.034	20782
697.076	21093
697.083	21073
697.118	20833
697.160	20553
697.202	20316
697.203	20255
697.244	20448
697.286	20527
697.323	20611
697.327	20685
697.369	20869
697.411	20986
697.442	21029
697.453	20976
697.494	20513
697.536	20117
697.562	19812
697.578	20033
697.620	20434
697.661	20797
697.682	20961
697.703	20882
697.744	20582
697.786	20328
697.801	20165
697.828	20549
697.869	21049
697.911	21577
697.921	21642
697.952	21794
697.994	21942
698.035	22133
698.040	22090
698.077	21856
698.118	21525
698.160	21212
698.160	21153
698.201	20996
698.243	20745
698.279	20482
698.284	20522
698.325	20355
698.367	20254
698.399	20082
698.408	20221
698.449	20599
698.491	21015
698.518	21204
698.532	21185
698.573	20964
698.614	20768
698.638	20595
698.656	20635
698.697	20582
698.738	20538
698.757	20461
698.779	20636
698.820	20867
698.862	21090
698.877	21114
698.903	21567
698.944	22205
698.985	22843
698.996	22959
699.026	22910
699.067	22755
699.116	22511
699.235	21698
699.354	21029
699.474	20688
699.593	21509
699.713	21881
699.832	22372
699.951	20985
700.070	21628
700.190	20511
700.309	20862
700.428	20832
700.547	21776
700.667	20746
700.786	20951
700.905	21653
701.024	20134
701.143	20817
701.262	20511
701.381	16827
701.500	18525
701.619	20114
701.738	20491
701.857	18690
701.976	18895
702.095	17289
702.214	18381
702.333	18090
702.452	19180
702.571	18432
702.690	18867
702.809	17587
702.928	18497
703.047	17158
703.165	18669
703.284	17246
703.403	17459
703.522	16427
703.640	20058
703.759	19080
703.878	19766
703.997	25231
704.115	19432
704.234	17671
704.353	17734
704.471	16877
704.590	16499
704.708	15510
704.827	16657
704.946	15955
705.064	16287
705.183	17523
705.301	17453
705.420	19365
705.538	29755
705.656	27947
705.775	23330
705.893	21737
706.012	29911
706.130	40654
706.249	24664
706.367	23129
706.485	23349
706.604	24049
706.722	24396
706.840	23135
706.958	25985
707.077	25593
707.195	23526
707.313	21694
707.431	20372
707.549	21158
707.668	21413
707.786	20868
707.904	21308
708.022	20552
708.140	20450
708.258	20456
708.376	19699
708.494	20546
708.612	21406
708.730	21336
708.848	31567
708.966	30948
709.084	28317
709.202	26581
709.320	25251
709.438	26364
709.556	26594
709.674	25671
709.791	26597
709.909	25571
710.027	25211
710.145	24588
710.263	24629
710.380	25378
710.498	25032
710.616	24755
710.733	24144
710.851	23656
710.969	24863
711.086	25002
711.204	24790
711.322	23045
711.439	23339
711.557	23456
711.674	24413
711.792	22618
711.909	22833
712.027	24083
712.144	24341
712.262	22968
712.379	22721
712.497	24181
712.614	34500
712.732	37293
712.849	30844
712.966	28525
713.084	28472
713.201	32182
713.318	31210
713.436	29868
713.553	28428
713.670	29418
713.787	29574
713.905	30694
714.022	32023
714.139	28402
714.256	28324
714.373	28961
714.490	30905
714.608	37568
714.725	54377
714.842	185791
714.959	301292
715.076	41644
715.193	28794
715.310	26302
715.427	26463
715.544	24319
715.661	24047
715.778	23618
715.895	24637
716.011	27748
716.128	26680
716.245	24570
716.362	24442
716.479	24834
716.596	27925
716.713	23446
716.829	24784
716.946	23440
717.063	23933
717.180	22124
717.296	22224
717.413	21584
717.530	23288
717.646	21515
717.763	21827
717.880	21448
717.996	20781
718.113	19927
718.229	22545
718.346	19697
718.462	20320
718.579	20155
718.695	22580
718.812	28511
718.928	27502
719.045	24964
719.161	22311
719.277	19054
719.394	19174
719.510	19033
719.626	20277
719.743	19470
719.859	24230
719.975	23727
720.092	27852
720.208	55103
720.324	151241
720.440	39748
720.557	21428
720.673	21842
720.789	24519
720.905	32850
721.021	64571
721.137	36226
721.253	19085
721.369	18249
721.486	19641
721.602	20332
721.718	26428
721.834	19876
721.950	17450
722.066	16958
722.181	17791
722.297	17524
722.413	17919
722.529	17074
722.645	16774
722.761	16557
722.877	16282
722.993	15356
723.108	17025
723.224	17315
723.340	15737
723.456	16586
723.571	15443
723.687	15471
723.803	15215
723.918	15740
724.034	14841
724.150	15469
724.265	15423
724.381	15433
724.497	25948
724.612	39722
724.728	16327
724.843	14458
724.959	14187
725.074	15667
725.190	23952
725.305	34978
725.421	15414
725.536	15714
725.651	13470
725.767	13345
725.882	14141
725.997	12359
726.113	13514
726.228	12330
726.343	13407
726.459	13149
726.574	12376
726.689	13902
726.804	14029
726.920	12526
727.035	14001
727.150	12877
727.265	13470
727.380	12414
727.495	13753
727.610	12316
727.725	12024
727.841	12853
727.956	12371
728.071	16824
728.186	19970
728.301	12111
728.416	11701
728.531	11423
728.645	11869
728.760	11337
728.875	11868
728.990	12927
729.105	11696
729.220	11987
729.335	12276
729.449	12374
729.564	10949
729.679	10666
729.794	10672
729.908	10417
730.023	12136
730.138	11756
730.253	10692
730.367	10742
730.482	11001
730.596	9964
730.711	10671
730.826	10830
730.940	11417
731.055	10879
731.169	10844
731.284	10232
731.398	11033
731.513	11076
731.627	11507
731.742	11337
731.856	12027
731.970	13300
732.085	10428
732.199	11098
732.313	12670
732.428	14590
732.542	23322
732.656	60354
732.771	56345
732.885	13732
732.999	10925
733.113	10952
733.227	11287
733.342	10605
733.456	9815
733.570	9666
733.684	10926
733.798	9189
733.912	10746
734.026	9544
734.140	9913
734.254	10128
734.368	9769
734.482	14727
734.596	22397
734.710	9795
734.824	9716
734.938	9402
735.052	9966
735.166	9876
735.280	10083
735.393	9098
735.507	9201
735.621	8725
735.735	11919
735.849	18720
735.962	12967
736.076	8479
736.190	9675
736.303	10424
736.417	11736
736.531	15594
736.644	9712
736.758	9668
736.872	8709
736.985	8058
737.099	9395
737.212	7850
737.326	8529
737.439	8405
737.553	8583
737.666	8098
737.780	8259
737.893	7640
738.007	8293
738.120	7696
738.233	8367
738.347	7123
738.460	8590
738.573	8050
738.687	8567
738.800	8065
738.913	8845
739.026	9413
739.140	9324
739.253	8528
739.366	8849
739.479	7744
739.592	8831
739.705	7289
739.818	7965
739.932	7632
740.045	7805
740.158	7293
740.271	7326
740.384	7451
740.497	8031
740.610	7633
740.723	8529
740.836	7594
740.949	8746
741.062	7559
741.174	8592
741.287	8155
741.400	7263
741.513	6880
741.626	7249
741.739	8297
741.851	7544
741.964	7086
742.077	7837
742.189	6768
742.302	8289
742.415	8651
742.527	8174
742.640	7626
742.753	7628
742.865	6808
742.978	6264
743.090	7727
743.203	7246
743.316	7301
743.428	7225
743.541	6790
743.653	7268
743.766	6699
743.878	7130
743.990	6706
744.103	8616
744.215	8446
744.327	8310
744.440	6807
744.552	7848
744.664	9308
744.777	7921
744.889	6196
745.001	6784
745.113	6575
745.226	6229
745.338	6808
745.450	6666
745.562	6255
745.674	6742
745.786	6497
745.898	6976
746.010	6342
746.122	6819
746.234	6104
746.347	6184
746.459	6342
746.570	6321
746.682	6332
746.794	7490
746.906	7549
747.018	6504
747.130	6086
747.242	6666
747.354	7034
747.466	7128
747.577	5790
747.689	6809
747.801	5794
747.913	6601
748.024	5584
748.136	6282
748.248	6003
748.359	6865
748.471	6294
748.583	6308
748.694	5820
748.806	7332
748.918	7029
749.029	8423
749.141	6950
749.252	7028
749.364	6088
749.475	6926
749.587	9288
749.698	9635
749.809	6312
749.921	5882
750.032	5426
750.144	5859
750.255	5546
750.366	6375
750.478	5719
750.589	6098
750.700	5712
750.811	6025
750.923	6462
751.034	6097
751.145	9651
751.256	12344
751.367	6437
751.479	6133
751.590	6168
751.701	5349
751.812	5943
751.923	6872
752.034	5946
752.145	5967
752.256	5448
752.367	5950
752.478	5591
752.589	5825
752.700	5904
752.811	6375
752.922	5346
753.032	5342
753.143	6079
753.254	7044
753.365	6186
753.476	6379
753.586	5600
753.697	6366
753.808	5948
753.919	5670
754.029	5654
754.140	6242
754.251	6300
754.361	6140
754.472	6157
754.582	6544
754.693	5482
754.804	7300
754.914	6184
755.025	5757
755.135	6472
755.246	6390
755.356	6179
755.466	6442
755.577	5486
755.687	6046
755.798	5864
755.908	6504
756.018	6238
756.129	6146
756.239	6257
756.349	6736
756.460	6640
756.570	6712
756.680	6352
756.790	6950
756.900	7183
757.011	7450
757.121	6268
757.231	6699
757.341	6556
757.451	6743
757.561	6110
757.671	7034
757.781	6712
757.891	6670
758.001	6114
758.111	7099
758.221	7110
758.331	7494
758.441	7964
758.551	7688
758.661	9281
758.771	10220
758.880	8052
758.990	8375
759.100	8776
759.210	7946
759.320	8103
759.429	7890
759.539	8104
759.649	8518
759.758	8944
759.868	9149
759.978	8511
760.087	9646
760.197	8423
760.307	9522
760.416	9406
760.526	9929
760.635	9324
760.745	11030
760.854	10053
760.964	10664
761.073	10305
761.182	10954
761.292	10144
761.401	11242
761.511	11654
761.620	12068
761.729	10598
761.839	12088
761.948	12280
762.057	12413
762.166	13156
762.276	12633
762.385	12869
762.494	13032
762.603	12488
762.712	13561
762.822	15054
762.931	15430
763.040	15446
763.149	16138
763.258	16302
763.367	17338
763.476	17375
763.585	18567
763.694	18802
763.803	20787
763.912	22034
764.021	23264
764.130	24096
764.238	25676
764.347	26810
764.456	27465
764.565	29654
764.674	32665
764.783	35612
764.891	38590
765.000	41641
765.109	47802
765.217	52464
765.326	60620
765.435	70909
765.543	83288
765.652	98910
765.761	122648
765.869	155457
765.978	207645
766.086	285328
766.195	417528
766.303	623999
766.412	908660
766.520	971361
766.629	744228
766.737	906418
766.846	697505
766.954	463402
767.062	319239
767.171	231375
767.279	174156
767.387	134640
767.496	107840
767.604	89490
767.712	75083
767.820	66029
767.928	58110
768.037	53792
768.145	49455
768.253	47521
768.361	45031
768.469	42512
768.577	43513
768.685	43394
768.793	45784
768.901	47407
769.009	52455
769.117	59680
769.225	71416
769.333	90858
769.441	122173
769.549	173308
769.657	275570
769.765	478583
769.873	806747
769.981	819650
770.088	763147
770.196	579321
770.304	332998
770.412	212631
770.519	148174
770.627	112445
770.735	88071
770.842	69945
770.950	60614
771.058	50159
771.165	44644
771.273	39286
771.380	35619
771.488	31642
771.595	30257
771.703	27045
771.810	25903
771.918	23532
772.025	22992
772.133	21800
772.240	20073
772.348	19296
772.455	18814
772.562	17588
772.670	17334
772.777	16600
772.884	15341
772.991	14801
773.099	14638
773.206	13793
773.313	14205
773.420	13798
773.528	12645
773.635	12542
773.742	12438
773.849	11176
773.956	12015
774.063	11226
774.170	10891
774.277	10743
774.384	11443
774.491	10345
774.598	11177
774.705	10264
774.812	10472
774.919	10515
775.026	10716
775.133	9838
775.239	10951
775.346	8991
775.453	9630
775.560	9146
775.667	9088
775.773	9240
775.880	9488
775.987	8663
776.093	8370
776.200	8385
776.307	8875
776.413	9020
776.520	7977
776.627	8550
776.733	7597
776.840	8324
776.946	9220
777.053	7705
777.159	9437
777.266	10528
777.372	9564
777.478	10308
777.585	10082
777.691	8163
777.798	7228
777.904	7501
778.010	8003
778.117	8552
778.223	9376
778.329	6621
778.435	7004
778.542	7603
778.648	6690
778.754	7100
778.860	7506
778.966	6419
779.072	7141
779.178	7029
779.284	6694
779.391	6302
779.497	6971
779.603	8228
779.708	8675
779.815	13007
779.920	23684
780.026	70279
780.132	212188
780.238	66225
780.344	12584
780.450	7586
780.556	7523
780.661	6002
780.767	6482
780.873	6251
780.979	5963
781.085	4994
781.190	6309
781.296	5401
781.402	5483
781.507	4459
781.613	5603
781.719	4983
781.824	5608
781.930	5470
782.035	5181
782.141	4974
782.246	5334
782.352	5102
782.457	4691
782.563	4909
782.668	5093
782.773	4418
782.879	5218
782.984	5848
783.090	6064
783.195	6076
783.300	6373
783.405	6910
783.511	5760
783.616	5288
783.721	6017
783.826	5042
783.932	5124
784.037	4432
784.142	5095
784.247	4263
784.352	5526
784.457	4740
784.562	5462
784.667	4673
784.772	4955
784.877	5319
784.982	4787
785.087	4283
785.192	5169
785.297	4199
785.402	5044
785.507	4400
785.611	4647
785.716	3870
785.821	3864
785.926	4103
786.031	4065
786.135	3540
786.240	4240
786.345	3579
786.450	4299
786.554	3997
786.659	3862
786.763	4149
786.868	4775
786.973	4329
787.077	4019
787.182	3931
787.286	4628
787.391	4268
787.495	4016
787.600	3266
787.704	4275
787.809	3413
787.913	3850
788.017	3162
788.122	3780
788.226	4294
788.330	4191
788.435	3656
788.539	3449
788.643	3484
788.747	3547
788.852	3809
788.956	3729
789.060	3012
789.164	3298
789.268	2903
789.372	4086
789.476	2992
789.580	3593
789.684	3417
789.788	2725
789.892	3336
789.996	3987
790.100	3469
790.204	2834
790.308	3771
790.412	4525
790.516	3414
790.620	3681
790.724	3702
790.828	3331
790.931	3973
791.035	3647
791.139	3236
791.242	3109
791.346	3311
791.450	3959
791.554	3160
791.657	3446
791.761	2450
791.864	3490
791.968	2987
792.072	2969
792.175	3301
792.279	2862
792.382	3144
792.486	3304
792.589	3186
792.693	3774
792.796	3264
792.899	3830
793.003	3337
793.106	3317
793.209	3388
793.313	3631
793.416	3111
793.519	3398
793.623	3490
793.726	4027
793.829	5253
793.932	3799
794.035	3471
794.138	3670
794.242	3447
794.345	4681
794.448	5079
794.551	7727
794.654	13171
794.757	38237
794.860	118172
794.963	44332
795.066	6870
795.169	4850
795.272	3475
795.375	4009
795.477	3238
795.580	3148
795.683	2280
795.786	2942
795.889	2311
795.991	3548
796.094	2801
796.197	3561
796.300	3320
796.402	3417
796.505	1994
796.608	2670
796.710	2859
796.813	2176
796.915	2724
797.018	2502
797.120	2171
797.223	2597
797.326	1973
797.428	3082
797.530	2211
797.633	3187
797.735	2198
797.838	3019
797.940	4851
798.042	5352
798.145	2541
798.247	2252
798.349	2091
798.452	2672
798.554	1798
798.656	1754
798.758	2123
798.860	2324
798.962	2150
799.065	2682
799.167	1628
799.269	2689
799.371	2335
799.473	2905
799.575	1951
799.677	2923
799.779	3688
799.881	3374
799.983	2932
800.085	2954
800.187	2300
800.289	2388
800.390	2444
800.492	2565
800.594	1923
800.696	2943
800.798	1798
800.899	1433
801.001	1301
801.103	2102
801.205	1292
801.306	2841
801.408	1760
801.509	2423
801.611	1803
801.713	2263
801.814	2556
801.916	1468
802.017	1945
802.119	2473
802.220	2249
802.322	2280
802.423	2564
802.525	3236
802.626	3072
802.727	2125
802.829	1489
802.930	2023
803.031	2359
803.133	2338
803.234	1476
803.335	1688
803.436	1879
803.538	2258
803.639	940
803.740	2125
803.841	1370
803.942	2889
804.043	1731
804.144	2701
804.245	1224
804.346	1757
804.447	1139
804.548	2361
804.649	2101
804.750	3385
804.851	2276
804.952	1949
805.053	1713
805.154	1921
805.255	984
805.355	1805
805.456	1573
805.557	1891
805.658	465
805.758	1606
805.859	1232
805.960	1566
806.061	1634
806.161	1945
806.262	1846
806.362	1797
806.463	1785
806.564	1326
806.664	1764
806.765	1615
806.865	1960
806.966	2858
807.066	1053
807.166	1854
807.267	1118
807.367	1513
807.468	1513
807.568	2576
807.668	1716
807.769	1817
807.869	1168
807.969	1871
808.069	1371
808.170	2059
808.270	726
808.370	1049
808.470	854
808.570	2113
808.670	2022
808.770	2034
808.870	935
808.970	790
809.070	1258
809.170	1356
809.271	970
809.370	2036
809.470	1706
809.570	876
809.670	1499
809.770	1640
809.870	925
809.970	1810
810.070	1208
810.169	2049
810.269	616
810.369	1355
810.469	1053
810.568	1962
810.668	727
810.768	1839
810.867	1679
810.967	1464
811.066	1078
811.166	1564
811.265	1296
811.365	1727
811.464	686
811.564	1442
811.663	1548
811.763	2100
811.862	1347
811.962	2270
812.061	1113
812.160	947
812.260	422
812.359	1878
812.458	1862
812.557	3363
812.657	5380
812.756	11904
812.855	5468
812.954	2528
813.053	617
813.153	2035
813.252	547
813.351	1595
813.450	514
813.549	1595
813.648	1298
813.747	1614
813.846	965
813.945	1532
814.044	1653
814.143	888
814.242	915
814.341	1346
814.439	484
814.538	1879
814.637	1247
814.736	1481
814.835	1198
814.933	1104
815.032	1421
815.131	1400
815.229	1707
815.328	635
815.427	1413
815.525	1906
815.624	1399
815.722	1862
815.821	1559
815.919	1910
816.018	2026
816.116	1818
816.215	1699
816.313	1359
816.412	1325
816.510	2153
816.609	1128
816.707	1678
816.805	2579
816.904	1865
817.002	2173
817.100	2495
817.198	1108
817.296	2996
817.395	2527
817.493	2768
817.591	2689
817.689	2695
817.787	4366
817.885	5509
817.983	6957
818.081	12555
818.179	23150
818.277	56213
818.375	140931
818.473	201393
818.571	67601
818.669	20514
818.767	11911
818.865	10055
818.963	8440
819.061	10141
819.158	13485
819.256	24682
819.354	46943
819.452	110187
819.549	264008
819.647	282948
819.745	86743
819.842	28026
819.940	15188
820.038	10754
820.135	7534
820.233	6595
820.330	4553
820.428	4712
820.525	3438
820.623	3387
820.720	3202
820.818	3179
820.915	2042
821.012	2394
821.110	2544
821.207	2642
821.304	2326
821.402	2248
821.499	2756
821.596	2946
821.693	2090
821.791	2499
821.888	1534
821.985	2378
822.082	3022
822.179	4821
822.276	2376
822.373	2185
822.470	1483
822.567	1940
822.664	1231
822.761	1472
822.858	794
822.955	1651
823.052	1893
823.149	1026
823.246	959
823.343	2038
823.440	820
823.536	560
823.633	1444
823.730	1714
823.827	1566
823.923	1189
824.020	1190
824.117	1700
824.213	1003
824.310	2513
824.407	1294
824.503	1021
824.600	258
824.696	1694
824.793	840
824.889	1563
824.986	982
825.082	1356
825.179	755
825.275	900
825.371	1140
825.468	1121
825.564	14
825.660	803
825.757	934
825.853	814
825.949	644
826.045	603
826.142	346
826.238	812
826.334	510
826.430	1655
826.526	964
826.622	1950
826.718	429
826.814	1334
826.910	789
827.006	893
827.102	254
827.198	808
827.294	914
827.390	1444
827.486	1364
827.582	1456
827.678	158
827.774	1413
827.869	473
827.965	1462
828.061	867
828.157	1217
828.252	402
828.348	1218
828.444	1097
828.539	131
828.635	1040
828.731	628
828.826	312
828.922	1028
829.017	781
829.113	1490
829.208	896
829.304	1207
829.399	1237
829.495	1008
829.590	362
829.685	948
829.781	348
829.876	515
829.971	291
830.066	460
830.162	488
830.257	1216
830.352	1214
830.447	971
830.543	930
830.638	1089
830.733	1222
830.828	1097
830.923	1055
831.018	552
831.113	633
831.208	806
831.303	392
831.398	604
831.493	15
831.588	572
831.683	-149
831.778	877
831.873	688
831.967	817
832.062	1063
832.157	866
832.252	1141
832.346	783
832.441	616
832.536	1435
832.631	1746
832.725	3545
832.820	4135
832.914	2395
833.009	592
833.104	744
833.198	974
833.293	1141
833.387	278
833.482	767
833.576	409
833.670	1260
833.765	949
833.859	1106
833.954	560
834.048	1184
834.142	370
834.237	562
834.331	402
834.425	962
834.519	498
834.613	466
834.708	691
834.802	1015
834.896	694
834.990	1695
835.084	-1
835.178	707
835.272	913
835.366	837
835.460	782
835.554	1601
835.648	1236
835.742	382
835.836	116
835.930	485
836.024	1078
836.117	1095
836.211	506
836.305	1494
836.399	808
836.493	2090
836.586	2088
836.680	928
836.774	593
836.867	471
836.961	290
837.055	456
837.148	-150
837.242	715
837.335	128
837.429	706
837.522	527
837.616	1130
837.709	1585
837.803	2278
837.896	2871
837.989	1279
838.083	1230
838.176	1499
838.269	2885
838.363	6072
838.456	1097
838.549	1504
838.642	1306
838.735	2768
838.829	3997
838.922	3683
839.015	124
839.108	309
839.201	551
839.294	1129
839.387	52
839.480	1336
839.573	802
839.666	1052
839.759	2007
839.852	1597
839.945	73
840.038	1418
840.131	-92
840.223	1116
840.316	256
840.409	-128
840.502	-250
840.594	725
840.687	322
840.780	1685
840.873	505
840.965	321
841.058	346
841.150	2078
841.243	2788
841.336	3885
841.428	1113
841.521	1031
841.613	-233
841.706	1104
841.798	627
841.890	1351
841.983	-75
842.075	843
842.167	-129
842.260	299
842.352	2
842.444	1492
842.537	1900
842.629	3339
842.721	6442
842.813	2403
842.905	582
842.997	1045
843.090	137
843.182	1203
843.274	1517
843.366	4121
843.458	7587
843.550	17243
843.642	16868
843.734	4251
843.826	1042
843.918	1442
844.009	1707
844.101	1384
844.193	654
844.285	1056
844.377	431
844.469	1129
844.560	233
844.652	1475
844.744	1062
844.835	1171
844.927	371
845.019	513
845.110	1286
845.202	1385
845.293	-248
845.385	650
845.476	198
845.568	1254
845.659	215
845.751	974
845.842	161
845.934	350
846.025	562
846.116	852
846.208	-74
846.299	425
846.390	-313
846.482	395
846.573	23
846.664	856
846.755	1127
846.846	2516
846.937	2054
847.029	1019
847.120	-11
847.211	418
847.302	231
847.393	668
847.484	281
847.575	844
847.666	123
847.757	742
847.847	-109
847.938	381
848.029	-324
848.120	1367
848.211	558
848.302	321
848.392	729
848.483	947
848.574	504
848.664	315
848.755	436
848.846	1335
848.936	120
849.027	566
849.118	43
849.208	366
849.299	470
849.389	1003
849.480	997
849.570	2109
849.661	2881
849.751	5839
849.841	9973
849.932	7764
850.022	436
850.112	342
850.203	-267
850.293	329
850.383	640
850.474	1211
850.564	405
850.654	900
850.744	-219
850.834	979
850.924	-165
851.014	542
851.104	160
851.194	742
851.284	1062
851.374	710
851.464	1139
851.554	833
851.644	640
851.734	1560
851.824	1556
851.914	2555
852.004	1901
852.094	2025
852.183	3967
852.273	2195
852.363	-240
852.452	560
852.542	458
852.632	954
852.721	152
852.811	362
852.901	1035
852.990	1037
853.080	-133
853.169	1247
853.259	454
853.348	536
853.438	767
853.527	757
853.617	366
853.706	1947
853.795	1561
853.885	4627
853.974	9541
854.063	20421
854.152	31990
854.242	65092
854.331	41931
854.420	6987
854.509	1823
854.598	1756
854.687	1606
854.777	1458
854.866	1089
854.955	1229
855.044	697
855.133	636
855.222	-341
855.311	891
855.400	-86
855.488	1009
855.577	218
855.666	1096
855.755	468
855.844	475
855.933	592
856.021	1214
856.110	501
856.199	-351
856.288	454
856.376	467
856.465	95
856.554	1069
856.642	-931
856.731	601
856.819	-3
856.908	1133
856.996	755
857.085	-111
857.173	-164
857.262	388
857.350	358
857.438	698
857.527	177
857.615	-34
857.703	-39
857.792	931
857.880	-418
857.968	484
858.056	142
858.145	609
858.233	952
858.321	-644
858.409	764
858.497	959
858.585	-156
858.673	454
858.761	324
858.849	-68
858.937	300
859.025	954
859.113	201
859.201	713
859.289	41
859.377	560
859.465	883
859.552	648
859.640	363
859.728	664
859.816	36
859.903	281
859.991	-305
860.079	-7
860.166	-446
860.254	858
860.342	355
860.429	461
860.517	-294
860.604	-270
860.692	-121
860.779	32
860.867	-190
860.954	814
861.042	-477
861.129	423
861.216	687
861.304	-35
861.391	282
861.478	751
861.565	51
861.653	397
861.740	210
861.827	734
861.914	137
862.001	313
862.089	-379
862.176	13
862.263	-636
862.350	129
862.437	156
862.524	219
862.611	382
862.698	824
862.785	-216
862.871	447
862.958	59
863.045	633
863.132	-215
863.219	242
863.306	-197
863.392	104
863.479	320
863.566	337
863.652	509
863.739	741
863.826	334
863.912	167
863.999	-117
864.086	70
864.172	221
864.259	612
864.345	295
864.432	327
864.518	45
864.604	338
864.691	105
864.777	167
864.863	629
864.950	1029
865.036	54
865.122	319
865.209	-308
865.295	1629
865.381	288
865.467	624
865.553	691
865.639	825
865.726	587
865.812	2226
865.898	3930
865.984	10210
866.070	14012
866.156	24101
866.242	39345
866.328	15948
866.414	2921
866.499	1075
866.585	550
866.671	874
866.757	-457
866.843	1088
866.928	43
867.014	556
867.100	749
867.186	407
867.271	519
867.357	1546
867.442	878
867.528	2127
867.614	1149
867.699	695
867.785	1051
867.870	1235
867.956	686
868.041	1159
868.127	821
868.212	1362
868.297	1134
868.383	1524
868.468	102
868.553	1531
868.639	1694
868.724	2238
868.809	3533
868.894	6707
868.979	2013
869.065	526
869.150	-73
869.235	59
869.320	217
869.405	302
869.490	-99
869.575	371
869.660	-24
869.745	640
869.830	-249
869.915	480
870.000	-278
870.085	336
870.169	-623
870.254	559
870.339	-422
870.424	-453
870.509	60
870.593	436
870.678	526
870.763	-57
870.847	1
870.932	-49
871.016	-226
871.101	304
871.186	-107
871.270	663
871.355	226
871.439	386
871.523	-322
871.608	93
871.692	550
871.777	378
871.861	6
871.945	843
872.030	145
872.114	171
872.198	208
872.282	6
872.367	-397
872.451	-80
872.535	-243
872.619	-161
872.703	-305
872.787	-305
872.871	-255
872.955	111
873.039	-180
873.123	-513
873.207	-44
873.291	-189
873.375	-431
873.459	1183
873.543	22
873.627	582
873.711	-623
873.794	-25
873.878	287
873.962	-55
874.045	-141
874.129	809
874.137	674
874.213	-676
874.245	-422
874.296	-9
874.352	-82
874.380	-116
874.460	148
874.464	157
874.547	-464
874.568	-408
874.631	-231
874.676	-447
874.714	-626
874.784	-199
874.798	-115
874.881	772
874.892	680
874.965	49
874.999	-35
875.048	-184
875.107	135
875.131	277
875.215	-628
875.215	-627
875.298	327
875.323	112
875.381	-385
875.430	-54
875.465	179
875.538	-254
875.548	-319
875.631	-88
875.646	-57
875.714	145
875.753	222
875.798	292
875.861	136
875.881	93
875.964	862
875.968	812
876.047	-166
876.076	15
876.130	381
876.183	89
876.213	-45
876.291	-18
876.296	-17
876.379	-173
876.398	-23
876.462	376
876.506	-1
876.545	-283
876.613	123
876.628	229
876.711	5
876.721	36
876.794	8
876.828	124
876.877	425
876.935	154
876.960	14
877.043	277
877.043	276
877.125	129
877.150	214
877.208	393
877.258	556
877.291	668
877.365	442
877.374	413
877.456	829
877.472	799
877.539	697
877.579	504
877.622	315
877.687	989
877.704	1141
877.787	439
877.794	445
877.869	689
877.901	639
877.952	492
878.008	422
878.034	396
878.115	658
878.117	656
878.199	260
878.222	129
878.282	279
878.329	284
878.364	124
878.437	406
878.447	451
878.529	-378
878.544	-280
878.611	234
878.651	245
878.694	226
878.758	106
878.776	64
878.858	-197
878.865	-150
878.941	298
878.972	312
879.023	482
879.078	603
879.105	622
879.185	-113
879.187	-126
879.269	58
879.292	10
879.351	-65
879.399	247
879.433	507
879.506	419
879.516	375
879.598	50
879.613	58
879.680	179
879.720	94
879.762	33
879.827	96
879.844	87
879.926	104
879.933	108
880.007	346
880.040	359
880.089	187
880.147	72
880.171	160
880.253	613
880.254	615
880.335	485
880.360	525
880.417	862
880.467	910
880.499	856
880.574	1272
880.580	1350
880.662	2979
880.680	2732
880.744	1455
880.787	928
880.825	351
880.893	162
880.907	187
880.989	40
881.000	44
881.070	53
881.106	-95
881.152	-287
881.213	221
881.233	336
881.315	-209
881.319	-215
881.396	-95
881.426	-230
881.478	-293
881.532	120
881.559	182
881.639	150
881.641	152
881.722	116
881.745	4
881.803	-172
881.852	10
881.885	103
881.958	25
881.966	34
882.047	346
882.064	415
882.129	378
882.171	238
882.210	205
882.277	279
882.291	305
882.372	747
882.383	763
882.454	900
882.489	729
882.535	385
882.596	43
882.616	-30
882.697	131
882.702	116
882.778	174
882.808	324
882.859	170
882.914	-251
882.940	-293
883.020	395
883.021	400
883.102	18
883.127	-11
883.183	-45
883.233	-70
883.264	-192
883.339	-367
883.345	-348
883.426	-318
883.445	-192
883.507	383
883.551	640
883.587	432
883.657	-381
883.668	-383
883.749	105
883.763	224
883.830	406
883.869	35
883.910	-419
883.975	-220
883.991	-94
884.072	-153
884.081	-134
884.152	19
884.187	133
884.233	329
884.292	465
884.314	457
884.394	129
884.398	145
884.475	597
884.504	571
884.555	299
884.610	29
884.636	70
884.716	155
884.716	154
884.797	42
884.821	-102
884.877	-110
884.927	-128
884.958	6
885.033	195
885.038	165
885.118	41
885.139	-59
885.199	-279
885.244	-397
885.279	-206
885.350	-108
885.359	-147
885.439	75
885.456	32
885.520	276
885.561	590
885.600	523
885.667	85
885.680	45
885.760	73
885.773	29
885.840	-181
885.878	-132
885.920	13
885.984	50
886.000	51
886.080	194
886.089	195
886.160	228
886.195	304
886.240	356
886.300	205
886.320	141
886.400	159
886.406	153
886.480	258
886.511	277
886.560	135
886.616	61
886.640	111
886.720	311
886.722	306
886.800	24
886.827	105
886.879	431
886.932	547
886.959	430
887.038	252
887.039	253
887.119	226
887.143	236
887.198	326
887.248	293
887.278	402
887.354	760
887.358	764
887.437	766
887.459	794
887.517	605
887.564	421
887.596	503
887.669	612
887.676	577
887.755	233
887.774	114
887.835	309
887.880	527
887.914	647
887.985	783
887.994	707
888.073	124
888.090	-24
888.153	12
888.195	106
888.232	195
888.300	239
888.311	253
888.391	436
888.405	440
888.470	92
888.510	-48
888.549	-71
888.615	-111
888.628	-60
888.708	176
888.720	221
888.787	236
888.825	230
888.866	163
888.930	63
888.945	132
889.024	459
889.035	512
889.103	634
889.140	658
889.182	597
889.245	538
889.261	462
889.340	65
889.349	24
889.419	-82
889.454	-163
889.498	203
889.559	749
889.577	750
889.656	734
889.664	733
889.735	334
889.768	144
889.814	-27
889.873	-248
889.978	178
890.083	142
890.187	519
890.292	1793
890.397	78
890.501	388
890.606	631
890.710	14
890.815	840
890.919	-434
891.024	453
891.128	634
891.233	545
891.337	912
891.442	223
891.546	335
891.650	200
891.755	889
891.859	422
891.963	-317
892.068	296
892.172	819
892.276	539
892.380	-11
892.484	630
892.589	371
892.693	-57
892.797	9
892.901	965
893.005	1018
893.109	-137
893.213	-7
893.317	212
893.421	612
893.525	-910
893.629	605
893.733	960
893.837	-200
893.941	-9
894.045	64
894.148	164
894.252	813
894.356	492
894.460	459
894.564	177
894.667	23
894.771	774
894.875	236
894.978	295
895.082	-693
895.186	283
895.289	663
895.393	1303
895.496	918
895.600	665
895.703	241
895.807	164
895.910	-115
896.014	-43
896.117	212
896.221	263
896.324	14
896.427	127
896.531	-256
896.634	275
896.737	795
896.840	715
896.944	-157
897.047	-166
897.150	381
897.253	329
897.356	91
897.460	-26
897.563	-810
897.666	161
897.769	-479
897.872	529
897.975	452
898.078	-127
898.181	156
898.284	515
898.387	292
898.490	515
898.593	109
898.695	690
898.798	-215
898.901	-676
899.004	-294
899.107	728
899.209	688
899.312	160
899.415	-382
899.518	511
899.620	55
899.723	670
899.826	589
899.928	735
900.031	823
900.133	-552
900.236	-383
900.338	-409
900.441	-77
900.543	232
900.646	403
900.748	-786
900.851	-6
900.953	229
901.055	430
901.158	812
901.260	656
901.362	-244
901.465	774
901.567	187
901.669	444
901.771	-256
901.873	493
901.976	35
902.078	368
902.180	315
902.282	239
902.384	-372
902.486	-58
902.588	645
902.690	251
902.792	594
902.894	-254
902.996	680
903.098	-254
903.200	-323
903.302	-538
903.404	-95
903.505	297
903.607	-149
903.709	-376
903.811	-348
903.913	-570
904.014	-443
904.116	60
904.218	422
904.319	-106
904.421	-227
904.523	-276
904.624	939
904.726	-61
904.827	-591
904.929	-381
905.030	323
905.132	21
905.233	352
905.335	-392
905.436	576
905.537	146
905.639	218
905.740	682
905.841	798
905.943	-265
906.044	-162
906.145	157
906.247	496
906.348	-162
906.449	783
906.550	7
906.651	740
906.752	-210
906.854	-356
906.955	-492
907.056	-482
907.157	-88
907.258	521
907.359	56
907.460	-30
907.561	-865
907.662	-590
907.762	-264
907.863	215
907.964	654
908.065	-137
908.166	73
908.267	-119
908.367	-81
908.468	154
908.569	354
908.670	-177
908.770	-237
908.871	97
908.971	387
909.072	432
909.173	-110
909.273	-87
909.374	278
909.474	-266
909.575	-442
909.675	-793
909.776	-84
909.876	-155
909.977	34
910.077	-175
910.177	448
910.278	56
910.378	212
910.478	58
910.579	-538
910.679	-278
910.779	-283
910.879	273
910.980	431
911.080	238
911.180	-886
911.280	-398
911.380	179
911.480	-85
911.580	328
911.680	203
911.780	395
911.880	-588
911.980	-424
912.080	548
912.180	259
912.280	-270
912.380	185
912.480	127
912.580	-147
912.679	-201
912.779	-250
912.879	21
912.979	-361
913.078	-22
913.178	-215
913.278	-644
913.377	-149
913.477	16
913.577	-245
913.676	-838
913.776	-544
913.875	21
913.975	-226
914.074	-33
914.174	-607
914.273	-418
914.373	353
914.472	525
914.572	589
914.671	-703
914.770	-881
914.870	1
914.969	-461
915.068	-157
915.167	-240
915.267	-429
915.366	-538
915.465	-240
915.564	-453
915.663	-150
915.763	-931
915.862	-170
915.961	70
916.060	-89
916.159	-376
916.258	-594
916.357	-378
916.456	59
916.555	186
916.654	-589
916.752	185
916.851	429
916.950	-170
917.049	-265
917.148	-266
917.247	181
917.345	-137
917.444	263
917.543	-273
917.642	185
917.740	254
917.839	-201
917.937	67
918.036	464
918.135	-464
918.233	5
918.332	172
918.430	-875
918.529	-293
918.627	-1254
918.726	158
918.824	-418
918.923	-194
919.021	-432
919.119	-175
919.218	-643
919.316	-525
919.414	-1268
919.512	106
919.611	-434
919.709	46
919.807	-157
919.905	573
920.003	-237
920.102	-444
920.200	-923
920.298	-861
920.396	-419
920.494	-992
920.592	-782
920.690	138
920.788	99
920.886	109
920.984	-126
921.082	-214
921.180	-349
921.277	-177
921.375	-184
921.473	669
921.571	-118
921.669	-137
921.766	-302
921.864	-372
921.962	174
922.060	-531
922.157	-630
922.255	-425
922.352	-47
922.450	-70
922.548	664
922.645	-789
922.743	-1294
922.840	323
922.938	-250
923.035	-825
923.133	283
923.230	-371
923.327	7
923.425	103
923.522	-681
923.619	-660
923.717	-134
923.814	-757
923.911	78
924.008	-376
924.106	-924
924.203	-727
924.300	97
924.397	-825
924.494	-445
924.591	102
924.688	232
924.786	994
924.883	-301
924.979	-823
925.077	-180
925.173	-101
925.270	-33
925.367	-137
925.464	749
925.561	-276
925.658	677
925.755	-595
925.852	-770
925.948	-568
926.045	-67
926.142	-204
926.239	-212
926.335	343
926.432	60
926.529	-255
926.625	1021
926.722	-49
926.818	-372
926.915	1143
927.011	-1404
927.108	35
927.204	-153
927.301	-164
927.397	-161
927.494	-413
927.590	127
927.687	-531
927.783	153
927.879	-810
927.976	269
928.072	-211
928.168	-1033
928.264	-100
928.361	-265
928.457	126
928.553	-245
928.649	229
928.745	79
928.841	-211
928.937	322
929.033	-412
929.129	-104
929.225	-291
929.321	-297
929.417	120
929.513	-457
929.609	-498
929.705	-368
929.801	-294
929.897	-111
929.993	-583
930.089	85
930.184	20
930.280	-514
930.376	-893
930.471	-31
930.567	-187
930.663	-386
930.758	-694
930.854	-452
930.950	36
931.045	-1086
931.141	189
931.236	-80
931.332	-467
931.427	-618
931.523	-894
931.618	-39
931.714	-1563
931.809	59
931.905	-431
932.000	-380
932.095	-999
932.191	-58
932.286	-159
932.381	-406
932.476	-842
932.572	-890
932.667	-959
932.762	-124
932.857	-1393
932.952	-258
933.047	-254
933.142	-699
933.237	23
933.332	265
933.427	-235
933.522	-492
933.617	-544
933.712	-257
933.807	-397
933.902	-422
933.997	-722
934.092	-116
934.187	-1052
934.282	-524
934.376	-385
934.471	-162
934.566	-302
934.661	132
934.755	-421
934.850	-203
934.945	281
935.039	-1220
935.134	-422
935.228	51
935.323	29
935.417	-576
935.512	-288
935.606	-606
935.701	-107
935.795	-81
935.890	11
935.984	-117
936.079	133
936.173	-1438
936.267	-126
936.362	-783
936.456	-543
936.550	-551
936.644	-552
936.738	-42
936.833	73
936.927	-576
937.021	-251
937.115	-178
937.209	-187
937.303	-911
937.397	-509
937.491	-975
937.585	-673
937.679	-918
937.773	299
937.867	-644
937.961	-1293
938.055	-521
938.149	-22
938.243	-810
938.337	-279
938.430	-387
938.524	-307
938.618	-202
938.712	-481
938.805	-68
938.899	-578
938.993	193
939.086	-473
939.180	394
939.274	47
939.367	119
939.461	-99
939.554	-67
939.648	-156
939.741	142
939.835	-212
939.928	-1462
940.022	435
940.115	-769
940.208	-142
940.302	86
940.395	-960
940.488	52
940.582	-1155
940.675	106
940.768	-240
940.861	-592
940.954	-262
941.048	-669
941.141	-845
941.234	-777
941.327	-826
941.420	29
941.513	183
941.606	-589
941.699	-177
941.792	-100
941.885	-1223
941.978	-811
942.071	143
942.164	234
942.257	-846
942.349	-672
942.442	-743
942.535	-847
942.628	-1101
942.721	-379
942.813	-1132
942.906	-440
942.999	-1104
943.091	-258
943.184	-489
943.277	-908
943.369	-1149
943.462	-553
943.554	-930
943.647	16
943.739	-110
943.832	-832
943.924	-594
944.017	-325
944.109	-469
944.201	-804
944.294	-1231
944.386	-632
944.478	-451
944.571	-1020
944.663	233
944.755	-619
944.847	-409
944.940	-426
945.032	-999
945.124	-823
945.216	-725
945.308	-653
945.400	-679
945.492	-63
945.584	-842
945.676	-654
945.768	-319
945.860	-1111
945.952	-58
946.044	-264
946.136	-441
946.228	-999
946.320	370
946.412	-120
946.503	-951
946.595	-632
946.687	-455
946.779	-575
946.870	-213
946.962	-426
947.054	-466
947.145	-55
947.237	-431
947.329	-449
947.420	-1122
947.512	-895
947.603	-807
947.695	-1196
947.786	-472
947.878	-708
947.969	-1226
948.061	-362
948.152	-832
948.243	-430
948.335	-1154
948.426	-994
948.517	-188
948.609	-389
948.700	-811
948.791	-1231
948.882	-1205
948.973	-990
949.065	-345
949.156	-1089
949.247	-323
949.338	-630
949.429	-883
949.520	-21
949.611	-1138
949.702	-541
949.793	-689
949.884	-980
949.975	-1252
950.066	-193
950.157	-654
950.247	-533
950.338	-672
950.429	-521
950.520	-614
950.611	-382
950.701	455
950.792	-1334
950.883	-232
950.973	-712
951.064	-650
951.155	-1183
951.245	-1271
951.336	-484
951.427	-768
951.517	-749
951.608	-450
951.698	-819
951.788	-848
951.879	-357
951.969	-907
952.060	-129
952.150	-132
952.240	-1162
952.331	-419
952.421	158
952.511	-155
952.602	-611
952.692	-184
952.782	-793
952.872	-1382
952.962	-1550
953.052	-482
953.143	102
953.233	-729
953.323	-107
953.413	-1291
953.503	-513
953.593	-578
953.683	-1604
953.773	371
953.863	-1026
953.953	-2006
954.042	-250
954.132	-859
954.222	-868
954.312	-396
954.402	-1321
954.492	-693
954.581	-333
954.671	-550
954.761	-595
954.850	-855
954.940	-989
955.030	-657
955.119	-387
955.209	-975
955.298	-434
955.388	-505
955.477	-759
955.567	-1025
955.656	-446
955.746	-436
955.835	-195
955.925	-456
956.014	-362
956.103	-941
956.193	-865
956.282	-490
956.371	-589
956.461	-651
956.550	-970
956.639	-183
956.728	-1371
956.817	-1398
956.906	-1304
956.995	-964
957.085	-1029
957.174	-258
957.263	-380
957.352	-380
957.441	-1543
957.530	-299
957.619	-900
957.708	-709
957.796	-837
957.885	-708
957.974	-1427
958.063	-586
958.152	-800
958.241	-1184
958.329	-835
958.418	-888
958.507	-1317
958.596	-366
958.684	-1141
958.773	-196
958.861	-334
958.950	-577
959.039	-784
959.127	-1054
959.216	89
959.304	-1093
959.393	-168
959.481	-1141
959.570	-981
959.658	-138
959.746	-451
959.835	-820
959.923	-117
960.011	-189
960.100	-525
960.188	-803
960.276	-568
960.365	-1234
960.453	-1274
960.541	-1073
960.629	-334
960.717	-759
960.805	-593
960.893	-74
960.981	-1453
961.069	-1030
961.158	-1125
961.245	83
961.333	-603
961.421	-168
961.509	-637
961.597	-678
961.685	-109
961.773	-1055
961.861	-854
961.949	-1492
962.036	-972
962.124	-356
962.212	-1606
962.299	-1323
962.387	-1174
962.475	-419
962.562	-1207
962.650	-563
962.738	-997
962.825	-1958
962.913	-829
963.000	-581
963.088	-896
963.175	-1552
963.263	-932
963.350	-1049
963.438	-1159
963.525	-1043
963.612	-824
963.700	-840
963.787	695
963.874	2455
963.962	972
964.049	-704
964.136	-1171
964.223	-1515
964.310	-899
964.398	-393
964.485	-1605
964.572	-1037
964.659	-653
964.746	-887
964.833	-399
964.920	-1482
965.007	-1125
965.094	-639
965.181	-468
965.268	-433
965.355	-876
965.441	-1001
965.528	-1314
965.615	-107
965.702	-355
965.789	-1669
965.875	-1279
965.962	-751
966.049	-1311
966.136	-577
966.222	-1060
966.309	-1748
966.395	-1179
966.482	-910
966.569	-1495
966.655	-1684
966.742	-1165
966.828	-1409
966.915	-651
967.001	-958
967.087	-1039
967.174	-854
967.260	-1412
967.347	-1125
967.433	-330
967.519	-37
967.605	2489
967.692	421
967.778	-283
967.864	-840
967.950	-1097
968.036	-1032
968.123	-1058
968.209	-969
968.295	-1359
968.381	-1112
968.467	-1050
968.553	-1063
968.639	-588
968.725	-1472
968.811	-610
968.897	-927
968.983	-491
969.069	-1417
969.154	-203
969.240	-782
969.326	-937
969.412	-1203
969.497	-539
969.583	-1197
969.669	-1433
969.755	-1289
969.840	-941
969.926	-793
970.012	-1313
970.097	-814
970.183	-1632
970.268	100
970.354	-1056
970.439	-954
970.525	-769
970.610	1466
970.696	-244
970.781	-101
970.866	-892
970.952	-971
971.037	-751
971.122	-963
971.208	-773
971.293	-1126
971.378	-566
971.463	-758
971.549	-825
971.634	-460
971.719	-1361
971.804	-876
971.889	-727
971.974	-1551
972.059	-648
972.144	-529
972.229	-199
972.314	-1788
972.399	-1002
972.484	-1158
972.569	-457
972.654	-1348
972.739	-1161
972.824	-879
972.908	-235
972.993	-1331
973.078	-1097
973.163	-985
973.247	-82
973.332	-899
973.417	-168
973.501	-1462
973.586	-1120
973.671	-1225
973.755	-916
973.840	-604
973.924	-1227
974.009	-1096
974.093	-1245
974.178	-846
974.262	-640
974.346	-827
974.431	-600
974.515	-126
974.600	-1844
974.684	-882
974.768	-886
974.852	-944
974.937	-1337
975.021	-1166
975.105	-866
975.189	-1108
975.273	-824
975.358	-1420
975.442	-762
975.526	-883
975.610	-779
975.694	-950
975.778	-2039
975.862	-1030
975.946	-1206
976.030	-325
976.114	-1395
976.198	-1008
976.281	-1639
976.365	-678
976.449	-1284
976.533	-1116
976.617	-845
976.700	-1552
976.784	-1072
976.868	-656
976.951	-567
977.035	-591
977.119	-603
977.202	-1578
977.286	-1371
977.369	-641
977.453	-584
977.536	-1376
977.620	-909
977.703	-1357
977.787	-785
977.870	-1146
977.953	-988
978.037	-1124
978.120	-857
978.203	-1151
978.287	-527
978.370	23
978.453	-144
978.536	-1708
978.620	-961
978.703	-1281
978.786	-1148
978.869	-1291
978.952	-1128
979.035	-1457
979.118	-1191
979.201	-1294
979.284	-1441
979.367	-1451
979.450	-777
979.533	-1291
979.616	-1044
979.699	-783
979.782	-1024
979.865	-969
979.948	-1272
980.030	-1555
980.113	-1088
980.196	-1666
980.279	-828
980.361	-113
980.444	-767
980.526	-1651
980.609	-961
980.692	-992
980.774	-1260
980.857	-625
980.939	-1395
981.022	-1070
981.104	-927
981.187	-620
981.269	-770
981.352	-1226
981.434	-1500
981.516	-752
981.599	-346
981.681	-2215
981.763	-1308
981.846	-987
981.928	-792
982.010	-1234
982.092	-1456
982.174	-1525
982.256	-1446
982.339	-701
982.421	-981
982.503	-1167
982.585	-1452
982.667	-1030
982.749	-1196
982.831	-1548
982.913	-1179
982.995	-1739
983.077	-1103
983.158	-391
983.240	-1585
983.322	-1234
983.404	-1321
983.486	-2657
983.568	-1503
983.649	-1307
983.731	-532
983.813	-1248
983.894	-1390
983.976	-1489
984.058	-953
984.139	109
984.221	-1619
984.302	-617
984.384	-1576
984.465	-1571
984.547	-1288
984.628	-774
984.710	-1812
984.791	-1463
984.872	-550
984.954	-942
985.035	-1429
985.116	-1433
985.198	-593
985.279	-1084
985.360	-1184
985.441	-1930
985.522	-1320
985.604	-399
985.685	-1874
985.766	-1093
985.847	-840
985.928	-1637
986.009	-1799
986.090	-1960
986.171	-1114
986.252	-1044
986.333	-1186
986.414	-2158
986.495	-1372
986.576	-1545
986.656	-1735
986.737	-1510
986.818	-1803
986.899	-1409
986.980	-982
987.060	-1627
987.141	-2136
987.222	-1763
987.302	-1307
987.383	-1691
987.464	-1403
987.544	-1339
987.625	-1144
987.705	-1423
987.786	-1641
987.866	-1198
987.947	-956
988.027	-1705
988.108	-1349
988.188	-1652
988.268	-1541
988.349	-1535
988.429	-1252
988.509	-2036
988.589	-1753
988.670	-1796
988.750	-401
988.830	-806
988.910	-1102
988.990	-919
989.070	-859
989.151	-769
989.231	-1663
989.311	-1080
989.391	-1410
989.471	-1112
989.551	-899
989.631	-1336
989.711	-1746
989.791	-1930
989.870	-1332
989.950	-1660
990.030	-1381
990.110	-1482
990.190	-1879
990.269	-1659
990.349	-1639
990.429	-882
990.509	-1790
990.588	-1043
990.668	-1513
990.747	-1014
990.827	-2016
990.907	-1603
990.986	-1289
991.066	-1767
991.145	-1050
991.225	-1691
991.304	-1368
991.383	-1844
991.463	-1335
991.542	-1501
991.622	-1779
991.701	-1104
991.780	-1080
991.859	-2148
991.939	-1694
992.018	-1200
992.097	-1534
992.176	-1835
992.256	-1388
992.335	-1914
992.414	-1814
992.493	-662
992.572	-1680
992.651	-1612
992.730	-1284
992.809	-1699
992.888	-1930
992.967	-868
993.046	-984
993.125	-1606
993.203	-1331
993.282	-1121
993.361	-964
993.440	-1705
993.519	-1874
993.597	-1807
993.676	-1075
993.755	-1228
993.834	-1667
993.912	-1581
993.991	-1191
994.069	-1644
994.148	-1830
994.226	-1324
994.305	-257
994.384	-2216
994.462	-1445
994.540	-2029
994.619	-1755
994.697	-1776
994.776	-1024
994.854	-1754
994.932	-1514
995.011	-589
995.089	-1267
995.167	-1680
995.245	-1626
995.324	-1809
995.402	-1149
995.480	-1124
995.558	-1325
995.636	-2322
995.714	-2218
995.792	-1263
995.870	-1136
995.948	-2041
996.026	-1758
996.104	-1440
996.182	-972
996.260	-1788
996.338	-1334
996.416	-1481
996.494	-2434
996.572	-1405
996.649	-1635
996.727	-2753
996.805	-1698
996.883	-1542
996.960	-1980
997.038	-1976
997.116	-2570
997.193	-1638
997.271	-2031
997.348	-2123
997.426	-2169
997.504	-882
997.581	-1833
997.658	-1871
997.736	-1524
997.813	-1760
997.891	-2042
997.968	-1162
998.046	-991
998.123	-891
998.200	-2329
998.277	-1891
998.355	-1259
998.432	-1273
998.509	-2088
998.586	-1471
998.663	-1624
998.741	-1256
998.818	-2147
998.895	-1774
998.972	-1416
999.049	-2081
999.126	-1800
999.203	-1325
999.280	-2025
999.357	-1766
999.434	-1993
999.511	-1197
999.587	-1240
999.664	-1320
999.741	-1334
999.818	-2189
999.895	-1024
999.971	-1916
1000.048	-1265
1000.125	-1504
1000.202	-2094
1000.278	-1578
1000.355	-1608
1000.431	-1420
1000.508	-2243
1000.584	-1580
1000.661	-1413
1000.738	-1900
1000.814	-1653
1000.890	-2493
1000.967	-1001
1001.043	-1248
1001.120	-1887
1001.196	-1618
1001.272	-1423
1001.349	-2067
1001.425	-1958
1001.501	-2221
1001.577	-1689
1001.654	-2548
1001.730	-1899
1001.806	-1992
1001.882	-1431
1001.958	-1669
1002.034	-1779
1002.110	-2064
1002.186	-1618
1002.262	-2462
1002.338	-2606
1002.414	-2181
1002.490	-1974
1002.566	-1628
1002.642	-1650
1002.718	-1173
1002.794	-1857
1002.870	-1711
1002.945	-1114
1003.021	-1552
1003.097	-2085
1003.173	-1362
1003.248	-1319
1003.324	-1954
1003.400	-1987
1003.475	-1973
1003.551	-2638
1003.626	-1622
1003.702	-1868
1003.777	-1615
1003.853	-2182
1003.928	-1531
1004.004	-903
1004.079	-1477
1004.155	-1189
1004.230	-2092
1004.305	-1084
1004.381	-1423
1004.456	-1962
1004.531	-2431
1004.607	-1408
1004.682	-1981
1004.757	-1797
1004.832	-2192
1004.907	-1880
1004.982	-1657
1005.057	-1656
1005.133	-1568
1005.208	-1959
1005.283	-2211
1005.358	-790
1005.433	-2397
1005.508	-1325
1005.583	-1925
1005.657	-2067
1005.732	-1445
1005.807	-1069
1005.882	-2027
1005.957	-2114
1006.032	-1264
1006.106	-2237
1006.181	-1629
1006.256	-1492
1006.331	-1617
1006.405	-1613
1006.480	-1374
1006.554	-1228
1006.629	-1206
1006.704	-2103
1006.778	-1288
1006.853	-1967
1006.927	-1411
1007.002	-1723
1007.076	-1206
1007.150	-2223
1007.225	-657
1007.299	-1885
1007.373	-2134
1007.448	-1813
1007.522	-1834
1007.596	-1818
1007.671	-2109
1007.745	-1569
1007.819	-1753
1007.893	-1653
1007.967	-718
1008.041	-1455
1008.115	-1706
1008.190	-1998
1008.264	-2857
1008.338	-1580
1008.412	-1782
1008.486	-1738
1008.560	-2146
1008.633	-2050
1008.707	-1867
1008.781	-1883
1008.855	-1564
1008.929	-1784
1009.003	-2255
1009.076	-2337
1009.150	-1609
1009.224	-1443
1009.298	-1816
1009.371	-1616
1009.445	-1473
1009.519	-1873
1009.592	-1433
1009.666	-2009
1009.739	-1593
1009.813	-1355
1009.886	-1818
1009.960	-1721
1010.033	-1672
1010.107	-1728
1010.180	-1916
1010.253	-1955
1010.327	-1007
1010.400	-1978
1010.473	-1346
1010.547	-1682
1010.620	-1252
1010.693	-1706
1010.766	-1369
1010.840	-1387
1010.913	-2035
1010.986	-1978
1011.059	-2436
1011.132	-1726
1011.205	-1799
1011.278	-1821
1011.351	-2504
1011.424	-2537
1011.497	-1723
1011.570	-1923
1011.643	-1369
1011.716	-2387
1011.789	-2091
1011.862	-1714
1011.934	-1783
1012.007	-2241
1012.080	-2109
1012.153	-1692
1012.225	-1096
1012.298	-2157
1012.371	-1945
1012.443	-770
1012.516	-2055
1012.588	-1868
1012.661	-1587
1012.733	-2364
1012.806	-2013
1012.879	-2028
1012.951	-1236
1013.023	-1817
1013.096	-1750
1013.168	-1980
1013.241	-1112
1013.313	-1669
1013.385	-1852
1013.458	-1212
1013.530	-1220
1013.602	-2009
1013.674	-1809
1013.746	-2078
1013.819	-1805
1013.891	-1449
1013.963	-1895
1014.035	-825
1014.107	-2464
1014.179	-2224
1014.251	-1359
1014.323	-1184
1014.395	-1637
1014.467	-1442
1014.539	-1416
1014.611	-1933
1014.683	-1592
1014.754	-1643
1014.826	-1663
1014.898	-2020
1014.970	-1356
1015.042	-1779
1015.113	-2065
1015.185	-1260
1015.257	-2277
1015.328	-1781
1015.400	-2016
1015.471	-1639
1015.543	-2207
1015.615	-1565
1015.686	-1641
1015.757	-2038
1015.829	-2040
1015.901	-1723
1015.972	-1583
1016.043	-2354
1016.115	-2176
1016.186	-1095
1016.257	-1718
1016.328	-1262
1016.400	-2162
1016.471	-1965
1016.542	-1543
1016.613	-1931
1016.685	-1485
1016.756	-1197
1016.827	-1500
1016.898	-2131
1016.969	-1558
1017.040	-2129
1017.111	-1660
1017.182	-1168
1017.253	-1224
1017.324	-2194
1017.395	-1819
1017.466	-1557
1017.537	-2017
1017.608	-1973
1017.678	-2203
1017.749	-1783
1017.820	-1978
1017.891	-1499
1017.961	-2461
1018.032	-1712
1018.103	-2203
1018.173	-1974
1018.244	-1212
1018.315	-2031
1018.385	-1871
1018.456	-2397
1018.526	-2713
1018.597	-2364
1018.667	-2161
1018.738	-1879
1018.808	-2347
1018.878	-2327
1018.949	-1993
1019.019	-1236
1019.089	-1487
1019.160	-1857
1019.230	-1974
1019.300	-1845
1019.371	-2445
1019.441	-1449
1019.511	-2006
1019.581	-1549
1019.651	-1626
1019.721	-2632
1019.791	-1618
1019.861	-1535
1019.931	-2041
1020.001	-2058
1020.071	-2224
1020.141	-1932
1020.211	-1970
1020.281	-2157
1020.351	-2475
1020.421	-1589
1020.491	-2344
1020.560	-1822
1020.630	-1614
1020.700	-1455
1020.770	-1688
1020.839	-977
1020.909	-1810
1020.979	-1182
1021.048	-2051
1021.118	-1779
1021.187	-1163
1021.257	-2211
1021.326	-1979
1021.396	-1948
1021.465	-2239
1021.535	-2365
1021.604	-2473
1021.674	-2340
1021.743	-1772
1021.812	-2430
1021.882	-2171
1021.951	-1018
1022.020	-1719
1022.089	-1120
1022.159	-1529
1022.228	-1864
1022.297	-1724
1022.366	-1914
1022.435	-2121
1022.504	-1495
1022.573	-1826
1022.642	-1198
1022.711	-2623
1022.781	-1563
1022.849	-1536
1022.918	-2022
1022.987	-2524
1023.056	-949
1023.125	-1239
1023.194	-2044
1023.263	-1393
1023.331	-2310
1023.400	-2067
1023.469	-1777
1023.538	-1845
1023.606	-1938
1023.675	-1275
1023.744	-1880
1023.812	-2494
1023.881	-1684
1023.949	-2095
1024.018	-1974
1024.086	-1820
1024.155	-1964
1024.223	-1944
1024.292	-2402
1024.360	-1564
1024.429	-1850
1024.497	-2221
1024.565	-1430
1024.634	-2307
1024.702	-1777
1024.770	-1306
1024.838	-2248
1024.907	-1937
1024.975	-2145
1025.043	-2051
1025.111	-1554
1025.179	-1346
1025.247	-2052
1025.315	-2042
1025.383	-2342
1025.451	-2053
1025.519	-1397
1025.587	-2598
1025.655	-1778
1025.723	-1728
1025.791	-1383
1025.859	-1752
1025.927	-1945
1025.995	-2543
1026.062	-2545
1026.130	-2413
1026.198	-2547
1026.266	-2440
1026.333	-1314
1026.401	-1266
1026.469	-1958
1026.536	-2153
1026.604	-1546
1026.671	-2157
1026.739	-1936
1026.806	-1712
1026.874	-1897
1026.941	-1891
1027.009	-1770
1027.076	-2334
1027.144	-1430
1027.211	-2079
1027.278	-2002
1027.345	-2148
1027.413	-1588
1027.480	-2120
1027.547	-2012
1027.614	-2130
1027.682	-1837
1027.749	-1787
1027.816	-2182
1027.883	-2343
1027.950	-2031
1028.017	-2913
1028.084	-2033
1028.151	-2261
1028.218	-1414
1028.285	-2416
1028.352	-2393
1028.419	-1699
1028.486	-2055
1028.553	-1351
1028.619	-1530
1028.686	-1453
1028.753	-2067
1028.820	-1580
1028.886	-1440
1028.953	-2548
1029.020	-2249
1029.086	-2006
1029.153	-2164
1029.220	-1583
1029.286	-1673
1029.353	-1384
1029.419	-2009
1029.486	-2299
1029.552	-1859
1029.619	-2132
1029.685	-1678
1029.751	-1651
1029.818	-1905
1029.884	-2177
1029.951	-2022
1030.017	-2258
1030.083	-1946
1030.149	-1942
1030.216	-1583
1030.282	-2288
1030.348	-1878
1030.414	-2287
1030.480	-1968
1030.546	-2516
1030.612	-1711
1030.678	-1598
1030.744	-1390
1030.810	-1616
1030.876	-2097
1030.942	-1604
1031.008	-2412
1031.074	-1035
1031.140	-2724
1031.206	-1958
1031.272	-2326
1031.337	-2043
1031.403	-2204
1031.469	-2013
1031.534	-1854
1031.600	-2084
1031.666	-1844
1031.731	-2246
1031.797	-1751
1031.863	-2150
1031.928	-1843
1031.994	-2828
1032.059	-2251
1032.125	-1620
1032.190	-2645
1032.256	-2497
1032.321	-2684
1032.386	-1568
1032.452	-1513
1032.517	-1796
1032.582	-2305
1032.647	-2112
1032.713	-2404
1032.778	-1959
1032.843	-2011
1032.908	-2103
1032.974	-2146
1033.039	-1918
1033.104	-2228
1033.169	-2090
1033.234	-2242
1033.299	-1816
1033.364	-2012
1033.429	-2571
1033.494	-1808
1033.559	-2585
1033.624	-1906
1033.688	-2108
1033.753	-1403
1033.818	-1243
1033.883	-1409
1033.948	-2248
1034.013	-1574
1034.077	-1801
1034.142	-2209
1034.207	-1772
1034.271	-1086
1034.336	-2469
1034.400	-1948
1034.465	-1773
1034.530	-2194
1034.594	-1634
1034.658	-2125
1034.723	-1996
1034.787	-1629
1034.852	-2711
1034.916	-2293
1034.981	-2093
1035.045	-1048
1035.109	-2142
1035.173	-2067
1035.238	-2439
1035.302	-1864
1035.366	-2903
1035.430	-2350
1035.495	-2678
1035.559	-1876
1035.623	-1826
1035.687	-2088
1035.751	-2504
1035.815	-2073
1035.879	-2779
1035.943	-1606
1036.007	-2192
1036.071	-1797
1036.135	-2020
1036.198	-2764
1036.262	-1782
1036.326	-2288
1036.390	-2468
1036.454	-1962
1036.517	-2061
1036.581	-2199
1036.645	-2169
1036.709	-1551
1036.772	-2362
1036.836	-2390
1036.900	-2358
1036.963	-2368
1037.026	-2304
1037.090	-2413
1037.154	-1914
1037.217	-1272
1037.280	-2683
1037.344	-2205
1037.407	-2469
1037.471	-2119
1037.534	-2128
1037.597	-1995
1037.661	-2069
1037.724	-2047
1037.787	-2046
1037.850	-2827
1037.913	-1559
1037.977	-1806
1038.040	-2377
1038.103	-1655
1038.166	-2047
1038.229	-2040
1038.292	-2109
1038.355	-1833
1038.418	-2360
1038.481	-1786
1038.544	-2134
1038.607	-2407
1038.670	-1504
1038.732	-3100
1038.795	-2295
1038.858	-2175
1038.921	-1993
1038.984	-2519
1039.046	-1708
1039.109	-2358
1039.172	-2201
1039.234	-1559
1039.297	-2782
1039.360	-2383
1039.422	-2532
1039.485	-2223
1039.547	-2689
1039.610	-2338
1039.672	-2140
1039.734	-2077
1039.797	-2104
1039.859	-1862
1039.922	-2209
1039.984	-2630
1040.046	-1960
1040.109	-2215
1040.171	-3042
1040.233	-2994
1040.295	-1925
1040.358	-1683
1040.420	-2351
1040.482	-2000
1040.544	-2350
1040.606	-2452
1040.668	-2262
1040.730	-1557
1040.792	-2469
1040.854	-1834
1040.916	-1594
1040.978	-1859
1041.040	-1875
1041.102	-2207
1041.164	-2292
1041.225	-2665
1041.287	-2264
1041.349	-2283
1041.411	-3012
1041.472	-1717
1041.534	-2082
1041.596	-2563
1041.657	-1818
1041.719	-2426
1041.781	-2461
1041.842	-3574
1041.904	-2659
1041.965	-1646
1042.027	-1308
1042.088	-2190
1042.150	-2295
1042.211	-2327
1042.272	-1671
1042.334	-2133
1042.395	-2495
1042.456	-2346
1042.518	-2339
1042.579	-2101
1042.640	-2163
1042.701	-2148
1042.763	-2953
1042.824	-2272
1042.885	-1951
1042.946	-2490
1043.007	-1357
1043.068	-2387
1043.129	-1716
1043.190	-2713
1043.251	-2043
1043.312	-1464
1043.373	-2404
1043.434	-1672
1043.495	-1757
1043.556	-2220
1043.616	-1871
1043.677	-2147
1043.738	-2994
1043.799	-2246
1043.859	-2188
1043.920	-2165
1043.981	-2177
1044.041	-2790
1044.102	-1748
1044.162	-1954
1044.223	-1741
1044.284	-2114
1044.344	-2045
1044.405	-2241
1044.465	-2694
1044.525	-2235
1044.586	-2086
1044.646	-1935
1044.707	-2035
1044.767	-1566
1044.827	-2161
1044.887	-2389
1044.948	-1431
1045.008	-1561
1045.068	-2842
1045.128	-2254
1045.188	-2317
1045.249	-2164
1045.309	-1857
1045.369	-1997
1045.429	-1917
1045.489	-2206
1045.549	-2393
1045.609	-2053
1045.669	-2339
1045.729	-2261
1045.789	-1938
1045.848	-1537
1045.908	-2341
1045.968	-1918
1046.028	-2020
1046.088	-2023
1046.147	-2018
1046.207	-1255
1046.267	-1835
1046.326	-1881
1046.386	-2019
1046.446	-2068
1046.505	-1832
1046.565	-1085
1046.624	-1555
1046.684	-1287
1046.743	-1025
1046.803	-1094
1046.862	-1118
1046.922	0
