'Start Wavelength	183.907
'End Wavelength	1046.922
'Gate Delay	5.000
'Gate Width (ms)	1.050
'Laser Output Level	0.000
'X Position	0.000
'Y Position	0.000
'Z Position	0.000
'Grid Point Number	1.000
'Shot Number	100.000
183.907	706.000
183.977	-373.000
184.047	511
184.116	596
184.186	655
184.256	329
184.325	-315
184.395	867
184.465	797
184.534	371
184.604	155
184.674	-54
184.743	475
184.813	-143
184.883	814
184.952	246
185.022	752
185.092	254
185.161	299
185.231	-262
185.301	308
185.370	481
185.440	342
185.509	470
185.579	298
185.649	215
185.718	1158
185.788	-159
185.857	249
185.927	377
185.996	404
186.066	87
186.136	630
186.205	-178
186.275	902
186.344	691
186.414	678
186.483	912
186.553	2135
186.622	1585
186.692	697
186.761	1105
186.831	1126
186.900	1107
186.970	1240
187.039	803
187.109	1049
187.178	706
187.248	1130
187.317	480
187.387	258
187.456	586
187.526	557
187.595	355
187.664	535
187.734	581
187.803	553
187.873	282
187.942	1606
188.012	471
188.081	756
188.150	676
188.220	2119
188.289	1215
188.358	727
188.428	1223
188.497	1657
188.567	1144
188.636	1126
188.705	683
188.775	695
188.844	1334
188.913	406
188.983	723
189.052	1175
189.121	970
189.191	1017
189.260	637
189.329	916
189.399	830
189.468	267
189.537	847
189.606	486
189.676	633
189.745	1218
189.814	1186
189.883	639
189.953	237
190.022	1728
190.091	1410
190.161	1417
190.230	141
190.299	753
190.368	-43
190.437	615
190.507	325
190.576	599
190.645	673
190.714	680
190.783	561
190.853	778
190.922	606
190.991	790
191.060	684
191.129	758
191.198	815
191.268	803
191.337	-77
191.406	1104
191.475	264
191.544	286
191.613	772
191.682	1518
191.752	438
191.821	853
191.890	1053
191.959	552
192.028	765
192.097	1060
192.166	333
192.235	83
192.304	525
192.373	557
192.442	637
192.511	371
192.580	299
192.650	658
192.719	524
192.788	1037
192.857	1024
192.926	443
192.995	932
193.064	1447
193.133	995
193.202	1168
193.271	621
193.340	1765
193.409	1144
193.478	1292
193.547	1841
193.615	1993
193.684	1838
193.753	1774
193.822	1082
193.891	636
193.960	971
194.029	470
194.098	733
194.167	443
194.236	952
194.305	440
194.374	665
194.443	891
194.512	1012
194.580	1523
194.649	811
194.718	1042
194.787	923
194.856	468
194.925	383
194.994	-95
195.062	1117
195.131	1225
195.200	1227
195.269	1149
195.338	304
195.407	1742
195.475	518
195.544	1012
195.613	234
195.682	1066
195.751	1047
195.819	909
195.888	551
195.957	2389
196.026	865
196.094	962
196.163	905
196.232	1122
196.301	1029
196.369	1281
196.438	904
196.507	886
196.576	832
196.644	984
196.713	203
196.782	914
196.850	800
196.919	955
196.988	636
197.056	780
197.125	543
197.194	706
197.262	204
197.331	1235
197.400	1000
197.468	860
197.537	779
197.606	945
197.674	1185
197.743	739
197.812	982
197.880	2050
197.949	845
198.017	1673
198.086	916
198.155	250
198.223	712
198.292	1684
198.360	523
198.429	384
198.497	923
198.566	1862
198.635	1103
198.703	1374
198.772	517
198.840	1780
198.909	1119
198.977	758
199.046	1111
199.114	1155
199.183	348
199.251	1288
199.320	962
199.388	581
199.457	567
199.525	1139
199.594	503
199.662	1521
199.731	1206
199.799	984
199.867	1558
199.936	1718
200.004	510
200.073	585
200.141	886
200.210	1297
200.278	592
200.346	2703
200.415	1842
200.483	2275
200.552	2052
200.620	1628
200.688	1709
200.757	1603
200.825	1196
200.893	933
200.962	1056
201.030	1133
201.098	869
201.167	1086
201.235	1200
201.303	901
201.372	1068
201.440	1956
201.508	1561
201.577	955
201.645	941
201.713	1379
201.781	1426
201.850	1729
201.918	1086
201.986	921
202.055	1110
202.123	1104
202.191	739
202.259	1321
202.327	995
202.396	1402
202.464	854
202.532	3367
202.600	5057
202.669	1714
202.737	908
202.805	1316
202.873	995
202.941	1566
203.009	751
203.078	1425
203.146	1064
203.214	1032
203.282	882
203.350	1086
203.418	1790
203.487	951
203.555	848
203.623	1042
203.691	647
203.759	41
203.827	614
203.895	2001
203.963	962
204.031	2054
204.099	1232
204.168	1520
204.236	928
204.304	1661
204.372	620
204.440	1798
204.508	976
204.576	446
204.644	877
204.712	1043
204.780	1200
204.848	1988
204.916	709
204.984	1139
205.052	499
205.120	1730
205.188	1107
205.256	867
205.324	951
205.392	1530
205.460	504
205.528	952
205.596	1022
205.664	1480
205.732	433
205.799	2259
205.867	1257
205.935	1476
206.003	686
206.071	852
206.139	252
206.207	959
206.275	963
206.343	375
206.411	211
206.478	1055
206.546	1114
206.614	593
206.682	743
206.750	1748
206.818	2142
206.885	1499
206.953	266
207.021	1471
207.089	1047
207.157	628
207.225	1292
207.292	699
207.360	1438
207.428	761
207.496	738
207.563	1067
207.631	807
207.699	765
207.767	936
207.834	1807
207.902	1299
207.970	1284
208.038	934
208.105	1414
208.173	1545
208.241	1130
208.309	2592
208.376	1680
208.444	1663
208.512	1853
208.579	1789
208.647	1584
208.715	1944
208.782	1682
208.850	1011
208.918	1135
208.985	1562
209.053	1787
209.120	933
209.188	1689
209.256	1028
209.323	1418
209.391	2121
209.459	1344
209.526	1026
209.594	1365
209.661	1100
209.729	1832
209.796	1379
209.864	2869
209.932	1124
209.999	1661
210.067	1970
210.134	877
210.202	1830
210.269	2859
210.337	2790
210.404	675
210.472	1335
210.539	1412
210.607	1715
210.674	1253
210.742	1294
210.809	1797
210.877	2477
210.944	1474
211.012	1487
211.079	1206
211.146	1741
211.214	2884
211.281	3517
211.349	2009
211.416	1881
211.484	1854
211.551	1860
211.618	2417
211.686	1274
211.753	1315
211.821	1310
211.888	2653
211.955	2039
212.023	1642
212.090	1429
212.157	1118
212.225	1933
212.292	1770
212.359	5209
212.427	6810
212.494	2217
212.561	1843
212.629	1828
212.696	1345
212.763	1346
212.831	1588
212.898	768
212.965	1629
213.032	1704
213.100	1966
213.167	1903
213.234	1929
213.301	1062
213.369	2153
213.436	1969
213.503	1232
213.570	1413
213.638	1903
213.705	1400
213.772	607
213.839	1656
213.906	1525
213.973	1252
214.041	1920
214.108	2437
214.175	1510
214.242	1020
214.309	1162
214.376	2042
214.444	2263
214.511	1813
214.578	1758
214.645	3073
214.712	2197
214.779	1939
214.846	2108
214.913	2263
214.980	3360
215.048	4415
215.115	4600
215.182	3661
215.249	2200
215.316	2460
215.383	2111
215.450	2190
215.517	1744
215.584	1455
215.651	1840
215.718	1903
215.785	2081
215.852	1521
215.919	1903
215.986	2254
216.053	1706
216.120	1347
216.187	1766
216.254	1664
216.321	2063
216.388	1589
216.455	2629
216.522	1902
216.589	2483
216.656	3706
216.722	2427
216.789	2001
216.856	2264
216.923	1603
216.990	1900
217.057	2853
217.124	2524
217.191	2734
217.258	3646
217.324	3032
217.391	2754
217.458	2624
217.525	2975
217.592	2127
217.659	1996
217.725	2231
217.792	3760
217.859	1760
217.926	1859
217.993	1810
218.059	1760
218.126	1798
218.193	2199
218.260	1983
218.327	1680
218.393	1573
218.460	1007
218.527	924
218.594	2567
218.660	2733
218.727	2347
218.794	1705
218.860	1990
218.927	895
218.994	1021
219.061	1912
219.127	2568
219.194	2041
219.261	1447
219.327	611
219.394	1674
219.461	743
219.527	1496
219.594	2666
219.661	1295
219.727	994
219.794	2176
219.860	2445
219.927	3042
219.994	7073
220.060	9738
220.127	6261
220.193	4513
220.260	2857
220.326	4145
220.393	5559
220.460	4330
220.526	2775
220.593	2857
220.659	2747
220.726	4039
220.792	5108
220.859	6411
220.925	7241
220.992	7267
221.058	7205
221.125	4974
221.191	4189
221.258	2476
221.324	2551
221.391	2162
221.457	1994
221.524	2181
221.590	2588
221.657	5568
221.723	2514
221.789	4004
221.856	2357
221.922	2077
221.989	2423
222.055	2738
222.121	2586
222.188	4494
222.254	2724
222.321	2628
222.387	2335
222.453	1743
222.520	1397
222.586	1399
222.652	1371
222.719	1487
222.785	1602
222.851	1103
222.918	1223
222.984	1004
223.050	833
223.116	1154
223.183	966
223.249	604
223.315	932
223.382	1201
223.448	1158
223.514	1459
223.580	852
223.647	1223
223.713	755
223.779	1202
223.845	474
223.911	905
223.978	1160
224.044	1414
224.110	1277
224.176	702
224.242	834
224.309	1760
224.375	1133
224.441	1020
224.507	965
224.573	1643
224.639	1311
224.705	773
224.772	1493
224.838	1421
224.904	1255
224.970	1349
225.036	1662
225.102	1731
225.168	1791
225.234	1456
225.300	1618
225.366	1124
225.432	1353
225.499	2088
225.565	1909
225.631	1490
225.697	1817
225.763	2975
225.829	2148
225.895	2630
225.961	2850
226.027	2906
226.093	2694
226.159	3896
226.225	6239
226.291	13088
226.357	11587
226.423	6360
226.489	4730
226.554	3032
226.620	3637
226.686	5252
226.752	6466
226.818	13245
226.884	19926
226.950	11418
227.016	5674
227.082	4745
227.148	4016
227.214	3836
227.279	3285
227.345	4047
227.411	6126
227.477	11744
227.543	15929
227.609	13610
227.674	7632
227.740	4188
227.806	3094
227.872	2791
227.938	3011
228.003	2491
228.069	2066
228.135	2560
228.201	1185
228.267	2314
228.332	2459
228.398	2964
228.464	706
228.530	1365
228.595	1129
228.661	1964
228.727	2491
228.792	2085
228.858	1483
228.924	1347
228.990	1921
229.055	2066
229.121	2385
229.187	1775
229.252	1927
229.318	1529
229.384	1824
229.449	1899
229.515	688
229.581	781
229.646	2269
229.712	2912
229.777	5094
229.843	3371
229.909	3049
229.974	3436
230.040	2614
230.105	3116
230.171	2337
230.236	2988
230.302	3364
230.368	2728
230.433	2053
230.499	2255
230.564	2323
230.630	2564
230.695	1342
230.761	1738
230.826	1956
230.892	2386
230.957	1738
231.023	2099
231.088	1561
231.154	1894
231.219	2090
231.284	3752
231.350	2244
231.415	1484
231.481	1432
231.546	1557
231.612	1426
231.677	1182
231.742	1357
231.808	1431
231.873	790
231.939	1499
232.004	2612
232.069	1907
232.135	1232
232.200	1923
232.265	1003
232.331	1528
232.396	1411
232.461	801
232.527	1046
232.592	1346
232.657	2128
232.723	1627
232.788	1409
232.853	2052
232.918	861
232.984	1391
233.049	1077
233.114	1914
233.179	2889
233.245	2949
233.310	2213
233.375	850
233.440	1850
233.506	1895
233.571	1308
233.636	1145
233.701	1835
233.766	1592
233.832	1265
233.897	1720
233.962	1381
234.027	1973
234.092	1088
234.157	2357
234.222	3768
234.288	4402
234.353	3793
234.418	3718
234.483	2632
234.548	2579
234.613	2751
234.678	2708
234.743	2844
234.808	4585
234.873	2778
234.938	2292
235.004	2489
235.069	2223
235.134	1695
235.199	2620
235.264	2043
235.329	1633
235.394	1918
235.459	2558
235.524	1655
235.589	2394
235.654	1998
235.719	1046
235.784	2241
235.849	2556
235.913	2383
235.978	2930
236.043	3234
236.108	2170
236.173	1378
236.238	1882
236.303	1873
236.368	2420
236.433	3153
236.498	3583
236.563	4536
236.627	13561
236.692	28773
236.757	12384
236.822	6039
236.887	5689
236.952	3771
237.017	3296
237.081	4223
237.146	6925
237.211	13944
237.276	35968
237.341	28714
237.405	12077
237.470	6003
237.535	4547
237.600	3459
237.664	3308
237.729	2404
237.794	4978
237.859	6016
237.923	3542
237.988	2635
238.053	3024
238.118	4353
238.182	7412
238.247	3581
238.312	3274
238.376	2678
238.441	2521
238.506	2619
238.570	2112
238.635	2045
238.700	2263
238.764	2390
238.829	3277
238.893	2894
238.958	3835
239.023	3273
239.087	3025
239.152	2760
239.216	3197
239.281	2171
239.346	2872
239.410	2124
239.475	3552
239.539	7648
239.604	3807
239.668	4282
239.733	8327
239.797	22423
239.862	29924
239.926	15838
239.991	7584
240.055	5103
240.120	4576
240.184	2907
240.249	2116
240.313	2042
240.378	1775
240.442	4223
240.507	4067
240.571	2420
240.635	3842
240.700	2509
240.764	2514
240.829	1860
240.893	2185
240.957	1625
241.022	5081
241.086	4651
241.151	1847
241.215	1479
241.279	3146
241.344	2116
241.408	3247
241.472	2414
241.537	3102
241.601	2384
241.665	2769
241.730	2935
241.794	2288
241.858	2392
241.922	2547
241.987	2122
242.051	2897
242.115	2043
242.179	2070
242.244	2613
242.308	3394
242.372	3142
242.436	2861
242.501	2693
242.565	2998
242.629	1969
242.693	2769
242.757	1534
242.822	2278
242.886	3225
242.950	2926
243.014	2114
243.078	2837
243.142	2750
243.206	1986
243.271	3002
243.335	2174
243.399	3657
243.463	15211
243.527	13833
243.591	4712
243.655	3313
243.719	3171
243.783	3023
243.847	4328
243.911	4974
243.975	7482
244.040	2997
244.104	3082
244.168	2949
244.232	5069
244.296	4167
244.360	5026
244.424	2415
244.488	2742
244.552	2221
244.615	2538
244.679	1894
244.743	4714
244.807	2816
244.871	2161
244.935	1562
244.999	2515
245.063	1979
245.127	2588
245.191	3258
245.255	3021
245.319	3356
245.383	2397
245.446	3434
245.510	2154
245.574	2510
245.638	3124
245.702	4584
245.766	6451
245.829	3385
245.893	2969
245.957	2962
246.021	3043
246.085	3641
246.149	4831
246.212	12597
246.276	9657
246.340	4477
246.404	3463
246.467	5471
246.531	4974
246.595	3098
246.659	3808
246.722	3581
246.786	4561
246.850	6064
246.913	4760
246.977	2342
247.041	3700
247.104	2249
247.168	4929
247.232	13036
247.295	14823
247.359	5354
247.423	5290
247.486	6035
247.550	3943
247.614	4469
247.677	4500
247.741	3327
247.804	3240
247.868	4187
247.932	13347
247.995	11830
248.059	4195
248.122	2790
248.186	6143
248.249	14381
248.313	30885
248.376	21590
248.440	13256
248.503	5274
248.567	7365
248.630	10059
248.694	11822
248.757	19470
248.821	24906
248.884	12815
248.948	18909
249.011	23536
249.075	33083
249.138	18075
249.202	9131
249.265	5752
249.328	6586
249.392	6047
249.455	5088
249.519	5650
249.582	6815
249.645	9831
249.709	6099
249.772	4790
249.835	4913
249.899	4250
249.962	5063
250.025	5540
250.089	15336
250.152	10186
250.215	5977
250.279	4678
250.342	3985
250.405	4187
250.468	4604
250.532	6121
250.595	9719
250.658	35168
250.721	22895
250.785	11065
250.848	8528
250.911	4817
250.974	5588
251.038	13000
251.101	12985
251.164	7364
251.227	8082
251.290	6666
251.354	14567
251.417	38588
251.480	17270
251.543	32090
251.606	57307
251.669	22533
251.732	16461
251.795	20461
251.859	24052
251.922	33361
251.985	11968
252.048	7471
252.111	7040
252.174	8265
252.237	23844
252.300	27063
252.363	39927
252.426	38327
252.489	13764
252.552	7901
252.615	7062
252.678	13468
252.741	24489
252.804	35199
252.867	42524
252.930	24084
252.993	13075
253.056	10190
253.119	6037
253.182	6455
253.245	7461
253.308	6433
253.371	7405
253.434	5588
253.497	9149
253.559	14194
253.622	8727
253.685	12790
253.748	7756
253.811	5398
253.874	6761
253.937	5617
254.000	6923
254.062	15887
254.125	12256
254.188	14254
254.251	7232
254.314	6852
254.376	12134
254.439	9967
254.502	8951
254.565	16201
254.628	14831
254.690	7637
254.753	5674
254.816	4802
254.878	7452
254.941	14732
255.004	7153
255.067	5694
255.129	4828
255.192	3866
255.255	4327
255.317	4098
255.380	3391
255.443	3837
255.505	3945
255.568	2292
255.631	3675
255.693	5063
255.756	3374
255.819	4546
255.881	3579
255.944	2966
256.006	3022
256.069	2485
256.132	3215
256.194	4038
256.257	4995
256.319	4543
256.382	6823
256.444	6063
256.507	5322
256.569	3436
256.632	4243
256.694	6073
256.757	30169
256.819	32721
256.882	10401
256.944	7140
257.007	6644
257.069	5919
257.132	4558
257.194	4580
257.257	6594
257.319	4237
257.381	6242
257.444	21849
257.506	64329
257.569	39073
257.631	22370
257.693	10509
257.756	6157
257.818	5529
257.880	4053
257.943	3988
258.005	3776
258.067	3092
258.130	3871
258.192	6309
258.254	5578
258.317	3538
258.379	8927
258.441	16705
258.503	6770
258.566	7907
258.628	5403
258.690	2942
258.753	5654
258.815	6914
258.877	4174
258.939	3592
259.001	4277
259.064	4193
259.126	4376
259.188	4436
259.250	6174
259.312	10968
259.375	15879
259.437	6380
259.499	4931
259.561	6614
259.623	5854
259.685	3714
259.747	3980
259.809	8464
259.872	9640
259.934	19849
259.996	11840
260.058	4537
260.120	3597
260.182	3718
260.244	3396
260.306	2405
260.368	4419
260.430	3844
260.492	8532
260.554	15656
260.616	9021
260.678	15277
260.740	7461
260.802	4623
260.864	4493
260.926	4052
260.988	4412
261.050	5926
261.112	9820
261.174	12413
261.236	6754
261.298	5434
261.359	7708
261.421	6292
261.483	4634
261.545	4233
261.607	3345
261.669	4177
261.731	7779
261.793	8951
261.854	5333
261.916	5102
261.978	5505
262.040	3070
262.102	4601
262.164	4545
262.225	4156
262.287	5984
262.349	11695
262.411	6050
262.472	4974
262.534	6408
262.596	4924
262.658	4247
262.719	3617
262.781	4681
262.843	5256
262.904	3510
262.966	5475
263.028	5224
263.090	20460
263.151	17481
263.213	10060
263.275	7288
263.336	4748
263.398	4214
263.459	2983
263.521	5705
263.583	9542
263.644	5364
263.706	4094
263.767	3237
263.829	2710
263.891	2826
263.952	3390
264.014	3172
264.075	6649
264.137	6188
264.198	3835
264.260	3116
264.321	3874
264.383	11429
264.444	9474
264.506	4477
264.567	4152
264.629	9271
264.690	7371
264.752	4871
264.813	3989
264.875	2596
264.936	3252
264.998	4260
265.059	4587
265.120	4380
265.182	9586
265.243	29901
265.305	12271
265.366	5691
265.427	4141
265.489	5123
265.550	3147
265.611	4440
265.673	3788
265.734	4209
265.795	3532
265.857	3598
265.918	4603
265.979	16306
266.040	43044
266.102	14698
266.163	8552
266.224	6046
266.286	5179
266.347	3770
266.408	4781
266.469	4141
266.530	4476
266.592	5021
266.653	9737
266.714	7900
266.775	4056
266.836	4141
266.898	4574
266.959	5198
267.020	4331
267.081	4453
267.142	4462
267.203	4077
267.264	3256
267.326	5637
267.387	4088
267.448	4184
267.509	4968
267.570	4295
267.631	3579
267.692	3177
267.753	3917
267.814	3101
267.875	11108
267.936	8715
267.997	6448
268.058	5199
268.119	4045
268.180	3659
268.241	3230
268.302	3603
268.363	3126
268.424	3126
268.485	3636
268.546	3125
268.607	3033
268.668	3152
268.729	3297
268.790	2805
268.851	4755
268.912	10272
268.972	7679
269.033	4462
269.094	3168
269.155	3323
269.216	3259
269.277	3369
269.338	3589
269.398	3674
269.459	3228
269.520	5626
269.581	7001
269.642	5087
269.702	4205
269.763	4477
269.824	3865
269.885	6642
269.945	5945
270.006	3577
270.067	3802
270.128	2923
270.188	4175
270.249	2586
270.310	3632
270.370	4202
270.431	3134
270.492	3243
270.553	4439
270.613	9036
270.674	10472
270.734	3998
270.795	4527
270.856	4858
270.916	3539
270.977	4848
271.038	4833
271.098	4503
271.159	8322
271.219	4842
271.280	3602
271.340	3639
271.401	4810
271.462	4411
271.522	4922
271.583	3577
271.643	4213
271.704	4414
271.764	6430
271.825	15854
271.885	38353
271.946	21747
272.006	11979
272.066	28012
272.127	25395
272.187	16659
272.248	8945
272.308	12652
272.369	18781
272.429	9171
272.489	10616
272.550	8618
272.610	11419
272.671	6818
272.731	6950
272.791	7850
272.852	6827
272.912	6870
272.972	5512
273.033	5997
273.093	6505
273.153	6488
273.214	5561
273.274	7796
273.334	25611
273.394	20680
273.455	11148
273.515	21017
273.575	19145
273.635	11444
273.696	22188
273.756	20617
273.816	10980
273.876	8866
273.936	12008
273.997	9551
274.057	6740
274.117	6712
274.177	16737
274.237	36197
274.297	14478
274.358	15755
274.418	22317
274.478	11231
274.538	7120
274.598	5904
274.658	11015
274.718	8548
274.778	6162
274.838	5433
274.898	8829
274.958	15533
275.018	24001
275.078	10797
275.138	6806
275.198	5181
275.258	5117
275.318	5856
275.378	9676
275.438	7509
275.498	7580
275.558	11388
275.618	22236
275.678	12553
275.738	13194
275.798	7316
275.858	5355
275.918	4630
275.978	6768
276.038	5291
276.098	6272
276.157	14491
276.217	16625
276.277	8498
276.337	7058
276.397	5799
276.457	6929
276.517	4821
276.576	5142
276.636	5869
276.696	9377
276.756	13983
276.815	8020
276.875	6527
276.935	6105
276.995	6048
277.055	6158
277.114	6555
277.174	13330
277.234	13771
277.293	7680
277.353	5075
277.413	4962
277.472	5514
277.532	6328
277.592	10051
277.651	38855
277.711	22523
277.771	24339
277.830	48430
277.890	23189
277.950	49583
278.009	48702
278.069	21000
278.128	43449
278.188	27829
278.248	30240
278.307	44393
278.367	14821
278.426	8973
278.486	7028
278.545	5900
278.605	6557
278.664	5370
278.724	8135
278.783	22447
278.843	18273
278.902	7788
278.962	7505
279.021	9210
279.081	10696
279.140	8958
279.199	9916
279.259	10047
279.318	12032
279.378	16188
279.437	46340
279.496	98988
279.556	129074
279.615	50571
279.675	25318
279.734	25750
279.793	52727
279.853	46000
279.912	19984
279.971	17221
280.031	18997
280.090	45573
280.149	34277
280.208	42016
280.268	99148
280.327	42270
280.386	19486
280.445	22184
280.505	13554
280.564	9262
280.623	10128
280.682	17485
280.742	11761
280.801	7543
280.860	6992
280.919	7188
280.978	6384
281.037	6175
281.097	6250
281.156	7575
281.215	6786
281.274	11835
281.333	23073
281.392	8688
281.451	6592
281.510	5914
281.569	5277
281.628	4984
281.688	6812
281.747	7371
281.806	6650
281.865	6129
281.924	6062
281.983	5436
282.042	5685
282.101	4992
282.160	6163
282.219	6922
282.278	9547
282.337	13732
282.396	6978
282.454	7086
282.513	12749
282.572	18620
282.631	9560
282.690	6737
282.749	7257
282.808	7520
282.867	7503
282.926	6295
282.985	6620
283.043	5785
283.102	6630
283.161	7836
283.220	17777
283.279	13597
283.338	7374
283.396	7573
283.455	7963
283.514	9176
283.573	8793
283.631	7856
283.690	8208
283.749	8612
283.808	14149
283.866	9955
283.925	8536
283.984	9583
284.043	10971
284.101	10477
284.160	10262
284.219	11687
284.277	13034
284.336	19963
284.395	30767
284.453	18935
284.512	18914
284.570	22540
284.629	22110
284.688	26613
284.746	30276
284.805	36981
284.863	46724
284.922	58788
284.981	78784
285.039	116360
285.098	169499
285.156	163268
285.215	102040
285.273	171497
285.332	173578
285.390	127676
285.449	93473
285.507	68689
285.566	54495
285.624	42408
285.683	34274
285.741	27438
285.799	23705
285.858	20616
285.916	19341
285.975	15474
286.033	15086
286.091	13614
286.150	12577
286.208	12783
286.267	12429
286.325	12447
286.383	14109
286.442	10187
286.500	9452
286.558	8365
286.616	9138
286.675	9291
286.733	9812
286.791	8280
286.850	9843
286.908	12840
286.966	10399
287.024	7352
287.083	7297
287.141	6293
287.199	8629
287.257	8452
287.315	7260
287.374	9512
287.432	12769
287.490	8426
287.548	7113
287.606	6385
287.664	6858
287.723	8125
287.781	7605
287.839	5239
287.897	6887
287.955	7080
288.013	9011
288.071	19553
288.129	79188
288.187	75399
288.245	24563
288.303	12426
288.361	11335
288.419	7999
288.477	6865
288.535	6244
288.593	5625
288.651	4574
288.709	5413
288.767	5741
288.825	4677
288.883	5307
288.941	4706
288.999	3769
289.057	5662
289.115	5004
289.173	5532
289.231	4790
289.289	4778
289.346	5329
289.404	7324
289.462	8489
289.520	6758
289.578	5025
289.636	5230
289.694	4785
289.751	5583
289.809	5668
289.867	5404
289.925	6324
289.983	5373
290.040	5329
290.098	5475
290.156	5413
290.214	5597
290.271	4943
290.329	6197
290.387	4421
290.444	4673
290.502	4439
290.560	4362
290.617	4606
290.675	5006
290.733	5086
290.790	4843
290.848	4282
290.906	5151
290.963	4270
291.021	4500
291.078	4097
291.136	6855
291.194	15362
291.251	11477
291.309	5750
291.366	5749
291.424	5673
291.481	6848
291.539	6305
291.596	4916
291.654	4495
291.711	4354
291.769	5785
291.826	6103
291.884	4308
291.941	4707
291.999	3895
292.056	4999
292.114	4619
292.171	5475
292.228	5756
292.286	6226
292.343	7565
292.401	7009
292.458	5215
292.515	7002
292.573	8026
292.630	6007
292.687	5495
292.745	5090
292.802	6527
292.859	14015
292.917	17562
292.974	7803
293.031	5966
293.089	5594
293.146	5351
293.203	4608
293.260	4837
293.318	7107
293.375	5181
293.432	5330
293.489	5104
293.546	5529
293.604	8037
293.661	23523
293.718	21776
293.775	11381
293.832	11118
293.889	11580
293.947	10582
294.004	8824
294.061	9409
294.118	16866
294.175	20157
294.232	15344
294.289	8506
294.346	6934
294.403	6265
294.460	5814
294.517	5022
294.574	5756
294.631	5418
294.688	6991
294.745	18566
294.802	29822
294.859	16882
294.916	11791
294.973	7652
295.030	7752
295.087	5792
295.144	6178
295.201	4846
295.258	5512
295.315	8668
295.372	21030
295.429	15688
295.486	7829
295.542	8345
295.599	16375
295.656	14076
295.713	19022
295.770	15465
295.827	7593
295.883	5699
295.940	6687
295.997	7807
296.054	6160
296.111	4496
296.167	4743
296.224	3715
296.281	4544
296.338	4060
296.394	4958
296.451	6967
296.508	16672
296.564	14257
296.621	17284
296.678	34727
296.734	21077
296.791	9826
296.848	8331
296.904	13162
296.961	21977
297.018	23465
297.074	11451
297.131	7584
297.187	8344
297.244	14233
297.301	38925
297.357	24994
297.414	10216
297.470	6882
297.527	6788
297.583	5818
297.640	5747
297.696	5410
297.753	4770
297.809	4998
297.866	4209
297.922	4100
297.979	4214
298.035	5819
298.092	11378
298.148	17896
298.204	9161
298.261	8579
298.317	22487
298.374	24030
298.430	11227
298.486	7383
298.543	7011
298.599	7387
298.656	8369
298.712	14790
298.768	14912
298.824	6969
298.881	5345
298.937	5777
298.993	6296
299.050	5814
299.106	5589
299.162	4945
299.218	6046
299.275	5007
299.331	7470
299.387	19469
299.443	41966
299.500	38812
299.556	17505
299.612	13246
299.668	21030
299.724	36715
299.780	20321
299.837	11997
299.893	22164
299.949	47504
300.005	36521
300.061	46483
300.117	39611
300.173	15930
300.229	11553
300.285	13958
300.341	10888
300.397	7328
300.453	6888
300.510	7217
300.566	10693
300.622	25878
300.678	60103
300.734	43859
300.790	33962
300.845	31557
300.901	44762
300.957	39395
301.013	18129
301.069	10184
301.125	9875
301.181	7652
301.237	6616
301.293	4942
301.349	5791
301.405	5178
301.461	5118
301.516	6546
301.572	7614
301.628	8818
301.684	8740
301.740	15142
301.796	13539
301.851	14105
301.907	18144
301.963	19879
302.019	49504
302.074	70685
302.130	42441
302.186	19932
302.242	12180
302.297	10595
302.353	14728
302.409	17556
302.464	11812
302.520	17104
302.576	29841
302.631	22717
302.687	11804
302.743	7948
302.798	6436
302.854	6135
302.910	6496
302.965	8567
303.021	9741
303.076	9910
303.132	13332
303.187	10555
303.243	6487
303.299	5080
303.354	6008
303.410	5049
303.465	5305
303.521	5145
303.576	5928
303.632	7277
303.687	16067
303.743	22525
303.798	11861
303.853	7108
303.909	6114
303.964	7036
304.020	10921
304.075	10794
304.130	13138
304.186	17328
304.241	15522
304.297	11503
304.352	8837
304.358	8772
304.407	8246
304.449	9761
304.463	10276
304.518	8231
304.539	7878
304.573	7306
304.629	8061
304.630	8191
304.684	14223
304.720	21230
304.739	24760
304.794	19756
304.811	16696
304.850	9209
304.902	7127
304.905	7013
304.960	5900
304.992	5672
305.015	5511
305.071	5173
305.083	5012
305.126	4421
305.173	3842
305.181	3759
305.236	4911
305.264	5346
305.292	5769
305.347	6531
305.354	6495
305.402	6347
305.445	7465
305.457	7759
305.512	7633
305.535	7188
305.567	6592
305.622	7700
305.626	8096
305.678	15613
305.716	23722
305.733	26704
305.788	19570
305.807	19340
305.843	19109
305.897	24535
305.898	24595
305.953	16078
305.988	12025
306.008	9870
306.063	6786
306.078	6477
306.118	6025
306.168	5005
306.173	4923
306.228	5184
306.259	4745
306.283	4408
306.338	4277
306.349	4318
306.393	4553
306.440	5094
306.448	5196
306.503	5335
306.530	5839
306.558	6773
306.613	10758
306.620	11513
306.668	17553
306.711	22207
306.723	22560
306.778	14739
306.801	12244
306.833	9114
306.888	5994
306.892	5862
306.943	5698
306.982	5860
306.997	5970
307.052	5681
307.072	5570
307.107	5167
307.162	5456
307.163	5453
307.217	5611
307.253	6207
307.272	6461
307.327	6710
307.343	6511
307.381	6056
307.434	6677
307.436	6802
307.491	11586
307.524	15566
307.546	17560
307.600	16408
307.614	15495
307.655	10048
307.704	6230
307.710	6163
307.765	7063
307.795	7296
307.819	7707
307.874	9499
307.885	9628
307.929	9526
307.975	10809
307.984	11452
308.038	15428
308.065	20939
308.093	34452
308.148	76168
308.156	82652
308.202	119250
308.246	122091
308.257	112842
308.312	60191
308.336	42275
308.366	34748
308.421	22496
308.426	21468
308.475	15518
308.517	12207
308.530	11745
308.585	10070
308.607	9796
308.639	9858
308.694	9682
308.697	9747
308.748	11684
308.787	12650
308.803	12674
308.857	12022
308.877	12166
308.912	13286
308.967	16058
308.967	16107
309.021	24117
309.058	31788
309.076	38420
309.130	62401
309.148	72177
309.185	113057
309.238	180722
309.239	181413
309.293	189277
309.328	178887
309.348	153000
309.402	84370
309.418	66615
309.457	51256
309.508	35778
309.511	35753
309.566	39166
309.598	43499
309.620	52575
309.674	78286
309.688	83374
309.729	80598
309.778	70410
309.783	68395
309.837	45395
309.868	33993
309.892	33636
309.946	37038
309.959	37889
310.001	43466
310.049	45877
310.055	44033
310.109	26100
310.139	17401
310.163	14749
310.218	10155
310.229	9308
310.272	8360
310.319	7457
310.326	7279
310.381	6201
310.409	5615
310.435	5621
310.489	5782
310.499	5780
310.543	5596
310.589	5699
310.598	5685
310.652	5634
310.679	5533
310.706	5640
310.760	5832
310.769	5847
310.814	5386
310.859	4919
310.868	4927
310.923	5190
310.948	5251
310.977	5278
311.031	5404
311.038	5407
311.085	5297
311.128	5145
311.139	5182
311.193	5411
311.218	5530
311.247	5345
311.301	4977
311.308	4921
311.356	4884
311.398	4918
311.410	4901
311.464	4768
311.488	4691
311.518	4859
311.572	5253
311.578	5303
311.626	6000
311.668	6488
311.680	6416
311.734	6045
311.758	5898
311.788	5710
311.842	5361
311.847	5326
311.896	6209
311.937	6950
311.950	6823
312.004	6222
312.027	5961
312.058	5921
312.112	5853
312.117	5839
312.165	5118
312.207	4498
312.297	5278
312.386	5199
312.476	5080
312.566	8249
312.656	6652
312.745	4505
312.835	5361
312.925	5898
313.015	5759
313.104	5176
313.194	6910
313.284	6323
313.374	7796
313.463	7839
313.553	6824
313.643	6394
313.732	7071
313.822	7084
313.912	8493
314.001	8521
314.091	9579
314.180	9715
314.270	9926
314.360	9241
314.449	9635
314.539	7874
314.628	8512
314.718	9258
314.808	9567
314.897	8891
314.987	10263
315.076	11280
315.166	11447
315.255	10105
315.345	10277
315.434	9308
315.524	9240
315.613	11005
315.703	14365
315.792	23973
315.881	64022
315.971	30719
316.060	14268
316.150	11969
316.239	11094
316.328	9049
316.418	9037
316.507	10265
316.597	11460
316.686	11662
316.775	11300
316.865	11152
316.954	8890
317.043	8926
317.133	8485
317.222	7597
317.311	7016
317.400	7468
317.490	8528
317.579	9505
317.668	8964
317.757	13586
317.847	36096
317.936	103587
318.025	45452
318.114	27910
318.203	18342
318.293	14064
318.382	21413
318.471	22750
318.560	22694
318.649	26996
318.738	11616
318.828	9017
318.917	8529
319.006	7679
319.095	13880
319.184	31490
319.273	22771
319.362	15480
319.451	7528
319.540	6790
319.629	11467
319.718	16247
319.807	9306
319.896	15250
319.985	37965
320.074	19913
320.163	7942
320.252	9015
320.341	8954
320.430	8625
320.519	12809
320.608	11262
320.697	10757
320.786	10850
320.875	14166
320.964	16044
321.053	19228
321.142	24112
321.230	27119
321.319	26555
321.408	36617
321.497	25352
321.586	22006
321.675	18570
321.764	18673
321.852	17036
321.941	23575
322.030	21026
322.119	22625
322.207	35019
322.296	27886
322.385	26262
322.474	32989
322.562	49237
322.651	33775
322.740	28414
322.829	37883
322.917	19134
323.006	18251
323.095	18871
323.183	12828
323.272	14316
323.361	17028
323.449	25508
323.538	15358
323.626	23958
323.715	22580
323.804	10953
323.892	17518
323.981	15720
324.069	10386
324.158	11103
324.246	12227
324.335	12136
324.424	16833
324.512	10362
324.601	10388
324.689	12778
324.778	19475
324.866	16778
324.954	8546
325.043	6917
325.131	9165
325.220	9652
325.308	13598
325.397	10005
325.485	9081
325.574	9639
325.662	10433
325.750	8274
325.839	9341
325.927	6713
326.015	9314
326.104	7736
326.192	8380
326.280	5711
326.369	6917
326.457	9786
326.545	12915
326.634	8758
326.722	6130
326.810	6865
326.898	9187
326.987	10809
327.075	13228
327.163	9775
327.251	8348
327.340	12283
327.428	15944
327.516	11896
327.604	9803
327.692	7750
327.781	6909
327.869	6993
327.957	7703
328.045	7232
328.133	5578
328.221	4516
328.309	6366
328.397	6083
328.485	7845
328.574	12764
328.662	27745
328.750	15987
328.838	8720
328.926	6798
329.014	6976
329.102	7769
329.190	11018
329.278	10064
329.366	6026
329.454	6021
329.542	6545
329.630	6715
329.718	6716
329.806	7489
329.893	7366
329.981	7998
330.069	10818
330.157	31084
330.245	89571
330.333	53244
330.421	12138
330.509	10161
330.597	22483
330.684	17309
330.772	7879
330.860	7658
330.948	9232
331.036	6880
331.123	6675
331.211	6225
331.299	7234
331.387	8758
331.475	12864
331.562	7768
331.650	6784
331.738	7371
331.825	7804
331.913	7103
332.001	6244
332.089	6649
332.176	7558
332.264	9517
332.352	9711
332.439	7481
332.527	7062
332.614	7148
332.702	6867
332.790	7098
332.877	9202
332.965	16278
333.052	14426
333.140	14744
333.228	33411
333.315	14502
333.403	8656
333.490	10497
333.578	16491
333.665	46524
333.753	26653
333.840	10684
333.928	11502
334.015	13042
334.103	19216
334.190	41008
334.278	28795
334.365	30254
334.452	30612
334.540	22504
334.627	21019
334.715	25601
334.802	36899
334.889	67188
334.977	86171
335.064	52251
335.151	27992
335.239	20217
335.326	18339
335.413	30025
335.501	37994
335.588	18803
335.675	18419
335.762	23176
335.850	31097
335.937	41672
336.024	68905
336.111	115993
336.199	97392
336.286	48217
336.373	28159
336.460	19180
336.547	15734
336.635	14248
336.722	12812
336.809	10808
336.896	11283
336.983	16837
337.070	31857
337.157	42751
337.245	22651
337.332	17254
337.419	10454
337.506	8839
337.593	9763
337.680	13169
337.767	26385
337.854	13044
337.941	12428
338.028	11307
338.115	8961
338.202	9771
338.289	11337
338.376	17229
338.463	11462
338.550	16572
338.637	18939
338.724	7583
338.811	9154
338.898	7000
338.984	7498
339.071	6931
339.158	9059
339.245	13566
339.332	10296
339.419	8963
339.506	9088
339.593	6842
339.679	7565
339.766	7076
339.853	8002
339.940	11379
340.027	8068
340.113	7508
340.200	8505
340.287	6889
340.374	8048
340.460	10386
340.547	7655
340.634	8936
340.720	22747
340.807	16798
340.894	8400
340.980	7084
341.067	7116
341.154	7911
341.240	8580
341.327	14931
341.414	9009
341.500	7311
341.587	7521
341.674	6767
341.760	11565
341.847	12125
341.933	7489
342.020	6307
342.106	6735
342.193	7626
342.279	10581
342.366	8348
342.452	10957
342.539	8553
342.625	12682
342.712	24942
342.798	14267
342.885	8370
342.971	6469
343.058	6154
343.144	6591
343.230	6310
343.317	6537
343.403	5890
343.490	6719
343.576	6079
343.662	6371
343.749	7321
343.835	8519
343.921	11221
344.008	46797
344.094	105474
344.180	30979
344.267	12192
344.353	30764
344.439	33151
344.525	14703
344.612	10108
344.698	10543
344.784	8787
344.870	7028
344.957	5848
345.043	8114
345.129	6724
345.215	11574
345.301	7822
345.387	6562
345.474	6199
345.560	5934
345.646	6451
345.732	6697
345.818	6633
345.904	6707
345.990	7366
346.076	6927
346.162	7384
346.249	6403
346.335	5853
346.421	8062
346.507	16127
346.593	46917
346.679	16453
346.765	9073
346.851	12870
346.937	11712
347.023	7693
347.108	7755
347.194	7689
347.280	7245
347.366	8884
347.452	27339
347.538	69682
347.624	47239
347.710	34278
347.796	10733
347.882	8202
347.967	7835
348.053	7726
348.139	7114
348.225	6983
348.311	7939
348.397	7279
348.482	8133
348.568	9186
348.654	10881
348.740	28240
348.825	36708
348.911	17155
348.997	28212
349.083	50432
349.168	14303
349.254	8028
349.340	8005
349.425	6820
349.511	8096
349.597	9288
349.682	13638
349.768	33754
349.854	22342
349.939	8108
350.025	7395
350.110	8479
350.196	7670
350.282	6970
350.367	6593
350.453	7010
350.538	8153
350.624	7466
350.709	8857
350.795	6527
350.880	7655
350.966	7023
351.051	7867
351.137	6269
351.222	7556
351.308	12746
351.393	28277
351.479	12844
351.564	7219
351.649	7263
351.735	6609
351.820	6033
351.906	7558
351.991	8448
352.076	19387
352.162	29284
352.247	10917
352.332	7771
352.418	9980
352.503	11442
352.588	37600
352.673	34061
352.759	10676
352.844	7507
352.929	7963
353.014	9465
353.100	11462
353.185	30210
353.270	24611
353.355	13457
353.441	7870
353.526	7549
353.611	10322
353.696	12151
353.781	9920
353.866	7298
353.952	7475
354.037	10817
354.122	18142
354.207	17971
354.292	10737
354.377	6898
354.462	8172
354.547	9038
354.632	9729
354.717	18772
354.802	41169
354.887	18224
354.972	8342
355.057	7510
355.142	7447
355.227	8068
355.312	9461
355.397	13681
355.482	27558
355.567	18410
355.652	12730
355.737	13879
355.822	36617
355.907	36290
355.991	10013
356.076	7787
356.161	7311
356.246	7339
356.331	8790
356.416	13978
356.501	54548
356.585	64705
356.670	15542
356.755	11068
356.840	16041
356.924	62720
357.009	147894
357.094	60625
357.179	16520
357.263	13281
357.348	11521
357.433	10638
357.517	11864
357.602	11438
357.687	11542
357.771	20337
357.856	25755
357.941	17531
358.025	30740
358.110	119575
358.195	71112
358.279	15322
358.364	12098
358.448	25358
358.533	64513
358.617	55761
358.702	51757
358.787	24267
358.871	14431
358.956	14201
359.040	10131
359.125	8120
359.209	8431
359.294	12729
359.378	21734
359.462	16804
359.547	11749
359.631	7576
359.716	7616
359.800	8200
359.885	7736
359.969	8583
360.053	7978
360.138	9765
360.222	9588
360.306	12405
360.391	12056
360.475	14150
360.559	25884
360.644	24919
360.728	25669
360.812	37869
360.896	89325
360.981	40966
361.065	23017
361.149	11253
361.233	10703
361.318	10930
361.402	11503
361.486	11031
361.570	10957
361.654	11478
361.739	17915
361.823	55364
361.907	92107
361.991	28480
362.075	19748
362.159	30430
362.243	40786
362.327	82813
362.411	124188
362.495	57970
362.580	28518
362.664	23476
362.748	27569
362.832	38114
362.916	76193
363.000	199451
363.084	316420
363.168	201262
363.252	63463
363.336	29795
363.420	24944
363.503	39262
363.587	46195
363.671	21480
363.755	19866
363.839	22358
363.923	21771
364.007	27678
364.091	36931
364.175	51544
364.258	121595
364.342	242195
364.426	410526
364.510	251675
364.594	84084
364.677	46761
364.761	86074
364.845	71275
364.929	28189
365.013	22420
365.096	19249
365.180	21204
365.264	20793
365.347	49848
365.431	29713
365.515	13549
365.598	11275
365.682	11334
365.766	12746
365.849	13251
365.933	12462
366.017	12156
366.100	12048
366.184	10059
366.267	10517
366.351	10921
366.435	10536
366.518	9020
366.602	9224
366.685	9438
366.769	10903
366.852	11467
366.936	14469
367.019	13408
367.103	11242
367.186	12094
367.270	10346
367.353	9659
367.436	11228
367.520	10868
367.603	12006
367.687	13775
367.770	17757
367.853	13953
367.937	26926
368.020	46666
368.104	17386
368.187	13346
368.270	16960
368.353	16246
368.437	14672
368.520	14949
368.603	16696
368.687	28776
368.770	53010
368.853	19718
368.936	13500
369.020	14140
369.103	10433
369.186	9028
369.269	9137
369.352	12335
369.436	15316
369.519	12056
369.602	10026
369.685	9656
369.768	9820
369.851	9714
369.934	9282
370.018	10119
370.101	13711
370.184	13089
370.267	10653
370.350	13846
370.433	18139
370.516	46931
370.599	77358
370.682	34701
370.765	29945
370.848	36715
370.931	64942
371.014	32437
371.097	12378
371.180	10941
371.263	10867
371.346	10314
371.429	10722
371.511	10503
371.594	13677
371.677	15973
371.760	17015
371.843	18004
371.926	51432
372.009	118098
372.091	55277
372.174	33536
372.257	65863
372.340	38217
372.423	23413
372.505	23677
372.588	17079
372.671	24540
372.754	62378
372.836	41505
372.919	22810
373.002	31796
373.085	21573
373.167	18377
373.250	33238
373.332	62693
373.415	75532
373.498	145276
373.580	72619
373.663	90874
373.746	132318
373.828	39266
373.911	17338
373.993	16713
374.076	29654
374.159	31839
374.241	22006
374.324	51749
374.406	44135
374.489	45756
374.571	123848
374.654	68875
374.736	30797
374.819	75859
374.901	106635
374.983	116366
375.066	34413
375.148	15941
375.231	28838
375.313	48461
375.395	27647
375.478	15851
375.560	15061
375.643	15528
375.725	29233
375.807	91718
375.890	74033
375.972	22952
376.054	17170
376.136	16412
376.219	14367
376.301	30413
376.383	83544
376.465	42837
376.548	21424
376.630	27244
376.712	69361
376.794	43436
376.877	11777
376.959	9079
377.041	9597
377.123	10937
377.205	12055
377.287	9406
377.369	9277
377.452	10654
377.534	10759
377.616	9798
377.698	10764
377.780	9130
377.862	10093
377.944	9394
378.026	9774
378.108	8646
378.190	9087
378.272	9195
378.354	8612
378.436	8439
378.518	10237
378.600	15903
378.682	18668
378.764	36929
378.846	36158
378.928	13787
379.010	17605
379.091	13762
379.173	10221
379.255	8946
379.337	11044
379.419	20108
379.501	53201
379.583	29572
379.664	11050
379.746	16247
379.828	35735
379.910	52256
379.991	50084
380.073	16124
380.155	11361
380.237	9981
380.318	9525
380.400	9366
380.482	13090
380.564	18387
380.645	29370
380.727	31386
380.809	14531
380.890	11953
380.972	14137
381.053	12902
381.135	11245
381.217	17324
381.298	40994
381.380	27303
381.461	20157
381.543	64713
381.624	92822
381.706	29255
381.787	16336
381.869	16584
381.951	34706
382.032	109524
382.113	86156
382.195	27486
382.276	25122
382.358	46835
382.439	81595
382.521	80931
382.602	119613
382.684	73368
382.765	105676
382.846	176870
382.928	333385
383.009	230774
383.090	147771
383.172	395953
383.253	594404
383.334	255280
383.416	155060
383.497	104019
383.578	72378
383.659	122643
383.741	350314
383.822	732111
383.903	471499
383.984	166297
384.066	148589
384.147	106534
384.228	43610
384.309	32144
384.390	31011
384.471	27074
384.553	24348
384.634	23652
384.715	24508
384.796	19939
384.877	22898
384.958	41577
385.039	53569
385.120	28234
385.201	18122
385.282	17798
385.363	20005
385.444	23380
385.525	27820
385.606	59424
385.687	61717
385.768	24630
385.849	22959
385.930	55660
386.011	101560
386.092	44854
386.173	19956
386.254	16583
386.335	16949
386.416	18704
386.496	29551
386.577	45630
386.658	25343
386.739	17410
386.820	16773
386.901	16827
386.981	17454
387.062	18398
387.143	24310
387.224	45949
387.304	51397
387.385	29822
387.466	26068
387.547	26855
387.627	26554
387.708	33170
387.789	72617
387.869	95996
387.950	43631
388.031	20822
388.111	17368
388.192	20465
388.273	21829
388.353	19774
388.434	16604
388.514	21300
388.595	60850
388.676	84253
388.756	48219
388.837	36976
388.917	31292
388.998	14550
389.078	14410
389.159	12675
389.239	12792
389.320	14073
389.400	14527
389.480	18809
389.561	45643
389.641	31713
389.722	15224
389.802	17874
389.883	24001
389.963	49273
390.043	38932
390.124	14475
390.204	18354
390.284	41758
390.365	35035
390.445	21648
390.525	39684
390.605	43429
390.686	31924
390.766	23132
390.846	14735
390.927	12338
391.007	12411
391.087	14942
391.167	19915
391.247	18422
391.328	14735
391.408	15501
391.488	15076
391.568	13862
391.648	16293
391.728	18668
391.808	18725
391.888	20601
391.969	30752
392.049	49225
392.129	30951
392.209	30077
392.289	57963
392.369	44523
392.449	30841
392.529	29837
392.609	31075
392.689	38599
392.769	68004
392.849	75694
392.929	65802
393.009	107594
393.089	135448
393.169	187379
393.248	416365
393.328	849232
393.408	914823
393.488	517583
393.568	226186
393.648	119585
393.728	76211
393.807	54773
393.887	45225
393.967	37118
394.047	34579
394.127	31459
394.206	33373
394.286	66259
394.366	239971
394.446	309699
394.525	98292
394.605	31642
394.685	24772
394.764	31155
394.844	51729
394.924	61078
395.003	33550
395.083	20473
395.163	18467
395.242	17481
395.322	17931
395.402	16665
395.481	18095
395.561	26876
395.640	66885
395.720	119766
395.799	89529
395.879	51075
395.958	36868
396.038	84453
396.117	310229
396.197	407043
396.276	145882
396.356	58752
396.435	50812
396.515	54744
396.594	75404
396.673	141409
396.753	369934
396.832	783357
396.912	698806
396.991	290212
397.070	113483
397.150	64111
397.229	53185
397.308	81362
397.388	162903
397.467	99700
397.546	35688
397.625	23419
397.705	22677
397.784	21625
397.863	18215
397.942	15768
398.022	15426
398.101	18412
398.180	34066
398.259	26239
398.338	15681
398.417	13298
398.497	13079
398.576	11520
398.655	11920
398.734	12705
398.813	12269
398.892	15806
398.971	33250
399.050	25222
399.129	11585
399.208	9968
399.287	9309
399.366	8963
399.445	8808
399.524	8492
399.603	8897
399.682	11194
399.761	16720
399.840	36082
399.919	34577
399.998	11708
400.077	8094
400.156	8133
400.235	8977
400.313	7726
400.392	7991
400.471	19453
400.550	34498
400.629	16095
400.708	9410
400.786	8084
400.865	10556
400.944	11383
401.023	10258
401.102	6329
401.180	7551
401.259	6138
401.338	7111
401.416	7839
401.495	8169
401.574	6472
401.652	7410
401.731	9229
401.810	14909
401.888	11285
401.967	8084
402.046	11125
402.124	9723
402.203	8981
402.281	9071
402.360	12859
402.438	15624
402.517	11693
402.596	7872
402.674	8378
402.753	7303
402.831	6976
402.910	10253
402.988	29889
403.066	99085
403.145	75561
403.223	38020
403.302	98058
403.380	90504
403.459	92507
403.537	49650
403.615	22276
403.694	10844
403.772	9051
403.850	8635
403.929	7696
404.007	9887
404.085	20951
404.164	37102
404.242	16081
404.320	13304
404.398	31165
404.477	40939
404.555	83331
404.633	93256
404.711	34557
404.789	21108
404.868	16887
404.946	12600
405.024	7494
405.102	6138
405.180	5990
405.258	6239
405.336	6709
405.415	7334
405.493	13070
405.571	20116
405.649	11969
405.727	8015
405.805	9545
405.883	13569
405.961	12907
406.039	8374
406.117	7114
406.195	8779
406.273	19780
406.351	72406
406.429	58705
406.507	12946
406.585	6622
406.663	7158
406.740	7817
406.818	7332
406.896	5675
406.974	7104
407.052	10174
407.130	39075
407.208	69378
407.285	21996
407.363	6966
407.441	7568
407.519	7650
407.596	9951
407.674	23721
407.752	99504
407.830	101952
407.907	30187
407.985	16469
408.063	9503
408.141	6687
408.218	9255
408.296	15173
408.373	17794
408.451	12216
408.529	8967
408.606	8292
408.684	9260
408.762	7985
408.839	9019
408.917	8867
408.994	9763
409.072	10418
409.149	13171
409.227	19123
409.304	29028
409.382	32910
409.459	36645
409.537	45172
409.614	45437
409.692	37050
409.769	33568
409.846	43703
409.924	56701
410.001	48587
410.079	33294
410.156	24870
410.233	19275
410.311	16373
410.388	14209
410.465	13493
410.543	12696
410.620	12646
410.697	11685
410.775	12170
410.852	11841
410.929	13107
411.006	14489
411.083	12926
411.161	12567
411.238	14435
411.315	11240
411.392	9912
411.469	10665
411.547	9493
411.624	9058
411.701	8674
411.778	8766
411.855	9746
411.932	9425
412.009	7236
412.086	7298
412.163	7583
412.240	7766
412.317	7412
412.394	7877
412.471	7163
412.548	6700
412.625	6009
412.702	6458
412.779	8688
412.856	8743
412.933	5853
413.010	6445
413.087	7544
413.164	17211
413.241	28020
413.318	12959
413.395	7798
413.471	9314
413.548	7353
413.625	5916
413.702	6511
413.779	6603
413.855	5517
413.932	5089
414.009	5343
414.086	5675
414.162	5096
414.239	6757
414.316	16031
414.393	37712
414.469	22285
414.546	6809
414.623	4970
414.699	4822
414.776	5952
414.853	5537
414.929	5264
415.006	5674
415.082	5118
415.159	5865
415.236	5437
415.312	5395
415.389	6528
415.465	8329
415.542	6822
415.618	4831
415.695	6859
415.771	6583
415.848	5394
415.924	5413
416.000	4941
416.077	5591
416.153	3845
416.230	4627
416.306	4319
416.383	4740
416.459	4884
416.535	5282
416.612	5761
416.688	5613
416.764	5298
416.841	5750
416.917	6080
416.993	5186
417.069	5108
417.146	6369
417.222	6392
417.298	6994
417.374	4835
417.451	5768
417.527	5730
417.603	7339
417.679	6061
417.755	6208
417.831	4789
417.908	5097
417.984	4493
418.060	4644
418.136	6498
418.212	10182
418.288	6480
418.364	5504
418.440	5987
418.516	6864
418.592	6934
418.668	9939
418.744	13469
418.820	12632
418.896	6745
418.972	5923
419.048	6023
419.124	8877
419.200	9321
419.276	7183
419.352	5508
419.428	5915
419.504	6967
419.579	7979
419.655	7874
419.731	7294
419.807	10380
419.883	16244
419.959	15145
420.034	9073
420.110	10684
420.186	25763
420.262	28911
420.337	12917
420.413	10368
420.489	10675
420.565	10427
420.640	11929
420.716	12144
420.792	10771
420.867	13061
420.943	13591
421.019	15276
421.094	15763
421.170	16991
421.245	16604
421.321	18396
421.397	20894
421.472	34182
421.548	81787
421.623	74814
421.699	35614
421.774	32463
421.850	35933
421.925	42685
422.001	49348
422.076	58318
422.152	72155
422.227	93091
422.302	126840
422.378	180036
422.453	288661
422.529	466207
422.604	604514
422.679	466508
422.755	545249
422.830	556135
422.905	374127
422.981	244482
423.056	168574
423.131	122615
423.207	94190
423.282	75269
423.357	64581
423.432	55345
423.508	50142
423.583	49214
423.658	42300
423.733	32224
423.808	29043
423.883	28672
423.959	30129
424.034	31878
424.109	31719
424.184	24128
424.259	19809
424.334	17254
424.409	14995
424.484	14194
424.559	14668
424.634	13644
424.709	13720
424.784	12759
424.859	11837
424.934	12114
425.009	19479
425.084	33584
425.159	21446
425.234	9850
425.309	9932
425.384	10747
425.459	13166
425.534	10253
425.609	8112
425.683	9078
425.758	8376
425.833	8504
425.908	8648
425.983	11312
426.058	27728
426.132	21234
426.207	8787
426.282	7906
426.357	8057
426.431	7160
426.506	7308
426.581	8143
426.655	7957
426.730	6718
426.805	7121
426.879	6648
426.954	6257
427.029	7826
427.103	21825
427.178	62896
427.253	45000
427.327	10149
427.402	7440
427.476	10477
427.551	9525
427.625	7181
427.700	6795
427.774	6379
427.849	6744
427.923	6371
427.998	7664
428.072	8560
428.147	16477
428.221	52069
428.296	189590
428.370	163523
428.444	34617
428.519	12018
428.593	12116
428.667	12498
428.742	13020
428.816	22882
428.890	95591
428.965	210769
429.039	87241
429.113	20428
429.188	11443
429.262	7512
429.336	9289
429.410	14841
429.485	15410
429.559	11259
429.633	11530
429.707	10095
429.781	19635
429.855	93284
429.930	194531
430.004	84561
430.078	42059
430.152	72971
430.226	224454
430.300	311988
430.374	102289
430.448	26749
430.522	18920
430.596	32272
430.670	42482
430.744	139010
430.818	237963
430.892	75884
430.966	13126
431.040	9193
431.114	6363
431.188	6037
431.262	6198
431.336	5418
431.410	6289
431.484	10645
431.557	11209
431.631	7617
431.705	10492
431.779	37765
431.853	166550
431.927	176764
432.000	40189
432.074	9048
432.148	7533
432.222	4790
432.295	4720
432.369	3559
432.443	4664
432.516	17163
432.590	60289
432.664	36585
432.737	6416
432.811	3504
432.885	3222
432.958	2814
433.032	2751
433.106	2790
433.179	2842
433.253	2767
433.326	3038
433.400	3109
433.473	3922
433.547	2399
433.620	3253
433.694	4457
433.767	5226
433.841	2816
433.914	4173
433.988	3381
434.061	4059
434.134	3090
434.208	3757
434.281	1966
434.355	2506
434.428	3398
434.501	3186
434.575	2723
434.648	3128
434.721	2891
434.795	3217
434.868	3197
434.941	3261
435.014	3206
435.088	4144
435.161	5120
435.234	7879
435.307	10138
435.381	9772
435.454	12156
435.527	19725
435.600	25308
435.673	21988
435.746	17176
435.819	12903
435.892	10014
435.966	8475
436.039	6440
436.112	6367
436.185	4456
436.258	4479
436.331	3660
436.404	3259
436.477	3632
436.550	3501
436.623	3592
436.696	3922
436.769	3526
436.842	3760
436.915	3205
436.987	3457
437.060	3298
437.133	3212
437.206	2741
437.279	3427
437.352	2800
437.425	2906
437.498	3125
437.570	4946
437.643	5656
437.716	3940
437.789	2386
437.861	3952
437.934	6108
438.007	5326
438.080	2512
438.152	3160
438.225	5164
438.298	21693
438.370	83972
438.443	54427
438.516	11056
438.588	4644
438.661	2657
438.734	3292
438.806	2435
438.879	4028
438.951	3551
439.024	4828
439.096	3427
439.169	3865
439.241	2581
439.314	2400
439.386	2647
439.459	4021
439.531	3729
439.604	3673
439.676	2443
439.749	2997
439.821	2295
439.893	2418
439.966	2477
440.038	3232
440.110	4004
440.183	3475
440.255	2911
440.327	3895
440.400	9012
440.472	44412
440.544	47436
440.617	9522
440.689	5132
440.761	4875
440.833	6322
440.905	5938
440.978	3885
441.050	3589
441.122	3050
441.194	3393
441.266	3417
441.338	3443
441.411	4819
441.483	13834
441.555	28715
441.627	11078
441.699	4523
441.771	4775
441.843	4298
441.915	4370
441.987	4376
442.059	4786
442.131	5628
442.203	7061
442.275	8415
442.347	13146
442.419	24197
442.491	101891
442.563	304153
442.635	192238
442.706	45585
442.778	21095
442.850	12115
442.922	10052
442.994	8877
443.066	11306
443.137	12137
443.209	14956
443.281	21358
443.353	39001
443.425	115339
443.496	388612
443.568	519844
443.640	290065
443.711	76485
443.783	25778
443.855	16920
443.926	12931
443.998	9701
444.070	9601
444.141	7852
444.213	8602
444.285	8829
444.356	8037
444.428	7686
444.499	5874
444.571	5799
444.642	6624
444.714	6100
444.785	8394
444.857	9279
444.928	10801
445.000	11626
445.071	13241
445.143	18072
445.214	25035
445.285	33338
445.357	73431
445.428	226862
445.500	512011
445.571	468350
445.642	352296
445.714	144086
445.785	51508
445.856	24651
445.928	16860
445.999	12737
446.070	10198
446.141	9919
446.213	12869
446.284	9547
446.355	6558
446.426	5174
446.497	6262
446.569	5453
446.640	5875
446.711	6278
446.782	4168
446.853	3330
446.924	3444
446.995	4510
447.066	3964
447.138	3448
447.209	3625
447.280	2144
447.351	2701
447.422	2048
447.493	2083
447.564	2882
447.635	3652
447.706	2590
447.777	2193
447.847	2106
447.918	2370
447.989	1828
448.060	3158
448.131	3448
448.202	3986
448.273	3709
448.344	3028
448.414	1776
448.485	1169
448.556	1923
448.627	2089
448.698	1551
448.768	1216
448.839	1541
448.910	2708
448.981	3496
449.051	3252
449.122	1856
449.193	909
449.263	1852
449.334	1332
449.405	2365
449.475	4379
449.546	3850
449.616	3877
449.687	3303
449.758	3049
449.828	2590
449.899	2443
449.969	2351
450.040	1789
450.110	1520
450.181	2550
450.251	2113
450.322	2230
450.392	1921
450.463	1368
450.533	2059
450.604	1604
450.674	1591
450.744	2316
450.815	2761
450.885	3947
450.955	3671
451.026	3352
451.096	2097
451.166	3093
451.237	3845
451.307	8430
451.377	5538
451.447	3141
451.518	2127
451.588	1660
451.658	1816
451.728	2882
451.799	4067
451.869	6037
451.939	2416
452.009	2350
452.079	1220
452.149	2254
452.219	2718
452.289	4794
452.360	5442
452.430	4015
452.500	3692
452.570	6922
452.640	12805
452.710	33649
452.780	50620
452.850	33560
452.920	19168
452.990	9129
453.060	5318
453.129	5019
453.199	4336
453.269	5094
453.339	13238
453.409	21432
453.479	14199
453.549	24156
453.619	25184
453.688	13539
453.758	3905
453.828	2385
453.898	1441
453.968	2030
454.037	1171
454.087	1654
454.107	1829
454.168	1312
454.177	1207
454.247	1816
454.249	1839
454.316	1784
454.330	1842
454.386	1906
454.411	2089
454.456	2200
454.492	3680
454.525	4993
454.574	2911
454.595	1982
454.655	1667
454.665	1596
454.734	2006
454.736	2077
454.804	2800
454.817	3255
454.873	4849
454.898	5539
454.943	6749
454.979	5047
455.013	3567
455.060	2869
455.082	2575
455.141	3204
455.152	3375
455.221	5439
455.222	5600
455.291	10213
455.303	11128
455.360	13131
455.384	19388
455.430	28302
455.465	24742
455.499	22705
455.546	11946
455.569	6806
455.627	5396
455.638	5148
455.707	3033
455.708	3060
455.777	3175
455.789	3141
455.846	2812
455.869	2762
455.916	2650
455.950	2741
455.985	2782
456.031	2805
456.054	2775
456.112	2868
456.124	2857
456.193	3117
456.193	3093
456.262	3350
456.274	3458
456.332	3624
456.355	3438
456.401	3095
456.436	3399
456.470	3619
456.516	3290
456.540	3111
456.597	4121
456.609	4247
456.678	3667
456.678	3642
456.747	3759
456.759	3702
456.817	3160
456.840	3402
456.886	3877
456.920	4156
456.955	4473
457.001	5225
457.024	5539
457.082	5021
457.093	4826
457.162	5825
457.163	5856
457.232	6143
457.243	6056
457.301	5789
457.324	5745
457.370	5710
457.405	6132
457.439	6572
457.485	7466
457.508	8233
457.566	9664
457.577	10519
457.646	16453
457.647	16619
457.715	37319
457.727	41606
457.784	62871
457.808	76461
457.853	85015
457.889	101301
457.922	109230
457.969	86716
457.991	90368
458.050	100665
458.060	101720
458.129	144701
458.130	146760
458.198	141922
458.211	128499
458.267	90813
458.292	66679
458.336	45911
458.372	44767
458.405	59982
458.453	89399
458.474	105388
458.533	161922
458.543	162366
458.611	209256
458.614	210834
458.680	156100
458.694	126194
458.749	64584
458.775	46055
458.818	25306
458.855	19496
458.887	15664
458.936	12894
458.955	12100
459.016	10675
459.024	10462
459.093	9511
459.097	9442
459.162	8493
459.177	8457
459.230	8241
459.257	8599
459.299	8966
459.338	8855
459.368	8747
459.418	8445
459.437	8220
459.499	7340
459.505	7282
459.574	7098
459.579	7159
459.643	7572
459.659	7387
459.711	7035
459.740	7280
459.780	7442
459.820	7446
459.849	7403
459.900	7260
459.917	7232
459.981	7497
459.986	7518
460.054	7481
460.061	7504
460.123	7798
460.141	8020
460.191	9014
460.222	9434
460.260	9657
460.302	10271
460.328	10358
460.382	10359
460.397	11029
460.462	13969
460.465	14868
460.534	35546
460.543	38427
460.602	83025
460.623	99203
460.671	136274
460.703	171160
460.739	135309
460.783	93069
460.808	89488
460.864	31203
460.876	24491
460.944	10899
460.945	10736
461.013	8961
461.024	8725
461.081	8377
461.104	8458
461.150	8158
461.184	7613
461.218	7588
461.264	8150
461.286	8094
461.345	7755
461.355	7765
461.423	7264
461.425	7265
461.491	7494
461.505	7603
461.559	9183
461.585	9862
461.628	11259
461.665	12575
461.696	12218
461.745	12057
461.764	11285
461.825	8158
461.832	8262
461.901	8433
461.905	8522
461.969	8173
461.985	7878
462.037	7688
462.065	7813
462.105	7961
462.145	8165
462.173	8765
462.225	9852
462.241	10198
462.305	11525
462.310	11390
462.378	9704
462.385	9412
462.446	8944
462.465	8979
462.514	9096
462.545	8996
462.582	9028
462.625	9199
462.650	8973
462.705	8220
462.718	8181
462.785	8357
462.786	8372
462.854	8760
462.865	8825
462.922	9237
462.945	9546
462.990	8836
463.025	7994
463.058	8066
463.104	8311
463.126	8182
463.184	7733
463.194	7781
463.262	8231
463.264	8247
463.330	8789
463.344	8802
463.398	8571
463.424	8610
463.466	8450
463.504	8119
463.533	8102
463.583	7937
463.601	8126
463.663	9336
463.669	9405
463.737	9937
463.743	9949
463.805	11379
463.823	11783
463.873	13423
463.903	14474
463.940	14129
463.982	13913
464.008	12595
464.062	9399
464.076	9342
464.142	9035
464.144	9047
464.211	8924
464.221	8924
464.279	8367
464.301	8227
464.347	9223
464.381	9998
464.414	10081
464.461	9820
464.482	9663
464.540	9520
464.550	9633
464.617	10239
464.620	10243
464.685	11078
464.699	11265
464.753	12198
464.779	12658
464.820	13081
464.859	13439
464.888	13072
464.938	12543
464.956	12573
465.018	12065
465.023	12024
465.091	11825
465.098	11730
465.158	11510
465.177	11559
465.226	11739
465.257	11701
465.293	11867
465.336	12086
465.361	12335
465.416	12717
465.428	13224
465.495	16135
465.496	16170
465.563	17370
465.575	17585
465.631	18611
465.654	19044
465.698	15399
465.734	12198
465.765	11911
465.813	11352
465.833	11543
465.893	12277
465.900	12294
465.968	12173
465.972	12141
466.035	12405
466.052	12470
466.102	11976
466.131	11687
466.170	11997
466.210	12217
466.237	12194
466.290	12147
466.304	12340
466.369	13022
466.372	13075
466.439	13936
466.449	14035
466.506	14265
466.528	14328
466.573	16628
466.607	18295
466.641	20921
466.687	24490
466.708	25184
466.766	26972
466.775	25833
466.842	16904
466.845	16445
466.909	15841
466.925	15673
466.977	15589
467.004	15518
467.044	15749
467.083	15921
467.111	17156
467.163	19384
467.178	19431
467.242	19431
467.245	19406
467.312	18106
467.321	17900
467.379	18613
467.400	18817
467.446	18481
467.480	18171
467.559	17583
467.638	17231
467.717	18415
467.796	20022
467.875	19601
467.955	20402
468.034	26761
468.113	34943
468.192	42054
468.271	34901
468.350	45141
468.429	53852
468.508	50153
468.588	35539
468.667	27944
468.746	25050
468.825	21709
468.904	17521
468.983	19228
469.062	19879
469.141	20016
469.220	14999
469.299	15864
469.378	17542
469.456	18591
469.535	16636
469.614	16029
469.693	17158
469.772	18208
469.851	19239
469.930	18133
470.009	18111
470.088	19149
470.166	25445
470.245	34043
470.324	40117
470.403	30993
470.482	22314
470.560	18013
470.639	17946
470.718	19339
470.797	17647
470.875	21586
470.954	23886
471.033	20080
471.111	14691
471.190	14203
471.269	14647
471.347	15162
471.426	14344
471.505	15307
471.583	16899
471.662	16480
471.740	14936
471.819	15595
471.898	14915
471.976	14189
472.055	16837
472.133	21527
472.212	25616
472.290	16877
472.369	13508
472.447	14900
472.526	14679
472.604	16395
472.683	19622
472.761	19172
472.839	15330
472.918	15902
472.996	15118
473.075	15798
473.153	16390
473.231	15289
473.310	17262
473.388	16111
473.466	15770
473.545	17703
473.623	18928
473.701	19620
473.780	18309
473.858	19587
473.936	20960
474.014	18293
474.093	22494
474.171	25355
474.249	19863
474.327	17182
474.405	16409
474.484	15462
474.562	15410
474.640	15299
474.718	15369
474.796	15403
474.874	15297
474.952	14670
475.030	15913
475.108	15916
475.187	19848
475.265	32078
475.343	53986
475.421	51097
475.499	16715
475.577	15682
475.655	17089
475.733	20517
475.811	24704
475.889	23002
475.966	18853
476.044	21963
476.122	38433
476.200	48344
476.278	25497
476.356	15867
476.434	19304
476.512	32682
476.590	43543
476.667	26970
476.745	14259
476.823	14712
476.901	13301
476.979	13794
477.056	14113
477.134	15200
477.212	15942
477.290	13657
477.367	13533
477.445	13449
477.523	12671
477.601	13338
477.678	13807
477.756	14600
477.834	13320
477.911	13262
477.989	14185
478.066	14693
478.144	20257
478.222	42534
478.299	74691
478.377	54167
478.454	19144
478.532	12666
478.609	14662
478.687	12894
478.764	13548
478.842	14506
478.919	14187
478.997	12773
479.074	13484
479.152	13368
479.229	14387
479.307	12562
479.384	12559
479.461	12288
479.539	13197
479.616	13504
479.694	12606
479.771	13190
479.848	14398
479.926	13994
480.003	14261
480.080	12761
480.157	13089
480.235	12892
480.312	12652
480.389	13891
480.467	15467
480.544	18509
480.621	15650
480.698	15482
480.775	16517
480.853	14566
480.930	15997
481.007	18081
481.084	30398
481.161	45396
481.238	21754
481.315	13222
481.392	14985
481.470	15914
481.547	16451
481.624	14203
481.701	14682
481.778	15458
481.855	16808
481.932	19070
482.009	23546
482.086	22649
482.163	29580
482.240	62252
482.317	101546
482.393	55498
482.470	20659
482.547	19537
482.624	17270
482.701	17911
482.778	18161
482.855	17356
482.932	17118
483.009	18921
483.085	27674
483.162	38717
483.239	32862
483.316	23341
483.393	22235
483.469	20112
483.546	18582
483.623	17747
483.699	16699
483.776	16516
483.853	16557
483.930	19611
484.006	26664
484.083	34627
484.160	31864
484.236	44184
484.313	35405
484.389	31797
484.466	32809
484.543	37017
484.619	42118
484.696	39905
484.772	31971
484.849	29232
484.925	26102
485.002	26112
485.078	25985
485.155	24243
485.231	23540
485.308	23223
485.384	23658
485.461	27259
485.537	30283
485.614	28547
485.690	22077
485.766	21793
485.843	24570
485.919	28517
485.995	27931
486.072	21192
486.148	21692
486.224	20983
486.301	21294
486.377	22815
486.453	24041
486.530	24721
486.606	31028
486.682	30082
486.758	30748
486.835	34558
486.911	33437
486.987	39631
487.063	48892
487.139	65302
487.215	62187
487.292	40256
487.368	38501
487.444	50365
487.520	76150
487.596	126397
487.672	283179
487.748	691583
487.824	896944
487.900	310451
487.976	101401
488.052	59686
488.128	46211
488.204	36076
488.280	31008
488.356	31536
488.432	35940
488.508	38365
488.584	26580
488.660	23456
488.736	22691
488.812	24362
488.888	27521
488.964	34209
489.039	58144
489.115	72571
489.191	46633
489.267	23825
489.343	21461
489.418	19692
489.494	19834
489.570	19951
489.646	19765
489.722	19431
489.797	20345
489.873	25180
489.949	31305
490.024	26740
490.100	19299
490.176	20266
490.251	23471
490.327	26177
490.403	19923
490.478	20071
490.554	18040
490.629	19559
490.705	17341
490.781	18893
490.856	17399
490.932	20362
491.007	18939
491.083	19220
491.158	18356
491.234	21307
491.309	24300
491.385	23962
491.460	16167
491.536	18094
491.611	16941
491.686	19028
491.762	23546
491.837	37348
491.913	54426
491.988	69819
492.063	77378
492.139	22279
492.214	18394
492.289	15765
492.365	16485
492.440	17496
492.515	16927
492.590	16114
492.666	15407
492.741	17402
492.816	19497
492.891	15977
492.967	16893
493.042	16281
493.117	17993
493.192	20957
493.267	41114
493.342	96740
493.418	104565
493.493	20458
493.568	15257
493.643	15216
493.718	16247
493.793	19850
493.868	22338
493.943	17818
494.018	15631
494.093	15731
494.168	14631
494.243	14786
494.318	14806
494.393	14712
494.468	14686
494.543	14439
494.618	16320
494.693	14915
494.768	14953
494.842	14941
494.917	15004
494.992	15386
495.067	14517
495.142	14147
495.217	15396
495.292	15110
495.366	16650
495.441	17232
495.516	20141
495.591	31324
495.665	78986
495.740	140120
495.815	48776
495.890	19046
495.964	17250
496.039	21154
496.114	32421
496.188	50374
496.263	33053
496.338	17804
496.412	16889
496.487	19312
496.561	21224
496.636	20944
496.710	19911
496.785	22554
496.860	19421
496.934	16922
497.009	18438
497.083	17843
497.158	19198
497.232	20563
497.307	21967
497.381	22782
497.455	23003
497.530	23547
497.604	20511
497.679	21881
497.753	26320
497.827	30335
497.902	30278
497.976	35428
498.050	69572
498.125	159730
498.199	132359
498.273	39050
498.348	36058
498.422	33857
498.496	34488
498.570	33272
498.645	24531
498.719	23069
498.793	22257
498.867	26126
498.941	34767
499.016	79021
499.090	150433
499.164	45191
499.238	19970
499.312	19547
499.386	22976
499.460	21339
499.534	22216
499.609	25347
499.683	23512
499.757	19981
499.831	41890
499.905	103407
499.979	77627
500.053	21347
500.127	22219
500.201	20973
500.275	16983
500.349	17596
500.422	20486
500.496	27672
500.570	48219
500.644	79729
500.718	101432
500.792	22765
500.866	15584
500.940	15139
501.013	14602
501.087	17284
501.161	25468
501.235	27936
501.309	41994
501.382	88670
501.456	64618
501.530	24420
501.603	30761
501.677	16246
501.751	13141
501.825	14967
501.898	22297
501.972	38520
502.046	22096
502.119	15254
502.193	24994
502.266	39760
502.340	21323
502.413	23805
502.487	34056
502.561	21256
502.634	13882
502.708	15503
502.781	15182
502.855	13121
502.928	12573
503.002	12461
503.075	12149
503.149	12589
503.222	12594
503.295	13963
503.369	14654
503.442	19233
503.516	37254
503.589	65308
503.662	45110
503.736	31976
503.809	53197
503.882	63127
503.956	101912
504.029	185982
504.102	407257
504.175	502030
504.249	207910
504.322	82634
504.395	46709
504.468	30510
504.542	24329
504.615	19566
504.688	17241
504.761	15575
504.834	15982
504.907	17749
504.980	21546
505.053	14922
505.127	17768
505.200	15673
505.273	13296
505.346	11147
505.419	11582
505.492	10558
505.565	9585
505.638	10348
505.711	10289
505.784	9443
505.857	9809
505.930	9314
506.003	10500
506.076	10793
506.149	11088
506.221	11118
506.294	11126
506.367	23185
506.440	48689
506.513	24139
506.586	12092
506.659	9527
506.731	10512
506.804	10890
506.877	13677
506.950	10240
507.022	9588
507.095	10545
507.168	10585
507.241	8803
507.313	9214
507.386	9903
507.459	12014
507.531	9498
507.604	9048
507.677	8743
507.749	9581
507.822	12737
507.894	19630
507.967	19940
508.040	15104
508.112	14570
508.185	12962
508.257	13159
508.330	16742
508.402	13019
508.475	12317
508.547	12319
508.620	12615
508.692	15375
508.765	11368
508.837	10272
508.909	9512
508.982	10899
509.054	10962
509.127	10291
509.199	10218
509.271	10352
509.344	10104
509.416	9910
509.488	10706
509.560	10950
509.633	11444
509.705	12465
509.777	12467
509.849	15444
509.922	12425
509.994	10638
510.066	11465
510.138	13254
510.210	18885
510.283	16415
510.355	13850
510.427	12214
510.499	12620
510.571	13036
510.643	13889
510.715	18604
510.787	15380
510.859	13575
510.931	15212
511.003	18275
511.076	15889
511.148	11689
511.219	12893
511.291	14786
511.363	14812
511.435	11785
511.507	12133
511.579	11612
511.651	12212
511.723	11710
511.795	11748
511.867	11833
511.939	12619
512.010	15436
512.082	13582
512.154	12303
512.226	12594
512.298	18141
512.369	22595
512.441	16357
512.513	16235
512.585	14046
512.656	14223
512.728	15342
512.800	12759
512.871	12046
512.943	12848
513.015	12221
513.086	12832
513.158	13387
513.230	14486
513.301	17280
513.373	17607
513.444	12918
513.516	12118
513.588	12263
513.659	13288
513.731	14753
513.802	15505
513.874	24302
513.945	33157
514.016	15974
514.088	12993
514.159	14892
514.231	17045
514.302	20718
514.374	15194
514.445	14860
514.516	18381
514.588	16327
514.659	15317
514.730	19010
514.802	17258
514.873	17185
514.944	17695
515.016	18245
515.087	18159
515.158	18695
515.229	20323
515.301	19510
515.372	22005
515.443	18267
515.514	17449
515.585	16562
515.656	15808
515.728	14572
515.799	14482
515.870	15906
515.941	15625
516.012	16668
516.083	19548
516.154	20282
516.225	23004
516.296	23736
516.367	25162
516.438	31351
516.509	43728
516.580	81386
516.651	272919
516.722	694359
516.793	223319
516.864	50070
516.935	46059
517.006	59151
517.077	95286
517.148	252768
517.219	837158
517.289	957804
517.360	176947
517.431	53045
517.502	32020
517.573	27903
517.643	26637
517.714	27734
517.785	28545
517.856	30403
517.926	36455
517.997	45884
518.068	62161
518.138	92053
518.209	191543
518.280	633030
518.350	1451542
518.421	527046
518.492	118881
518.562	90731
518.633	108351
518.703	169826
518.774	358948
518.845	725755
518.915	567490
518.986	187842
519.056	88169
519.127	71421
519.197	69219
519.268	81401
519.338	46845
519.408	28775
519.479	32462
519.549	24628
519.620	21485
519.690	19473
519.760	17534
519.831	18416
519.901	16914
519.971	15864
520.042	15848
520.112	16460
520.182	17984
520.253	19084
520.323	15636
520.393	17867
520.463	21079
520.534	16765
520.604	22711
520.674	15848
520.744	17986
520.814	26311
520.885	23237
520.955	29601
521.025	64484
521.095	24628
521.165	14389
521.235	13066
521.305	12509
521.375	13306
521.445	14492
521.515	17263
521.585	19481
521.655	18517
521.725	15825
521.795	13325
521.865	12365
521.935	16262
522.005	14414
522.075	12906
522.145	14311
522.215	16864
522.285	16760
522.355	18993
522.424	24876
522.494	26242
522.564	21356
522.634	36656
522.704	82803
522.774	29201
522.843	15616
522.913	17274
522.983	17651
523.053	15059
523.122	15184
523.192	21928
523.262	47967
523.331	37779
523.401	14063
523.471	13258
523.540	13788
523.610	13016
523.680	13814
523.749	15911
523.819	20285
523.888	20729
523.958	14613
524.027	15301
524.097	14140
524.166	14365
524.236	14516
524.305	15328
524.375	14457
524.444	14148
524.514	14849
524.583	15386
524.653	16941
524.722	16636
524.791	15191
524.861	16246
524.930	15334
524.999	17798
525.069	19152
525.138	17182
525.207	18589
525.277	17954
525.346	18904
525.415	20134
525.484	23679
525.554	25703
525.623	31634
525.692	42403
525.761	40632
525.830	49731
525.900	71755
525.969	128967
526.038	258260
526.107	574312
526.176	1296456
526.245	868180
526.314	326146
526.383	724742
526.452	861787
526.522	1194780
526.591	865693
526.660	189621
526.729	115680
526.797	136747
526.867	261879
526.935	774738
527.004	1631868
527.073	841978
527.142	152891
527.211	66587
527.280	45824
527.349	35666
527.418	27565
527.487	24062
527.555	21662
527.624	19536
527.693	18432
527.762	17227
527.831	17473
527.899	17059
527.968	16626
528.037	15721
528.106	17844
528.174	22563
528.243	18017
528.312	21785
528.380	23511
528.449	14831
528.518	14230
528.586	13360
528.655	14136
528.723	13742
528.792	13593
528.861	14530
528.929	12701
528.998	14113
529.066	16989
529.135	20304
529.203	20795
529.272	24850
529.340	26756
529.409	24030
529.477	23078
529.545	24477
529.614	24930
529.682	30242
529.751	30003
529.819	32564
529.887	35009
529.956	31665
530.024	31462
530.092	27412
530.161	30290
530.229	34117
530.297	32728
530.365	31087
530.434	32728
530.502	32559
530.570	29120
530.638	26582
530.707	27195
530.775	26882
530.843	27441
530.911	29760
530.979	28773
531.047	32308
531.115	30737
531.183	27795
531.252	27307
531.320	26709
531.388	26572
531.456	31193
531.524	30323
531.592	32976
531.660	35846
531.728	32662
531.796	30489
531.864	30110
531.932	30486
532.000	31254
532.067	35456
532.135	35967
532.203	38245
532.271	41719
532.339	46302
532.407	62740
532.475	46464
532.542	39870
532.610	41626
532.678	51905
532.746	115530
532.814	183933
532.881	61982
532.949	40065
533.017	38205
533.084	34273
533.152	33400
533.220	34064
533.287	35974
533.355	35657
533.423	35567
533.490	36154
533.558	35341
533.625	35488
533.693	34482
533.761	34018
533.828	35086
533.896	36218
533.963	44930
534.031	50791
534.098	68021
534.166	48728
534.233	41065
534.300	43648
534.368	42198
534.435	41282
534.503	43049
534.570	48006
534.637	55930
534.705	66334
534.772	87930
534.840	180878
534.907	644752
534.974	591577
535.041	88527
535.109	47952
535.176	40405
535.243	38646
535.310	39021
535.378	36709
535.445	35043
535.512	36598
535.579	35918
535.646	34829
535.714	34957
535.781	38000
535.848	38711
535.915	37434
535.982	39004
536.049	37693
536.116	36125
536.183	34266
536.250	33291
536.317	35049
536.384	37655
536.451	39762
536.518	39174
536.585	37161
536.652	39563
536.719	40946
536.786	38290
536.853	36655
536.920	41680
536.987	46608
537.053	53446
537.120	121455
537.187	86678
537.254	38301
537.321	34943
537.388	37028
537.454	35087
537.521	34489
537.588	34726
537.654	35535
537.721	40873
537.788	39933
537.855	35250
537.921	35436
537.988	33976
538.055	32551
538.121	31968
538.188	30971
538.254	34948
538.321	40655
538.388	37279
538.454	37587
538.521	36946
538.587	36494
538.654	36299
538.720	34560
538.787	34931
538.853	34099
538.920	33889
538.986	31809
539.053	30915
539.119	32879
539.185	33515
539.252	35014
539.318	41272
539.385	41200
539.451	42950
539.517	39150
539.583	38971
539.650	57426
539.716	87558
539.782	38408
539.849	33801
539.915	34862
539.981	36018
540.047	34322
540.114	33529
540.180	35547
540.246	37606
540.312	40969
540.378	46818
540.444	46415
540.510	58641
540.576	99409
540.643	43185
540.709	35910
540.775	35312
540.841	32516
540.907	34735
540.973	37307
541.039	37510
541.105	36781
541.171	37327
541.237	36302
541.303	35842
541.369	37847
541.435	40355
541.500	42452
541.566	35258
541.632	32218
541.698	32889
541.764	33967
541.830	33286
541.896	33160
541.961	34793
542.027	39270
542.093	37673
542.159	36542
542.224	35440
542.290	38976
542.356	43338
542.421	42414
542.487	34709
542.553	33127
542.618	32741
542.684	33001
542.750	35186
542.815	37099
542.881	47480
542.947	94845
543.012	63062
543.078	31886
543.143	31896
543.209	35272
543.274	35127
543.340	35598
543.405	53969
543.471	62309
543.536	35606
543.602	34470
543.667	33711
543.732	33734
543.798	33097
543.863	35059
543.928	34070
543.994	32552
544.059	34524
544.124	35325
544.190	35240
544.255	36709
544.320	37194
544.386	38876
544.451	41184
544.516	40731
544.581	45020
544.646	76427
544.712	86500
544.777	41565
544.842	40048
544.907	38405
544.972	39007
545.037	42824
545.102	43309
545.168	41299
545.233	42286
545.298	43071
545.363	46917
545.428	49184
545.493	60246
545.558	85928
545.623	51279
545.688	45068
545.753	46168
545.818	47239
545.883	50206
545.947	51560
546.012	52539
546.077	53348
546.142	56040
546.207	57864
546.272	63038
546.337	63934
546.401	64197
546.466	66091
546.531	69221
546.596	73717
546.661	76567
546.725	80107
546.790	84919
546.855	91571
546.919	99874
546.984	111924
547.049	122846
547.113	137807
547.178	151281
547.243	171265
547.307	200445
547.372	218933
547.436	218131
547.501	228005
547.565	241299
547.630	219888
547.695	213489
547.759	217155
547.823	219398
547.888	220270
547.952	228840
548.017	245253
548.081	266255
548.146	246917
548.210	247709
548.274	266317
548.339	253154
548.403	232484
548.468	221218
548.532	221624
548.596	227388
548.660	230414
548.725	249257
548.789	268837
548.853	254653
548.917	244751
548.982	236345
549.046	214486
549.110	195201
549.174	205573
549.238	239095
549.303	257818
549.367	263780
549.431	249514
549.495	233980
549.559	240390
549.623	282947
549.687	299025
549.751	304728
549.815	353648
549.879	350038
549.943	340929
550.007	355613
550.071	345893
550.135	314140
550.199	300364
550.263	293476
550.327	278129
550.391	300615
550.455	330222
550.519	337271
550.582	362393
550.646	411474
550.710	409780
550.774	402110
550.838	411516
550.901	424161
550.965	455693
551.029	480622
551.093	519240
551.156	577425
551.220	647646
551.284	652328
551.347	517310
551.411	458364
551.475	435370
551.538	431816
551.602	402986
551.666	379466
551.729	357150
551.793	346996
551.856	341049
551.920	336333
551.983	337929
552.047	330555
552.110	335462
552.174	347770
552.237	345819
552.301	316208
552.364	304236
552.428	296835
552.491	310642
552.554	313839
552.618	313071
552.681	319449
552.745	314846
552.808	350845
552.871	381985
552.934	345551
552.998	318069
553.061	308737
553.124	295067
553.187	296483
553.251	308272
553.314	309144
553.377	314858
553.440	354401
553.503	452424
553.567	477778
553.630	337621
553.693	324391
553.756	322139
553.819	312495
553.882	301711
553.945	303066
554.008	304671
554.071	308518
554.134	306706
554.197	286375
554.260	280017
554.323	287308
554.386	292855
554.449	306901
554.512	301967
554.575	290401
554.638	288788
554.701	287066
554.764	280344
554.827	270692
554.889	262087
554.952	246693
555.015	243021
555.078	247552
555.141	250562
555.203	242623
555.266	245135
555.329	244640
555.391	233323
555.454	233008
555.517	222595
555.580	218155
555.642	208682
555.705	205627
555.768	203985
555.830	198139
555.893	188382
555.955	182929
556.018	180586
556.080	184584
556.143	189548
556.206	185865
556.268	180024
556.330	178896
556.393	173086
556.455	168464
556.518	166848
556.580	161505
556.643	153864
556.705	151673
556.767	148979
556.830	148834
556.892	146344
556.955	148915
557.017	140301
557.079	138653
557.142	136271
557.204	136068
557.266	145582
557.328	131789
557.391	117478
557.453	116221
557.515	114774
557.577	117660
557.639	118115
557.701	116287
557.764	117290
557.826	119463
557.888	127059
557.950	136318
558.012	151597
558.074	206584
558.136	461653
558.198	874851
558.260	279542
558.322	133125
558.384	125860
558.446	133990
558.508	148159
558.570	175058
558.632	219848
558.694	297465
558.756	484563
558.818	1202826
558.880	1891728
558.942	915001
559.003	965651
559.065	408410
559.127	185223
559.189	177693
559.251	205699
559.312	301221
559.374	698681
559.436	1547460
559.498	713688
559.559	220775
559.621	181549
559.683	213407
559.744	357010
559.806	992603
559.868	1137395
559.929	298487
559.991	218149
560.052	372587
560.114	890846
560.176	508427
560.237	568604
560.299	739173
560.360	160210
560.422	78167
560.483	67369
560.545	60625
560.606	59952
560.667	56749
560.729	54557
560.790	52640
560.852	51466
560.913	50757
560.974	48626
561.036	47990
561.097	48468
561.158	47453
561.220	47315
561.281	46528
561.342	45449
561.403	46761
561.465	50234
561.526	63821
561.587	65794
561.648	44720
561.709	41818
561.771	40494
561.832	40961
561.893	39550
561.954	39574
562.015	38751
562.076	37681
562.137	38107
562.198	37720
562.259	37673
562.320	39437
562.381	39003
562.442	41464
562.503	38820
562.564	36612
562.625	34469
562.686	35243
562.747	35451
562.808	36011
562.869	33763
562.930	35766
562.991	35115
563.051	34352
563.112	33647
563.173	32826
563.234	32235
563.294	31889
563.355	32097
563.416	32230
563.477	32130
563.537	32184
563.598	32695
563.659	32143
563.720	31844
563.780	32108
563.841	32728
563.901	31724
563.962	30256
564.023	30332
564.083	31514
564.144	30489
564.204	29987
564.265	30128
564.325	30353
564.386	34958
564.446	31970
564.507	30168
564.567	29344
564.628	29817
564.688	28822
564.749	29876
564.809	30672
564.869	30556
564.930	29108
564.990	29402
565.050	28727
565.111	29910
565.171	28424
565.231	29091
565.292	29793
565.352	28055
565.412	29279
565.472	29414
565.532	28706
565.593	29175
565.653	29261
565.713	30676
565.773	30089
565.833	32428
565.893	33647
565.953	29196
566.013	28219
566.074	28207
566.134	29004
566.194	33069
566.254	32545
566.314	29067
566.374	29128
566.434	28769
566.494	28543
566.554	28857
566.614	31166
566.673	31468
566.733	32087
566.793	32492
566.853	33116
566.913	32621
566.973	33218
567.033	33475
567.092	33083
567.152	35372
567.212	34704
567.272	32458
567.331	34702
567.391	34489
567.451	36585
567.511	37585
567.570	35839
567.630	33574
567.690	32250
567.749	32351
567.809	33205
567.868	35166
567.928	36246
567.988	39242
568.047	43005
568.107	47455
568.166	56173
568.226	71911
568.285	87825
568.345	81872
568.404	71415
568.464	65779
568.523	63882
568.582	65770
568.642	69669
568.701	79628
568.761	99906
568.820	133232
568.879	130491
568.939	108042
568.998	89756
569.057	73757
569.116	64732
569.176	55245
569.235	50864
569.294	46292
569.353	41800
569.413	38718
569.472	38036
569.531	36019
569.590	34269
569.649	33236
569.708	31861
569.767	32521
569.827	33549
569.886	30812
569.945	31217
570.004	31991
570.063	31127
570.122	31066
570.181	30802
570.240	30919
570.299	31377
570.358	31503
570.417	29121
570.475	29310
570.534	29706
570.593	29491
570.652	31142
570.711	30177
570.770	28897
570.829	29256
570.887	29884
570.946	30465
571.005	29531
571.064	30917
571.122	32164
571.181	30664
571.240	29325
571.299	27505
571.357	27014
571.416	27326
571.475	28200
571.533	29009
571.592	30276
571.650	29898
571.709	31425
571.768	33660
571.826	33860
571.885	31691
571.943	28903
572.002	27338
572.060	28267
572.119	27045
572.177	26030
572.236	27399
572.294	27428
572.352	28508
572.411	29946
572.469	26678
572.528	27065
572.586	26470
572.644	26805
572.703	27602
572.761	25888
572.819	25500
572.877	23705
572.936	23675
572.994	24019
573.052	25019
573.110	26297
573.169	25871
573.227	25330
573.285	25345
573.343	25497
573.401	25105
573.459	25721
573.517	25505
573.576	27262
573.634	26001
573.692	27554
573.750	25629
573.808	25388
573.866	24895
573.924	24876
573.982	24576
574.040	25129
574.098	24528
574.155	23064
574.213	24228
574.271	24468
574.329	27411
574.387	25485
574.445	23207
574.503	22956
574.560	23049
574.618	23031
574.676	24476
574.734	22457
574.792	22779
574.849	20964
574.907	20323
574.965	20092
575.022	19458
575.080	19364
575.138	19612
575.195	18812
575.253	20057
575.311	19785
575.368	19123
575.426	19371
575.483	19498
575.541	19795
575.598	18734
575.656	19514
575.713	20898
575.771	20476
575.828	21513
575.886	18881
575.943	18427
576.001	18901
576.058	18935
576.115	18879
576.173	20215
576.230	21330
576.287	22115
576.345	20480
576.402	20117
576.459	20601
576.517	20182
576.574	18328
576.631	18618
576.688	18535
576.746	17890
576.803	17995
576.860	17938
576.917	18957
576.974	18390
577.031	18619
577.089	17632
577.146	17620
577.203	17140
577.260	17253
577.317	17311
577.374	18491
577.431	17969
577.488	17088
577.545	16837
577.602	18612
577.659	19316
577.716	20247
577.773	21813
577.830	19416
577.886	18340
577.943	17580
578.000	17795
578.057	17134
578.114	18272
578.171	19220
578.227	20728
578.284	18992
578.341	19262
578.398	18379
578.454	18576
578.511	18208
578.568	17692
578.625	17686
578.681	18269
578.738	17994
578.794	17339
578.851	18420
578.908	18663
578.964	19149
579.021	19334
579.077	17825
579.134	18346
579.190	18826
579.247	18142
579.303	17819
579.360	18199
579.416	17654
579.473	17965
579.529	17675
579.586	18437
579.642	18210
579.698	18625
579.755	19175
579.811	19066
579.867	19207
579.924	19034
579.980	18347
580.036	20614
580.093	22536
580.149	24384
580.205	25397
580.261	22677
580.317	23395
580.374	22538
580.430	22107
580.486	20722
580.542	21696
580.598	21010
580.619	21204
580.654	21567
580.692	21458
580.710	21440
580.765	21788
580.767	21824
580.823	21277
580.838	21453
580.879	22022
580.911	21916
580.935	21855
580.984	21518
580.991	21502
581.047	21172
581.057	21107
581.103	20887
581.130	20941
581.159	21050
581.203	21448
581.215	21572
581.270	20761
581.276	20745
581.326	20741
581.349	20672
581.382	20644
581.422	20636
581.438	20643
581.494	21324
581.494	21309
581.550	21246
581.567	21079
581.606	20796
581.640	20823
581.661	20832
581.713	21723
581.717	21814
581.773	21588
581.786	21535
581.829	21427
581.859	21963
581.885	22408
581.932	22038
581.940	21983
581.996	21454
582.004	21507
582.052	21880
582.077	21502
582.107	21059
582.150	21424
582.163	21551
582.219	21035
582.223	21079
582.274	21779
582.296	21775
582.330	21720
582.368	22008
582.386	22188
582.441	22695
582.441	22701
582.497	23230
582.514	23380
582.552	23768
582.587	24389
582.608	24793
582.659	24305
582.663	24256
582.719	23602
582.732	23564
582.774	23584
582.805	23977
582.830	24277
582.877	24542
582.885	24635
582.941	24879
582.950	25127
582.996	26267
583.023	27362
583.052	28622
583.095	28459
583.107	28393
583.162	28361
583.168	28306
583.218	27686
583.240	26852
583.273	25486
583.313	24513
583.328	24206
583.384	24662
583.385	24642
583.439	24277
583.458	24109
583.494	23651
583.531	23659
583.549	23630
583.603	22617
583.605	22590
583.660	23640
583.676	23814
583.715	24212
583.748	23468
583.770	23035
583.820	23280
583.825	23280
583.881	23789
583.893	23718
583.936	23681
583.965	23702
583.991	23524
584.038	23532
584.046	23593
584.101	23708
584.110	23797
584.156	24047
584.183	23992
584.211	24002
584.255	24255
584.266	24229
584.321	24582
584.328	24653
584.376	25875
584.400	25930
584.431	25586
584.472	25416
584.486	25501
584.541	27091
584.545	27119
584.596	27366
584.617	27477
584.651	27470
584.689	27758
584.706	27923
584.761	28443
584.762	28458
584.816	29867
584.834	29939
584.871	29886
584.906	30588
584.926	30976
584.978	31458
584.980	31470
585.035	32583
585.051	33202
585.090	35084
585.123	36719
585.145	37742
585.195	40185
585.200	40449
585.254	46323
585.267	48067
585.309	53567
585.340	59083
585.364	63848
585.412	74386
585.419	75821
585.473	91181
585.484	96313
585.528	118374
585.556	143945
585.583	172036
585.628	261076
585.637	285500
585.692	571569
585.700	609888
585.747	863666
585.772	760370
585.801	524552
585.845	276736
585.856	221298
585.910	100696
585.917	89421
585.965	66936
585.989	59912
586.019	54438
586.061	49409
586.074	48244
586.128	45018
586.133	44859
586.183	43252
586.205	42835
586.237	42253
586.277	41474
586.292	41442
586.346	41295
586.349	41331
586.401	40901
586.421	40894
586.455	41001
586.493	40732
586.509	40756
586.564	41642
586.565	41721
586.618	45088
586.637	45481
586.672	46618
586.709	49830
586.727	51613
586.781	56661
586.781	56643
586.835	50537
586.853	49072
586.889	45068
586.925	43034
586.944	42498
586.996	41595
586.998	41603
587.052	42237
587.068	42527
587.106	42754
587.140	43072
587.161	43378
587.212	44419
587.215	44474
587.269	45399
587.284	45567
587.323	46076
587.356	46742
587.377	47144
587.427	48653
587.431	48775
587.485	50243
587.499	50588
587.539	51764
587.571	52988
587.593	54163
587.643	56794
587.648	56950
587.702	58620
587.715	59031
587.755	60618
587.786	61822
587.810	62474
587.858	63864
587.864	64198
587.917	67980
587.930	68846
587.971	70877
588.001	72557
588.025	73980
588.073	77161
588.079	77724
588.133	82879
588.145	84343
588.187	89667
588.217	93853
588.241	98042
588.288	106563
588.295	107750
588.348	119786
588.360	122739
588.402	135086
588.431	144566
588.456	152815
588.503	172100
588.510	175321
588.564	207102
588.575	215009
588.617	248978
588.646	276985
588.671	305388
588.718	371597
588.725	384582
588.778	509353
588.789	540969
588.832	715644
588.861	842173
588.886	988313
588.932	1178804
588.939	1184285
588.993	1174928
589.004	1199542
589.047	1235126
589.075	1176332
589.100	1040462
589.147	774843
589.154	741108
589.207	519365
589.218	478963
589.261	419342
589.290	388939
589.314	388209
589.361	402231
589.368	409785
589.421	498087
589.433	523575
589.475	696882
589.504	816950
589.528	946023
589.576	1115354
589.582	1108242
589.635	1079166
589.647	1052549
589.689	805840
589.718	639182
589.742	521402
589.790	314583
589.795	304283
589.849	220049
589.861	202088
589.902	172968
589.932	152618
589.955	142812
590.004	124530
590.009	123161
590.062	109166
590.075	106092
590.115	99385
590.146	94326
590.168	92146
590.218	87795
590.222	87434
590.275	83025
590.289	81945
590.328	80364
590.360	78921
590.381	77709
590.431	75048
590.435	74912
590.488	72361
590.503	71683
590.541	70964
590.574	70566
590.594	70386
590.645	69733
590.647	69753
590.700	69526
590.716	69604
590.753	70146
590.787	70561
590.806	70463
590.859	69601
590.859	69632
590.912	70016
590.930	69964
590.965	69885
591.001	70040
591.018	69998
591.071	69260
591.072	69210
591.124	68680
591.143	68459
591.177	68017
591.214	67559
591.230	67872
591.283	68616
591.285	68587
591.336	68166
591.356	68066
591.389	68079
591.427	67754
591.442	67397
591.495	66076
591.498	65924
591.547	65532
591.569	65305
591.600	65589
591.640	65824
591.653	65972
591.706	66415
591.711	66423
591.759	66809
591.782	66980
591.811	68494
591.853	70438
591.864	70591
591.917	71031
591.924	71041
591.969	70220
591.995	69634
592.022	70021
592.066	70623
592.075	70912
592.127	72227
592.137	72446
592.180	73798
592.208	74462
592.233	74799
592.279	75327
592.285	75530
592.338	76670
592.350	76859
592.390	77213
592.421	77341
592.443	77403
592.491	77328
592.495	77459
592.548	78301
592.562	78461
592.600	79683
592.633	80597
592.653	79970
592.704	77692
592.705	78187
592.775	80813
592.846	81554
592.916	84203
592.987	82266
593.058	83613
593.128	84389
593.199	84565
593.270	84668
593.341	85475
593.411	86153
593.482	90888
593.553	93475
593.623	94264
593.694	94218
593.764	98149
593.835	97165
593.906	99220
593.976	98575
594.047	102333
594.117	105687
594.188	109450
594.258	111119
594.329	109599
594.399	111006
594.470	114778
594.540	115538
594.611	120274
594.681	121173
594.751	119394
594.822	122102
594.892	127563
594.963	131769
595.033	133531
595.103	137305
595.174	141046
595.244	142281
595.314	146979
595.384	149736
595.455	154033
595.525	155963
595.595	161169
595.665	165174
595.736	161132
595.806	163463
595.876	165093
595.946	167047
596.016	169550
596.087	176462
596.157	181157
596.227	178732
596.297	185911
596.367	195505
596.437	208897
596.507	214530
596.577	212320
596.647	216007
596.717	222766
596.787	233977
596.857	230397
596.927	231583
596.997	233047
597.067	235557
597.137	240386
597.207	242910
597.277	244112
597.347	240105
597.417	231460
597.487	227294
597.557	228698
597.626	237832
597.696	241579
597.766	240759
597.836	234122
597.906	221271
597.975	215648
598.045	216112
598.115	222452
598.185	231721
598.254	252381
598.324	280750
598.394	290427
598.464	293384
598.533	280597
598.603	275193
598.672	255210
598.742	257374
598.812	261150
598.881	264286
598.951	270659
599.020	268135
599.090	276726
599.159	282339
599.229	279982
599.299	269006
599.368	270843
599.437	278011
599.507	263684
599.576	245907
599.646	243924
599.715	240988
599.785	239654
599.854	235581
599.924	233019
599.993	227812
600.062	230806
600.132	241849
600.201	245051
600.270	272166
600.340	302822
600.409	303803
600.478	299634
600.547	298626
600.617	304645
600.686	252191
600.755	219912
600.824	205363
600.894	198803
600.963	198114
601.032	201205
601.101	196621
601.170	189064
601.239	184341
601.308	182122
601.378	186048
601.447	185378
601.516	187331
601.585	190328
601.654	195743
601.723	197646
601.792	197889
601.861	205394
601.930	210291
601.999	217735
602.068	217831
602.137	217505
602.206	223978
602.275	224909
602.343	226743
602.412	228643
602.481	228701
602.550	229589
602.619	233565
602.688	240731
602.756	240153
602.825	243180
602.894	245337
602.963	252816
603.032	254652
603.100	256193
603.169	255704
603.238	257426
603.307	260798
603.375	257914
603.444	262714
603.513	267637
603.581	265742
603.650	273461
603.719	269754
603.787	257999
603.856	268463
603.924	272414
603.993	280531
604.061	287585
604.130	300259
604.198	308167
604.267	314007
604.335	320696
604.404	322243
604.472	328674
604.541	329801
604.609	336091
604.678	340679
604.746	340825
604.815	347774
604.883	356109
604.951	352311
605.020	355620
605.088	362119
605.156	361946
605.225	367266
605.293	368724
605.361	367755
605.429	371553
605.498	374689
605.566	384069
605.634	393050
605.702	414031
605.771	419999
605.839	428514
605.907	423677
605.975	413298
606.043	404588
606.111	398887
606.180	399810
606.248	402843
606.316	388948
606.384	392437
606.452	389405
606.520	377353
606.588	389091
606.656	395526
606.724	396083
606.792	379822
606.860	354696
606.928	317886
606.996	298768
607.064	290337
607.132	292016
607.200	302241
607.267	320639
607.335	322461
607.403	336805
607.471	333062
607.539	315631
607.607	320479
607.674	296619
607.742	278650
607.810	276960
607.878	275982
607.946	277853
608.013	286706
608.081	299575
608.149	301994
608.216	307869
608.284	319180
608.352	320781
608.419	323824
608.487	318413
608.555	311236
608.622	314539
608.690	323974
608.757	350291
608.825	378466
608.893	370407
608.960	358558
609.028	337935
609.095	329385
609.163	332196
609.230	322946
609.298	282760
609.365	280040
609.432	302256
609.500	321753
609.567	358486
609.635	406778
609.702	452086
609.769	450244
609.837	406344
609.904	306998
609.971	296922
610.039	309790
610.106	330910
610.173	407724
610.241	673418
610.308	938074
610.375	424628
610.442	325294
610.509	307440
610.577	302411
610.644	303423
610.711	311192
610.778	325404
610.845	332895
610.912	351997
610.980	369526
611.047	378579
611.114	376093
611.181	364156
611.248	361121
611.315	366545
611.382	383349
611.449	391457
611.516	404839
611.583	401761
611.650	401309
611.717	404715
611.784	407971
611.851	416491
611.918	434327
611.984	452741
612.051	509694
612.118	633152
612.185	1037019
612.252	1529128
612.319	708107
612.386	506620
612.452	486509
612.519	459005
612.586	449397
612.653	447189
612.719	460577
612.786	467031
612.853	441378
612.919	416507
612.986	421035
613.053	411689
613.120	393637
613.186	368185
613.253	364953
613.319	365479
613.386	366271
613.453	371709
613.519	377212
613.586	373416
613.652	373999
613.719	376955
613.785	371224
613.852	379958
613.918	382344
613.985	379595
614.051	391798
614.118	403549
614.184	402883
614.250	380317
614.317	385298
614.383	385715
614.449	387251
614.516	388072
614.582	388447
614.648	387465
614.715	380807
614.781	379053
614.847	370173
614.914	375267
614.980	367156
615.046	362026
615.112	367361
615.179	376640
615.245	377167
615.311	379306
615.377	376088
615.443	390054
615.509	382191
615.575	387670
615.642	392717
615.708	391710
615.774	404948
615.840	419495
615.906	434173
615.972	455897
616.038	520187
616.104	690271
616.170	1117376
616.236	1766995
616.302	940147
616.368	568801
616.434	502682
616.500	436792
616.565	431899
616.631	475057
616.697	497318
616.763	458430
616.829	490277
616.895	661132
616.961	880442
617.026	635153
617.092	416874
617.158	388980
617.224	387767
617.289	372469
617.355	354350
617.421	343616
617.487	346705
617.552	337813
617.618	324876
617.684	327141
617.749	328997
617.815	323890
617.880	313528
617.946	313368
618.012	311029
618.077	323196
618.143	323163
618.208	311282
618.274	323027
618.339	341933
618.405	316817
618.470	279739
618.536	286915
618.601	283341
618.667	277047
618.732	259514
618.798	251415
618.863	250306
618.928	246575
618.994	248044
619.059	249653
619.124	251911
619.190	254037
619.255	249647
619.320	249354
619.386	252066
619.451	251954
619.516	249283
619.581	243474
619.647	250004
619.712	255924
619.777	247561
619.842	242826
619.907	247047
619.972	247385
620.038	253555
620.103	243851
620.168	243708
620.233	247159
620.298	249494
620.363	251898
620.428	254438
620.493	258754
620.558	265605
620.623	266662
620.688	271591
620.753	267978
620.818	268814
620.883	271392
620.948	275552
621.013	271979
621.078	268017
621.143	265332
621.207	271166
621.272	267559
621.337	264156
621.402	257053
621.467	260264
621.532	255059
621.596	257074
621.661	258213
621.726	251330
621.791	252901
621.855	255130
621.920	252991
621.985	254478
622.049	256167
622.114	258468
622.179	262132
622.243	261933
622.308	270942
622.373	277975
622.437	281684
622.502	271990
622.566	264255
622.631	261844
622.695	264543
622.760	267507
622.824	264294
622.889	266632
622.953	267474
623.018	269818
623.082	286164
623.147	278498
623.211	275534
623.276	271074
623.340	270636
623.404	259788
623.469	257414
623.533	256324
623.597	258087
623.662	253793
623.726	249729
623.790	233130
623.854	223234
623.919	220563
623.983	224705
624.047	229149
624.111	230112
624.176	232463
624.240	231405
624.304	238316
624.368	237958
624.432	232221
624.496	234025
624.560	241511
624.625	249601
624.689	247723
624.753	249701
624.817	254245
624.881	239831
624.945	238879
625.009	213956
625.073	217490
625.137	220252
625.201	226894
625.265	233048
625.329	227783
625.393	221640
625.456	223462
625.520	228786
625.584	231723
625.648	233717
625.712	239203
625.776	242952
625.839	237667
625.903	221114
625.967	188206
626.031	186811
626.095	201501
626.158	228297
626.222	194395
626.286	165951
626.349	158621
626.413	152616
626.477	146692
626.540	145520
626.604	146517
626.668	142595
626.731	140918
626.795	141933
626.858	140593
626.922	137872
626.986	137144
627.049	134700
627.113	138460
627.176	139990
627.240	132993
627.303	132154
627.366	131553
627.430	130215
627.493	133716
627.557	128800
627.620	127729
627.684	130847
627.747	134167
627.810	130182
627.874	121086
627.937	109514
628.000	107856
628.064	112306
628.127	105343
628.190	97597
628.253	96261
628.317	94695
628.380	88610
628.443	86654
628.506	85943
628.569	84233
628.632	81458
628.696	77943
628.759	77136
628.822	76975
628.885	74537
628.948	71774
629.011	70705
629.074	69680
629.137	68364
629.200	66612
629.263	65338
629.326	64478
629.389	64225
629.452	63705
629.515	61536
629.578	59846
629.641	61442
629.704	62363
629.767	61130
629.830	59208
629.892	57973
629.955	57500
630.018	56487
630.081	57803
630.144	58054
630.207	57270
630.269	56425
630.332	55435
630.395	53539
630.458	54152
630.520	51905
630.583	52404
630.646	51965
630.708	52227
630.771	52370
630.834	54212
630.896	53973
630.959	54274
631.021	52950
631.084	52310
631.146	51613
631.209	51451
631.272	51551
631.334	52933
631.397	53160
631.459	52087
631.522	51533
631.584	52998
631.646	53427
631.709	55488
631.771	56462
631.834	55496
631.896	52701
631.958	51950
632.021	52084
632.083	48655
632.145	50099
632.208	48554
632.270	49523
632.332	48689
632.395	48441
632.457	49886
632.519	49454
632.581	47836
632.643	48356
632.706	48865
632.768	47530
632.830	47389
632.892	48699
632.954	49997
633.016	49847
633.078	48380
633.141	48219
633.203	48488
633.265	48348
633.327	47363
633.389	49081
633.451	49683
633.513	49080
633.575	48433
633.637	49373
633.698	48549
633.760	49216
633.822	51164
633.884	53186
633.946	52646
634.008	52699
634.070	53406
634.132	52295
634.193	55218
634.255	55705
634.317	57656
634.379	58721
634.441	55830
634.502	53659
634.564	52380
634.626	49073
634.687	46841
634.749	46034
634.811	44972
634.873	45488
634.934	45607
634.996	44401
635.057	45156
635.119	46030
635.181	46726
635.242	45728
635.304	44969
635.365	47182
635.427	45905
635.488	45104
635.550	45696
635.611	45388
635.673	44696
635.734	46440
635.796	46774
635.857	48622
635.918	49826
635.980	51858
636.041	53283
636.102	55235
636.164	56816
636.225	56932
636.286	54670
636.348	49730
636.409	47451
636.470	45518
636.531	43620
636.593	45901
636.654	44278
636.715	42681
636.776	42944
636.838	43032
636.899	42217
636.960	42242
637.021	41843
637.082	41563
637.143	41237
637.204	39923
637.265	39731
637.326	40891
637.387	40532
637.448	40836
637.509	39877
637.570	40408
637.631	40682
637.692	40327
637.753	39420
637.814	38935
637.875	38627
637.936	39159
637.997	38681
638.058	39412
638.119	37980
638.179	39443
638.240	38849
638.301	38451
638.362	38598
638.423	37521
638.483	37332
638.544	36853
638.605	36739
638.666	37483
638.726	38282
638.787	37636
638.848	37143
638.908	37903
638.969	36291
639.030	34879
639.090	35541
639.151	35660
639.211	36367
639.272	36434
639.332	37389
639.393	36360
639.453	35694
639.514	37121
639.574	35288
639.635	34570
639.695	34352
639.756	32685
639.816	34234
639.877	32998
639.937	33693
639.997	35158
640.058	33612
640.118	33944
640.178	33071
640.239	32806
640.299	33112
640.359	33467
640.420	34251
640.480	34254
640.540	35459
640.600	39064
640.661	38154
640.721	35580
640.781	38315
640.841	39023
640.901	38927
640.961	34059
641.021	33384
641.082	34236
641.142	34231
641.202	34871
641.262	31967
641.322	33063
641.382	32365
641.442	31798
641.502	32754
641.562	32367
641.622	31513
641.682	33597
641.742	33856
641.802	35411
641.861	32569
641.921	31348
641.981	31303
642.041	30380
642.101	29870
642.161	30384
642.221	30930
642.280	29831
642.340	29284
642.400	29540
642.460	31403
642.519	30920
642.579	31102
642.639	31229
642.698	29989
642.758	31762
642.818	31318
642.877	30679
642.937	30816
642.997	32514
643.056	31408
643.116	32037
643.175	30817
643.235	31969
643.294	32471
643.354	33712
643.414	35219
643.473	37204
643.532	42431
643.592	48790
643.651	62841
643.711	84745
643.770	127919
643.830	213135
643.889	509913
643.948	666171
644.008	144790
644.067	55651
644.126	43422
644.186	38841
644.245	35025
644.304	33303
644.363	31610
644.423	31092
644.482	30440
644.541	31610
644.600	32377
644.659	35682
644.719	40637
644.778	47888
644.837	60452
644.896	92316
644.955	179976
645.014	286519
645.073	77170
645.132	38607
645.191	34103
645.250	33111
645.309	32214
645.368	32613
645.427	36208
645.486	42912
645.545	66777
645.604	76796
645.663	34046
645.722	30588
645.781	30946
645.840	32191
645.898	37626
645.957	45085
646.016	56910
646.075	79452
646.134	118601
646.192	202746
646.251	518245
646.310	460830
646.369	86017
646.427	46364
646.486	41445
646.545	33604
646.603	31488
646.662	28945
646.721	27906
646.779	28587
646.838	28133
646.896	30425
646.955	36939
647.014	42710
647.072	59407
647.131	106486
647.189	221313
647.248	76642
647.306	28770
647.365	26171
647.423	23283
647.481	24381
647.540	21710
647.598	23070
647.657	23594
647.715	22854
647.773	22508
647.832	22234
647.890	21665
647.948	20809
648.007	19777
648.065	19804
648.123	19483
648.181	20030
648.240	19405
648.298	20048
648.356	19447
648.414	19526
648.472	18772
648.531	18696
648.589	18853
648.647	18021
648.705	18378
648.763	18212
648.821	18598
648.879	19638
648.937	20484
648.995	22627
649.053	25507
649.111	32407
649.169	42874
649.227	59900
649.285	96320
649.343	199084
649.401	432617
649.459	142516
649.516	35554
649.574	27496
649.632	26062
649.690	30422
649.748	31411
649.806	33012
649.863	45578
649.921	73878
649.979	167379
650.037	77794
650.094	21266
650.152	17099
650.210	16615
650.268	15560
650.325	16120
650.383	17232
650.440	17234
650.498	14684
650.556	12976
650.613	13731
650.671	13688
650.728	13687
650.786	12429
650.843	13860
650.901	15765
650.958	14203
651.016	12372
651.073	11461
651.131	11549
651.188	11922
651.246	11868
651.303	11029
651.360	11523
651.418	10877
651.475	11512
651.532	11411
651.590	11540
651.647	11186
651.704	10719
651.762	11087
651.819	10533
651.876	9604
651.933	9723
651.990	10280
652.048	9619
652.105	9377
652.162	9459
652.219	10289
652.276	9639
652.333	10227
652.390	9699
652.448	9223
652.505	9432
652.562	10255
652.619	10812
652.676	9752
652.733	12130
652.790	11017
652.847	8600
652.904	9605
652.961	8683
653.017	8630
653.074	8540
653.131	9016
653.188	8533
653.245	8460
653.302	9250
653.359	8701
653.415	9416
653.472	9169
653.529	8641
653.586	8883
653.642	9001
653.699	8915
653.756	8272
653.813	8247
653.869	8816
653.926	9269
653.983	8184
654.039	8284
654.096	8417
654.152	8716
654.209	8461
654.266	8073
654.322	7718
654.379	8652
654.435	8268
654.492	8815
654.548	8309
654.605	8087
654.661	9049
654.717	9128
654.774	7907
654.830	8172
654.887	8483
654.943	8421
655.000	8940
655.056	9463
655.112	8926
655.168	7268
655.225	8014
655.281	7329
655.337	8085
655.394	8409
655.450	8274
655.506	7003
655.562	7459
655.618	8478
655.675	7604
655.731	6892
655.787	7374
655.843	8448
655.899	7537
655.955	8480
656.011	7861
656.067	7714
656.123	8666
656.179	7437
656.235	7911
656.291	7699
656.347	7950
656.403	7527
656.459	7482
656.515	7454
656.571	7004
656.627	7852
656.683	7288
656.739	8411
656.795	7857
656.850	8007
656.906	7624
656.962	8598
657.018	8149
657.074	9305
657.129	11168
657.185	12827
657.241	18232
657.297	36484
657.352	19623
657.408	8327
657.464	8884
657.519	7428
657.575	7574
657.630	7931
657.686	7178
657.742	6599
657.797	7240
657.853	7035
657.908	7705
657.964	7688
658.019	7084
658.075	7840
658.130	7802
658.186	6710
658.241	7635
658.297	7114
658.352	6281
658.407	8089
658.463	5848
658.518	7105
658.573	6581
658.629	6322
658.684	6925
658.739	6962
658.795	6824
658.850	6532
658.905	6299
658.960	7300
659.016	6634
659.071	6590
659.126	6905
659.181	6091
659.236	6360
659.291	7654
659.346	7167
659.401	6765
659.457	7320
659.512	8107
659.567	8894
659.622	7469
659.677	6919
659.732	6741
659.787	6621
659.842	6421
659.897	6485
659.952	6556
660.007	6805
660.061	6794
660.116	6150
660.171	6327
660.226	6269
660.281	6246
660.336	6302
660.391	6564
660.445	7423
660.500	6502
660.555	6465
660.610	6422
660.664	6879
660.719	5825
660.774	7088
660.828	6194
660.883	6789
660.938	5550
660.992	6621
661.047	6381
661.101	5487
661.156	6206
661.211	6265
661.265	6228
661.320	6161
661.374	6409
661.429	5612
661.483	7387
661.538	6042
661.592	6442
661.647	7232
661.701	7003
661.755	8614
661.810	6806
661.864	6402
661.919	6145
661.973	7015
662.027	6634
662.081	5881
662.136	6039
662.190	6794
662.244	6147
662.299	6434
662.353	6602
662.407	6417
662.461	5954
662.515	5710
662.569	5745
662.624	5163
662.678	6431
662.732	6042
662.786	6025
662.840	6560
662.894	6656
662.948	5665
663.002	6293
663.056	6086
663.110	5298
663.164	5124
663.218	6561
663.272	6089
663.326	6379
663.380	5813
663.434	6103
663.488	4612
663.542	6035
663.595	5263
663.649	5669
663.703	6645
663.757	6533
663.811	5138
663.864	5324
663.918	6326
663.972	5781
664.026	6286
664.079	5925
664.133	5709
664.187	6392
664.240	6687
664.294	6188
664.348	6142
664.401	6514
664.455	6136
664.508	6174
664.562	5489
664.615	5561
664.669	5462
664.722	6187
664.776	6025
664.829	5968
664.883	5937
664.936	6315
664.990	5762
665.043	6326
665.097	5686
665.150	5714
665.203	5975
665.257	5964
665.310	5389
665.363	6089
665.417	5975
665.470	6684
665.523	6467
665.576	6568
665.630	6241
665.683	5127
665.736	5574
665.789	6364
665.842	5217
665.895	5713
665.949	6009
666.002	5945
666.055	5827
666.108	6571
666.161	6359
666.214	6082
666.267	7262
666.320	6503
666.373	7026
666.426	6307
666.479	6426
666.532	6595
666.585	5002
666.638	6776
666.691	6433
666.744	6882
666.796	6352
666.849	6483
666.902	7551
666.955	7202
667.008	6817
667.060	6766
667.113	6208
667.166	6579
667.219	7073
667.271	7457
667.324	7105
667.377	6802
667.430	7574
667.482	6653
667.535	7843
667.587	6612
667.640	7162
667.693	6326
667.745	6296
667.798	7425
667.850	7349
667.903	6671
667.955	6631
668.008	7159
668.060	7088
668.113	6503
668.165	7091
668.218	6848
668.270	6931
668.322	6333
668.375	6720
668.427	6562
668.479	6233
668.532	6044
668.584	6652
668.636	6717
668.689	6260
668.741	6393
668.793	6968
668.845	6128
668.898	6555
668.950	6162
669.002	6480
669.054	6778
669.106	5703
669.158	6787
669.211	6006
669.263	6533
669.315	7235
669.367	6063
669.419	6431
669.471	6723
669.523	5777
669.575	6530
669.627	6139
669.679	5337
669.731	5763
669.783	6723
669.835	6011
669.886	6076
669.938	6102
669.990	5893
670.042	6201
670.094	6007
670.146	6269
670.197	6726
670.249	6786
670.301	6208
670.353	8075
670.404	9217
670.456	11173
670.508	13474
670.560	17617
670.611	24709
670.663	34311
670.715	53368
670.766	117439
670.818	182469
670.869	61858
670.921	13375
670.972	10411
671.024	8664
671.075	7480
671.127	7143
671.178	5746
671.230	7036
671.281	6577
671.333	7490
671.384	8246
671.436	9486
671.487	11640
671.538	14442
671.590	18918
671.641	25856
671.692	39021
671.744	67677
671.795	124370
671.846	84830
671.897	30461
671.949	15675
672.000	11271
672.051	9361
672.102	8277
672.153	6497
672.204	7094
672.256	6185
672.307	5767
672.358	6301
672.409	5325
672.460	5679
672.511	5089
672.562	4678
672.613	4629
672.664	4801
672.715	4283
672.766	6131
672.817	4206
672.868	4826
672.919	4221
672.970	4148
673.021	4463
673.071	4248
673.122	4544
673.173	4019
673.224	3641
673.275	4467
673.326	4188
673.376	4187
673.427	3967
673.478	4346
673.528	4551
673.579	4919
673.630	4159
673.680	4234
673.731	3917
673.782	4221
673.832	3564
673.883	3945
673.934	3868
673.984	3938
674.035	5115
674.085	4897
674.136	4190
674.186	4976
674.237	3807
674.287	4291
674.338	4482
674.388	4084
674.438	3970
674.489	5051
674.539	3885
674.589	4929
674.640	4863
674.690	4513
674.740	4374
674.791	4488
674.841	3699
674.891	4481
674.942	3845
674.992	3145
675.042	3462
675.092	3897
675.142	4323
675.193	4098
675.243	3825
675.293	3682
675.343	3335
675.393	3656
675.443	4031
675.493	4024
675.543	3156
675.593	3364
675.643	3530
675.693	4142
675.743	3953
675.793	3609
675.843	3518
675.893	3026
675.943	3007
675.993	3372
676.043	3228
676.093	3933
676.142	2706
676.192	2963
676.242	3121
676.292	3957
676.341	3007
676.391	4010
676.441	3198
676.491	2914
676.540	2674
676.590	3620
676.640	2849
676.689	3560
676.739	2397
676.789	2703
676.838	2528
676.888	3210
676.937	2773
676.987	3142
677.037	3047
677.086	3103
677.136	3095
677.185	2547
677.235	3209
677.284	3112
677.333	3559
677.383	2050
677.432	3131
677.482	2736
677.531	2962
677.580	2776
677.630	3323
677.679	2829
677.728	2750
677.778	3173
677.827	3044
677.876	2553
677.925	2201
677.975	3504
678.024	3561
678.073	3601
678.122	3628
678.171	2835
678.220	3644
678.269	2819
678.319	3623
678.368	4160
678.417	3423
678.466	3940
678.515	3420
678.564	2360
678.613	2619
678.662	3320
678.711	2238
678.760	3504
678.809	2935
678.857	3067
678.906	2912
678.955	2878
679.004	2981
679.053	4043
679.102	3111
679.151	3373
679.199	2663
679.248	2821
679.297	2530
679.346	2384
679.394	2951
679.443	2747
679.492	2713
679.540	2762
679.589	2943
679.638	2158
679.686	2786
679.735	2815
679.784	2787
679.832	3190
679.881	3524
679.929	3568
679.978	2243
680.026	2918
680.075	2825
680.123	3052
680.172	3178
680.220	2501
680.268	2373
680.317	2995
680.365	2064
680.414	1624
680.462	2285
680.510	2262
680.559	2010
680.607	2648
680.655	2303
680.703	2814
680.752	2985
680.800	3163
680.848	2010
680.896	2545
680.945	2376
680.993	1990
681.041	2370
681.089	1555
681.137	2662
681.185	2488
681.233	2259
681.258	2552
681.281	2819
681.329	2374
681.377	2468
681.380	2461
681.425	2154
681.473	2453
681.502	2519
681.521	2551
681.569	3773
681.617	2327
681.624	2400
681.665	2771
681.713	2789
681.745	2632
681.761	2543
681.809	2357
681.857	3163
681.867	3016
681.904	2455
681.952	2560
681.989	2125
682.000	1988
682.048	2903
682.096	2267
682.111	2483
682.143	2881
682.191	2870
682.233	3159
682.239	3193
682.286	2991
682.334	2725
682.354	2723
682.382	2721
682.430	2439
682.476	2752
682.477	2749
682.525	3229
682.572	2760
682.598	2835
682.620	2847
682.667	2643
682.715	2655
682.720	2698
682.763	3062
682.810	2309
682.841	2507
682.857	2577
682.905	2596
682.952	2360
682.963	2414
683.000	2565
683.047	2554
683.085	2644
683.095	2654
683.142	2448
683.190	3258
683.206	3104
683.237	2852
683.284	2896
683.328	3288
683.332	3306
683.379	2866
683.426	2913
683.449	2961
683.473	3015
683.521	3151
683.568	3161
683.571	3140
683.615	2753
683.662	3108
683.693	3221
683.709	3253
683.757	2614
683.804	2709
683.814	2706
683.851	2684
683.898	2351
683.936	2071
683.945	2009
683.992	2864
684.039	2924
684.057	2771
684.086	2454
684.133	3340
684.179	2966
684.180	2949
684.227	3181
684.274	3503
684.300	3165
684.321	2856
684.368	2838
684.415	3617
684.422	3559
684.462	3223
684.509	3155
684.543	3319
684.556	3384
684.603	2929
684.649	3244
684.665	3439
684.696	3789
684.743	3268
684.786	3716
684.790	3745
684.837	3954
684.883	3114
684.908	2820
684.930	2539
684.977	3136
685.023	3083
685.029	3150
685.070	3683
685.117	3737
685.150	3861
685.164	3866
685.210	4019
685.257	3747
685.272	3702
685.303	3663
685.350	4066
685.393	4359
685.396	4378
685.443	3779
685.490	3610
685.514	3585
685.536	3513
685.583	4279
685.629	4059
685.636	4009
685.675	3731
685.722	3462
685.757	3478
685.768	3470
685.815	3815
685.861	3594
685.878	3525
685.908	3412
685.954	3637
686.000	4365
686.000	4374
686.047	3657
686.093	4219
686.121	3878
686.139	3711
686.185	4156
686.232	4494
686.242	4538
686.278	4599
686.324	4415
686.363	4723
686.370	4763
686.416	4153
686.463	4122
686.484	4073
686.509	4090
686.555	4169
686.601	4256
686.606	4302
686.647	4612
686.693	3990
686.727	4015
686.739	4014
686.785	3947
686.831	4190
686.848	3987
686.877	3685
686.923	4505
686.969	3692
686.969	3686
687.015	4098
687.061	3368
687.090	3822
687.107	4235
687.153	4602
687.199	4716
687.211	4747
687.245	4658
687.291	4332
687.332	4164
687.336	4157
687.382	4522
687.428	4817
687.453	4829
687.474	4733
687.520	4407
687.565	4659
687.574	4697
687.611	5008
687.657	4482
687.695	4905
687.702	5034
687.748	5609
687.794	5695
687.816	6414
687.839	7255
687.885	7684
687.931	7907
687.937	7948
687.976	6976
688.022	5806
688.058	4992
688.067	4948
688.113	4842
688.158	5308
688.179	5028
688.204	4760
688.249	4952
688.295	4834
688.300	4840
688.340	4822
688.386	5044
688.421	4846
688.431	4783
688.477	4641
688.522	4451
688.542	4525
688.567	4864
688.613	5127
688.658	5652
688.663	5699
688.703	5640
688.749	5369
688.784	5068
688.794	5048
688.839	4978
688.884	5386
688.905	5397
688.930	5388
688.975	5524
689.020	5196
689.026	5217
689.065	5487
689.110	5625
689.146	5582
689.155	5536
689.201	5395
689.246	6013
689.267	5824
689.291	5795
689.336	6021
689.381	6283
689.388	6302
689.426	5956
689.471	5540
689.509	5432
689.516	5499
689.561	5336
689.606	5504
689.630	5793
689.651	5861
689.696	5596
689.741	5047
689.750	5035
689.785	5217
689.830	5681
689.871	5320
689.875	5289
689.920	5544
689.965	5774
689.992	5543
690.010	5400
690.054	5528
690.099	5270
690.112	5304
690.144	5259
690.189	5066
690.233	5011
690.233	5019
690.278	5272
690.323	5451
690.354	5760
690.367	5736
690.412	5177
690.457	4905
690.474	4753
690.501	4898
690.546	5300
690.590	5688
690.595	5735
690.635	5828
690.680	5226
690.716	5192
690.724	5237
690.769	5506
690.813	5902
690.836	5857
690.857	5842
690.902	5872
690.946	6107
690.957	6189
690.991	6836
691.035	7378
691.077	8520
691.080	8633
691.124	10367
691.168	11491
691.198	12023
691.213	11423
691.257	9756
691.301	8287
691.318	7822
691.346	7513
691.390	6271
691.434	5976
691.439	5882
691.478	5722
691.522	5478
691.559	5602
691.567	5658
691.611	5760
691.655	5612
691.680	5695
691.699	5806
691.743	6017
691.787	6180
691.800	6032
691.831	5675
691.875	6304
691.919	5855
691.921	5855
691.964	6110
692.008	6377
692.041	5927
692.052	5775
692.096	5640
692.139	5364
692.162	5383
692.183	5550
692.227	5543
692.271	5904
692.282	5859
692.315	5666
692.359	5452
692.402	5572
692.403	5585
692.447	5970
692.490	5921
692.523	5953
692.534	5971
692.578	6035
692.622	6399
692.643	6396
692.666	6369
692.709	6360
692.753	6285
692.763	6322
692.797	6374
692.840	5990
692.884	6014
692.884	6027
692.928	5938
692.971	5994
693.004	6031
693.015	6052
693.059	6125
693.102	6250
693.124	6193
693.146	6140
693.189	6046
693.233	6018
693.245	6028
693.276	6111
693.320	5991
693.363	6125
693.365	6110
693.407	6357
693.450	6461
693.485	6809
693.493	6813
693.537	6533
693.580	6461
693.605	6547
693.624	6910
693.667	7061
693.710	7923
693.725	8006
693.753	8734
693.797	10396
693.840	12354
693.845	12571
693.883	15960
693.926	18966
693.966	21175
693.970	20812
694.013	17321
694.056	13822
694.086	11325
694.099	10877
694.142	9847
694.185	8267
694.206	7536
694.229	7246
694.272	7110
694.315	6751
694.326	6604
694.358	6550
694.401	6748
694.444	6678
694.446	6668
694.487	6618
694.530	6601
694.566	6278
694.573	6267
694.616	6284
694.659	6360
694.686	6458
694.702	6503
694.745	6593
694.787	6507
694.806	6469
694.830	6556
694.873	6652
694.916	6885
694.926	6900
694.959	6825
695.002	6885
695.044	6751
695.046	6733
695.087	6905
695.130	7051
695.166	7228
695.172	7287
695.215	7448
695.258	7599
695.286	7650
695.301	7635
695.343	7747
695.386	7773
695.406	7746
695.428	7793
695.471	7813
695.514	7897
695.526	7913
695.556	8492
695.599	9489
695.641	10259
695.646	10314
695.684	10746
695.726	11157
695.766	11688
695.769	11665
695.811	10764
695.854	10020
695.886	9470
695.896	9472
695.938	9197
695.981	9087
696.005	9025
696.023	9186
696.065	9516
696.108	9723
696.125	9845
696.150	10075
696.192	10250
696.235	10596
696.245	10642
696.277	10977
696.319	11268
696.361	11714
696.365	11733
696.404	12062
696.446	12119
696.485	12289
696.488	12297
696.530	12069
696.572	11694
696.604	11472
696.614	11547
696.656	11767
696.698	11948
696.724	11968
696.740	11935
696.783	12062
696.825	12007
696.844	11969
696.867	12006
696.909	11927
696.951	11862
696.964	11842
696.992	11977
697.034	12111
697.076	12276
697.083	12251
697.118	12450
697.160	12832
697.202	13159
697.203	13137
697.244	13222
697.286	13354
697.323	13336
697.327	13353
697.369	13337
697.411	13275
697.442	13169
697.453	13164
697.494	13058
697.536	12966
697.562	12844
697.578	12861
697.620	12875
697.661	12880
697.682	12844
697.703	12952
697.744	13163
697.786	13382
697.801	13400
697.828	13653
697.869	14018
697.911	14411
697.921	14479
697.952	14371
697.994	14147
698.035	13965
698.040	13909
698.077	13735
698.118	13478
698.160	13214
698.160	13180
698.201	13716
698.243	14182
698.279	14602
698.284	14682
698.325	15099
698.367	15500
698.399	15775
698.408	15870
698.449	16179
698.491	16434
698.518	16587
698.532	16645
698.573	16654
698.614	16737
698.638	16726
698.656	16839
698.697	17030
698.738	17190
698.757	17242
698.779	17046
698.820	16576
698.862	16119
698.877	15907
698.903	16242
698.944	16726
698.985	17208
698.996	17302
699.026	17231
699.067	17074
699.116	16849
699.235	17325
699.354	15751
699.474	16782
699.593	15190
699.713	15671
699.832	15281
699.951	15229
700.070	16617
700.190	16192
700.309	14705
700.428	14288
700.547	13963
700.667	14228
700.786	13895
700.905	14750
701.024	12898
701.143	13871
701.262	13674
701.381	14282
701.500	13962
701.619	15330
701.738	13914
701.857	14608
701.976	13761
702.095	13302
702.214	13828
702.333	14329
702.452	14104
702.571	14128
702.690	14047
702.809	13738
702.928	14437
703.047	13994
703.165	12632
703.284	14326
703.403	12644
703.522	13214
703.640	12329
703.759	12275
703.878	12465
703.997	11651
704.115	11964
704.234	13063
704.353	11933
704.471	12993
704.590	11646
704.708	11485
704.827	11125
704.946	10727
705.064	10761
705.183	11669
705.301	11701
705.420	12579
705.538	12052
705.656	11290
705.775	9781
705.893	11398
706.012	15555
706.130	16003
706.249	9798
706.367	11072
706.485	10726
706.604	10675
706.722	10100
706.840	10661
706.958	13023
707.077	19298
707.195	12600
707.313	10297
707.431	10139
707.549	9774
707.668	9397
707.786	8511
707.904	9875
708.022	9417
708.140	10460
708.258	10206
708.376	9147
708.494	9995
708.612	8560
708.730	9981
708.848	9743
708.966	9716
709.084	10178
709.202	9536
709.320	9315
709.438	8458
709.556	9347
709.674	9725
709.791	8682
709.909	8477
710.027	9230
710.145	8539
710.263	8275
710.380	8189
710.498	8594
710.616	8053
710.733	8084
710.851	8016
710.969	9001
711.086	9074
711.204	8037
711.322	8227
711.439	8953
711.557	9027
711.674	7288
711.792	8440
711.909	7258
712.027	8255
712.144	7770
712.262	7539
712.379	7005
712.497	8601
712.614	8008
712.732	8300
712.849	8635
712.966	7438
713.084	8790
713.201	7477
713.318	7310
713.436	8403
713.553	7903
713.670	7317
713.787	8524
713.905	8159
714.022	6920
714.139	9139
714.256	8106
714.373	10286
714.490	15814
714.608	32390
714.725	91559
714.842	378304
714.959	216879
715.076	20604
715.193	11258
715.310	10226
715.427	9229
715.544	6919
715.661	7267
715.778	8059
715.895	7449
716.011	7742
716.128	6379
716.245	7314
716.362	7026
716.479	7033
716.596	6400
716.713	6884
716.829	6980
716.946	6839
717.063	6500
717.180	6105
717.296	5172
717.413	6053
717.530	5434
717.646	6176
717.763	5381
717.880	5716
717.996	5150
718.113	5778
718.229	5444
718.346	5107
718.462	5015
718.579	5254
718.695	5899
718.812	6660
718.928	4273
719.045	6257
719.161	4093
719.277	4817
719.394	5552
719.510	6240
719.626	5777
719.743	7008
719.859	7828
719.975	14730
720.092	32198
720.208	142455
720.324	200897
720.440	18661
720.557	7343
720.673	7162
720.789	6525
720.905	5798
721.021	6042
721.137	5945
721.253	5083
721.369	4534
721.486	4988
721.602	5525
721.718	4860
721.834	5253
721.950	4928
722.066	3988
722.181	4737
722.297	4501
722.413	4933
722.529	4132
722.645	4947
722.761	4474
722.877	4304
722.993	5310
723.108	4753
723.224	6592
723.340	4501
723.456	4638
723.571	4491
723.687	4139
723.803	4306
723.918	4527
724.034	4344
724.150	4493
724.265	4139
724.381	4496
724.497	3860
724.612	4931
724.728	4541
724.843	4348
724.959	3964
725.074	3828
725.190	5609
725.305	4572
725.421	4441
725.536	4396
725.651	4016
725.767	5093
725.882	4506
725.997	4552
726.113	4048
726.228	3893
726.343	3521
726.459	4115
726.574	4556
726.689	4612
726.804	4785
726.920	3711
727.035	4236
727.150	3917
727.265	3370
727.380	4787
727.495	4106
727.610	3850
727.725	3238
727.841	3441
727.956	4134
728.071	7762
728.186	4461
728.301	3615
728.416	3731
728.531	4037
728.645	3454
728.760	3582
728.875	3642
728.990	3814
729.105	2898
729.220	3500
729.335	3811
729.449	3922
729.564	3837
729.679	3199
729.794	3256
729.908	3664
730.023	2640
730.138	3991
730.253	3642
730.367	3578
730.482	3833
730.596	3459
730.711	4055
730.826	5144
730.940	8080
731.055	7671
731.169	4752
731.284	5054
731.398	4748
731.513	5455
731.627	5771
731.742	6223
731.856	7802
731.970	9673
732.085	8344
732.199	10117
732.313	14301
732.428	25998
732.542	72506
732.656	201610
732.771	80411
732.885	17679
732.999	13037
733.113	13688
733.227	13516
733.342	13646
733.456	13086
733.570	13605
733.684	12801
733.798	12079
733.912	11316
734.026	11906
734.140	11856
734.254	12234
734.368	11420
734.482	11959
734.596	12002
734.710	12398
734.824	10903
734.938	11027
735.052	11974
735.166	11488
735.280	11096
735.393	10596
735.507	9890
735.621	11302
735.735	9976
735.849	9806
735.962	10339
736.076	10040
736.190	10418
736.303	9840
736.417	10278
736.531	9882
736.644	9690
736.758	9925
736.872	10007
736.985	9456
737.099	10367
737.212	8943
737.326	9079
737.439	8804
737.553	10223
737.666	9052
737.780	9096
737.893	8507
738.007	9667
738.120	9197
738.233	8891
738.347	8959
738.460	9090
738.573	8365
738.687	9041
738.800	9172
738.913	8441
739.026	8891
739.140	8537
739.253	8182
739.366	7930
739.479	7603
739.592	8057
739.705	8483
739.818	7996
739.932	7960
740.045	7963
740.158	8014
740.271	7689
740.384	8487
740.497	7584
740.610	7448
740.723	7783
740.836	7479
740.949	6654
741.062	7143
741.174	8441
741.287	6707
741.400	7011
741.513	7137
741.626	5694
741.739	7634
741.851	6530
741.964	6555
742.077	6664
742.189	7408
742.302	6234
742.415	6608
742.527	6479
742.640	6921
742.753	6972
742.865	4947
742.978	6965
743.090	6038
743.203	5967
743.316	6662
743.428	5515
743.541	6399
743.653	6333
743.766	6010
743.878	6083
743.990	6581
744.103	5554
744.215	6108
744.327	5452
744.440	5586
744.552	7133
744.664	5729
744.777	4984
744.889	7307
745.001	5280
745.113	5024
745.226	6419
745.338	6027
745.450	5401
745.562	6261
745.674	5293
745.786	4856
745.898	6186
746.010	5509
746.122	5214
746.234	5806
746.347	5127
746.459	5821
746.570	5079
746.682	5080
746.794	6324
746.906	6395
747.018	3892
747.130	5796
747.242	5983
747.354	4301
747.466	5408
747.577	5287
747.689	4249
747.801	5358
747.913	4574
748.024	4247
748.136	4001
748.248	5392
748.359	4654
748.471	5193
748.583	5155
748.694	3773
748.806	4989
748.918	4940
749.029	4798
749.141	4228
749.252	4992
749.364	5221
749.475	4599
749.587	5165
749.698	3631
749.809	4366
749.921	4403
750.032	5719
750.144	4449
750.255	3819
750.366	4004
750.478	4817
750.589	3742
750.700	4195
750.811	3792
750.923	3953
751.034	4094
751.145	4484
751.256	5059
751.367	4660
751.479	3786
751.590	4302
751.701	3489
751.812	3280
751.923	4270
752.034	3678
752.145	4161
752.256	4148
752.367	4337
752.478	3913
752.589	4294
752.700	3927
752.811	3654
752.922	3259
753.032	3782
753.143	3428
753.254	3650
753.365	3574
753.476	3968
753.586	4121
753.697	3951
753.808	3677
753.919	2801
754.029	4108
754.140	4108
754.251	3669
754.361	3583
754.472	3734
754.582	3192
754.693	3649
754.804	3306
754.914	3737
755.025	3181
755.135	3663
755.246	3578
755.356	4466
755.466	3578
755.577	2715
755.687	4050
755.798	3407
755.908	3365
756.018	3182
756.129	3656
756.239	3654
756.349	3101
756.460	3870
756.570	2956
756.680	4101
756.790	3072
756.900	3967
757.011	4114
757.121	3439
757.231	2647
757.341	3844
757.451	2341
757.561	3600
757.671	3050
757.781	4238
757.891	4540
758.001	3242
758.111	3327
758.221	3246
758.331	3445
758.441	3417
758.551	3702
758.661	3756
758.771	3334
758.880	4391
758.990	3671
759.100	3063
759.210	3285
759.320	4150
759.429	3908
759.539	3708
759.649	3549
759.758	3937
759.868	5145
759.978	4452
760.087	4535
760.197	4848
760.307	4805
760.416	4623
760.526	3186
760.635	5133
760.745	3730
760.854	5321
760.964	4567
761.073	5918
761.182	5650
761.292	5232
761.401	4600
761.511	4070
761.620	4587
761.729	3890
761.839	3348
761.948	3870
762.057	3208
762.166	3542
762.276	4002
762.385	3742
762.494	3941
762.603	3200
762.712	3330
762.822	4147
762.931	3863
763.040	3447
763.149	3608
763.258	4482
763.367	4117
763.476	3979
763.585	5096
763.694	4530
763.803	4209
763.912	4395
764.021	4516
764.130	4373
764.238	4137
764.347	5498
764.456	5501
764.565	5411
764.674	5851
764.783	5939
764.891	5400
765.000	6889
765.109	7125
765.217	8475
765.326	8674
765.435	10556
765.543	13436
765.652	14710
765.761	18521
765.869	24528
765.978	35775
766.086	55616
766.195	96141
766.303	187382
766.412	380607
766.520	529115
766.629	464375
766.737	253481
766.846	114481
766.954	66771
767.062	44536
767.171	31843
767.279	25884
767.387	19461
767.496	15415
767.604	13830
767.712	12176
767.820	10682
767.928	10816
768.037	9439
768.145	8776
768.253	9237
768.361	7266
768.469	7656
768.577	7610
768.685	8326
768.793	8912
768.901	8827
769.009	9532
769.117	10833
769.225	12093
769.333	16885
769.441	23396
769.549	40117
769.657	73652
769.765	161490
769.873	366379
769.981	444751
770.088	244132
770.196	91836
770.304	45283
770.412	30706
770.519	21837
770.627	17258
770.735	14030
770.842	11329
770.950	10256
771.058	9533
771.165	8489
771.273	9758
771.380	9001
771.488	9504
771.595	10629
771.703	12066
771.810	10974
771.918	8707
772.025	10088
772.133	12035
772.240	13057
772.348	12130
772.455	13189
772.562	12144
772.670	11527
772.777	12249
772.884	11002
772.991	11554
773.099	10935
773.206	11555
773.313	10809
773.420	10356
773.528	10227
773.635	10279
773.742	10041
773.849	11170
773.956	9316
774.063	10268
774.170	8899
774.277	10627
774.384	9957
774.491	8984
774.598	8929
774.705	10247
774.812	9163
774.919	9172
775.026	8728
775.133	7989
775.239	9107
775.346	8390
775.453	9377
775.560	9186
775.667	8682
775.773	9200
775.880	8019
775.987	8341
776.093	8098
776.200	8560
776.307	8600
776.413	6372
776.520	6366
776.627	9490
776.733	7534
776.840	7144
776.946	7755
777.053	9269
777.159	6918
777.266	7020
777.372	6756
777.478	6403
777.585	8332
777.691	7371
777.798	5941
777.904	7992
778.010	5959
778.117	6850
778.223	7200
778.329	6256
778.435	6993
778.542	5916
778.648	7346
778.754	5681
778.860	6199
778.966	7481
779.072	6819
779.178	6547
779.284	6426
779.391	5320
779.497	7105
779.603	6972
779.708	6692
779.815	8272
779.920	11523
780.026	35208
780.132	46679
780.238	9567
780.344	6259
780.450	4602
780.556	6787
780.661	4952
780.767	5760
780.873	6249
780.979	3723
781.085	4793
781.190	6356
781.296	4934
781.402	4847
781.507	5399
781.613	4998
781.719	3542
781.824	5009
781.930	6103
782.035	3511
782.141	4976
782.246	5598
782.352	3805
782.457	4534
782.563	4851
782.668	4720
782.773	5146
782.879	4395
782.984	4414
783.090	4923
783.195	4415
783.300	5110
783.405	4952
783.511	3938
783.616	4476
783.721	4511
783.826	4996
783.932	3859
784.037	3886
784.142	4829
784.247	5490
784.352	3680
784.457	4660
784.562	3166
784.667	4477
784.772	4309
784.877	3612
784.982	3108
785.087	5105
785.192	4317
785.297	4123
785.402	3662
785.507	3831
785.611	4467
785.716	3908
785.821	3366
785.926	4161
786.031	4068
786.135	3913
786.240	3264
786.345	3644
786.450	2870
786.554	2756
786.659	3701
786.763	2918
786.868	3303
786.973	4048
787.077	3378
787.182	2399
787.286	2602
787.391	4593
787.495	4380
787.600	2870
787.704	2518
787.809	3651
787.913	3971
788.017	3311
788.122	3378
788.226	3771
788.330	2491
788.435	2838
788.539	3228
788.643	4391
788.747	2898
788.852	2015
788.956	3422
789.060	2623
789.164	2974
789.268	3428
789.372	3549
789.476	3577
789.580	3393
789.684	2466
789.788	1884
789.892	3473
789.996	3170
790.100	2336
790.204	2436
790.308	2968
790.412	3690
790.516	3043
790.620	2543
790.724	3623
790.828	3496
790.931	2509
791.035	2017
791.139	2686
791.242	2490
791.346	3022
791.450	2738
791.554	2847
791.657	1853
791.761	2222
791.864	1508
791.968	2708
792.072	2802
792.175	2963
792.279	1517
792.382	1841
792.486	1512
792.589	1441
792.693	1851
792.796	2526
792.899	1686
793.003	2172
793.106	2642
793.209	2527
793.313	1897
793.416	1731
793.519	1156
793.623	1624
793.726	3269
793.829	2994
793.932	2092
794.035	669
794.138	1720
794.242	2994
794.345	2867
794.448	2194
794.551	2406
794.654	5948
794.757	14974
794.860	22837
794.963	3289
795.066	2615
795.169	1992
795.272	1644
795.375	2055
795.477	2700
795.580	1328
795.683	990
795.786	1784
795.889	2358
795.991	1995
796.094	1119
796.197	1581
796.300	2241
796.402	2069
796.505	1943
796.608	1231
796.710	883
796.813	1033
796.915	2952
797.018	1403
797.120	1994
797.223	1650
797.326	1846
797.428	1710
797.530	1316
797.633	1255
797.735	1011
797.838	1829
797.940	1668
798.042	2501
798.145	1725
798.247	1278
798.349	1910
798.452	1656
798.554	1427
798.656	1509
798.758	1471
798.860	1635
798.962	861
799.065	1355
799.167	1174
799.269	1493
799.371	922
799.473	1689
799.575	2968
799.677	1973
799.779	1973
799.881	866
799.983	1446
800.085	1732
800.187	1818
800.289	1497
800.390	677
800.492	1539
800.594	1840
800.696	1132
800.798	1162
800.899	484
801.001	1902
801.103	1851
801.205	1171
801.306	1635
801.408	1260
801.509	1163
801.611	1316
801.713	1772
801.814	1462
801.916	696
802.017	73
802.119	1077
802.220	1244
802.322	438
802.423	1785
802.525	944
802.626	1016
802.727	1064
802.829	1308
802.930	1034
803.031	958
803.133	1059
803.234	517
803.335	1514
803.436	1482
803.538	962
803.639	1250
803.740	711
803.841	744
803.942	1597
804.043	1506
804.144	1057
804.245	1038
804.346	432
804.447	1143
804.548	1020
804.649	701
804.750	1147
804.851	559
804.952	136
805.053	707
805.154	475
805.255	759
805.355	1570
805.456	156
805.557	1029
805.658	1150
805.758	1230
805.859	1185
805.960	954
806.061	759
806.161	592
806.262	1096
806.362	532
806.463	556
806.564	521
806.664	741
806.765	1433
806.865	1112
806.966	449
807.066	722
807.166	884
807.267	1229
807.367	779
807.468	1370
807.568	1176
807.668	962
807.769	687
807.869	987
807.969	1025
808.069	865
808.170	195
808.270	966
808.370	866
808.470	857
808.570	380
808.670	1061
808.770	966
808.870	678
808.970	1050
809.070	1522
809.170	935
809.271	204
809.370	1257
809.470	1403
809.570	812
809.670	533
809.770	-32
809.870	1052
809.970	558
810.070	1328
810.169	918
810.269	159
810.369	1021
810.469	1230
810.568	66
810.668	1015
810.768	789
810.867	664
810.967	818
811.066	1105
811.166	258
811.265	1323
811.365	964
811.464	1105
811.564	1004
811.663	697
811.763	947
811.862	1293
811.962	862
812.061	439
812.160	982
812.260	661
812.359	-265
812.458	502
812.557	578
812.657	1439
812.756	898
812.855	833
812.954	544
813.053	787
813.153	792
813.252	1053
813.351	831
813.450	812
813.549	1330
813.648	314
813.747	640
813.846	1352
813.945	1191
814.044	1138
814.143	912
814.242	1501
814.341	660
814.439	1154
814.538	351
814.637	915
814.736	1464
814.835	1335
814.933	1365
815.032	1894
815.131	2128
815.229	3362
815.328	6430
815.427	7992
815.525	5371
815.624	6171
815.722	4952
815.821	4868
815.919	5245
816.018	5609
816.116	5998
816.215	5625
816.313	5421
816.412	6431
816.510	7807
816.609	7439
816.707	6943
816.805	7928
816.904	6779
817.002	6895
817.100	7139
817.198	7587
817.296	7800
817.395	7370
817.493	6877
817.591	6427
817.689	6728
817.787	7650
817.885	8261
817.983	9394
818.081	13039
818.179	22142
818.277	43271
818.375	94299
818.473	61963
818.571	16554
818.669	9361
818.767	8923
818.865	8707
818.963	8528
819.061	8821
819.158	13155
819.256	18644
819.354	39113
819.452	81358
819.549	155596
819.647	76419
819.745	19272
819.842	10051
819.940	8694
820.038	8193
820.135	6661
820.233	5968
820.330	6616
820.428	6302
820.525	5627
820.623	5710
820.720	4736
820.818	5233
820.915	5831
821.012	5534
821.110	4140
821.207	4887
821.304	5555
821.402	5267
821.499	5863
821.596	4846
821.693	4581
821.791	4529
821.888	5547
821.985	4804
822.082	5662
822.179	4348
822.276	5057
822.373	5025
822.470	2964
822.567	4382
822.664	4816
822.761	3661
822.858	3839
822.955	4871
823.052	4820
823.149	3049
823.246	3828
823.343	3703
823.440	3254
823.536	3038
823.633	4581
823.730	4108
823.827	2967
823.923	3719
824.020	4696
824.117	3526
824.213	4648
824.310	4566
824.407	3354
824.503	2832
824.600	4709
824.696	2818
824.793	3156
824.889	4196
824.986	4762
825.082	3034
825.179	2122
825.275	2875
825.371	3336
825.468	4194
825.564	2670
825.660	1889
825.757	3391
825.853	4755
825.949	3406
826.045	2937
826.142	2461
826.238	3218
826.334	4394
826.430	3557
826.526	3413
826.622	1459
826.718	2050
826.814	2757
826.910	4113
827.006	2378
827.102	801
827.198	2851
827.294	3125
827.390	3816
827.486	3673
827.582	1829
827.678	2258
827.774	2636
827.869	3976
827.965	2352
828.061	2156
828.157	2259
828.252	3491
828.348	3107
828.444	2798
828.539	2271
828.635	2830
828.731	3368
828.826	1950
828.922	2591
829.017	3413
829.113	3943
829.208	2183
829.304	1311
829.399	2390
829.495	3100
829.590	3213
829.685	1899
829.781	2607
829.876	2728
829.971	3276
830.066	587
830.162	2203
830.257	1638
830.352	4392
830.447	2470
830.543	1446
830.638	1655
830.733	3050
830.828	3293
830.923	2216
831.018	1750
831.113	2288
831.208	3384
831.303	1739
831.398	1567
831.493	1744
831.588	2604
831.683	3841
831.778	2348
831.873	532
831.967	2028
832.062	2360
832.157	2503
832.252	2882
832.346	1893
832.441	2084
832.536	2364
832.631	2417
832.725	2616
832.820	1899
832.914	1410
833.009	2096
833.104	1549
833.198	1588
833.293	737
833.387	2230
833.482	2246
833.576	1749
833.670	2070
833.765	1499
833.859	1437
833.954	2529
834.048	2696
834.142	2495
834.237	1690
834.331	405
834.425	1586
834.519	1694
834.613	2091
834.708	917
834.802	935
834.896	1806
834.990	2110
835.084	2339
835.178	545
835.272	877
835.366	612
835.460	2660
835.554	2075
835.648	1529
835.742	331
835.836	978
835.930	545
836.024	2518
836.117	1656
836.211	1411
836.305	2304
836.399	1952
836.493	1010
836.586	1375
836.680	1395
836.774	1918
836.867	1142
836.961	846
837.055	1112
837.148	1259
837.242	748
837.335	1320
837.429	1084
837.522	1358
837.616	1327
837.709	550
837.803	590
837.896	712
837.989	541
838.083	1528
838.176	699
838.269	871
838.363	681
838.456	1579
838.549	1746
838.642	890
838.735	1152
838.829	1513
838.922	1488
839.015	1472
839.108	1451
839.201	1262
839.294	1203
839.387	1319
839.480	110
839.573	965
839.666	1054
839.759	575
839.852	1135
839.945	1342
840.038	1170
840.131	537
840.223	606
840.316	567
840.409	1416
840.502	1469
840.594	1786
840.687	520
840.780	626
840.873	574
840.965	517
841.058	935
841.150	1471
841.243	1489
841.336	926
841.428	405
841.521	-259
841.613	1257
841.706	988
841.798	390
841.890	823
841.983	599
842.075	972
842.167	-245
842.260	613
842.352	822
842.444	1060
842.537	1614
842.629	372
842.721	175
842.813	-420
842.905	877
842.997	910
843.090	634
843.182	872
843.274	733
843.366	222
843.458	487
843.550	1021
843.642	790
843.734	342
843.826	712
843.918	279
844.009	896
844.101	519
844.193	131
844.285	131
844.377	921
844.469	564
844.560	316
844.652	-133
844.744	-8
844.835	227
844.927	-318
845.019	928
845.110	1439
845.202	1012
845.293	82
845.385	347
845.476	272
845.568	33
845.659	437
845.751	-80
845.842	148
845.934	-402
846.025	521
846.116	550
846.208	-57
846.299	266
846.390	1059
846.482	62
846.573	722
846.664	207
846.755	863
846.846	718
846.937	594
847.029	487
847.120	33
847.211	583
847.302	699
847.393	397
847.484	943
847.575	-262
847.666	471
847.757	69
847.847	342
847.938	242
848.029	562
848.120	127
848.211	172
848.302	588
848.392	392
848.483	122
848.574	1341
848.664	-517
848.755	918
848.846	-63
848.936	434
849.027	877
849.118	166
849.208	274
849.299	559
849.389	659
849.480	2577
849.570	4148
849.661	8751
849.751	15245
849.841	24141
849.932	7938
850.022	1022
850.112	1310
850.203	261
850.293	701
850.383	-24
850.474	-173
850.564	726
850.654	28
850.744	-43
850.834	429
850.924	126
851.014	-114
851.104	936
851.194	-57
851.284	9
851.374	-312
851.464	1286
851.554	-86
851.644	403
851.734	483
851.824	258
851.914	458
852.004	-186
852.094	638
852.183	78
852.273	166
852.363	569
852.452	-931
852.542	94
852.632	-377
852.721	111
852.811	-34
852.901	355
852.990	-382
853.080	390
853.169	326
853.259	792
853.348	427
853.438	564
853.527	942
853.617	1640
853.706	3322
853.795	6479
853.885	12128
853.974	24310
854.063	41155
854.152	69825
854.242	99425
854.331	35972
854.420	7486
854.509	2779
854.598	1265
854.687	2495
854.777	1271
854.866	669
854.955	612
855.044	187
855.133	372
855.222	615
855.311	-676
855.400	-55
855.488	-233
855.577	-568
855.666	-45
855.755	758
855.844	129
855.933	497
856.021	109
856.110	366
856.199	494
856.288	106
856.376	-314
856.465	-315
856.554	-100
856.642	0
856.731	251
856.819	573
856.908	350
856.996	417
857.085	-332
857.173	744
857.262	-344
857.350	272
857.438	-87
857.527	671
857.615	-1019
857.703	708
857.792	114
857.880	-23
857.968	-272
858.056	268
858.145	-110
858.233	938
858.321	369
858.409	368
858.497	-491
858.585	-221
858.673	-721
858.761	-48
858.849	-57
858.937	89
859.025	26
859.113	-61
859.201	-638
859.289	463
859.377	484
859.465	356
859.552	84
859.640	-1004
859.728	-106
859.816	707
859.903	-381
859.991	-295
860.079	-136
860.166	1041
860.254	-466
860.342	439
860.429	-470
860.517	327
860.604	-608
860.692	146
860.779	-811
860.867	-599
860.954	-181
861.042	245
861.129	274
861.216	226
861.304	216
861.391	469
861.478	86
861.565	359
861.653	303
861.740	-378
861.827	-134
861.914	430
862.001	-310
862.089	85
862.176	80
862.263	-74
862.350	86
862.437	-648
862.524	-792
862.611	543
862.698	275
862.785	620
862.871	318
862.958	165
863.045	888
863.132	492
863.219	62
863.306	136
863.392	351
863.479	822
863.566	-77
863.652	937
863.739	-332
863.826	442
863.912	127
863.999	-320
864.086	751
864.172	267
864.259	910
864.345	799
864.432	953
864.518	948
864.604	738
864.691	747
864.777	940
864.863	1371
864.950	2401
865.036	3255
865.122	3826
865.209	7947
865.295	7660
865.381	6689
865.467	5338
865.553	6041
865.639	6325
865.726	8284
865.812	10869
865.898	17847
865.984	27176
866.070	35317
866.156	61823
866.242	64159
866.328	21101
866.414	9079
866.499	6056
866.585	5631
866.671	5809
866.757	5756
866.843	5449
866.928	5902
867.014	5506
867.100	5753
867.186	4790
867.271	5384
867.357	4988
867.442	4340
867.528	5115
867.614	5253
867.699	4745
867.785	4915
867.870	5171
867.956	4915
868.041	5493
868.127	4784
868.212	4551
868.297	4927
868.383	4058
868.468	5139
868.553	4437
868.639	5765
868.724	4779
868.809	5956
868.894	5117
868.979	3785
869.065	4085
869.150	3947
869.235	3138
869.320	4559
869.405	3686
869.490	3838
869.575	4098
869.660	4661
869.745	2515
869.830	4835
869.915	4955
870.000	3310
870.085	3461
870.169	2847
870.254	3683
870.339	4909
870.424	2643
870.509	3638
870.593	3405
870.678	4826
870.763	4381
870.847	3515
870.932	2160
871.016	5111
871.101	4064
871.186	3091
871.270	3698
871.355	4983
871.439	2234
871.523	3078
871.608	4098
871.692	3280
871.777	2423
871.861	3928
871.945	3087
872.030	3643
872.114	3714
872.198	3233
872.282	2763
872.367	3446
872.451	2919
872.535	2912
872.619	3140
872.703	3929
872.787	2759
872.871	3955
872.955	3142
873.039	3056
873.123	1552
873.207	4254
873.291	3618
873.375	2175
873.459	2148
873.543	4189
873.627	2998
873.711	2623
873.794	2484
873.878	3339
873.962	3207
874.045	1699
874.129	2119
874.137	2189
874.213	2883
874.245	2887
874.296	2902
874.352	2454
874.380	2223
874.460	2038
874.464	2031
874.547	2843
874.568	2614
874.631	1940
874.676	2870
874.714	3632
874.784	3029
874.798	2906
874.881	4580
874.892	4311
874.965	2510
874.999	2498
875.048	2481
875.107	2428
875.131	2379
875.215	3135
875.215	3134
875.298	1417
875.323	1548
875.381	1986
875.430	2263
875.465	2412
875.538	3666
875.548	3820
875.631	3036
875.646	2925
875.714	2484
875.753	2319
875.798	2186
875.861	2473
875.881	2518
875.964	2790
875.968	2759
876.047	2313
876.076	2238
876.130	2159
876.183	2697
876.213	2969
876.291	2801
876.296	2788
876.379	3726
876.398	3648
876.462	3254
876.506	2604
876.545	2100
876.613	1633
876.628	1554
876.711	2733
876.721	2775
876.794	3036
876.828	2914
876.877	2747
876.935	3356
876.960	3548
877.043	2066
877.043	2065
877.125	2504
877.150	2471
877.208	2356
877.258	3135
877.291	3506
877.365	2641
877.374	2572
877.456	2258
877.472	2302
877.539	2396
877.579	2349
877.622	2551
877.687	3409
877.704	3492
877.787	2909
877.794	2863
877.869	2952
877.901	3172
877.952	3406
878.008	3751
878.034	3711
878.115	2312
878.117	2300
878.199	2529
878.222	2540
878.282	2609
878.329	3170
878.364	3614
878.437	3952
878.447	3965
878.529	4005
878.544	3826
878.611	2512
878.651	2104
878.694	2283
878.758	3242
878.776	3440
878.858	3814
878.865	3777
878.941	3228
878.972	3295
879.023	3176
879.078	2578
879.105	2592
879.185	3590
879.187	3612
879.269	4047
879.292	4016
879.351	3744
879.399	3939
879.433	3835
879.506	3152
879.516	3177
879.598	3434
879.613	3570
879.680	3667
879.720	3305
879.762	3363
879.827	4223
879.844	4281
879.926	3203
879.933	3186
880.007	3179
880.040	3347
880.089	3760
880.147	3622
880.171	3816
880.253	4753
880.254	4753
880.335	6209
880.360	6496
880.417	8185
880.467	9571
880.499	12277
880.574	19722
880.580	19780
880.662	18872
880.680	18155
880.744	10606
880.787	5957
880.825	5034
880.893	3457
880.907	3351
880.989	4195
881.000	4124
881.070	3445
881.106	3376
881.152	3740
881.213	4012
881.233	3832
881.315	3365
881.319	3295
881.396	3462
881.426	3785
881.478	3874
881.532	3508
881.559	3758
881.639	5927
881.641	5936
881.722	3892
881.745	3563
881.803	3595
881.852	3430
881.885	3681
881.958	4711
881.966	4698
882.047	3923
882.064	3827
882.129	4215
882.171	4376
882.210	4294
882.277	4126
882.291	4188
882.372	4232
882.383	4285
882.454	4949
882.489	5150
882.535	4968
882.596	4924
882.616	5052
882.697	5586
882.702	5559
882.778	4630
882.808	4341
882.859	3645
882.914	3108
882.940	3270
883.020	3456
883.021	3468
883.102	3904
883.127	4011
883.183	4530
883.233	5453
883.264	5859
883.339	5571
883.345	5418
883.426	3526
883.445	3067
883.507	2869
883.551	2974
883.587	3514
883.657	4140
883.668	4268
883.749	5453
883.763	5622
883.830	5339
883.869	4841
883.910	3756
883.975	2545
883.991	2752
884.072	3993
884.081	4061
884.152	4280
884.187	4525
884.233	5302
884.292	6318
884.314	6253
884.394	5207
884.398	5144
884.475	3026
884.504	2382
884.555	2513
884.610	2423
884.636	2516
884.716	3230
884.716	3250
884.797	4518
884.821	5026
884.877	5954
884.927	6293
884.958	5870
885.033	4682
885.038	4597
885.118	3097
885.139	2833
885.199	3027
885.244	2879
885.279	3167
885.350	3962
885.359	4154
885.439	5738
885.456	6009
885.520	6265
885.561	6290
885.600	5104
885.667	3300
885.680	3527
885.760	4786
885.773	4998
885.840	5042
885.878	4792
885.920	4161
885.984	3402
886.000	3598
886.080	4715
886.089	4793
886.160	4878
886.195	4950
886.240	5548
886.300	6316
886.320	6071
886.400	4752
886.406	4668
886.480	5170
886.511	5219
886.560	4639
886.616	4157
886.640	4431
886.720	5204
886.722	5207
886.800	4572
886.827	4338
886.879	4567
886.932	4624
886.959	5008
887.038	6319
887.039	6335
887.119	5926
887.143	5800
887.198	5169
887.248	4627
887.278	4776
887.354	4848
887.358	4878
887.437	5435
887.459	5519
887.517	5421
887.564	5315
887.596	5364
887.669	5431
887.676	5317
887.755	3728
887.774	3313
887.835	3439
887.880	3580
887.914	3818
887.985	4212
887.994	4360
888.073	5548
888.090	5796
888.153	6987
888.195	7726
888.232	7280
888.300	6280
888.311	6169
888.391	5324
888.405	5150
888.470	5147
888.510	5146
888.549	4634
888.615	3667
888.628	3873
888.708	5150
888.720	5332
888.787	6529
888.825	7124
888.866	6107
888.930	4531
888.945	4395
889.024	3589
889.035	3474
889.103	4849
889.140	5580
889.182	5805
889.245	6002
889.261	5811
889.340	4903
889.349	4779
889.419	5347
889.454	5611
889.498	5123
889.559	4413
889.577	4541
889.656	5051
889.664	5089
889.735	6389
889.768	6977
889.814	6347
889.873	5464
889.978	6201
890.083	5152
890.187	5733
890.292	6339
890.397	4294
890.501	5580
890.606	4351
890.710	4384
890.815	5477
890.919	6650
891.024	5781
891.128	5743
891.233	4091
891.337	4418
891.442	7122
891.546	5943
891.650	5283
891.755	4763
891.859	5268
891.963	6844
892.068	6772
892.172	5241
892.276	3473
892.380	3655
892.484	5508
892.589	7683
892.693	6229
892.797	4370
892.901	2947
893.005	4079
893.109	5400
893.213	6624
893.317	6530
893.421	4389
893.525	4204
893.629	3124
893.733	5204
893.837	5859
893.941	4666
894.045	4546
894.148	2438
894.252	3968
894.356	4792
894.460	6896
894.564	5936
894.667	5002
894.771	3354
894.875	2955
894.978	3715
895.082	4921
895.186	5097
895.289	5321
895.393	4215
895.496	5000
895.600	4910
895.703	3178
895.807	3455
895.910	4423
896.014	4088
896.117	5244
896.221	3647
896.324	5841
896.427	4094
896.531	2739
896.634	3923
896.737	4241
896.840	3969
896.944	5287
897.047	5715
897.150	5698
897.253	4250
897.356	3364
897.460	2843
897.563	2821
897.666	4307
897.769	7204
897.872	4572
897.975	2944
898.078	3760
898.181	3884
898.284	3511
898.387	4280
898.490	6329
898.593	4836
898.695	2713
898.798	3265
898.901	4211
899.004	3890
899.107	3807
899.209	3651
899.312	5241
899.415	5488
899.518	2784
899.620	2542
899.723	3514
899.826	4662
899.928	4518
900.031	3766
900.133	5182
900.236	5526
900.338	3457
900.441	2433
900.543	2694
900.646	4309
900.748	4116
900.851	4098
900.953	4692
901.055	2299
901.158	3308
901.260	3844
901.362	2555
901.465	2123
901.567	3162
901.669	4924
901.771	4042
901.873	3044
901.976	3231
902.078	4021
902.180	3619
902.282	2263
902.384	2809
902.486	4453
902.588	5254
902.690	3584
902.792	2565
902.894	2381
902.996	3886
903.098	3887
903.200	3478
903.302	2612
903.404	2569
903.505	2883
903.607	3161
903.709	2932
903.811	5241
903.913	4108
904.014	3216
904.116	1641
904.218	2536
904.319	2734
904.421	3876
904.523	6161
904.624	3127
904.726	3049
904.827	2768
904.929	1984
905.030	2505
905.132	3120
905.233	4745
905.335	3195
905.436	2520
905.537	1757
905.639	2449
905.740	2360
905.841	3946
905.943	4410
906.044	3461
906.145	2754
906.247	1995
906.348	3149
906.449	2787
906.550	3997
906.651	3616
906.752	3008
906.854	3004
906.955	2502
907.056	2376
907.157	3482
907.258	5845
907.359	3129
907.460	2250
907.561	1643
907.662	1989
907.762	2459
907.863	2767
907.964	4137
908.065	3588
908.166	2662
908.267	2660
908.367	2871
908.468	2150
908.569	2845
908.670	4124
908.770	4503
908.871	3520
908.971	4200
909.072	3830
909.173	3285
909.273	2087
909.374	3259
909.474	3308
909.575	3004
909.675	3023
909.776	3081
909.876	3495
909.977	3104
910.077	2859
910.177	4299
910.278	3954
910.378	2516
910.478	1972
910.579	2998
910.679	4145
910.779	3466
910.879	3460
910.980	3774
911.080	2796
911.180	3787
911.280	2862
911.380	2278
911.480	2258
911.580	2414
911.680	2940
911.780	3002
911.880	3631
911.980	3148
912.080	2204
912.180	3900
912.280	3931
912.380	3289
912.480	2137
912.580	2022
912.679	2278
912.779	3541
912.879	3408
912.979	3043
913.078	3541
913.178	2036
913.278	2365
913.377	1732
913.477	2003
913.577	2395
913.676	2790
913.776	4273
913.875	3983
913.975	3371
914.074	2178
914.174	2831
914.273	3163
914.373	2382
914.472	2846
914.572	3106
914.671	1618
914.770	2106
914.870	2806
914.969	2433
915.068	2959
915.167	3818
915.267	3219
915.366	2911
915.465	3009
915.564	3198
915.663	3790
915.763	2811
915.862	3377
915.961	4209
916.060	2937
916.159	1782
916.258	2642
916.357	2005
916.456	3293
916.555	3559
916.654	3044
916.752	3324
916.851	4505
916.950	3303
917.049	2207
917.148	2490
917.247	2988
917.345	2549
917.444	2099
917.543	2197
917.642	2028
917.740	2960
917.839	3660
917.937	4427
918.036	5100
918.135	2976
918.233	3459
918.332	2336
918.430	2330
918.529	2941
918.627	2950
918.726	3944
918.824	4092
918.923	3102
919.021	2811
919.119	3232
919.218	2772
919.316	3118
919.414	2964
919.512	2929
919.611	4478
919.709	3512
919.807	4304
919.905	5260
920.003	4834
920.102	4748
920.200	4829
920.298	4387
920.396	4863
920.494	4299
920.592	4153
920.690	4463
920.788	4115
920.886	4869
920.984	4456
921.082	5581
921.180	6324
921.277	5691
921.375	5981
921.473	7574
921.571	9181
921.669	8192
921.766	7027
921.864	8323
921.962	8480
922.060	7271
922.157	7265
922.255	8405
922.352	8372
922.450	8140
922.548	8142
922.645	8877
922.743	11599
922.840	15373
922.938	22911
923.035	20943
923.133	18624
923.230	19293
923.327	24788
923.425	26570
923.522	23989
923.619	24011
923.717	21277
923.814	19674
923.911	19744
924.008	19645
924.106	19573
924.203	18617
924.300	18603
924.397	19350
924.494	19190
924.591	19652
924.688	18420
924.786	19068
924.883	19364
924.979	19872
925.077	18453
925.173	18115
925.270	17582
925.367	18331
925.464	20574
925.561	19095
925.658	21215
925.755	20748
925.852	19456
925.948	21064
926.045	18746
926.142	17793
926.239	19152
926.335	17678
926.432	15181
926.529	19124
926.625	20396
926.722	19452
926.818	15257
926.915	18177
927.011	18453
927.108	17463
927.204	16906
927.301	17004
927.397	16037
927.494	19635
927.590	18668
927.687	13214
927.783	17009
927.879	19229
927.976	18378
928.072	15510
928.168	16139
928.264	17420
928.361	15521
928.457	17435
928.553	18053
928.649	14497
928.745	17121
928.841	14916
928.937	14760
929.033	15570
929.129	15086
929.225	16215
929.321	17672
929.417	13370
929.513	15925
929.609	16602
929.705	12645
929.801	14338
929.897	15617
929.993	14092
930.089	15689
930.184	14128
930.280	13863
930.376	16771
930.471	16774
930.567	12019
930.663	13656
930.758	14041
930.854	13185
930.950	14130
931.045	13728
931.141	12840
931.236	14797
931.332	16662
931.427	12471
931.523	14137
931.618	16921
931.714	12763
931.809	10490
931.905	15302
932.000	13850
932.095	9502
932.191	12456
932.286	16148
932.381	16030
932.476	11455
932.572	11961
932.667	13005
932.762	10706
932.857	11470
932.952	14273
933.047	14067
933.142	11408
933.237	10544
933.332	13304
933.427	14655
933.522	13678
933.617	12325
933.712	10734
933.807	11607
933.902	15478
933.997	15160
934.092	14102
934.187	10799
934.282	12777
934.376	13111
934.471	15209
934.566	12754
934.661	10632
934.755	11528
934.850	14638
934.945	12908
935.039	10671
935.134	10340
935.228	9201
935.323	13930
935.417	14960
935.512	8650
935.606	8331
935.701	10008
935.795	13080
935.890	12512
935.984	11152
936.079	8755
936.173	9328
936.267	11436
936.362	9394
936.456	9372
936.550	11151
936.644	14650
936.738	10096
936.833	8672
936.927	9171
937.021	7859
937.115	11098
937.209	11735
937.303	11944
937.397	8652
937.491	8397
937.585	11066
937.679	11434
937.773	9577
937.867	9223
937.961	6816
938.055	9717
938.149	12844
938.243	8749
938.337	6755
938.430	7434
938.524	10441
938.618	11196
938.712	8899
938.805	7737
938.899	9812
938.993	13104
939.086	10996
939.180	7145
939.274	6349
939.367	8626
939.461	11175
939.554	9817
939.648	7351
939.741	7917
939.835	8759
939.928	11854
940.022	12383
940.115	10735
940.208	9806
940.302	11494
940.395	13193
940.488	11115
940.582	8969
940.675	7056
940.768	7288
940.861	8153
940.954	11891
941.048	9572
941.141	7016
941.234	7060
941.327	8606
941.420	9331
941.513	10017
941.606	9709
941.699	7596
941.792	9101
941.885	10891
941.978	8334
942.071	9777
942.164	9171
942.257	7675
942.349	7242
942.442	8909
942.535	7666
942.628	6180
942.721	6408
942.813	8416
942.906	8805
942.999	8244
943.091	6993
943.184	6592
943.277	8610
943.369	7813
943.462	5834
943.554	6630
943.647	8386
943.739	8022
943.832	8889
943.924	9405
944.017	4347
944.109	5439
944.201	6549
944.294	7406
944.386	6184
944.478	7271
944.571	6718
944.663	6273
944.755	6580
944.847	7897
944.940	7698
945.032	6333
945.124	4662
945.216	5652
945.308	6975
945.400	7725
945.492	6949
945.584	8173
945.676	8530
945.768	9047
945.860	7650
945.952	8682
946.044	8056
946.136	6913
946.228	6459
946.320	6288
946.412	6730
946.503	7789
946.595	9143
946.687	6824
946.779	6034
946.870	4668
946.962	6112
947.054	5954
947.145	5570
947.237	6461
947.329	6403
947.420	6576
947.512	6630
947.603	4987
947.695	4302
947.786	4927
947.878	5632
947.969	6683
948.061	6678
948.152	7192
948.243	5942
948.335	4013
948.426	5400
948.517	5507
948.609	6700
948.700	7721
948.791	6526
948.882	4798
948.973	3741
949.065	5129
949.156	5787
949.247	4912
949.338	5256
949.429	4531
949.520	4214
949.611	4543
949.702	6067
949.793	5536
949.884	5028
949.975	5408
950.066	4282
950.157	4055
950.247	3610
950.338	4486
950.429	4465
950.520	5500
950.611	4704
950.701	4282
950.792	5796
950.883	8123
950.973	5633
951.064	5362
951.155	6380
951.245	6670
951.336	6616
951.427	6395
951.517	7095
951.608	6634
951.698	5173
951.788	4301
951.879	4406
951.969	4604
952.060	4697
952.150	4906
952.240	6027
952.331	6357
952.421	6121
952.511	5211
952.602	3481
952.692	3600
952.782	3903
952.872	4162
952.962	5844
953.052	5683
953.143	5042
953.233	4528
953.323	3957
953.413	4804
953.503	6280
953.593	5197
953.683	5061
953.773	4741
953.863	3451
953.953	3122
954.042	3603
954.132	5601
954.222	5746
954.312	4821
954.402	4028
954.492	3995
954.581	4781
954.671	5320
954.761	4885
954.850	4412
954.940	4107
955.030	3321
955.119	2885
955.209	3911
955.298	3757
955.388	4735
955.477	5185
955.567	4507
955.656	3240
955.746	4130
955.835	4203
955.925	3682
956.014	3339
956.103	5037
956.193	5537
956.282	5833
956.371	4668
956.461	4884
956.550	4555
956.639	4401
956.728	4173
956.817	3694
956.906	4126
956.995	4793
957.085	4346
957.174	3547
957.263	3013
957.352	4329
957.441	4465
957.530	4937
957.619	3640
957.708	3196
957.796	3649
957.885	4331
957.974	4330
958.063	3409
958.152	3152
958.241	2955
958.329	2680
958.418	2188
958.507	3363
958.596	4538
958.684	3754
958.773	4194
958.861	3666
958.950	2943
959.039	2889
959.127	3364
959.216	3879
959.304	3612
959.393	2509
959.481	4131
959.570	4084
959.658	2504
959.746	2987
959.835	2878
959.923	3605
960.011	3787
960.100	3732
960.188	4030
960.276	3622
960.365	2453
960.453	3231
960.541	2823
960.629	3017
960.717	2678
960.805	2279
960.893	2588
960.981	3028
961.069	3471
961.158	5449
961.245	5668
961.333	5658
961.421	3777
961.509	2885
961.597	3496
961.685	3515
961.773	3689
961.861	2614
961.949	3827
962.036	4405
962.124	1978
962.212	2250
962.299	2600
962.387	2870
962.475	2406
962.562	2977
962.650	2950
962.738	3397
962.825	3270
962.913	1805
963.000	2843
963.088	3122
963.175	4045
963.263	2948
963.350	2497
963.438	2862
963.525	2809
963.612	2271
963.700	3579
963.787	4699
963.874	5763
963.962	3059
964.049	3069
964.136	2516
964.223	2980
964.310	841
964.398	2887
964.485	2048
964.572	2819
964.659	3360
964.746	2766
964.833	1840
964.920	2435
965.007	2115
965.094	2239
965.181	2744
965.268	3140
965.355	3306
965.441	2762
965.528	2025
965.615	2404
965.702	2413
965.789	2905
965.875	2891
965.962	3525
966.049	2724
966.136	4028
966.222	4921
966.309	3912
966.395	4599
966.482	5007
966.569	3764
966.655	3491
966.742	3546
966.828	2406
966.915	2122
967.001	2386
967.087	1610
967.174	2454
967.260	1682
967.347	3237
967.433	2760
967.519	4321
967.605	3962
967.692	3723
967.778	1792
967.864	2551
967.950	3070
968.036	2314
968.123	2981
968.209	2631
968.295	2172
968.381	2079
968.467	2391
968.553	1931
968.639	1648
968.725	3333
968.811	4218
968.897	5999
968.983	3753
969.069	2227
969.154	2113
969.240	1362
969.326	1907
969.412	1642
969.497	1450
969.583	2122
969.669	1934
969.755	2628
969.840	3226
969.926	3889
970.012	6601
970.097	8004
970.183	9235
970.268	6789
970.354	4013
970.439	2900
970.525	3576
970.610	2793
970.696	3000
970.781	2136
970.866	2209
970.952	2202
971.037	2205
971.122	2724
971.208	2603
971.293	2888
971.378	2113
971.463	2014
971.549	2229
971.634	1415
971.719	2689
971.804	2816
971.889	2830
971.974	2199
972.059	2523
972.144	2755
972.229	2784
972.314	2350
972.399	1550
972.484	2809
972.569	2267
972.654	2229
972.739	3343
972.824	2529
972.908	2348
972.993	1548
973.078	2118
973.163	2658
973.247	2298
973.332	2470
973.417	2080
973.501	2181
973.586	2296
973.671	2188
973.755	1536
973.840	2353
973.924	2514
974.009	3580
974.093	4582
974.178	4236
974.262	3876
974.346	2804
974.431	3074
974.515	3570
974.600	2181
974.684	3499
974.768	3126
974.852	2464
974.937	2574
975.021	2809
975.105	2357
975.189	2353
975.273	2005
975.358	2500
975.442	1765
975.526	1999
975.610	2648
975.694	2006
975.778	2733
975.862	1163
975.946	1530
976.030	1855
976.114	2633
976.198	1985
976.281	2235
976.365	2487
976.449	3250
976.533	1968
976.617	1449
976.700	1382
976.784	1364
976.868	2260
976.951	2252
977.035	1672
977.119	1621
977.202	2420
977.286	1557
977.369	2647
977.453	4465
977.536	5142
977.620	4707
977.703	4118
977.787	3749
977.870	2583
977.953	3275
978.037	2122
978.120	3007
978.203	2481
978.287	2940
978.370	3202
978.453	3475
978.536	1965
978.620	2869
978.703	2284
978.786	2517
978.869	1807
978.952	2308
979.035	3007
979.118	2702
979.201	2285
979.284	2544
979.367	3366
979.450	2735
979.533	2220
979.616	1954
979.699	1689
979.782	2476
979.865	2318
979.948	1953
980.030	2057
980.113	3041
980.196	1724
980.279	2625
980.361	2844
980.444	2466
980.526	2322
980.609	2721
980.692	4821
980.774	5671
980.857	4807
980.939	3696
981.022	3372
981.104	2434
981.187	2375
981.269	2817
981.352	3013
981.434	2741
981.516	3585
981.599	2781
981.681	2753
981.763	3341
981.846	2412
981.928	2968
982.010	2706
982.092	2079
982.174	3146
982.256	3353
982.339	3132
982.421	2158
982.503	3266
982.585	2488
982.667	2879
982.749	1890
982.831	2878
982.913	2538
982.995	3866
983.077	2944
983.158	3514
983.240	3759
983.322	3303
983.404	4203
983.486	4981
983.568	5869
983.649	4172
983.731	4394
983.813	5240
983.894	4252
983.976	2965
984.058	4288
984.139	3402
984.221	3623
984.302	3862
984.384	3295
984.465	2926
984.547	4231
984.628	3333
984.710	3426
984.791	3829
984.872	3473
984.954	2763
985.035	3494
985.116	3262
985.198	4212
985.279	3579
985.360	2847
985.441	3992
985.522	3010
985.604	3536
985.685	3327
985.766	4158
985.847	3603
985.928	3545
986.009	3495
986.090	3347
986.171	3664
986.252	3752
986.333	3516
986.414	3887
986.495	4033
986.576	3021
986.656	5029
986.737	4062
986.818	3724
986.899	4014
986.980	3724
987.060	3892
987.141	3752
987.222	3931
987.302	4692
987.383	5584
987.464	5470
987.544	5241
987.625	4976
987.705	4613
987.786	5156
987.866	5651
987.947	5176
988.027	4942
988.108	5114
988.188	5136
988.268	4552
988.349	3706
988.429	4457
988.509	5146
988.589	4338
988.670	4018
988.750	4857
988.830	3795
988.910	3967
988.990	4576
989.070	4109
989.151	4023
989.231	3798
989.311	4310
989.391	3641
989.471	4210
989.551	3348
989.631	2678
989.711	3816
989.791	3831
989.870	4056
989.950	3911
990.030	3907
990.110	3985
990.190	3194
990.269	3403
990.349	3011
990.429	3390
990.509	3642
990.588	2972
990.668	3512
990.747	3170
990.827	3403
990.907	3033
990.986	3621
991.066	3938
991.145	3301
991.225	2933
991.304	3735
991.383	3706
991.463	3429
991.542	3770
991.622	2625
991.701	2866
991.780	2055
991.859	2734
991.939	2410
992.018	2715
992.097	2657
992.176	2603
992.256	2476
992.335	2592
992.414	2961
992.493	3143
992.572	2354
992.651	2166
992.730	2244
992.809	2974
992.888	2811
992.967	2697
993.046	2884
993.125	2844
993.203	2335
993.282	2918
993.361	3156
993.440	2362
993.519	1828
993.597	2638
993.676	2247
993.755	1671
993.834	2174
993.912	1752
993.991	2072
994.069	1496
994.148	2823
994.226	2338
994.305	1629
994.384	2518
994.462	2146
994.540	1877
994.619	1928
994.697	1970
994.776	1645
994.854	2548
994.932	2161
995.011	1979
995.089	987
995.167	1344
995.245	1539
995.324	2007
995.402	1770
995.480	2350
995.558	1935
995.636	1924
995.714	1068
995.792	1669
995.870	1706
995.948	1161
996.026	1140
996.104	1236
996.182	1113
996.260	1871
996.338	1535
996.416	1645
996.494	933
996.572	1755
996.649	918
996.727	535
996.805	1436
996.883	1944
996.960	1495
997.038	757
997.116	1265
997.193	682
997.271	1715
997.348	705
997.426	853
997.504	903
997.581	2055
997.658	1570
997.736	704
997.813	1005
997.891	539
997.968	1264
998.046	1352
998.123	729
998.200	839
998.277	1687
998.355	1094
998.432	531
998.509	1076
998.586	291
998.663	1507
998.741	764
998.818	582
998.895	1252
998.972	523
999.049	1239
999.126	386
999.203	1527
999.280	-27
999.357	796
999.434	1114
999.511	1105
999.587	1150
999.664	57
999.741	1014
999.818	533
999.895	946
999.971	444
1000.048	426
1000.125	623
1000.202	102
1000.278	672
1000.355	291
1000.431	1199
1000.508	222
1000.584	154
1000.661	438
1000.738	506
1000.814	441
1000.890	209
1000.967	947
1001.043	1057
1001.120	202
1001.196	785
1001.272	77
1001.349	390
1001.425	-68
1001.501	-180
1001.577	664
1001.654	1227
1001.730	462
1001.806	-212
1001.882	-285
1001.958	1187
1002.034	305
1002.110	546
1002.186	309
1002.262	-532
1002.338	-92
1002.414	779
1002.490	304
1002.566	56
1002.642	40
1002.718	-161
1002.794	318
1002.870	-59
1002.945	-273
1003.021	303
1003.097	-376
1003.173	-52
1003.248	357
1003.324	662
1003.400	-57
1003.475	347
1003.551	209
1003.626	116
1003.702	202
1003.777	688
1003.853	-767
1003.928	-264
1004.004	23
1004.079	359
1004.155	-95
1004.230	-49
1004.305	510
1004.381	-520
1004.456	87
1004.531	-468
1004.607	-89
1004.682	-332
1004.757	-266
1004.832	928
1004.907	233
1004.982	-91
1005.057	-328
1005.133	449
1005.208	-320
1005.283	-400
1005.358	186
1005.433	-604
1005.508	-236
1005.583	39
1005.657	-76
1005.732	-117
1005.807	208
1005.882	137
1005.957	-36
1006.032	-494
1006.106	-777
1006.181	-197
1006.256	-616
1006.331	-624
1006.405	-469
1006.480	862
1006.554	-726
1006.629	-152
1006.704	-483
1006.778	-993
1006.853	-476
1006.927	21
1007.002	-228
1007.076	549
1007.150	-557
1007.225	-356
1007.299	-383
1007.373	-252
1007.448	-288
1007.522	80
1007.596	-790
1007.671	-749
1007.745	261
1007.819	-180
1007.893	-731
1007.967	8
1008.041	43
1008.115	-63
1008.190	-521
1008.264	30
1008.338	-644
1008.412	-436
1008.486	-529
1008.560	-413
1008.633	-98
1008.707	-12
1008.781	127
1008.855	-129
1008.929	-247
1009.003	-230
1009.076	-275
1009.150	-744
1009.224	73
1009.298	-374
1009.371	-226
1009.445	-541
1009.519	-197
1009.592	-752
1009.666	-688
1009.739	-1133
1009.813	-752
1009.886	-358
1009.960	-1392
1010.033	-668
1010.107	-478
1010.180	-428
1010.253	-311
1010.327	-524
1010.400	-721
1010.473	-232
1010.547	-1194
1010.620	-146
1010.693	-253
1010.766	-616
1010.840	-302
1010.913	-780
1010.986	-1707
1011.059	-1241
1011.132	-1370
1011.205	-1395
1011.278	-734
1011.351	-297
1011.424	-1043
1011.497	-275
1011.570	-1344
1011.643	123
1011.716	-409
1011.789	-619
1011.862	-892
1011.934	-395
1012.007	-1552
1012.080	-752
1012.153	-419
1012.225	-724
1012.298	-642
1012.371	-1781
1012.443	-405
1012.516	-732
1012.588	-244
1012.661	-402
1012.733	-683
1012.806	-1095
1012.879	-448
1012.951	-840
1013.023	-1385
1013.096	-976
1013.168	-530
1013.241	-435
1013.313	-1327
1013.385	-286
1013.458	-1216
1013.530	-1005
1013.602	-1044
1013.674	-893
1013.746	-801
1013.819	-675
1013.891	-1143
1013.963	-1465
1014.035	-782
1014.107	-643
1014.179	-1046
1014.251	-514
1014.323	-874
1014.395	-1142
1014.467	-385
1014.539	-1080
1014.611	-87
1014.683	-921
1014.754	-993
1014.826	-1015
1014.898	-650
1014.970	-1707
1015.042	-698
1015.113	-523
1015.185	-587
1015.257	-1060
1015.328	-683
1015.400	-712
1015.471	-559
1015.543	-1889
1015.615	-1708
1015.686	-761
1015.757	-1148
1015.829	-721
1015.901	-958
1015.972	-1449
1016.043	-1484
1016.115	-1141
1016.186	-1476
1016.257	-1571
1016.328	-1274
1016.400	-523
1016.471	-1554
1016.542	-715
1016.613	-1116
1016.685	-1472
1016.756	-995
1016.827	-1161
1016.898	-427
1016.969	-1052
1017.040	-1060
1017.111	-1557
1017.182	-1713
1017.253	-1075
1017.324	-1316
1017.395	-1218
1017.466	-1400
1017.537	-964
1017.608	-206
1017.678	-634
1017.749	-1210
1017.820	-728
1017.891	-1530
1017.961	-940
1018.032	-714
1018.103	-804
1018.173	-866
1018.244	-365
1018.315	-815
1018.385	-1442
1018.456	-660
1018.526	-1056
1018.597	-824
1018.667	-1571
1018.738	-1474
1018.808	-1428
1018.878	-1238
1018.949	-814
1019.019	-720
1019.089	-1311
1019.160	-1125
1019.230	-2203
1019.300	-1575
1019.371	-991
1019.441	-859
1019.511	-1539
1019.581	-569
1019.651	-1449
1019.721	-1659
1019.791	-1694
1019.861	-1510
1019.931	-1455
1020.001	-798
1020.071	-1108
1020.141	-1029
1020.211	-1006
1020.281	-2223
1020.351	-595
1020.421	-784
1020.491	-907
1020.560	-1805
1020.630	-792
1020.700	-1524
1020.770	-812
1020.839	-1217
1020.909	-2097
1020.979	-1465
1021.048	-1313
1021.118	-1027
1021.187	-1545
1021.257	-1925
1021.326	-928
1021.396	-650
1021.465	-195
1021.535	-1207
1021.604	-1261
1021.674	-1115
1021.743	-1145
1021.812	-1436
1021.882	-935
1021.951	-1479
1022.020	-1547
1022.089	-773
1022.159	-1505
1022.228	-1018
1022.297	-1374
1022.366	-1330
1022.435	-1576
1022.504	-1376
1022.573	-1435
1022.642	-1525
1022.711	-939
1022.781	-1563
1022.849	-1468
1022.918	-1594
1022.987	-705
1023.056	-1268
1023.125	-1250
1023.194	-1415
1023.263	-1261
1023.331	-1490
1023.400	-1477
1023.469	-1383
1023.538	-1582
1023.606	-1693
1023.675	-1481
1023.744	-1180
1023.812	-1846
1023.881	-2012
1023.949	-1643
1024.018	-1157
1024.086	-1410
1024.155	-2036
1024.223	-1654
1024.292	-1855
1024.360	-1650
1024.429	-1842
1024.497	-1653
1024.565	-1637
1024.634	-1921
1024.702	-1911
1024.770	-1764
1024.838	-1383
1024.907	-1691
1024.975	-1657
1025.043	-1123
1025.111	-1373
1025.179	-1075
1025.247	-1671
1025.315	-1712
1025.383	-1554
1025.451	-1014
1025.519	-1784
1025.587	-1441
1025.655	-1216
1025.723	-2026
1025.791	-1724
1025.859	-1481
1025.927	-1399
1025.995	-1803
1026.062	-1328
1026.130	-796
1026.198	-2247
1026.266	-1430
1026.333	-2057
1026.401	-953
1026.469	-1436
1026.536	-1913
1026.604	-1737
1026.671	-1491
1026.739	-1079
1026.806	-836
1026.874	-1864
1026.941	-1372
1027.009	-1349
1027.076	-1590
1027.144	-1515
1027.211	-2349
1027.278	-1380
1027.345	-1326
1027.413	-1274
1027.480	-1954
1027.547	-1058
1027.614	-1990
1027.682	-1367
1027.749	-1941
1027.816	-1554
1027.883	-1217
1027.950	-1775
1028.017	-2127
1028.084	-1681
1028.151	-1018
1028.218	-1439
1028.285	-2440
1028.352	-1854
1028.419	-2296
1028.486	-272
1028.553	-1493
1028.619	-1818
1028.686	-1257
1028.753	-1623
1028.820	-2004
1028.886	-2582
1028.953	-1823
1029.020	-1599
1029.086	-1871
1029.153	-1158
1029.220	-2158
1029.286	-1753
1029.353	-1851
1029.419	-1655
1029.486	-1626
1029.552	-1617
1029.619	-1738
1029.685	-1805
1029.751	-1768
1029.818	-1253
1029.884	-1900
1029.951	-1779
1030.017	-1508
1030.083	-1393
1030.149	-2010
1030.216	-1747
1030.282	-1395
1030.348	-2214
1030.414	-2041
1030.480	-1912
1030.546	-1446
1030.612	-2428
1030.678	-2128
1030.744	-2183
1030.810	-1762
1030.876	-1920
1030.942	-2148
1031.008	-1615
1031.074	-2316
1031.140	-1316
1031.206	-1972
1031.272	-1836
1031.337	-1952
1031.403	-2898
1031.469	-1708
1031.534	-2114
1031.600	-918
1031.666	-2038
1031.731	-2275
1031.797	-2109
1031.863	-2397
1031.928	-1496
1031.994	-2441
1032.059	-1686
1032.125	-1641
1032.190	-1738
1032.256	-1569
1032.321	-2081
1032.386	-1720
1032.452	-1054
1032.517	-2049
1032.582	-1753
1032.647	-2066
1032.713	-1461
1032.778	-1707
1032.843	-1457
1032.908	-1753
1032.974	-2429
1033.039	-2417
1033.104	-1729
1033.169	-1106
1033.234	-1712
1033.299	-1506
1033.364	-1992
1033.429	-897
1033.494	-1228
1033.559	-1458
1033.624	-1246
1033.688	-2074
1033.753	-1761
1033.818	-719
1033.883	-312
1033.948	-883
1034.013	-972
1034.077	443
1034.142	757
1034.207	913
1034.271	3094
1034.336	5469
1034.400	7151
1034.465	5477
1034.530	2947
1034.594	1572
1034.658	-642
1034.723	-328
1034.787	-983
1034.852	-1196
1034.916	-2249
1034.981	-1965
1035.045	-1274
1035.109	-2217
1035.173	-2022
1035.238	-1286
1035.302	-1623
1035.366	-1497
1035.430	-2374
1035.495	-2152
1035.559	-1429
1035.623	-1846
1035.687	-1722
1035.751	-1055
1035.815	-1041
1035.879	-1630
1035.943	-1789
1036.007	-1686
1036.071	-1162
1036.135	-1794
1036.198	-2464
1036.262	-1405
1036.326	-1072
1036.390	-1519
1036.454	-2311
1036.517	-911
1036.581	-748
1036.645	-961
1036.709	-479
1036.772	-70
1036.836	-1663
1036.900	-786
1036.963	-2185
1037.026	-1617
1037.090	-1789
1037.154	-1769
1037.217	-1788
1037.280	-1929
1037.344	-1679
1037.407	-1780
1037.471	-2207
1037.534	-1328
1037.597	-951
1037.661	-1530
1037.724	-1305
1037.787	-1632
1037.850	-927
1037.913	-1916
1037.977	-1564
1038.040	-1555
1038.103	-2261
1038.166	-2657
1038.229	-1377
1038.292	-1804
1038.355	-1866
1038.418	-2503
1038.481	-1722
1038.544	-2781
1038.607	-2232
1038.670	-1263
1038.732	-2389
1038.795	-2257
1038.858	-2201
1038.921	-1778
1038.984	-1904
1039.046	-2820
1039.109	-2572
1039.172	-2124
1039.234	-2746
1039.297	-1978
1039.360	-1963
1039.422	-1479
1039.485	-2238
1039.547	-1804
1039.610	-2687
1039.672	-1188
1039.734	-2094
1039.797	-1135
1039.859	-2099
1039.922	-1890
1039.984	-2016
1040.046	-1832
1040.109	-1909
1040.171	-2248
1040.233	-2349
1040.295	-2384
1040.358	-1600
1040.420	-1514
1040.482	-2055
1040.544	-1655
1040.606	-1327
1040.668	-2577
1040.730	-2312
1040.792	-1518
1040.854	-1129
1040.916	-2606
1040.978	-2461
1041.040	-885
1041.102	-1893
1041.164	-1633
1041.225	-1854
1041.287	-1887
1041.349	-1770
1041.411	-2258
1041.472	-1564
1041.534	-1795
1041.596	-2618
1041.657	-1674
1041.719	-2013
1041.781	-2030
1041.842	-2376
1041.904	-2154
1041.965	-1996
1042.027	-1675
1042.088	-1534
1042.150	-1930
1042.211	-1949
1042.272	-1351
1042.334	-2282
1042.395	-2679
1042.456	-2006
1042.518	-1509
1042.579	-1694
1042.640	-2069
1042.701	-1960
1042.763	-1503
1042.824	-2106
1042.885	-2192
1042.946	-1337
1043.007	-1819
1043.068	-1939
1043.129	-1241
1043.190	-2253
1043.251	-2130
1043.312	-1769
1043.373	-2146
1043.434	-1593
1043.495	-1851
1043.556	-1459
1043.616	-1682
1043.677	-2101
1043.738	-1523
1043.799	-2034
1043.859	-1634
1043.920	-2052
1043.981	-1594
1044.041	-2708
1044.102	-1916
1044.162	-1850
1044.223	-1823
1044.284	-1973
1044.344	-1832
1044.405	-1374
1044.465	-2263
1044.525	-1379
1044.586	-1930
1044.646	-2329
1044.707	-1060
1044.767	-2394
1044.827	-2021
1044.887	-988
1044.948	-1698
1045.008	-1855
1045.068	-1475
1045.128	-2249
1045.188	-1768
1045.249	-1182
1045.309	-1411
1045.369	-1541
1045.429	-1119
1045.489	-2003
1045.549	-2016
1045.609	-1774
1045.669	-1827
1045.729	-1300
1045.789	-1735
1045.848	-1284
1045.908	-1069
1045.968	-755
1046.028	-1012
1046.088	-805
1046.147	-1225
1046.207	-1233
1046.267	-1575
1046.326	-2009
1046.386	-2318
1046.446	-660
1046.505	-1042
1046.565	-1506
1046.624	-1525
1046.684	-740
1046.743	-552
1046.803	-739
1046.862	-138
1046.922	0
