'Start Wavelength	183.907
'End Wavelength	1046.922
'Gate Delay	5.000
'Gate Width (ms)	1.050
'Laser Output Level	0.000
'X Position	0.000
'Y Position	0.000
'Z Position	0.000
'Grid Point Number	1.000
'Shot Number	100.000
183.907	574.000
183.977	113.000
184.047	461
184.116	784
184.186	1052
184.256	728
184.325	257
184.395	1079
184.465	726
184.534	605
184.604	93
184.674	333
184.743	351
184.813	1039
184.883	515
184.952	562
185.022	48
185.092	1074
185.161	850
185.231	938
185.301	129
185.370	636
185.440	180
185.509	179
185.579	509
185.649	376
185.718	-134
185.788	209
185.857	-152
185.927	31
185.996	-373
186.066	468
186.136	429
186.205	515
186.275	93
186.344	504
186.414	679
186.483	-33
186.553	912
186.622	771
186.692	1105
186.761	246
186.831	202
186.900	778
186.970	391
187.039	488
187.109	842
187.178	994
187.248	500
187.317	802
187.387	451
187.456	1335
187.526	721
187.595	554
187.664	1051
187.734	1622
187.803	452
187.873	645
187.942	677
188.012	2130
188.081	153
188.150	356
188.220	1023
188.289	1080
188.358	486
188.428	653
188.497	622
188.567	684
188.636	263
188.705	229
188.775	351
188.844	710
188.913	238
188.983	781
189.052	650
189.121	489
189.191	1279
189.260	1089
189.329	875
189.399	1060
189.468	572
189.537	494
189.606	521
189.676	999
189.745	1170
189.814	1111
189.883	947
189.953	1170
190.022	2081
190.091	4684
190.161	2683
190.230	649
190.299	1374
190.368	757
190.437	740
190.507	768
190.576	245
190.645	1473
190.714	1145
190.783	947
190.853	531
190.922	1579
190.991	1192
191.060	1511
191.129	1446
191.198	507
191.268	683
191.337	1406
191.406	961
191.475	870
191.544	1009
191.613	1015
191.682	1020
191.752	1278
191.821	501
191.890	1336
191.959	1398
192.028	792
192.097	1273
192.166	1611
192.235	300
192.304	722
192.373	-9
192.442	14
192.511	242
192.580	1420
192.650	786
192.719	1347
192.788	1521
192.857	1292
192.926	1307
192.995	675
193.064	2034
193.133	2864
193.202	3025
193.271	2353
193.340	1809
193.409	2222
193.478	2893
193.547	3777
193.615	4932
193.684	3553
193.753	2411
193.822	1351
193.891	1359
193.960	1668
194.029	1383
194.098	1053
194.167	1323
194.236	1105
194.305	750
194.374	958
194.443	985
194.512	1384
194.580	1611
194.649	1519
194.718	793
194.787	1091
194.856	1224
194.925	739
194.994	703
195.062	1734
195.131	1591
195.200	1814
195.269	1087
195.338	847
195.407	1323
195.475	1557
195.544	1565
195.613	1658
195.682	1674
195.751	2028
195.819	1726
195.888	1699
195.957	2125
196.026	2190
196.094	1698
196.163	1404
196.232	1404
196.301	1962
196.369	2110
196.438	1876
196.507	1075
196.576	760
196.644	1039
196.713	1611
196.782	1868
196.850	1594
196.919	1142
196.988	1830
197.056	923
197.125	1483
197.194	858
197.262	1261
197.331	1131
197.400	1079
197.468	1276
197.537	1564
197.606	2144
197.674	3695
197.743	2411
197.812	3404
197.880	4059
197.949	2810
198.017	4046
198.086	2078
198.155	1242
198.223	3688
198.292	4857
198.360	2153
198.429	2722
198.497	2402
198.566	5240
198.635	3063
198.703	2487
198.772	3198
198.840	6597
198.909	3073
198.977	1652
199.046	2423
199.114	2242
199.183	1553
199.251	2168
199.320	1024
199.388	1407
199.457	1683
199.525	2007
199.594	1619
199.662	1373
199.731	1832
199.799	1574
199.867	1883
199.936	1387
200.004	977
200.073	1462
200.141	1347
200.210	1114
200.278	1980
200.346	1749
200.415	1610
200.483	2085
200.552	2026
200.620	1896
200.688	1323
200.757	1564
200.825	1146
200.893	1621
200.962	1985
201.030	1238
201.098	1476
201.167	1419
201.235	1929
201.303	1868
201.372	1240
201.440	1982
201.508	1991
201.577	1970
201.645	1120
201.713	1348
201.781	1826
201.850	1669
201.918	1510
201.986	1232
202.055	1011
202.123	1395
202.191	1504
202.259	1915
202.327	1758
202.396	1805
202.464	2251
202.532	3093
202.600	4741
202.669	2251
202.737	1809
202.805	1693
202.873	1717
202.941	1496
203.009	1669
203.078	913
203.146	2068
203.214	1688
203.282	1848
203.350	2160
203.418	1934
203.487	2285
203.555	1808
203.623	1816
203.691	2120
203.759	2001
203.827	2121
203.895	2398
203.963	2458
204.031	2142
204.099	2084
204.168	2533
204.236	2474
204.304	2207
204.372	2820
204.440	3024
204.508	1578
204.576	2237
204.644	1762
204.712	1634
204.780	2279
204.848	1741
204.916	1936
204.984	2220
205.052	1574
205.120	2053
205.188	2513
205.256	2328
205.324	2661
205.392	1917
205.460	3223
205.528	2340
205.596	2358
205.664	2598
205.732	3968
205.799	10458
205.867	5169
205.935	3439
206.003	2395
206.071	2668
206.139	2852
206.207	2337
206.275	2262
206.343	2652
206.411	2658
206.478	2208
206.546	2825
206.614	1866
206.682	2591
206.750	2175
206.818	3090
206.885	2505
206.953	2273
207.021	1524
207.089	2897
207.157	2516
207.225	2546
207.292	2751
207.360	3605
207.428	2064
207.496	1921
207.563	2316
207.631	2123
207.699	2929
207.767	2232
207.834	2177
207.902	2035
207.970	2591
208.038	2629
208.105	3071
208.173	4033
208.241	3529
208.309	3092
208.376	3903
208.444	6116
208.512	3173
208.579	2452
208.647	2522
208.715	3330
208.782	2343
208.850	3319
208.918	2565
208.985	2554
209.053	2862
209.120	3121
209.188	2923
209.256	2906
209.323	3455
209.391	3170
209.459	3494
209.526	3904
209.594	3219
209.661	3772
209.729	3077
209.796	2747
209.864	3039
209.932	3049
209.999	3528
210.067	3903
210.134	2993
210.202	3733
210.269	3930
210.337	3767
210.404	3150
210.472	3773
210.539	3396
210.607	4112
210.674	2866
210.742	3716
210.809	3657
210.877	4071
210.944	3509
211.012	3625
211.079	3612
211.146	2964
211.214	3642
211.281	3994
211.349	3620
211.416	3730
211.484	3848
211.551	3508
211.618	3183
211.686	3949
211.753	3534
211.821	3690
211.888	3620
211.955	3949
212.023	3534
212.090	4154
212.157	4176
212.225	5048
212.292	8590
212.359	20579
212.427	20880
212.494	7246
212.561	5552
212.629	4715
212.696	4866
212.763	4318
212.831	3337
212.898	4394
212.965	3079
213.032	4114
213.100	3842
213.167	3931
213.234	4391
213.301	3715
213.369	3532
213.436	3879
213.503	4399
213.570	4488
213.638	3884
213.705	3176
213.772	3905
213.839	4801
213.906	4355
213.973	4350
214.041	4416
214.108	3047
214.175	4309
214.242	4750
214.309	3835
214.376	4886
214.444	4626
214.511	4977
214.578	4163
214.645	5596
214.712	4906
214.779	5387
214.846	4446
214.913	5350
214.980	5919
215.048	6752
215.115	5506
215.182	4769
215.249	4114
215.316	3807
215.383	4038
215.450	4431
215.517	3820
215.584	4012
215.651	3716
215.718	4002
215.785	4269
215.852	4693
215.919	4171
215.986	4008
216.053	2848
216.120	3640
216.187	4420
216.254	3874
216.321	4169
216.388	4112
216.455	3659
216.522	4152
216.589	5385
216.656	7318
216.722	6073
216.789	7441
216.856	7530
216.923	6255
216.990	5256
217.057	5656
217.124	6534
217.191	6268
217.258	9038
217.324	11155
217.391	10406
217.458	7137
217.525	5116
217.592	5419
217.659	5059
217.725	4906
217.792	6456
217.859	4808
217.926	3774
217.993	3907
218.059	3808
218.126	3419
218.193	3604
218.260	2574
218.327	3257
218.393	4046
218.460	3564
218.527	3268
218.594	4734
218.660	5970
218.727	4325
218.794	3313
218.860	3281
218.927	3881
218.994	3312
219.061	3201
219.127	3833
219.194	5266
219.261	2488
219.327	2583
219.394	3201
219.461	2423
219.527	3969
219.594	4703
219.661	2012
219.727	3274
219.794	2593
219.860	3102
219.927	2851
219.994	6455
220.060	5549
220.127	4484
220.193	3752
220.260	5689
220.326	9830
220.393	15262
220.460	13560
220.526	8364
220.593	6035
220.659	6824
220.726	9964
220.792	15130
220.859	15464
220.925	22797
220.992	23555
221.058	23664
221.125	16902
221.191	10999
221.258	5615
221.324	5458
221.391	5126
221.457	4418
221.524	4534
221.590	11007
221.657	18286
221.723	9376
221.789	12873
221.856	9106
221.922	5518
221.989	4612
222.055	4312
222.121	4632
222.188	3763
222.254	3791
222.321	3703
222.387	3023
222.453	4002
222.520	3858
222.586	3504
222.652	3302
222.719	3484
222.785	3134
222.851	3074
222.918	4073
222.984	4401
223.050	5107
223.116	3183
223.183	3110
223.249	2005
223.315	3040
223.382	2889
223.448	3247
223.514	2309
223.580	2574
223.647	2160
223.713	3129
223.779	3456
223.845	4026
223.911	3050
223.978	3215
224.044	2978
224.110	3028
224.176	2819
224.242	2026
224.309	2535
224.375	2655
224.441	2352
224.507	2711
224.573	2365
224.639	2559
224.705	2379
224.772	2141
224.838	2444
224.904	2946
224.970	2924
225.036	3577
225.102	3088
225.168	3066
225.234	2515
225.300	3784
225.366	2500
225.432	2447
225.499	2855
225.565	3504
225.631	4059
225.697	4464
225.763	5530
225.829	5588
225.895	6621
225.961	6778
226.027	6035
226.093	6921
226.159	7665
226.225	13806
226.291	32598
226.357	28173
226.423	13164
226.489	9615
226.554	6487
226.620	7342
226.686	10299
226.752	15566
226.818	30037
226.884	43732
226.950	23688
227.016	11848
227.082	7443
227.148	7087
227.214	7653
227.279	8219
227.345	5294
227.411	4342
227.477	3890
227.543	5420
227.609	7020
227.674	6217
227.740	3792
227.806	4074
227.872	3993
227.938	6719
228.003	6759
228.069	3966
228.135	4057
228.201	3619
228.267	3552
228.332	5325
228.398	5427
228.464	2989
228.530	2388
228.595	3105
228.661	4478
228.727	5166
228.792	2978
228.858	3215
228.924	4402
228.990	3866
229.055	4185
229.121	3521
229.187	3879
229.252	3736
229.318	2679
229.384	3859
229.449	3344
229.515	2955
229.581	1773
229.646	3606
229.712	4063
229.777	7868
229.843	5623
229.909	6861
229.974	8444
230.040	6152
230.105	5230
230.171	6396
230.236	12328
230.302	12205
230.368	7115
230.433	5838
230.499	6163
230.564	7459
230.630	4272
230.695	4613
230.761	3997
230.826	3884
230.892	5235
230.957	4414
231.023	3645
231.088	3934
231.154	3689
231.219	4265
231.284	5524
231.350	4410
231.415	3413
231.481	3497
231.546	3094
231.612	3186
231.677	3159
231.742	2883
231.808	2284
231.873	3256
231.939	3823
232.004	5916
232.069	4093
232.135	4566
232.200	3535
232.265	3026
232.331	2557
232.396	3071
232.461	2880
232.527	2699
232.592	2106
232.657	3638
232.723	5587
232.788	3059
232.853	2635
232.918	2823
232.984	2855
233.049	3455
233.114	5617
233.179	3801
233.245	9013
233.310	4955
233.375	3271
233.440	2850
233.506	3260
233.571	2861
233.636	2208
233.701	4235
233.766	7256
233.832	3764
233.897	3431
233.962	3752
234.027	3540
234.092	3326
234.157	4107
234.222	3861
234.288	10268
234.353	13908
234.418	10301
234.483	7078
234.548	5991
234.613	5258
234.678	5035
234.743	9962
234.808	15895
234.873	6749
234.938	4862
235.004	4948
235.069	5047
235.134	4697
235.199	4312
235.264	3624
235.329	3809
235.394	4724
235.459	4927
235.524	4091
235.589	4320
235.654	3585
235.719	3847
235.784	4023
235.849	6315
235.913	8452
235.978	11094
236.043	6201
236.108	4586
236.173	5271
236.238	4168
236.303	4726
236.368	5181
236.433	9893
236.498	9001
236.563	10417
236.627	31979
236.692	54105
236.757	23317
236.822	14804
236.887	11262
236.952	9730
237.017	9467
237.081	9806
237.146	17483
237.211	33445
237.276	71043
237.341	58137
237.405	22548
237.470	14346
237.535	10063
237.600	7575
237.664	5988
237.729	5848
237.794	15803
237.859	13825
237.923	7358
237.988	7456
238.053	9569
238.118	11486
238.182	23323
238.247	10073
238.312	8238
238.376	6625
238.441	5920
238.506	4832
238.570	3782
238.635	3778
238.700	3924
238.764	5906
238.829	13654
238.893	7401
238.958	7013
239.023	4615
239.087	4871
239.152	4281
239.216	3749
239.281	3665
239.346	3723
239.410	3749
239.475	9363
239.539	22046
239.604	6658
239.668	4240
239.733	2841
239.797	3748
239.862	10634
239.926	10060
239.991	4506
240.055	3486
240.120	4379
240.184	3720
240.249	2963
240.313	3503
240.378	5162
240.442	18785
240.507	10603
240.571	6448
240.635	12427
240.700	6398
240.764	3359
240.829	3642
240.893	2751
240.957	4943
241.022	17140
241.086	13305
241.151	5008
241.215	4290
241.279	8941
241.344	8171
241.408	6445
241.472	4972
241.537	6108
241.601	5716
241.665	5412
241.730	5330
241.794	5927
241.858	5738
241.922	5247
241.987	4892
242.051	5239
242.115	6717
242.179	4570
242.244	4847
242.308	5010
242.372	7828
242.436	6685
242.501	4148
242.565	4980
242.629	4418
242.693	3807
242.757	4681
242.822	5220
242.886	4453
242.950	4904
243.014	4205
243.078	6121
243.142	5462
243.206	5502
243.271	6710
243.335	7906
243.399	14741
243.463	67798
243.527	49596
243.591	13789
243.655	8466
243.719	6746
243.783	8928
243.847	16187
243.911	13260
243.975	12487
244.040	8049
244.104	6560
244.168	6545
244.232	9053
244.296	14180
244.360	9558
244.424	6091
244.488	4375
244.552	5256
244.615	4484
244.679	4175
244.743	6621
244.807	3771
244.871	3935
244.935	4138
244.999	3783
245.063	4108
245.127	6901
245.191	13399
245.255	5720
245.319	6200
245.383	4366
245.446	4584
245.510	4111
245.574	4296
245.638	4061
245.702	8642
245.766	9418
245.829	5700
245.893	4332
245.957	5544
246.021	5190
246.085	5910
246.149	8328
246.212	20741
246.276	12973
246.340	8139
246.404	6035
246.467	11333
246.531	8814
246.595	5886
246.659	6167
246.722	6859
246.786	6360
246.850	11178
246.913	6376
246.977	4804
247.041	5742
247.104	4901
247.168	8265
247.232	21611
247.295	20641
247.359	7288
247.423	9195
247.486	10198
247.550	5819
247.614	6745
247.677	6448
247.741	4305
247.804	5399
247.868	6726
247.932	21636
247.995	14919
248.059	5795
248.122	4915
248.186	8099
248.249	22063
248.313	47046
248.376	29960
248.440	16061
248.503	8433
248.567	10050
248.630	15235
248.694	17065
248.757	33227
248.821	34801
248.884	19083
248.948	29904
249.011	38148
249.075	50725
249.138	24806
249.202	13247
249.265	13066
249.328	12332
249.392	10772
249.455	7974
249.519	8999
249.582	11785
249.645	15572
249.709	9350
249.772	9105
249.835	8039
249.899	8083
249.962	7407
250.025	10086
250.089	23945
250.152	14805
250.215	10105
250.279	9102
250.342	9540
250.405	9461
250.468	10187
250.532	14858
250.595	36620
250.658	124033
250.721	67921
250.785	26913
250.848	16579
250.911	12065
250.974	12092
251.038	23976
251.101	20298
251.164	15882
251.227	16044
251.290	18141
251.354	56649
251.417	126921
251.480	65071
251.543	127086
251.606	182156
251.669	77447
251.732	45348
251.795	46392
251.859	82566
251.922	103472
251.985	36180
252.048	24094
252.111	17268
252.174	17931
252.237	43269
252.300	49506
252.363	118338
252.426	101849
252.489	38740
252.552	29156
252.615	18751
252.678	29165
252.741	48670
252.804	121881
252.867	114849
252.930	56499
252.993	32600
253.056	23810
253.119	20959
253.182	24166
253.245	28240
253.308	15484
253.371	15443
253.434	16894
253.497	19541
253.559	26333
253.622	15904
253.685	23148
253.748	12498
253.811	10590
253.874	13925
253.937	9568
254.000	9725
254.062	25145
254.125	22361
254.188	33504
254.251	12053
254.314	11689
254.376	21122
254.439	15427
254.502	12899
254.565	26308
254.628	20103
254.690	12335
254.753	8612
254.816	8584
254.878	11108
254.941	22552
255.004	10619
255.067	8731
255.129	6554
255.192	3888
255.255	5458
255.317	5002
255.380	3170
255.443	4042
255.505	4496
255.568	6377
255.631	5837
255.693	5742
255.756	3661
255.819	4844
255.881	4491
255.944	4370
256.006	4169
256.069	4526
256.132	4441
256.194	10621
256.257	12584
256.319	11576
256.382	7750
256.444	6251
256.507	6199
256.569	6527
256.632	8028
256.694	15388
256.757	63485
256.819	55430
256.882	19971
256.944	11835
257.007	11068
257.069	11812
257.132	10511
257.194	6493
257.257	7624
257.319	6497
257.381	10382
257.444	49723
257.506	114466
257.569	56526
257.631	28643
257.693	15875
257.756	10960
257.818	8773
257.880	6364
257.943	5173
258.005	6698
258.067	7553
258.130	5893
258.192	10642
258.254	11300
258.317	6700
258.379	9407
258.441	18549
258.503	11345
258.566	30925
258.628	11937
258.690	6396
258.753	9882
258.815	10427
258.877	6240
258.939	5770
259.001	6637
259.064	7087
259.126	9001
259.188	7240
259.250	6888
259.312	13789
259.375	18580
259.437	7915
259.499	5427
259.561	6428
259.623	9164
259.685	7133
259.747	9296
259.809	34093
259.872	31798
259.934	64606
259.996	31657
260.058	11031
260.120	7948
260.182	6322
260.244	5631
260.306	4094
260.368	5419
260.430	9581
260.492	29226
260.554	21055
260.616	14928
260.678	40292
260.740	15885
260.802	8561
260.864	6879
260.926	5478
260.988	5754
261.050	12978
261.112	46727
261.174	46417
261.236	13688
261.298	11188
261.359	24737
261.421	12093
261.483	6437
261.545	5849
261.607	4843
261.669	5922
261.731	19304
261.793	16520
261.854	6895
261.916	7402
261.978	14730
262.040	7684
262.102	7031
262.164	10423
262.225	5624
262.287	8801
262.349	14488
262.411	5689
262.472	5852
262.534	21565
262.596	10915
262.658	5717
262.719	5579
262.781	15199
262.843	15800
262.904	6462
262.966	7283
263.028	18199
263.090	113438
263.151	77833
263.213	32712
263.275	16234
263.336	8037
263.398	6459
263.459	5416
263.521	8581
263.583	11645
263.644	4998
263.706	3422
263.767	3759
263.829	3372
263.891	4161
263.952	2885
264.014	6051
264.075	31193
264.137	21350
264.198	6490
264.260	5083
264.321	7161
264.383	37797
264.444	29377
264.506	8350
264.567	9290
264.629	41684
264.690	23415
264.752	9369
264.813	6253
264.875	6458
264.936	7399
264.998	4916
265.059	4082
265.120	5790
265.182	21485
265.243	57897
265.305	16931
265.366	7789
265.427	5343
265.489	5389
265.550	4872
265.611	5860
265.673	6262
265.734	4769
265.795	3791
265.857	4407
265.918	6564
265.979	36009
266.040	78788
266.102	21409
266.163	16026
266.224	10249
266.286	5763
266.347	4607
266.408	4547
266.469	4179
266.530	2840
266.592	4077
266.653	12176
266.714	6996
266.775	3943
266.836	4180
266.898	7138
266.959	12711
267.020	4404
267.081	4179
267.142	3164
267.203	3293
267.264	3184
267.326	3572
267.387	3040
267.448	3139
267.509	4140
267.570	3533
267.631	2937
267.692	2799
267.753	3291
267.814	5382
267.875	16778
267.936	14584
267.997	13966
268.058	6272
268.119	4711
268.180	4432
268.241	2783
268.302	2728
268.363	3381
268.424	5237
268.485	5168
268.546	2923
268.607	2398
268.668	2982
268.729	2888
268.790	4595
268.851	9781
268.912	16015
268.972	7563
269.033	4653
269.094	3565
269.155	3507
269.216	3104
269.277	3531
269.338	2797
269.398	4654
269.459	4012
269.520	6748
269.581	8240
269.642	7027
269.702	5122
269.763	4118
269.824	3901
269.885	7422
269.945	5192
270.006	5388
270.067	3428
270.128	3159
270.188	3230
270.249	3605
270.310	2147
270.370	3716
270.431	2945
270.492	3058
270.553	5546
270.613	12526
270.674	10637
270.734	4230
270.795	4266
270.856	6523
270.916	4025
270.977	3835
271.038	4893
271.098	5872
271.159	9559
271.219	5148
271.280	3653
271.340	3767
271.401	8603
271.462	9037
271.522	4527
271.583	3945
271.643	4211
271.704	4756
271.764	6809
271.825	21501
271.885	51549
271.946	23071
272.006	14020
272.066	37594
272.127	18885
272.187	7988
272.248	8234
272.308	17847
272.369	24293
272.429	10231
272.489	17785
272.550	10827
272.610	12056
272.671	7634
272.731	16608
272.791	11388
272.852	6665
272.912	5546
272.972	3937
273.033	6691
273.093	8703
273.153	9188
273.214	5886
273.274	16468
273.334	51180
273.394	24233
273.455	14485
273.515	36108
273.575	24803
273.635	12970
273.696	33598
273.756	22893
273.816	9079
273.876	10714
273.936	37206
273.997	20539
274.057	8334
274.117	8126
274.177	30362
274.237	62972
274.297	28824
274.358	27222
274.418	28830
274.478	14497
274.538	8026
274.598	16647
274.658	34457
274.718	20275
274.778	7348
274.838	9352
274.898	40009
274.958	38967
275.018	33533
275.078	12350
275.138	7478
275.198	7376
275.258	5962
275.318	9770
275.378	11123
275.438	8258
275.498	11038
275.558	38548
275.618	36883
275.678	17120
275.738	19527
275.798	19079
275.858	9601
275.918	4859
275.978	5909
276.038	4149
276.098	5770
276.157	20287
276.217	16765
276.277	8725
276.337	5660
276.397	5481
276.457	5454
276.517	4111
276.576	3147
276.636	4166
276.696	9518
276.756	15516
276.815	5357
276.875	5969
276.935	5958
276.995	4070
277.055	3340
277.114	3814
277.174	14964
277.234	14802
277.293	6001
277.353	4532
277.413	3628
277.472	4778
277.532	3341
277.592	6799
277.651	25260
277.711	12022
277.771	16866
277.830	32511
277.890	14397
277.950	42022
278.009	32744
278.069	12515
278.128	25084
278.188	13933
278.248	16667
278.307	24007
278.367	8712
278.426	5540
278.486	3883
278.545	4198
278.605	3102
278.664	4158
278.724	7203
278.783	33197
278.843	20508
278.902	6861
278.962	6563
279.021	7531
279.081	8172
279.140	6931
279.199	5100
279.259	4682
279.318	6234
279.378	7978
279.437	30677
279.496	100149
279.556	160675
279.615	44273
279.675	19456
279.734	20289
279.793	39201
279.853	25830
279.912	9415
279.971	7621
280.031	9340
280.090	29481
280.149	19783
280.208	64552
280.268	146999
280.327	42161
280.386	18068
280.445	23080
280.505	12648
280.564	13602
280.623	9428
280.682	19276
280.742	9552
280.801	5491
280.860	5684
280.919	7064
280.978	5532
281.037	5412
281.097	3827
281.156	4634
281.215	4805
281.274	14890
281.333	27767
281.392	7054
281.451	5549
281.510	5730
281.569	4105
281.628	3284
281.688	3573
281.747	6045
281.806	4532
281.865	3532
281.924	4059
281.983	3358
282.042	3459
282.101	3161
282.160	3159
282.219	3314
282.278	8000
282.337	12458
282.396	3660
282.454	4268
282.513	13608
282.572	17815
282.631	5750
282.690	3373
282.749	4742
282.808	6249
282.867	5550
282.926	3177
282.985	3164
283.043	2716
283.102	3705
283.161	8267
283.220	26337
283.279	13506
283.338	5354
283.396	4070
283.455	4622
283.514	6473
283.573	6322
283.631	5049
283.690	6301
283.749	7134
283.808	10907
283.866	5115
283.925	3189
283.984	4777
284.043	6182
284.101	4331
284.160	10892
284.219	9351
284.277	5576
284.336	16990
284.395	28649
284.453	10337
284.512	8220
284.570	9357
284.629	6066
284.688	6445
284.746	6335
284.805	8733
284.863	10665
284.922	9063
284.981	10767
285.039	17874
285.098	43395
285.156	140954
285.215	203336
285.273	106674
285.332	45952
285.390	28976
285.449	18978
285.507	13361
285.566	9732
285.624	8002
285.683	6233
285.741	5945
285.799	5591
285.858	5998
285.916	4390
285.975	4017
286.033	3847
286.091	4533
286.150	3157
286.208	7280
286.267	5739
286.325	6187
286.383	6885
286.442	4991
286.500	3333
286.558	3145
286.616	4025
286.675	5106
286.733	4319
286.791	4485
286.850	6219
286.908	10388
286.966	7377
287.024	4569
287.083	3326
287.141	3643
287.199	4750
287.257	5258
287.315	4338
287.374	8423
287.432	10611
287.490	5547
287.548	5575
287.606	6498
287.664	7096
287.723	13006
287.781	8637
287.839	6778
287.897	7981
287.955	10687
288.013	21435
288.071	76930
288.129	281576
288.187	238255
288.245	75611
288.303	38900
288.361	30079
288.419	25502
288.477	13758
288.535	10204
288.593	8698
288.651	6149
288.709	4978
288.767	5835
288.825	4453
288.883	6379
288.941	4786
288.999	4583
289.057	5232
289.115	5844
289.173	4410
289.231	5030
289.289	2918
289.346	3945
289.404	5514
289.462	7140
289.520	4428
289.578	3406
289.636	2767
289.694	2831
289.751	3021
289.809	3769
289.867	2849
289.925	5063
289.983	3087
290.040	2911
290.098	3447
290.156	4597
290.214	4792
290.271	2702
290.329	2652
290.387	2538
290.444	3376
290.502	3918
290.560	5107
290.617	4777
290.675	3135
290.733	3522
290.790	2590
290.848	4050
290.906	4038
290.963	4047
291.021	2974
291.078	4362
291.136	10043
291.194	43034
291.251	20587
291.309	6550
291.366	4757
291.424	4450
291.481	4400
291.539	3073
291.596	3622
291.654	2926
291.711	2447
291.769	6068
291.826	6688
291.884	3547
291.941	2704
291.999	3113
292.056	4096
292.114	2417
292.171	2897
292.228	4013
292.286	6115
292.343	8672
292.401	6793
292.458	3694
292.515	3546
292.573	4957
292.630	4496
292.687	5059
292.745	6355
292.802	23464
292.859	30531
292.917	21166
292.974	7873
293.031	5568
293.089	4065
293.146	4646
293.203	3843
293.260	4823
293.318	13070
293.375	12005
293.432	4595
293.489	3767
293.546	4271
293.604	10511
293.661	33025
293.718	35873
293.775	14213
293.832	7868
293.889	7979
293.947	7221
294.004	5213
294.061	8630
294.118	23741
294.175	51385
294.232	31024
294.289	11049
294.346	8328
294.403	7187
294.460	6096
294.517	5676
294.574	4765
294.631	4752
294.688	8601
294.745	37643
294.802	75203
294.859	40006
294.916	16441
294.973	11624
295.030	10161
295.087	7195
295.144	5987
295.201	4828
295.258	4806
295.315	10443
295.372	30193
295.429	20946
295.486	10893
295.542	22800
295.599	63628
295.656	46467
295.713	37534
295.770	20712
295.827	10425
295.883	9504
295.940	11154
295.997	14236
296.054	8300
296.111	6367
296.167	4811
296.224	4615
296.281	4426
296.338	4688
296.394	5122
296.451	11251
296.508	30270
296.564	29152
296.621	26676
296.678	54430
296.734	33629
296.791	14425
296.848	12327
296.904	18696
296.961	31209
297.018	40110
297.074	17915
297.131	9470
297.187	10313
297.244	21285
297.301	58999
297.357	32447
297.414	12230
297.470	10133
297.527	7428
297.583	6627
297.640	6052
297.696	5735
297.753	4293
297.809	4970
297.866	4284
297.922	4900
297.979	4490
298.035	6785
298.092	13884
298.148	23801
298.204	11075
298.261	13915
298.317	40686
298.374	35421
298.430	15712
298.486	12638
298.543	12036
298.599	9602
298.656	11724
298.712	35030
298.768	47172
298.824	17573
298.881	7554
298.937	7031
298.993	7969
299.050	8608
299.106	6464
299.162	6399
299.218	5107
299.275	4645
299.331	6687
299.387	22339
299.443	36967
299.500	17007
299.556	8132
299.612	7552
299.668	5766
299.724	4898
299.780	4698
299.837	6608
299.893	18259
299.949	33596
300.005	25223
300.061	48251
300.117	37669
300.173	14957
300.229	12249
300.285	14654
300.341	10266
300.397	6508
300.453	5090
300.510	5453
300.566	5709
300.622	6084
300.678	14647
300.734	22576
300.790	32158
300.845	22767
300.901	20002
300.957	24856
301.013	11471
301.069	7472
301.125	9518
301.181	10586
301.237	5644
301.293	4128
301.349	5024
301.405	3834
301.461	5329
301.516	6113
301.572	7856
301.628	9693
301.684	11435
301.740	21055
301.796	14874
301.851	17168
301.907	21513
301.963	26395
302.019	72567
302.074	97232
302.130	53291
302.186	22530
302.242	13447
302.297	13068
302.353	17603
302.409	21187
302.464	15109
302.520	25882
302.576	41817
302.631	27790
302.687	13460
302.743	9327
302.798	8465
302.854	8526
302.910	11937
302.965	17453
303.021	14456
303.076	13753
303.132	16609
303.187	12317
303.243	7084
303.299	5991
303.354	5411
303.410	5333
303.465	5448
303.521	5767
303.576	6450
303.632	9700
303.687	23410
303.743	32063
303.798	15543
303.853	9547
303.909	6957
303.964	7352
304.020	11880
304.075	11048
304.130	15209
304.186	19852
304.241	17535
304.297	11620
304.352	7877
304.358	7789
304.407	7060
304.449	7293
304.463	7371
304.518	6953
304.539	6899
304.573	6801
304.629	10302
304.630	10480
304.684	18706
304.720	30179
304.739	36066
304.794	25539
304.811	22528
304.850	13970
304.902	9556
304.905	9342
304.960	9453
304.992	9284
305.015	9223
305.071	8275
305.083	7988
305.126	6705
305.173	5678
305.181	5555
305.236	6264
305.264	6916
305.292	7623
305.347	7905
305.354	8033
305.402	9050
305.445	10827
305.457	11363
305.512	12073
305.535	11932
305.567	11081
305.622	14710
305.626	15489
305.678	33192
305.716	47415
305.733	52548
305.788	43089
305.807	43133
305.843	39951
305.897	43543
305.898	43628
305.953	31902
305.988	25782
306.008	21417
306.063	14140
306.078	12521
306.118	10503
306.168	8713
306.173	8612
306.228	7968
306.259	8280
306.283	8928
306.338	9387
306.349	9684
306.393	10884
306.440	11888
306.448	12065
306.503	15136
306.530	21195
306.558	37338
306.613	76519
306.620	78696
306.668	73916
306.711	67833
306.723	63441
306.778	36897
306.801	28255
306.833	21920
306.888	13226
306.892	12743
306.943	11987
306.982	10751
306.997	10700
307.052	12944
307.072	14165
307.107	20499
307.162	35951
307.163	36083
307.217	61614
307.253	77136
307.272	78697
307.327	68763
307.343	65588
307.381	47198
307.434	33548
307.436	35142
307.491	82052
307.524	100422
307.546	95455
307.600	66652
307.614	60647
307.655	39137
307.704	20487
307.710	21201
307.765	33126
307.795	45865
307.819	68803
307.874	105791
307.885	109713
307.929	69460
307.975	36012
307.984	35666
308.038	39257
308.065	46946
308.093	75128
308.148	155926
308.156	167784
308.202	275269
308.246	322925
308.257	297742
308.312	161042
308.336	108046
308.366	87406
308.421	54141
308.426	51042
308.475	37351
308.517	27017
308.530	25910
308.585	22685
308.607	21822
308.639	24207
308.694	32239
308.697	33149
308.748	85836
308.787	121574
308.803	119721
308.857	93270
308.877	86132
308.912	69137
308.967	45682
308.967	45214
309.021	47040
309.058	50587
309.076	60396
309.130	97914
309.148	115399
309.185	212351
309.238	364611
309.239	367219
309.293	419532
309.328	430133
309.348	358970
309.402	172086
309.418	121440
309.457	91124
309.508	54694
309.511	54140
309.566	44917
309.598	40039
309.620	44232
309.674	57201
309.688	59564
309.729	57979
309.778	54831
309.783	53602
309.837	38699
309.868	31330
309.892	37606
309.946	55749
309.959	59739
310.001	87938
310.049	114838
310.055	110991
310.109	71640
310.139	51030
310.163	43072
310.218	27128
310.229	23921
310.272	24043
310.319	24519
310.326	25745
310.381	33848
310.409	37712
310.435	36243
310.489	33754
310.499	33160
310.543	38104
310.589	43401
310.598	45604
310.652	57510
310.679	62779
310.706	51729
310.760	29283
310.769	25741
310.814	20800
310.859	15947
310.868	16092
310.923	16619
310.948	16984
310.977	20451
311.031	26980
311.038	27776
311.085	30361
311.128	32439
311.139	31583
311.193	26671
311.218	24275
311.247	22905
311.301	20284
311.308	19904
311.356	22691
311.398	24988
311.410	24720
311.464	22860
311.488	21953
311.518	20130
311.572	16808
311.578	16389
311.626	21068
311.668	25062
311.680	28286
311.734	42485
311.758	48567
311.788	50294
311.842	53036
311.847	53133
311.896	57293
311.937	60680
311.950	64629
312.004	80654
312.027	87344
312.058	71708
312.112	43201
312.117	40179
312.165	32576
312.207	25816
312.297	50139
312.386	51337
312.476	28745
312.566	46517
312.656	34633
312.745	23108
312.835	31870
312.925	52621
313.015	50816
313.104	64484
313.194	36133
313.284	31034
313.374	35355
313.463	24239
313.553	20948
313.643	23288
313.732	25079
313.822	27420
313.912	41885
314.001	30167
314.091	31778
314.180	67377
314.270	35709
314.360	49881
314.449	41642
314.539	25427
314.628	22175
314.718	32000
314.808	59574
314.897	32701
314.987	19781
315.076	20833
315.166	33001
315.255	61125
315.345	34416
315.434	58189
315.524	41639
315.613	54984
315.703	32919
315.792	42879
315.881	26786
315.971	27151
316.060	60731
316.150	186601
316.239	210495
316.328	102978
316.418	31546
316.507	30859
316.597	59941
316.686	42231
316.775	51538
316.865	197681
316.954	53430
317.043	17196
317.133	17845
317.222	17997
317.311	18848
317.400	15657
317.490	17241
317.579	22347
317.668	16539
317.757	18629
317.847	26343
317.936	25431
318.025	36657
318.114	28164
318.203	35285
318.293	58952
318.382	56856
318.471	47693
318.560	68604
318.649	206130
318.738	79286
318.828	26443
318.917	34408
319.006	52975
319.095	193569
319.184	258082
319.273	165713
319.362	56621
319.451	27865
319.540	25556
319.629	34785
319.718	62249
319.807	39995
319.896	66663
319.985	262205
320.074	154766
320.163	51421
320.252	122502
320.341	95255
320.430	83943
320.519	50367
320.608	38457
320.697	35130
320.786	31186
320.875	29515
320.964	31426
321.053	39353
321.142	57111
321.230	94473
321.319	70833
321.408	154926
321.497	122424
321.586	58239
321.675	134255
321.764	173010
321.852	105127
321.941	85805
322.030	60374
322.119	67695
322.207	138644
322.296	256170
322.385	142603
322.474	90114
322.562	116251
322.651	138212
322.740	65192
322.829	130157
322.917	279029
323.006	146964
323.095	63187
323.183	105328
323.272	113181
323.361	123568
323.449	436694
323.538	215853
323.626	298358
323.715	292973
323.804	83387
323.892	299169
323.981	259989
324.069	72981
324.158	173290
324.246	259147
324.335	48739
324.424	51947
324.512	26686
324.601	24766
324.689	29175
324.778	52371
324.866	182892
324.954	73315
325.043	36511
325.131	77106
325.220	221294
325.308	270234
325.397	158971
325.485	133557
325.574	25871
325.662	21306
325.750	21273
325.839	21246
325.927	22067
326.015	41687
326.104	75702
326.192	181065
326.280	34789
326.369	27936
326.457	26472
326.545	35488
326.634	25705
326.722	17338
326.810	17471
326.898	19813
326.987	28811
327.075	44757
327.163	105560
327.251	130988
327.340	121770
327.428	36290
327.516	21830
327.604	22030
327.692	37655
327.781	48944
327.869	141344
327.957	149347
328.045	40753
328.133	21659
328.221	53055
328.309	46681
328.397	25100
328.485	58528
328.574	35226
328.662	58337
328.750	103216
328.838	83137
328.926	35450
329.014	19121
329.102	24416
329.190	84372
329.278	74306
329.366	17527
329.454	18015
329.542	25177
329.630	20738
329.718	20887
329.806	20617
329.893	24283
329.981	36592
330.069	14486
330.157	21149
330.245	56619
330.333	42216
330.421	19042
330.509	37688
330.597	94634
330.684	118365
330.772	50986
330.860	104040
330.948	142360
331.036	72226
331.123	20375
331.211	20914
331.299	40030
331.387	67358
331.475	195810
331.562	79560
331.650	26707
331.738	32201
331.825	89230
331.913	38724
332.001	20984
332.089	31803
332.176	113122
332.264	203603
332.352	255176
332.439	56974
332.527	38359
332.614	34574
332.702	82119
332.790	32667
332.877	67276
332.965	255991
333.052	63104
333.140	32751
333.228	103035
333.315	39784
333.403	37361
333.490	143299
333.578	162814
333.665	39460
333.753	31915
333.840	27686
333.928	32906
334.015	143820
334.103	184325
334.190	357520
334.278	176466
334.365	66579
334.452	52585
334.540	29395
334.627	40292
334.715	83487
334.802	71495
334.889	467151
334.977	669158
335.064	83858
335.151	31709
335.239	35115
335.326	48403
335.413	110805
335.501	256637
335.588	64296
335.675	50331
335.762	55083
335.850	101345
335.937	44838
336.024	78684
336.111	466891
336.199	326245
336.286	51325
336.373	25578
336.460	19482
336.547	19732
336.635	34541
336.722	27055
336.809	31358
336.896	31304
336.983	75094
337.070	243845
337.157	335156
337.245	330274
337.332	372281
337.419	61277
337.506	44994
337.593	34269
337.680	67071
337.767	306644
337.854	118146
337.941	127898
338.028	207237
338.115	100514
338.202	57500
338.289	97902
338.376	352854
338.463	185508
338.550	136950
338.637	238098
338.724	85293
338.811	257900
338.898	81564
338.984	28972
339.071	46765
339.158	92841
339.245	190675
339.332	81924
339.419	99139
339.506	175659
339.593	26965
339.679	20449
339.766	16672
339.853	26454
339.940	43550
340.027	26961
340.113	16499
340.200	23768
340.287	31631
340.374	28525
340.460	42223
340.547	35677
340.634	18180
340.720	59945
340.807	62999
340.894	18860
340.980	30994
341.067	41576
341.154	19876
341.240	19486
341.327	36481
341.414	20771
341.500	24004
341.587	18985
341.674	18204
341.760	23028
341.847	30952
341.933	20122
342.020	14106
342.106	10531
342.193	11505
342.279	20773
342.366	15824
342.452	27741
342.539	20922
342.625	22403
342.712	66101
342.798	40523
342.885	22064
342.971	16284
343.058	42393
343.144	26487
343.230	15408
343.317	13528
343.403	13035
343.490	10743
343.576	12264
343.662	16043
343.749	40620
343.835	147943
343.921	63029
344.008	76236
344.094	267202
344.180	98752
344.267	26290
344.353	71327
344.439	199190
344.525	76452
344.612	24921
344.698	35876
344.784	38998
344.870	13688
344.957	10749
345.043	16544
345.129	14361
345.215	24648
345.301	22155
345.387	15292
345.474	15015
345.560	20089
345.646	44256
345.732	38182
345.818	28699
345.904	20589
345.990	20470
346.076	28920
346.162	111123
346.249	47394
346.335	29079
346.421	14369
346.507	23561
346.593	107313
346.679	53513
346.765	24994
346.851	14244
346.937	16947
347.023	14238
347.108	25826
347.194	23496
347.280	14362
347.366	12946
347.452	20327
347.538	106213
347.624	107396
347.710	149611
347.796	70434
347.882	49237
347.967	73258
348.053	60603
348.139	82581
348.225	29830
348.311	33041
348.397	27040
348.482	14439
348.568	21679
348.654	11626
348.740	8464
348.825	10057
348.911	13827
348.997	45875
349.083	159054
349.168	80017
349.254	15659
349.340	17522
349.425	13894
349.511	19995
349.597	91371
349.682	111806
349.768	68622
349.854	58550
349.939	30028
350.025	21441
350.110	18985
350.196	16853
350.282	9900
350.367	11772
350.453	48335
350.538	112725
350.624	62068
350.709	33305
350.795	19114
350.880	23828
350.966	58902
351.051	52627
351.137	70973
351.222	16911
351.308	17602
351.393	60131
351.479	29242
351.564	10993
351.649	11984
351.735	12986
351.820	9465
351.906	27176
351.991	89384
352.076	59462
352.162	74412
352.247	23090
352.332	13743
352.418	18850
352.503	23057
352.588	68917
352.673	95594
352.759	24315
352.844	14374
352.929	10842
353.014	21782
353.100	17504
353.185	15842
353.270	27671
353.355	49928
353.441	19278
353.526	35946
353.611	40581
353.696	34615
353.781	19597
353.866	12189
353.952	10632
354.037	18177
354.122	45297
354.207	48448
354.292	40317
354.377	13370
354.462	10765
354.547	12531
354.632	16575
354.717	47988
354.802	88855
354.887	26492
354.972	24951
355.057	33941
355.142	25852
355.227	47353
355.312	21335
355.397	28074
355.482	68030
355.567	58392
355.652	66970
355.737	64025
355.822	64048
355.907	102875
355.991	19937
356.076	9975
356.161	12899
356.246	11994
356.331	11110
356.416	17139
356.501	91490
356.585	216550
356.670	76563
356.755	18608
356.840	20740
356.924	58705
357.009	279827
357.094	201511
357.179	46281
357.263	113323
357.348	60012
357.433	44242
357.517	33433
357.602	71328
357.687	63659
357.771	45864
357.856	42635
357.941	33088
358.025	39557
358.110	238134
358.195	209930
358.279	29055
358.364	15567
358.448	37003
358.533	133149
358.617	153801
358.702	134365
358.787	78395
358.871	35488
358.956	27966
359.040	12151
359.125	8851
359.209	9900
359.294	15644
359.378	32715
359.462	22385
359.547	22028
359.631	38648
359.716	17966
359.800	14808
359.885	39656
359.969	26788
360.053	30107
360.138	109237
360.222	47816
360.306	24298
360.391	26689
360.475	24531
360.559	56897
360.644	58835
360.728	67834
360.812	46874
360.896	194633
360.981	140542
361.065	117683
361.149	30200
361.233	32475
361.318	46200
361.402	43663
361.486	48962
361.570	26512
361.654	13439
361.739	22805
361.823	81927
361.907	225286
361.991	65496
362.075	19877
362.159	42212
362.243	38693
362.327	35876
362.411	72676
362.495	50325
362.580	27596
362.664	13984
362.748	11303
362.832	9825
362.916	10512
363.000	17614
363.084	63784
363.168	231864
363.252	95046
363.336	30610
363.420	44839
363.503	139081
363.587	303962
363.671	68946
363.755	24526
363.839	37246
363.923	19421
364.007	21353
364.091	45692
364.175	72738
364.258	241317
364.342	219881
364.426	36763
364.510	30017
364.594	38323
364.677	50288
364.761	127733
364.845	175274
364.929	40766
365.013	37835
365.096	26405
365.180	40959
365.264	47040
365.347	268900
365.431	234531
365.515	79716
365.598	21990
365.682	14467
365.766	38892
365.849	101504
365.933	35173
366.017	46874
366.100	65997
366.184	30274
366.267	31832
366.351	43907
366.435	46829
366.518	12144
366.602	8339
366.685	9438
366.769	11817
366.852	32903
366.936	81050
367.019	33354
367.103	30726
367.186	102546
367.270	40507
367.353	8855
367.436	16983
367.520	27149
367.603	12251
367.687	13271
367.770	28093
367.853	20459
367.937	33348
368.020	96232
368.104	36575
368.187	20387
368.270	29480
368.353	28753
368.437	54871
368.520	288864
368.603	229032
368.687	62103
368.770	127327
368.853	52790
368.936	36506
369.020	85503
369.103	31008
369.186	12482
369.269	14610
369.352	17003
369.436	43807
369.519	35305
369.602	14357
369.685	16291
369.768	35920
369.851	51982
369.934	19309
370.018	18156
370.101	29223
370.184	30129
370.267	32973
370.350	27077
370.433	51090
370.516	74089
370.599	126510
370.682	53755
370.765	58642
370.848	73597
370.931	146419
371.014	135089
371.097	38042
371.180	13056
371.263	9616
371.346	11216
371.429	16327
371.511	17933
371.594	21582
371.677	37514
371.760	90103
371.843	43719
371.926	51914
372.009	217199
372.091	120482
372.174	61621
372.257	139984
372.340	97337
372.423	66484
372.505	162150
372.588	81642
372.671	31702
372.754	113609
372.836	108258
372.919	60180
373.002	223334
373.085	101698
373.167	27505
373.250	40178
373.332	108104
373.415	129851
373.498	301744
373.580	189475
373.663	86948
373.746	208101
373.828	78245
373.911	36980
373.993	35512
374.076	135222
374.159	281546
374.241	98846
374.324	98755
374.406	111204
374.489	54903
374.571	233246
374.654	182377
374.736	46087
374.819	144414
374.901	214357
374.983	281434
375.066	86751
375.148	39113
375.231	100735
375.313	307339
375.395	204226
375.478	47620
375.560	18186
375.643	17283
375.725	43665
375.807	192188
375.890	317654
375.972	346147
376.054	122329
376.136	261130
376.219	188531
376.301	48186
376.383	172236
376.465	138956
376.548	49229
376.630	56707
376.712	155767
376.794	128638
376.877	18782
376.959	10553
377.041	14716
377.123	43099
377.205	108718
377.287	30678
377.369	8594
377.452	13646
377.534	13162
377.616	12197
377.698	11482
377.780	8323
377.862	9138
377.944	10627
378.026	20877
378.108	30904
378.190	12129
378.272	10846
378.354	7852
378.436	8970
378.518	17396
378.600	105144
378.682	112714
378.764	63619
378.846	88817
378.928	39412
379.010	38348
379.091	26427
379.173	33386
379.255	17783
379.337	13913
379.419	22692
379.501	94521
379.583	86264
379.664	28564
379.746	24334
379.828	63205
379.910	101023
379.991	108847
380.073	35646
380.155	19585
380.237	14304
380.318	9925
380.400	9623
380.482	16261
380.564	35164
380.645	31380
380.727	32831
380.809	21226
380.890	14923
380.972	13479
381.053	11130
381.135	14045
381.217	19063
381.298	69153
381.380	67920
381.461	36659
381.543	104938
381.624	231606
381.706	74192
381.787	36848
381.869	34866
381.951	34997
382.032	184856
382.113	224080
382.195	70265
382.276	54242
382.358	36572
382.439	108004
382.521	137133
382.602	225559
382.684	142354
382.765	157635
382.846	232753
382.928	168621
383.009	135725
383.090	54548
383.172	145786
383.253	403609
383.334	220690
383.416	203225
383.497	168764
383.578	77177
383.659	129337
383.741	168528
383.822	487187
383.903	450209
383.984	119473
384.066	216243
384.147	222019
384.228	60222
384.309	35274
384.390	29082
384.471	16653
384.553	22041
384.634	36037
384.715	53512
384.796	27423
384.877	24760
384.958	60766
385.039	100353
385.120	44725
385.201	17656
385.282	36600
385.363	67876
385.444	47855
385.525	25743
385.606	75853
385.687	126185
385.768	51048
385.849	65169
385.930	74593
386.011	191252
386.092	101424
386.173	27092
386.254	27174
386.335	52650
386.416	90846
386.496	73510
386.577	94421
386.658	90456
386.739	54329
386.820	58385
386.901	65852
386.981	47241
387.062	22494
387.143	16824
387.224	52700
387.304	104788
387.385	59110
387.466	40253
387.547	68248
387.627	39667
387.708	26697
387.789	109025
387.869	191416
387.950	93634
388.031	19593
388.111	22991
388.192	84215
388.273	197411
388.353	146010
388.434	39213
388.514	37552
388.595	106481
388.676	175175
388.756	103827
388.837	67448
388.917	69617
388.998	44780
389.078	76969
389.159	63217
389.239	35910
389.320	16841
389.400	22254
389.480	34531
389.561	100830
389.641	78422
389.722	23802
389.802	31813
389.883	38898
389.963	87198
390.043	151077
390.124	124274
390.204	39747
390.284	66062
390.365	83550
390.445	102877
390.525	328290
390.605	372070
390.686	106525
390.766	26042
390.846	13090
390.927	9999
391.007	12723
391.087	17663
391.167	27846
391.247	20254
391.328	52150
391.408	103975
391.488	85586
391.568	27080
391.648	22693
391.728	20957
391.808	16249
391.888	18393
391.969	27194
392.049	75392
392.129	68931
392.209	69127
392.289	80791
392.369	75075
392.449	103985
392.529	104767
392.609	32985
392.689	32485
392.769	58658
392.849	95226
392.929	68404
393.009	189938
393.089	148918
393.169	32424
393.248	26103
393.328	123739
393.408	305053
393.488	106550
393.568	22188
393.648	15575
393.728	12718
393.807	13724
393.887	12807
393.967	12252
394.047	15122
394.127	21965
394.206	30757
394.286	70513
394.366	379351
394.446	779463
394.525	301956
394.605	58654
394.685	35682
394.764	103175
394.844	223175
394.924	220635
395.003	57332
395.083	21094
395.163	18914
395.242	15698
395.322	17884
395.402	14697
395.481	16339
395.561	41097
395.640	194389
395.720	182087
395.799	171841
395.879	265391
395.958	87128
396.038	111810
396.117	519213
396.197	1017761
396.276	498968
396.356	183472
396.435	128322
396.515	84844
396.594	31676
396.673	39138
396.753	43896
396.832	154240
396.912	243458
396.991	114651
397.070	27215
397.150	15664
397.229	13384
397.308	15304
397.388	26867
397.467	15821
397.546	14501
397.625	12469
397.705	13402
397.784	18850
397.863	15517
397.942	10206
398.022	10177
398.101	35704
398.180	203244
398.259	230411
398.338	70169
398.417	20203
398.497	22747
398.576	23097
398.655	15811
398.734	10248
398.813	12252
398.892	31813
398.971	188894
399.050	213824
399.129	50480
399.208	18730
399.287	11502
399.366	10013
399.445	11800
399.524	12768
399.603	10253
399.682	13383
399.761	32024
399.840	153090
399.919	283041
399.998	78413
400.077	14474
400.156	9274
400.235	16135
400.313	23713
400.392	24623
400.471	33212
400.550	69994
400.629	45149
400.708	19553
400.786	25693
400.865	64916
400.944	121281
401.023	58469
401.102	12682
401.180	7927
401.259	19083
401.338	25133
401.416	27066
401.495	20257
401.574	26112
401.652	22729
401.731	23318
401.810	31525
401.888	18638
401.967	6961
402.046	7840
402.124	14864
402.203	35016
402.281	24308
402.360	19147
402.438	84370
402.517	139598
402.596	48672
402.674	42869
402.753	42473
402.831	21521
402.910	19191
402.988	33901
403.066	101814
403.145	96394
403.223	28143
403.302	51564
403.380	60774
403.459	49008
403.537	39652
403.615	33184
403.694	15904
403.772	5978
403.850	5525
403.929	5298
404.007	8149
404.085	12596
404.164	16155
404.242	15405
404.320	15064
404.398	37902
404.477	53906
404.555	118856
404.633	231943
404.711	70285
404.789	21950
404.868	16342
404.946	16589
405.024	10311
405.102	12201
405.180	5376
405.258	5407
405.336	7973
405.415	11497
405.493	38581
405.571	58888
405.649	20361
405.727	8906
405.805	19352
405.883	23516
405.961	19725
406.039	42785
406.117	33632
406.195	15166
406.273	19461
406.351	116070
406.429	203406
406.507	86615
406.585	36052
406.663	10279
406.740	9996
406.818	13548
406.896	15002
406.974	11027
407.052	8549
407.130	47270
407.208	159025
407.285	101870
407.363	35187
407.441	12000
407.519	15571
407.596	12174
407.674	16706
407.752	35232
407.830	84997
407.907	98226
407.985	30771
408.063	20257
408.141	53677
408.218	50733
408.296	43199
408.373	19624
408.451	10716
408.529	10883
408.606	8594
408.684	5776
408.762	3908
408.839	5375
408.917	3025
408.994	4176
409.072	8052
409.149	8686
409.227	3580
409.304	4794
409.382	4125
409.459	5274
409.537	3932
409.614	4257
409.692	5018
409.769	3561
409.846	4786
409.924	10587
410.001	12673
410.079	6836
410.156	6698
410.233	7045
410.311	9367
410.388	6685
410.465	3894
410.543	5954
410.620	4652
410.697	5079
410.775	9032
410.852	9408
410.929	7277
411.006	9279
411.083	7832
411.161	8943
411.238	19709
411.315	34921
411.392	12449
411.469	5712
411.547	6870
411.624	5586
411.701	4383
411.778	4859
411.855	11228
411.932	13233
412.009	9662
412.086	9462
412.163	16842
412.240	26868
412.317	23628
412.394	31410
412.471	15271
412.548	4893
412.625	5383
412.702	8470
412.779	26959
412.856	24935
412.933	10459
413.010	8032
413.087	7949
413.164	21248
413.241	56120
413.318	30332
413.395	9434
413.471	12598
413.548	11789
413.625	8111
413.702	14454
413.779	22377
413.855	7904
413.932	4481
414.009	7073
414.086	6503
414.162	3954
414.239	7022
414.316	27866
414.393	74158
414.469	60285
414.546	10405
414.623	5414
414.699	5988
414.776	6659
414.853	9062
414.929	26427
415.006	29474
415.082	21807
415.159	27313
415.236	11550
415.312	11780
415.389	9515
415.465	15257
415.542	12698
415.618	8642
415.695	13445
415.771	9748
415.848	9056
415.924	11066
416.000	16808
416.077	13225
416.153	13454
416.230	7912
416.306	4005
416.383	12888
416.459	13539
416.535	6681
416.612	8488
416.688	17278
416.764	7972
416.841	6293
416.917	6889
416.993	10314
417.069	7899
417.146	16378
417.222	19645
417.298	13080
417.374	7611
417.451	8711
417.527	7789
417.603	8548
417.679	6587
417.755	7334
417.831	4891
417.908	4229
417.984	4673
418.060	5533
418.136	7638
418.212	15883
418.288	10997
418.364	10814
418.440	8262
418.516	9136
418.592	22366
418.668	49975
418.744	41645
418.820	40546
418.896	15936
418.972	5408
419.048	3566
419.124	8683
419.200	17178
419.276	10032
419.352	2407
419.428	5994
419.504	12142
419.579	11751
419.655	8458
419.731	5961
419.807	9718
419.883	27249
419.959	39521
420.034	15067
420.110	13434
420.186	40024
420.262	59291
420.337	19190
420.413	11692
420.489	6639
420.565	4012
420.640	3894
420.716	4651
420.792	4154
420.867	7327
420.943	14141
421.019	10173
421.094	10539
421.170	9393
421.245	10389
421.321	6351
421.397	9954
421.472	10678
421.548	12234
421.623	18673
421.699	8454
421.774	5990
421.850	5752
421.925	7757
422.001	9007
422.076	5371
422.152	3339
422.227	5295
422.302	8001
422.378	4157
422.453	9177
422.529	14282
422.604	21621
422.679	91664
422.755	129439
422.830	85891
422.905	21443
422.981	4749
423.056	4980
423.131	3894
423.207	4126
423.282	3598
423.357	9887
423.432	13763
423.508	9902
423.583	17206
423.658	30310
423.733	14728
423.808	20121
423.883	22611
423.959	43931
424.034	39325
424.109	32603
424.184	44996
424.259	28325
424.334	5762
424.409	4540
424.484	3249
424.559	5466
424.634	5077
424.709	5772
424.784	7808
424.859	7144
424.934	8957
425.009	19396
425.084	48336
425.159	44765
425.234	13130
425.309	4144
425.384	6245
425.459	11942
425.534	9978
425.609	12662
425.683	17347
425.758	7547
425.833	8918
425.908	12935
425.983	11422
426.058	43127
426.132	57061
426.207	24387
426.282	23508
426.357	50960
426.431	23891
426.506	7062
426.581	10894
426.655	13887
426.730	8695
426.805	9693
426.879	12501
426.954	7051
427.029	11341
427.103	27027
427.178	98001
427.253	123138
427.327	30018
427.402	16608
427.476	54223
427.551	51659
427.625	16926
427.700	24322
427.774	14955
427.849	17576
427.923	16442
427.998	9222
428.072	9937
428.147	18725
428.221	35815
428.296	62277
428.370	36718
428.444	10838
428.519	29349
428.593	68437
428.667	102653
428.742	78509
428.816	96827
428.890	67078
428.965	123200
429.039	74450
429.113	106054
429.188	94930
429.262	16879
429.336	9672
429.410	28111
429.485	50563
429.559	56237
429.633	94020
429.707	30708
429.781	14266
429.855	71458
429.930	186237
430.004	164760
430.078	263208
430.152	327345
430.226	113356
430.300	32630
430.374	19331
430.448	11983
430.522	32454
430.596	171204
430.670	235912
430.744	64081
430.818	124929
430.892	93522
430.966	17477
431.040	8596
431.114	7155
431.188	7234
431.262	8860
431.336	14162
431.410	16858
431.484	72073
431.557	108584
431.631	22755
431.705	5833
431.779	6865
431.853	19337
431.927	41105
432.000	14991
432.074	5128
432.148	14283
432.222	28638
432.295	12506
432.369	6600
432.443	8474
432.516	32157
432.590	126643
432.664	128768
432.737	30824
432.811	6476
432.885	3683
432.958	1718
433.032	3475
433.106	4194
433.179	3331
433.253	2026
433.326	2853
433.400	2552
433.473	3177
433.547	3473
433.620	2969
433.694	4996
433.767	13511
433.841	19608
433.914	10583
433.988	4090
434.061	5513
434.134	14856
434.208	13782
434.281	4711
434.355	4574
434.428	6016
434.501	5486
434.575	4485
434.648	10544
434.721	10588
434.795	18484
434.868	24358
434.941	6548
435.014	2820
435.088	3270
435.161	3729
435.234	3952
435.307	7894
435.381	6759
435.454	6264
435.527	4206
435.600	3492
435.673	2922
435.746	2128
435.819	2207
435.892	3047
435.966	6053
436.039	9377
436.112	14628
436.185	8430
436.258	3451
436.331	1383
436.404	1906
436.477	1789
436.550	2643
436.623	4491
436.696	9995
436.769	6468
436.842	5015
436.915	6527
436.987	13695
437.060	12465
437.133	6615
437.206	4986
437.279	7581
437.352	4733
437.425	3214
437.498	3816
437.570	7518
437.643	9435
437.716	4958
437.789	2790
437.861	2281
437.934	9306
438.007	15265
438.080	5839
438.152	3499
438.225	4252
438.298	17295
438.370	122830
438.443	154739
438.516	30985
438.588	8652
438.661	3919
438.734	4219
438.806	5476
438.879	8469
438.951	6197
439.024	7497
439.096	7182
439.169	4326
439.241	3306
439.314	3227
439.386	11427
439.459	30655
439.531	51817
439.604	40070
439.676	7173
439.749	3768
439.821	3536
439.893	3615
439.966	5554
440.038	12406
440.110	10305
440.183	5543
440.255	3633
440.327	5949
440.400	14189
440.472	83967
440.544	142199
440.617	37260
440.689	7076
440.761	6666
440.833	10496
440.905	12500
440.978	5398
441.050	4136
441.122	3713
441.194	3366
441.266	4409
441.338	7850
441.411	6497
441.483	14195
441.555	51855
441.627	33881
441.699	16639
441.771	36470
441.843	27116
441.915	7525
441.987	2831
442.059	5709
442.131	9839
442.203	15814
442.275	19284
442.347	20410
442.419	8093
442.491	6741
442.563	8397
442.635	24445
442.706	51796
442.778	100089
442.850	29272
442.922	5266
442.994	6660
443.066	16125
443.137	18030
443.209	13959
443.281	7607
443.353	9820
443.425	26448
443.496	27169
443.568	10736
443.640	8022
443.711	12161
443.783	8280
443.855	7848
443.926	5826
443.998	4862
444.070	16460
444.141	16964
444.213	11869
444.285	10676
444.356	19189
444.428	36936
444.499	22527
444.571	5696
444.642	3108
444.714	3705
444.785	5750
444.857	12017
444.928	51189
445.000	82678
445.071	35609
445.143	73771
445.214	37059
445.285	13453
445.357	66785
445.428	109613
445.500	45772
445.571	93101
445.642	69657
445.714	26885
445.785	109160
445.856	76325
445.928	12984
445.999	8900
446.070	7264
446.141	6636
446.213	9981
446.284	9523
446.355	13415
446.426	20326
446.497	9773
446.569	12879
446.640	37835
446.711	22917
446.782	8770
446.853	17379
446.924	36783
446.995	14197
447.066	12072
447.138	29939
447.209	36373
447.280	8118
447.351	2998
447.422	2619
447.493	7980
447.564	16187
447.635	9928
447.706	7587
447.777	4666
447.847	3382
447.918	3564
447.989	9802
448.060	18113
448.131	35959
448.202	65150
448.273	25069
448.344	18506
448.414	7329
448.485	4397
448.556	4952
448.627	3278
448.698	2891
448.768	2271
448.839	4031
448.910	15482
448.981	35269
449.051	12601
449.122	4748
449.193	3604
449.263	4862
449.334	6384
449.405	3943
449.475	8630
449.546	15027
449.616	19534
449.687	40216
449.758	19267
449.828	8941
449.899	4842
449.969	3422
450.040	3381
450.110	8253
450.181	26518
450.251	14769
450.322	4420
450.392	4988
450.463	9058
450.533	4917
450.604	5273
450.674	8383
450.744	12970
450.815	12580
450.885	7221
450.955	4552
451.026	3955
451.096	4390
451.166	10802
451.237	13833
451.307	63749
451.377	73314
451.447	13305
451.518	4920
451.588	6361
451.658	7756
451.728	8095
451.799	31789
451.869	117996
451.939	57361
452.009	10306
452.079	5030
452.149	5908
452.219	9016
452.289	45920
452.360	113450
452.430	34589
452.500	8371
452.570	8242
452.640	7946
452.710	18731
452.780	75373
452.850	58536
452.920	21613
452.990	14417
453.060	7698
453.129	8606
453.199	12194
453.269	24016
453.339	173829
453.409	323689
453.479	189339
453.549	314238
453.619	419911
453.688	370688
453.758	72485
453.828	16201
453.898	10687
453.968	11992
454.037	9946
454.087	9611
454.107	9468
454.168	8686
454.177	8562
454.247	10512
454.249	10673
454.316	14583
454.330	13740
454.386	9529
454.411	12905
454.456	17588
454.492	47726
454.525	74856
454.574	56551
454.595	48920
454.655	15880
454.665	10588
454.734	9969
454.736	10327
454.804	15683
454.817	20261
454.873	35673
454.898	61868
454.943	110060
454.979	93126
455.013	79169
455.060	48927
455.082	35626
455.141	18778
455.152	15163
455.221	24593
455.222	25604
455.291	87421
455.303	87635
455.360	91708
455.384	80287
455.430	55974
455.465	64083
455.499	71552
455.546	63993
455.569	59445
455.627	78914
455.638	83648
455.707	22939
455.708	22855
455.777	7461
455.789	7792
455.846	9193
455.869	8959
455.916	8569
455.950	7378
455.985	6054
456.031	8584
456.054	9918
456.112	7706
456.124	7398
456.193	6137
456.193	6096
456.262	7597
456.274	8595
456.332	12701
456.355	15301
456.401	18619
456.436	19759
456.470	21813
456.516	11513
456.540	6532
456.597	5171
456.609	4912
456.678	3936
456.678	3921
456.747	3502
456.759	3535
456.817	3826
456.840	3767
456.886	3747
456.920	4134
456.955	4886
457.001	5712
457.024	6598
457.082	9463
457.093	9849
457.162	15506
457.163	15597
457.232	22634
457.243	22940
457.301	26495
457.324	19819
457.370	8427
457.405	7394
457.439	6385
457.485	6784
457.508	6758
457.566	10087
457.577	10455
457.646	13951
457.647	13872
457.715	7324
457.727	6958
457.784	4911
457.808	4803
457.853	4969
457.889	4783
457.922	4320
457.969	4533
457.991	4775
458.050	4624
458.060	4546
458.129	5414
458.130	5411
458.198	4613
458.211	4840
458.267	5688
458.292	5596
458.336	5637
458.372	5685
458.405	5886
458.453	6039
458.474	5954
458.533	7158
458.543	7313
458.611	7014
458.614	7062
458.680	7258
458.694	6882
458.749	5922
458.775	5690
458.818	5540
458.855	5592
458.887	5763
458.936	6277
458.955	6356
459.016	7825
459.024	7927
459.093	8912
459.097	8841
459.162	7831
459.177	7658
459.230	6941
459.257	7007
459.299	7030
459.338	6897
459.368	6839
459.418	6693
459.437	6495
459.499	6511
459.505	6561
459.574	6238
459.579	6252
459.643	6041
459.659	5935
459.711	6162
459.740	6425
459.780	7166
459.820	8102
459.849	8540
459.900	9317
459.917	8973
459.981	9247
459.986	9391
460.054	8903
460.061	8764
460.123	7958
460.141	8030
460.191	8832
460.222	9891
460.260	9778
460.302	11515
460.328	12552
460.382	10809
460.397	10560
460.462	8608
460.465	8584
460.534	10732
460.543	10772
460.602	13782
460.623	15180
460.671	19303
460.703	23110
460.739	18568
460.783	15600
460.808	17073
460.864	12992
460.876	12422
460.944	8601
460.945	8538
461.013	8545
461.024	8258
461.081	7693
461.104	7555
461.150	7064
461.184	6856
461.218	6919
461.264	6937
461.286	6979
461.345	6911
461.355	6918
461.423	8375
461.425	8398
461.491	12162
461.505	12899
461.559	29185
461.585	36721
461.628	52024
461.665	66768
461.696	62751
461.745	66719
461.764	60719
461.825	42421
461.832	44339
461.901	15394
461.905	15008
461.969	8837
461.985	8890
462.037	10180
462.065	10331
462.105	15156
462.145	20158
462.173	26376
462.225	38678
462.241	41215
462.305	53070
462.310	51012
462.378	31922
462.385	27440
462.446	20996
462.465	17271
462.514	9904
462.545	10135
462.582	10262
462.625	11157
462.650	10918
462.705	11276
462.718	12492
462.785	16650
462.786	16781
462.854	24244
462.865	25642
462.922	25957
462.945	27550
462.990	21684
463.025	15072
463.058	15357
463.104	11181
463.126	9517
463.184	9289
463.194	9704
463.262	13125
463.264	13250
463.330	17056
463.344	17925
463.398	17769
463.424	19021
463.466	19261
463.504	17201
463.533	17014
463.583	14842
463.601	14843
463.663	16381
463.669	17111
463.737	26404
463.743	27277
463.805	49600
463.823	56415
463.873	81427
463.903	95846
463.940	86627
463.982	83061
464.008	68308
464.062	34041
464.076	34738
464.142	17081
464.144	16665
464.211	11032
464.221	10951
464.279	12186
464.301	12781
464.347	15888
464.381	18262
464.414	20932
464.461	24562
464.482	23093
464.540	20211
464.550	19521
464.617	15026
464.620	14723
464.685	13236
464.699	13273
464.753	14161
464.779	14972
464.820	17188
464.859	19264
464.888	20721
464.938	23139
464.956	22561
465.018	20435
465.023	19981
465.091	14777
465.098	13971
465.158	13806
465.177	14015
465.226	14004
465.257	14138
465.293	14596
465.336	15172
465.361	17199
465.416	21598
465.428	25793
465.495	48570
465.496	48861
465.563	82710
465.575	88450
465.631	86197
465.654	86638
465.698	52651
465.734	23291
465.765	22915
465.813	16700
465.833	14944
465.893	13801
465.900	13565
465.968	12382
465.972	12308
466.035	11916
466.052	11739
466.102	12133
466.131	12403
466.170	12542
466.210	12695
466.237	12877
466.290	13098
466.304	13290
466.369	14093
466.372	14146
466.439	15184
466.449	15298
466.506	19886
466.528	21633
466.573	42044
466.607	57277
466.641	80093
466.687	111616
466.708	112301
466.766	113770
466.775	103553
466.842	27650
466.845	23948
466.909	18363
466.925	17115
466.977	15308
467.004	14935
467.044	16007
467.083	17130
467.111	18127
467.163	19951
467.178	20142
467.242	20783
467.245	20798
467.312	20474
467.321	20401
467.379	24131
467.400	25424
467.446	29234
467.480	31903
467.559	21446
467.638	19187
467.717	19316
467.796	19582
467.875	21401
467.955	26933
468.034	66597
468.113	134933
468.192	153851
468.271	26746
468.350	21494
468.429	19549
468.508	18829
468.588	25889
468.667	50350
468.746	78144
468.825	46833
468.904	20881
468.983	31716
469.062	53410
469.141	51146
469.220	17504
469.299	20258
469.378	20716
469.456	19952
469.535	18468
469.614	21371
469.693	27259
469.772	41186
469.851	58844
469.930	24133
470.009	16771
470.088	15862
470.166	16664
470.245	18716
470.324	17929
470.403	16656
470.482	15487
470.560	15255
470.639	17041
470.718	20503
470.797	23199
470.875	45428
470.954	79090
471.033	58277
471.111	17152
471.190	17529
471.269	15728
471.347	16258
471.426	16989
471.505	21967
471.583	18035
471.662	17893
471.740	18785
471.819	19231
471.898	20369
471.976	16424
472.055	16337
472.133	23909
472.212	34659
472.290	34477
472.369	17789
472.447	15797
472.526	14534
472.604	15438
472.683	14995
472.761	15147
472.839	14810
472.918	15624
472.996	19331
473.075	26955
473.153	24596
473.231	24854
473.310	23357
473.388	20071
473.466	18850
473.545	16847
473.623	19088
473.701	18986
473.780	22610
473.858	38281
473.936	48053
474.014	18305
474.093	22978
474.171	46163
474.249	63715
474.327	24808
474.405	13494
474.484	13926
474.562	13804
474.640	15158
474.718	17976
474.796	14986
474.874	13322
474.952	12764
475.030	13044
475.108	14014
475.187	14058
475.265	15289
475.343	16669
475.421	17097
475.499	14249
475.577	18910
475.655	38969
475.733	88396
475.811	148867
475.889	122555
475.966	50034
476.044	17503
476.122	20673
476.200	24670
476.278	22852
476.356	18817
476.434	20136
476.512	21439
476.590	24052
476.667	20255
476.745	16546
476.823	18657
476.901	20706
476.979	22598
477.056	24337
477.134	35042
477.212	45086
477.290	19988
477.367	16550
477.445	17996
477.523	17573
477.601	17685
477.678	20318
477.756	28823
477.834	27872
477.911	17003
477.989	19033
478.066	20471
478.144	24256
478.222	19412
478.299	22095
478.377	22018
478.454	23203
478.532	18102
478.609	16027
478.687	16995
478.764	19060
478.842	22585
478.919	19178
478.997	16334
479.074	18522
479.152	28063
479.229	36879
479.307	18360
479.384	14186
479.461	16321
479.539	21077
479.616	24250
479.694	18816
479.771	24628
479.848	27649
479.926	42310
480.003	32208
480.080	15167
480.157	16001
480.235	15470
480.312	17845
480.389	30189
480.467	54406
480.544	63549
480.621	25275
480.698	22015
480.775	27339
480.853	29888
480.930	25487
481.007	22897
481.084	27417
481.161	27463
481.238	24229
481.315	19699
481.392	26047
481.470	42590
481.547	46879
481.624	21495
481.701	18126
481.778	21525
481.855	28781
481.932	50885
482.009	82176
482.086	35119
482.163	17800
482.240	21053
482.317	28554
482.393	28764
482.470	22202
482.547	21200
482.624	18874
482.701	22665
482.778	25277
482.855	16793
482.932	15514
483.009	15161
483.085	17498
483.162	18558
483.239	16706
483.316	16143
483.393	14312
483.469	17051
483.546	23902
483.623	24814
483.699	18167
483.776	21857
483.853	29735
483.930	51528
484.006	128493
484.083	178033
484.160	45817
484.236	51807
484.313	39830
484.389	35312
484.466	29181
484.543	29728
484.619	31861
484.696	35221
484.772	43117
484.849	45981
484.925	30731
485.002	32810
485.078	39666
485.155	36278
485.231	29589
485.308	30659
485.384	35344
485.461	60948
485.537	115969
485.614	110310
485.690	30658
485.766	28379
485.843	29095
485.919	34409
485.995	30731
486.072	25454
486.148	27416
486.224	26671
486.301	31487
486.377	37075
486.453	33281
486.530	34253
486.606	42514
486.682	49750
486.758	85039
486.835	94720
486.911	79405
486.987	131180
487.063	65690
487.139	52940
487.215	39762
487.292	26889
487.368	27112
487.444	30549
487.520	31893
487.596	27290
487.672	25834
487.748	30814
487.824	31441
487.900	26487
487.976	30335
488.052	37322
488.128	36434
488.204	33071
488.280	35999
488.356	64312
488.432	144528
488.508	185449
488.584	32939
488.660	24356
488.736	24876
488.812	25598
488.888	29550
488.964	36104
489.039	59786
489.115	71530
489.191	42844
489.267	31401
489.343	30695
489.418	23154
489.494	21939
489.570	23414
489.646	23995
489.722	25258
489.797	31901
489.873	80377
489.949	167149
490.024	93499
490.100	24615
490.176	24067
490.251	27313
490.327	28093
490.403	21477
490.478	20260
490.554	18778
490.629	19765
490.705	19778
490.781	23525
490.856	24458
490.932	23960
491.007	22633
491.083	24645
491.158	27602
491.234	57258
491.309	130189
491.385	98834
491.460	26819
491.536	26615
491.611	19379
491.686	20807
491.762	26198
491.837	45761
491.913	77232
491.988	106483
492.063	89440
492.139	69792
492.214	38863
492.289	17791
492.365	18724
492.440	23274
492.515	30415
492.590	27441
492.666	22358
492.741	43472
492.816	68118
492.891	24960
492.967	17458
493.042	17489
493.117	18393
493.192	20477
493.267	41917
493.342	108951
493.418	104523
493.493	19441
493.568	15935
493.643	20040
493.718	31389
493.793	47951
493.868	30070
493.943	16134
494.018	17886
494.093	20754
494.168	19536
494.243	14118
494.318	14624
494.393	14960
494.468	14535
494.543	13733
494.618	16834
494.693	17084
494.768	19969
494.842	19030
494.917	13724
494.992	14177
495.067	12638
495.142	13253
495.217	13970
495.292	13986
495.366	18830
495.441	24351
495.516	27860
495.591	37814
495.665	86957
495.740	142197
495.815	50640
495.890	27771
495.964	24786
496.039	24471
496.114	23965
496.188	25046
496.263	25286
496.338	26756
496.412	34496
496.487	34215
496.561	28086
496.636	27139
496.710	26854
496.785	34366
496.860	38985
496.934	24601
497.009	22707
497.083	23436
497.158	26062
497.232	34887
497.307	41504
497.381	30072
497.455	47286
497.530	62009
497.604	28801
497.679	38810
497.753	69038
497.827	73029
497.902	46869
497.976	74828
498.050	248182
498.125	747062
498.199	487772
498.273	52990
498.348	35967
498.422	30643
498.496	30840
498.570	27634
498.645	27145
498.719	33048
498.793	49971
498.867	94991
498.941	136924
499.016	378467
499.090	762113
499.164	152498
499.238	28171
499.312	26321
499.386	30429
499.460	35071
499.534	32415
499.609	47253
499.683	78767
499.757	73730
499.831	202154
499.905	610555
499.979	385817
500.053	98972
500.127	75124
500.201	33628
500.275	29388
500.349	29063
500.422	35477
500.496	50033
500.570	115522
500.644	362593
500.718	548352
500.792	73507
500.866	39252
500.940	56675
501.013	36857
501.087	36955
501.161	54176
501.235	108191
501.309	304816
501.382	656750
501.456	378345
501.530	130905
501.603	226153
501.677	54123
501.751	31039
501.825	42214
501.898	115778
501.972	288494
502.046	117349
502.119	50578
502.193	138723
502.266	300197
502.340	110497
502.413	164202
502.487	270815
502.561	139344
502.634	32802
502.708	23688
502.781	21471
502.855	19675
502.928	20553
503.002	19403
503.075	20396
503.149	22482
503.222	23023
503.295	28269
503.369	37102
503.442	74992
503.516	263477
503.589	540680
503.662	270831
503.736	109749
503.809	262625
503.882	175885
503.956	275469
504.029	161754
504.102	34098
504.175	25866
504.249	21396
504.322	36424
504.395	30493
504.468	22424
504.542	28195
504.615	22959
504.688	19101
504.761	19832
504.834	20540
504.907	19824
504.980	24636
505.053	19780
505.127	22916
505.200	32661
505.273	49103
505.346	24445
505.419	21029
505.492	17393
505.565	14284
505.638	15694
505.711	17355
505.784	17514
505.857	15160
505.930	17883
506.003	18781
506.076	20975
506.149	34485
506.221	42089
506.294	39049
506.367	136476
506.440	357301
506.513	125496
506.586	42822
506.659	20003
506.731	16932
506.804	22956
506.877	27253
506.950	24632
507.022	20464
507.095	34595
507.168	32867
507.241	14466
507.313	13696
507.386	16573
507.459	16392
507.531	12701
507.604	14057
507.677	14426
507.749	16536
507.822	24389
507.894	26418
507.967	24194
508.040	16620
508.112	16730
508.185	16756
508.257	15007
508.330	17982
508.402	18237
508.475	22846
508.547	23125
508.620	27998
508.692	46423
508.765	20547
508.837	14195
508.909	13853
508.982	14875
509.054	15534
509.127	13970
509.199	13570
509.271	14359
509.344	13307
509.416	13551
509.488	14020
509.560	13629
509.633	13913
509.705	15459
509.777	16414
509.849	17992
509.922	14938
509.994	13726
510.066	14609
510.138	16708
510.210	23079
510.283	23194
510.355	18964
510.427	16780
510.499	16714
510.571	15757
510.643	15935
510.715	18876
510.787	16695
510.859	18420
510.931	23823
511.003	21022
511.076	18619
511.148	18019
511.219	23666
511.291	48154
511.363	47521
511.435	16454
511.507	17101
511.579	16005
511.651	14025
511.723	14089
511.795	15127
511.867	18236
511.939	33486
512.010	81234
512.082	41028
512.154	16788
512.226	16315
512.298	19499
512.369	23780
512.441	20354
512.513	19443
512.585	17304
512.656	18639
512.728	20493
512.800	15722
512.871	17694
512.943	17484
513.015	13737
513.086	14387
513.158	15759
513.230	18931
513.301	23819
513.373	19872
513.444	14666
513.516	13523
513.588	14984
513.659	14622
513.731	16579
513.802	16429
513.874	25822
513.945	31922
514.016	16128
514.088	14410
514.159	15561
514.231	19541
514.302	21687
514.374	20454
514.445	33836
514.516	80351
514.588	43674
514.659	32701
514.730	69936
514.802	28674
514.873	15925
514.944	16419
515.016	16338
515.087	21592
515.158	45373
515.229	55780
515.301	17607
515.372	16629
515.443	16241
515.514	18625
515.585	14898
515.656	12886
515.728	14740
515.799	17347
515.870	15970
515.941	15875
516.012	16652
516.083	19170
516.154	18959
516.225	19811
516.296	16846
516.367	15180
516.438	17325
516.509	21297
516.580	31583
516.651	75835
516.722	183631
516.793	66032
516.864	32996
516.935	35588
517.006	39378
517.077	49784
517.148	90660
517.219	233803
517.289	316696
517.360	338247
517.431	83219
517.502	26439
517.573	24664
517.643	25744
517.714	26085
517.785	26121
517.856	25385
517.926	27045
517.997	27731
518.068	30539
518.138	36710
518.209	55916
518.280	175643
518.350	428983
518.421	108050
518.492	29747
518.562	31391
518.633	34792
518.703	25849
518.774	28681
518.845	39845
518.915	33261
518.986	30529
519.056	36399
519.127	57968
519.197	122749
519.268	359891
519.338	166295
519.408	44736
519.479	30492
519.549	25617
519.620	21516
519.690	19742
519.760	21413
519.831	20443
519.901	21229
519.971	20733
520.042	26498
520.112	33555
520.182	24632
520.253	24221
520.323	22398
520.393	24776
520.463	25074
520.534	31067
520.604	43742
520.674	29578
520.744	35886
520.814	49161
520.885	54419
520.955	155334
521.025	427495
521.095	105013
521.165	27412
521.235	27679
521.305	22608
521.375	17706
521.445	19747
521.515	20657
521.585	21757
521.655	21311
521.725	21595
521.795	21782
521.865	23617
521.935	44861
522.005	34187
522.075	20760
522.145	23224
522.215	34349
522.285	49429
522.355	82360
522.424	156385
522.494	103937
522.564	31732
522.634	47005
522.704	72268
522.774	27085
522.843	19603
522.913	17887
522.983	19992
523.053	18398
523.122	18009
523.192	22221
523.262	48366
523.331	35212
523.401	16772
523.471	15075
523.540	16027
523.610	14172
523.680	15937
523.749	18305
523.819	30005
523.888	25905
523.958	15682
524.027	19695
524.097	19440
524.166	17373
524.236	17685
524.305	19764
524.375	17638
524.444	17884
524.514	19747
524.583	24010
524.653	33522
524.722	33632
524.791	19344
524.861	17872
524.930	17167
524.999	18022
525.069	23197
525.138	27403
525.207	35768
525.277	18207
525.346	19027
525.415	16923
525.484	18017
525.554	29647
525.623	22253
525.692	15982
525.761	17968
525.830	15579
525.900	16699
525.969	25598
526.038	20663
526.107	16297
526.176	18794
526.245	18892
526.314	28528
526.383	26769
526.452	21721
526.522	35639
526.591	67709
526.660	41607
526.729	21102
526.797	26481
526.867	57292
526.935	169030
527.004	89104
527.073	33967
527.142	19122
527.211	15772
527.280	16301
527.349	15843
527.418	13021
527.487	14877
527.555	14212
527.624	13259
527.693	14958
527.762	15146
527.831	12151
527.899	14644
527.968	15177
528.037	16126
528.106	16750
528.174	26099
528.243	31547
528.312	48851
528.380	39877
528.449	18041
528.518	13323
528.586	11928
528.655	12266
528.723	13071
528.792	13924
528.861	18424
528.929	15081
528.998	13035
529.066	12351
529.135	12307
529.203	11609
529.272	12633
529.340	12110
529.409	14499
529.477	17105
529.545	26868
529.614	25550
529.682	35559
529.751	33919
529.819	30524
529.887	18438
529.956	14613
530.024	14280
530.092	12096
530.161	14713
530.229	17169
530.297	12256
530.365	11831
530.434	11000
530.502	11684
530.570	11753
530.638	11395
530.707	12416
530.775	14599
530.843	13303
530.911	12879
530.979	11398
531.047	14161
531.115	16749
531.183	13381
531.252	13209
531.320	14839
531.388	12247
531.456	12537
531.524	12054
531.592	12203
531.660	13046
531.728	13120
531.796	12314
531.864	12645
531.932	13099
532.000	12949
532.067	12500
532.135	12348
532.203	14400
532.271	15803
532.339	19610
532.407	35350
532.475	19587
532.542	15695
532.610	15766
532.678	23400
532.746	71292
532.814	114405
532.881	27194
532.949	14613
533.017	12925
533.084	14109
533.152	13327
533.220	12589
533.287	12797
533.355	12194
533.423	12939
533.490	11872
533.558	13381
533.625	15106
533.693	17099
533.761	14214
533.828	15760
533.896	14849
533.963	20160
534.031	21586
534.098	25876
534.166	16662
534.233	13255
534.300	14112
534.368	14386
534.435	14112
534.503	12892
534.570	12060
534.637	12362
534.705	12293
534.772	12670
534.840	11772
534.907	13850
534.974	15860
535.041	18665
535.109	26466
535.176	14451
535.243	12134
535.310	12604
535.378	11293
535.445	11898
535.512	11853
535.579	12521
535.646	12699
535.714	12911
535.781	14399
535.848	14612
535.915	16754
535.982	16262
536.049	14991
536.116	15256
536.183	15560
536.250	15650
536.317	14913
536.384	15317
536.451	19251
536.518	17079
536.585	16193
536.652	20749
536.719	22144
536.786	18398
536.853	18383
536.920	28036
536.987	36000
537.053	28856
537.120	74500
537.187	46538
537.254	14745
537.321	14073
537.388	14296
537.454	13409
537.521	12460
537.588	13830
537.654	15607
537.721	15665
537.788	14768
537.855	13299
537.921	13684
537.988	13570
538.055	14417
538.121	15576
538.188	15502
538.254	19185
538.321	28011
538.388	18570
538.454	20721
538.521	21931
538.587	13307
538.654	13398
538.720	13188
538.787	13305
538.853	16443
538.920	22408
538.986	25466
539.053	19400
539.119	16745
539.185	15267
539.252	16043
539.318	18734
539.385	16318
539.451	16258
539.517	16021
539.583	20954
539.650	40071
539.716	60916
539.782	18986
539.849	13410
539.915	14767
539.981	14172
540.047	16894
540.114	15113
540.180	15714
540.246	14956
540.312	19040
540.378	31082
540.444	27694
540.510	32093
540.576	57598
540.643	21921
540.709	15576
540.775	16819
540.841	17760
540.907	29547
540.973	37746
541.039	20766
541.105	19804
541.171	15455
541.237	15099
541.303	15627
541.369	16402
541.435	18008
541.500	24957
541.566	17808
541.632	14377
541.698	13188
541.764	14394
541.830	14972
541.896	15721
541.961	14689
542.027	15333
542.093	13765
542.159	15386
542.224	17631
542.290	20142
542.356	27665
542.421	27272
542.487	16650
542.553	16916
542.618	21543
542.684	15786
542.750	15525
542.815	19998
542.881	34131
542.947	61777
543.012	32666
543.078	14442
543.143	14763
543.209	16417
543.274	16263
543.340	17664
543.405	28683
543.471	32142
543.536	14830
543.602	17280
543.667	17312
543.732	15258
543.798	16371
543.863	17324
543.928	14516
543.994	14372
544.059	14017
544.124	13501
544.190	13477
544.255	13394
544.320	13377
544.386	14477
544.451	17744
544.516	19072
544.581	21890
544.646	46222
544.712	47905
544.777	22312
544.842	27722
544.907	30072
544.972	21910
545.037	21444
545.102	23244
545.168	24047
545.233	24613
545.298	24851
545.363	31554
545.428	27590
545.493	34913
545.558	50412
545.623	28115
545.688	24098
545.753	22404
545.818	23301
545.883	23628
545.947	22552
546.012	28881
546.077	29141
546.142	23529
546.207	22593
546.272	24858
546.337	25898
546.401	24066
546.466	23501
546.531	22802
546.596	25700
546.661	22675
546.725	21204
546.790	19613
546.855	20968
546.919	20898
546.984	22909
547.049	25877
547.113	33562
547.178	24334
547.243	28017
547.307	28836
547.372	34311
547.436	41276
547.501	22704
547.565	23005
547.630	25379
547.695	30139
547.759	50030
547.823	32763
547.888	21558
547.952	21024
548.017	24155
548.081	32710
548.146	54371
548.210	34437
548.274	19442
548.339	18506
548.403	19381
548.468	18227
548.532	19365
548.596	21095
548.660	21461
548.725	23936
548.789	34014
548.853	33857
548.917	26951
548.982	53038
549.046	46276
549.110	22983
549.174	21774
549.238	19750
549.303	18082
549.367	19424
549.431	19667
549.495	19196
549.559	19216
549.623	19198
549.687	21653
549.751	26889
549.815	23105
549.879	21209
549.943	19012
550.007	23304
550.071	22651
550.135	24103
550.199	24982
550.263	25088
550.327	33124
550.391	51464
550.455	24444
550.519	20396
550.582	21183
550.646	23666
550.710	24360
550.774	21056
550.838	21390
550.901	22754
550.965	25845
551.029	26725
551.093	33194
551.156	53169
551.220	130714
551.284	109858
551.347	58900
551.411	182827
551.475	157021
551.538	26235
551.602	21819
551.666	19779
551.729	19216
551.793	19986
551.856	20805
551.920	20076
551.983	19822
552.047	20134
552.110	18103
552.174	19053
552.237	19257
552.301	18982
552.364	19248
552.428	20059
552.491	19011
552.554	18768
552.618	20314
552.681	20898
552.745	23982
552.808	27821
552.871	29058
552.934	21093
552.998	22387
553.061	25580
553.124	22070
553.187	20269
553.251	22455
553.314	23622
553.377	24067
553.440	32307
553.503	68802
553.567	79251
553.630	23750
553.693	21105
553.756	21542
553.819	17978
553.882	20552
553.945	18710
554.008	17542
554.071	18041
554.134	18831
554.197	17757
554.260	17013
554.323	18979
554.386	19779
554.449	18638
554.512	20178
554.575	19254
554.638	20392
554.701	18026
554.764	17701
554.827	18172
554.889	17549
554.952	16008
555.015	17816
555.078	16893
555.141	18428
555.203	17952
555.266	18774
555.329	20580
555.391	17817
555.454	18495
555.517	20286
555.580	18973
555.642	17829
555.705	18722
555.768	19209
555.830	19821
555.893	18058
555.955	17647
556.018	19239
556.080	18818
556.143	18096
556.206	19130
556.268	21596
556.330	20837
556.393	20257
556.455	24284
556.518	46999
556.580	39002
556.643	18392
556.705	18408
556.767	18822
556.830	20203
556.892	20107
556.955	23772
557.017	20485
557.079	19462
557.142	17465
557.204	20414
557.266	29525
557.328	25008
557.391	19221
557.453	18110
557.515	18978
557.577	21741
557.639	20099
557.701	17925
557.764	18240
557.826	17758
557.888	22357
557.950	18495
558.012	18381
558.074	18217
558.136	20031
558.198	20679
558.260	21266
558.322	21198
558.384	19175
558.446	19777
558.508	21392
558.570	24779
558.632	29518
558.694	34045
558.756	20826
558.818	22037
558.880	27415
558.942	20476
559.003	18890
559.065	15703
559.127	16908
559.189	17805
559.251	17507
559.312	16797
559.374	19934
559.436	24048
559.498	19993
559.559	18344
559.621	18460
559.683	21779
559.744	34635
559.806	44431
559.868	34821
559.929	26496
559.991	26812
560.052	26611
560.114	26166
560.176	23107
560.237	24015
560.299	24538
560.360	23294
560.422	25376
560.483	25567
560.545	25449
560.606	25223
560.667	25295
560.729	24978
560.790	24253
560.852	24823
560.913	23762
560.974	24641
561.036	23984
561.097	23798
561.158	25143
561.220	25319
561.281	23271
561.342	24198
561.403	26272
561.465	28529
561.526	43143
561.587	44131
561.648	25254
561.709	24616
561.771	24243
561.832	24608
561.893	24867
561.954	24486
562.015	26348
562.076	24372
562.137	24194
562.198	23547
562.259	24004
562.320	23899
562.381	24027
562.442	26929
562.503	23602
562.564	22018
562.625	21309
562.686	23210
562.747	23255
562.808	23661
562.869	27285
562.930	36910
562.991	33719
563.051	29172
563.112	27514
563.173	25657
563.234	24763
563.294	23690
563.355	24798
563.416	24806
563.477	25048
563.537	27042
563.598	28662
563.659	26336
563.720	27018
563.780	26366
563.841	26407
563.901	27742
563.962	26322
564.023	26489
564.083	27395
564.144	28363
564.204	29129
564.265	30786
564.325	40180
564.386	85712
564.446	61780
564.507	26403
564.567	24709
564.628	25173
564.688	25383
564.749	25910
564.809	34440
564.869	40955
564.930	25454
564.990	23087
565.050	22460
565.111	22253
565.171	21587
565.231	22165
565.292	22398
565.352	21545
565.412	23623
565.472	23924
565.532	22448
565.593	21728
565.653	20963
565.713	22070
565.773	23694
565.833	24890
565.893	27985
565.953	23798
566.013	23840
566.074	29132
566.134	40715
566.194	72267
566.254	59312
566.314	35994
566.374	26755
566.434	30876
566.494	26474
566.554	23834
566.614	23647
566.673	23637
566.733	25406
566.793	25963
566.853	25673
566.913	24162
566.973	25159
567.033	24677
567.092	24934
567.152	24866
567.212	25439
567.272	28259
567.331	30100
567.391	27566
567.451	31711
567.511	50086
567.570	43868
567.630	24006
567.690	22402
567.749	22881
567.809	22840
567.868	23198
567.928	26957
567.988	31588
568.047	28106
568.107	26775
568.166	26694
568.226	31361
568.285	36458
568.345	31103
568.404	27058
568.464	25284
568.523	24706
568.582	25628
568.642	26316
568.701	31152
568.761	39700
568.820	52303
568.879	50656
568.939	52650
568.998	32524
569.057	25664
569.116	23246
569.176	21031
569.235	20698
569.294	20913
569.353	20448
569.413	22605
569.472	23524
569.531	21020
569.590	20681
569.649	20580
569.708	19167
569.767	21247
569.827	21179
569.886	19797
569.945	19394
570.004	19929
570.063	20986
570.122	21724
570.181	24912
570.240	31011
570.299	27331
570.358	21443
570.417	20144
570.475	19358
570.534	20018
570.593	20206
570.652	19455
570.711	20680
570.770	22927
570.829	25803
570.887	21110
570.946	20441
571.005	18865
571.064	19983
571.122	21505
571.181	27635
571.240	20445
571.299	21419
571.357	24947
571.416	25405
571.475	30795
571.533	31084
571.592	22771
571.650	24962
571.709	19219
571.768	20670
571.826	21481
571.885	20075
571.943	20249
572.002	21979
572.060	22835
572.119	17921
572.177	18068
572.236	16921
572.294	17576
572.352	17962
572.411	18578
572.469	19703
572.528	18640
572.586	18841
572.644	19576
572.703	21931
572.761	20234
572.819	19860
572.877	19990
572.936	18658
572.994	18747
573.052	18584
573.110	18133
573.169	17981
573.227	17505
573.285	17443
573.343	17336
573.401	19475
573.459	18527
573.517	20855
573.576	21055
573.634	18799
573.692	18407
573.750	17878
573.808	20114
573.866	22324
573.924	31137
573.982	28580
574.040	19025
574.098	19001
574.155	16811
574.213	16205
574.271	17103
574.329	15979
574.387	15735
574.445	16237
574.503	15363
574.560	15733
574.618	15465
574.676	15131
574.734	15826
574.792	16726
574.849	16226
574.907	15697
574.965	14818
575.022	15384
575.080	15159
575.138	16020
575.195	16189
575.253	17881
575.311	16353
575.368	15565
575.426	16531
575.483	16467
575.541	16462
575.598	16799
575.656	17866
575.713	16999
575.771	15566
575.828	16593
575.886	16316
575.943	17959
576.001	18733
576.058	18998
576.115	21389
576.173	25562
576.230	27238
576.287	23993
576.345	20146
576.402	19661
576.459	19941
576.517	20317
576.574	24229
576.631	27197
576.688	21162
576.746	18581
576.803	18533
576.860	18485
576.917	18719
576.974	18376
577.031	18237
577.089	18864
577.146	18275
577.203	19710
577.260	20470
577.317	23823
577.374	27884
577.431	24858
577.488	19014
577.545	17471
577.602	17442
577.659	18082
577.716	17032
577.773	18326
577.830	17376
577.886	17565
577.943	17181
578.000	17825
578.057	19762
578.114	17392
578.171	16858
578.227	18802
578.284	18554
578.341	18514
578.398	19113
578.454	20852
578.511	26186
578.568	29851
578.625	23010
578.681	18093
578.738	15745
578.794	16498
578.851	15682
578.908	15839
578.964	16347
579.021	17055
579.077	16592
579.134	16446
579.190	15541
579.247	15064
579.303	15855
579.360	14780
579.416	14307
579.473	15009
579.529	14168
579.586	14829
579.642	16669
579.698	18791
579.755	21558
579.811	17535
579.867	14640
579.924	14686
579.980	15482
580.036	17341
580.093	17185
580.149	20147
580.205	19373
580.261	18320
580.317	18201
580.374	21624
580.430	25646
580.486	22711
580.542	17525
580.598	16248
580.619	16000
580.654	15564
580.692	15287
580.710	15136
580.765	15567
580.767	15572
580.823	15712
580.838	15973
580.879	16620
580.911	16190
580.935	15853
580.984	14502
580.991	14310
581.047	16203
581.057	16390
581.103	17206
581.130	17806
581.159	18405
581.203	18767
581.215	18865
581.270	19749
581.276	19643
581.326	18389
581.349	18490
581.382	18626
581.422	18138
581.438	17937
581.494	19777
581.494	19780
581.550	18357
581.567	18737
581.606	19606
581.640	19041
581.661	18618
581.713	18231
581.717	18191
581.773	18459
581.786	18568
581.829	18939
581.859	18828
581.885	18648
581.932	18706
581.940	18713
581.996	19489
582.004	19420
582.052	18828
582.077	18731
582.107	18715
582.150	20030
582.163	20387
582.219	20292
582.223	20252
582.274	19612
582.296	20520
582.330	22280
582.368	22979
582.386	22987
582.441	20308
582.441	20292
582.497	19395
582.514	19688
582.552	20580
582.587	20447
582.608	20403
582.659	20666
582.663	20663
582.719	21119
582.732	21011
582.774	20661
582.805	21589
582.830	22424
582.877	21796
582.885	21618
582.941	21671
582.950	21716
582.996	22040
583.023	22330
583.052	22781
583.095	23430
583.107	23636
583.162	25616
583.168	25649
583.218	26260
583.240	25823
583.273	24517
583.313	23522
583.328	23105
583.384	24368
583.385	24342
583.439	24417
583.458	24412
583.494	24153
583.531	23877
583.549	23655
583.603	24107
583.605	24133
583.660	23587
583.676	23898
583.715	24808
583.748	24924
583.770	25372
583.820	27894
583.825	28076
583.881	26040
583.893	26092
583.936	25730
583.965	25829
583.991	26494
584.038	27773
584.046	27938
584.101	28191
584.110	28012
584.156	27567
584.183	28143
584.211	28258
584.255	27336
584.266	27128
584.321	26345
584.328	26342
584.376	27051
584.400	27137
584.431	27670
584.472	28349
584.486	28251
584.541	27501
584.545	27430
584.596	27664
584.617	28198
584.651	29733
584.689	30658
584.706	31271
584.761	33557
584.762	33528
584.816	32193
584.834	32010
584.871	31958
584.906	31587
584.926	31753
584.978	31825
584.980	31870
585.035	32886
585.051	33096
585.090	34244
585.123	35128
585.145	35685
585.195	36382
585.200	36476
585.254	36561
585.267	36916
585.309	38752
585.340	39906
585.364	41674
585.412	41790
585.419	41228
585.473	38231
585.484	37846
585.528	38420
585.556	38455
585.583	39522
585.628	40221
585.637	40157
585.692	39864
585.700	39889
585.747	42066
585.772	42428
585.801	41871
585.845	41056
585.856	40847
585.910	40142
585.917	39934
585.965	40328
585.989	40696
586.019	42149
586.061	43303
586.074	43472
586.128	43881
586.133	43949
586.183	45971
586.205	46769
586.237	49617
586.277	51817
586.292	52404
586.346	54324
586.349	54317
586.401	53465
586.421	53487
586.455	55622
586.493	58556
586.509	62705
586.564	80340
586.565	80935
586.618	146948
586.637	157315
586.672	165746
586.709	172155
586.727	141179
586.781	61818
586.781	61956
586.835	55991
586.853	54053
586.889	54997
586.925	56090
586.944	57336
586.996	58808
586.998	58838
587.052	54901
587.068	53613
587.106	53150
587.140	52110
587.161	52271
587.212	52785
587.215	53012
587.269	55490
587.284	55734
587.323	56497
587.356	56843
587.377	56940
587.427	56693
587.431	56839
587.485	57026
587.499	56951
587.539	58370
587.571	58942
587.593	59753
587.643	61414
587.648	61795
587.702	64190
587.715	64693
587.755	67307
587.786	68627
587.810	69745
587.858	71300
587.864	71960
587.917	77429
587.930	78752
587.971	97205
588.001	108269
588.025	105172
588.073	97570
588.079	96068
588.133	80907
588.145	77463
588.187	79863
588.217	81329
588.241	84284
588.288	89337
588.295	90465
588.348	98352
588.360	99948
588.402	108952
588.431	114700
588.456	121140
588.503	134166
588.510	137139
588.564	159624
588.575	164285
588.617	181270
588.646	193596
588.671	208257
588.718	239626
588.725	248286
588.778	320186
588.789	337573
588.832	473306
588.861	579175
588.886	782337
588.932	1193291
588.939	1281679
588.993	1866243
589.004	1959230
589.047	1753056
589.075	1606213
589.100	1268735
589.147	668215
589.154	636729
589.207	387454
589.218	336026
589.261	295027
589.290	267432
589.314	269341
589.361	276387
589.368	283084
589.421	341242
589.433	356662
589.475	526416
589.504	661704
589.528	922488
589.576	1407685
589.582	1443682
589.635	1607423
589.647	1639687
589.689	1055713
589.718	657445
589.742	521756
589.790	251407
589.795	246865
589.849	198558
589.861	187881
589.902	212687
589.932	225471
589.955	218020
590.004	199296
590.009	193914
590.062	130521
590.075	114469
590.115	110371
590.146	106579
590.168	103882
590.218	96516
590.222	96791
590.275	96477
590.289	95948
590.328	100677
590.360	103516
590.381	101014
590.431	93941
590.435	94146
590.488	91945
590.503	90873
590.541	92481
590.574	93333
590.594	93373
590.645	92117
590.647	92402
590.700	90237
590.716	89277
590.753	89020
590.787	88033
590.806	88011
590.859	86853
590.859	87216
590.912	88163
590.930	88151
590.965	87087
591.001	85384
591.018	85986
591.071	86670
591.072	86327
591.124	86543
591.143	86208
591.177	88031
591.214	89099
591.230	89526
591.283	89826
591.285	89477
591.336	92472
591.356	93103
591.389	95157
591.427	96634
591.442	95993
591.495	92314
591.498	91653
591.547	91010
591.569	90171
591.600	90436
591.640	89952
591.653	90981
591.706	93730
591.711	93658
591.759	99186
591.782	101441
591.811	111240
591.853	124279
591.864	125001
591.917	125465
591.924	125036
591.969	107174
591.995	96158
592.022	97650
592.066	99031
592.075	100532
592.127	107256
592.137	108119
592.180	134210
592.208	150124
592.233	151976
592.279	153354
592.285	149617
592.338	112443
592.350	103472
592.390	101169
592.421	98696
592.443	102238
592.491	108564
592.495	109385
592.548	113936
592.562	114683
592.600	107989
592.633	101294
592.653	100883
592.704	98095
592.705	98651
592.775	97909
592.846	98203
592.916	97599
592.987	98034
593.058	99681
593.128	98413
593.199	94906
593.270	94634
593.341	91185
593.411	93264
593.482	99104
593.553	107530
593.623	95732
593.694	90048
593.764	102160
593.835	110393
593.906	92821
593.976	92391
594.047	98835
594.117	110487
594.188	143946
594.258	119164
594.329	85580
594.399	89195
594.470	88806
594.540	84145
594.611	85930
594.681	87626
594.751	90496
594.822	99229
594.892	99944
594.963	103262
595.033	104186
595.103	100397
595.174	104456
595.244	134572
595.314	231726
595.384	221575
595.455	102297
595.525	112543
595.595	115598
595.665	100288
595.736	100743
595.806	98901
595.876	95425
595.946	94059
596.016	91774
596.087	89179
596.157	94835
596.227	93432
596.297	93889
596.367	98439
596.437	104746
596.507	127838
596.577	203389
596.647	206043
596.717	99858
596.787	91274
596.857	91529
596.927	89689
596.997	91449
597.067	91255
597.137	91707
597.207	96967
597.277	92754
597.347	92927
597.417	94979
597.487	88080
597.557	92409
597.626	94424
597.696	98658
597.766	118436
597.836	178094
597.906	211870
597.975	105524
598.045	93887
598.115	92532
598.185	89027
598.254	90940
598.324	94813
598.394	99444
598.464	105985
598.533	96159
598.603	87404
598.672	85848
598.742	90364
598.812	89885
598.881	89790
598.951	87738
599.020	83778
599.090	81278
599.159	80307
599.229	81390
599.299	78601
599.368	77660
599.437	80394
599.507	78196
599.576	89793
599.646	91164
599.715	85799
599.785	84367
599.854	89483
599.924	109665
599.993	125853
600.062	99156
600.132	93464
600.201	87179
600.270	88441
600.340	87687
600.409	81684
600.478	80320
600.547	81783
600.617	80478
600.686	86609
600.755	85740
600.824	86591
600.894	88881
600.963	86774
601.032	81051
601.101	81937
601.170	82664
601.239	81663
601.308	87494
601.378	87061
601.447	83768
601.516	80832
601.585	78105
601.654	78125
601.723	84016
601.792	82627
601.861	82769
601.930	80421
601.999	84325
602.068	79752
602.137	77616
602.206	84683
602.275	77105
602.343	80139
602.412	85746
602.481	83260
602.550	77768
602.619	75666
602.688	73980
602.756	76608
602.825	76053
602.894	72763
602.963	74165
603.032	76596
603.100	77424
603.169	75537
603.238	81920
603.307	90352
603.375	73060
603.444	69193
603.513	72742
603.581	72171
603.650	71297
603.719	70826
603.787	71305
603.856	72209
603.924	74293
603.993	75305
604.061	72715
604.130	71020
604.198	70798
604.267	68744
604.335	68291
604.404	67927
604.472	69389
604.541	72929
604.609	84145
604.678	70412
604.746	67586
604.815	67026
604.883	71863
604.951	83905
605.020	69756
605.088	65173
605.156	70504
605.225	69462
605.293	70104
605.361	68754
605.429	71503
605.498	68266
605.566	68430
605.634	68289
605.702	66499
605.771	67397
605.839	66527
605.907	67373
605.975	67641
606.043	65606
606.111	68484
606.180	67439
606.248	72591
606.316	88393
606.384	78117
606.452	83773
606.520	97986
606.588	79038
606.656	64379
606.724	62604
606.792	65163
606.860	62520
606.928	63239
606.996	64242
607.064	66522
607.132	62060
607.200	62445
607.267	63241
607.335	64176
607.403	61168
607.471	61336
607.539	64745
607.607	61263
607.674	60298
607.742	61893
607.810	67941
607.878	67426
607.946	61274
608.013	60275
608.081	61803
608.149	62246
608.216	58094
608.284	60285
608.352	60065
608.419	64353
608.487	85807
608.555	129868
608.622	70231
608.690	59525
608.757	60589
608.825	61008
608.893	61313
608.960	62047
609.028	72983
609.095	104443
609.163	134096
609.230	68202
609.298	73056
609.365	63694
609.432	56871
609.500	57010
609.567	59007
609.635	59414
609.702	59221
609.769	60676
609.837	69359
609.904	88119
609.971	64824
610.039	60351
610.106	60982
610.173	68504
610.241	83077
610.308	118197
610.375	167562
610.442	107714
610.509	64579
610.577	58572
610.644	57371
610.711	59561
610.778	55009
610.845	55818
610.912	56417
610.980	56768
611.047	62071
611.114	69329
611.181	60351
611.248	54247
611.315	54021
611.382	54914
611.449	54160
611.516	54326
611.583	54549
611.650	54218
611.717	56912
611.784	55583
611.851	55440
611.918	53929
611.984	58140
612.051	64148
612.118	85341
612.185	95360
612.252	109631
612.319	63871
612.386	57030
612.452	62821
612.519	81209
612.586	96544
612.653	160819
612.719	133260
612.786	183954
612.853	68273
612.919	52951
612.986	52441
613.053	51005
613.120	51064
613.186	52178
613.253	56368
613.319	59216
613.386	72397
613.453	119619
613.519	113348
613.586	59196
613.652	66714
613.719	74273
613.785	69874
613.852	63558
613.918	57404
613.985	60986
614.051	81430
614.118	95954
614.184	158245
614.250	126366
614.317	136528
614.383	126173
614.449	55761
614.516	49900
614.582	52813
614.648	61011
614.715	50639
614.781	50332
614.847	55313
614.914	62671
614.980	66084
615.046	58765
615.112	51645
615.179	48813
615.245	50534
615.311	51810
615.377	55267
615.443	63950
615.509	66032
615.575	64152
615.642	60977
615.708	60714
615.774	74502
615.840	74360
615.906	78453
615.972	82630
616.038	82706
616.104	98256
616.170	101637
616.236	127735
616.302	97600
616.368	76220
616.434	76082
616.500	76240
616.565	77818
616.631	74787
616.697	74331
616.763	71771
616.829	72386
616.895	74866
616.961	77912
617.026	78835
617.092	76203
617.158	73090
617.224	72832
617.289	71123
617.355	75153
617.421	80180
617.487	88160
617.552	80315
617.618	75773
617.684	73451
617.749	75988
617.815	76097
617.880	73509
617.946	72080
618.012	70738
618.077	69783
618.143	68141
618.208	69015
618.274	70711
618.339	73257
618.405	75373
618.470	75863
618.536	78237
618.601	86280
618.667	102343
618.732	90224
618.798	85569
618.863	84814
618.928	83517
618.994	86412
619.059	86421
619.124	91941
619.190	102651
619.255	91992
619.320	98596
619.386	91054
619.451	82915
619.516	80536
619.581	80487
619.647	83045
619.712	83716
619.777	83804
619.842	80658
619.907	82096
619.972	81208
620.038	83053
620.103	84602
620.168	81547
620.233	79435
620.298	80043
620.363	81081
620.428	83869
620.493	85261
620.558	83324
620.623	78799
620.688	78335
620.753	77845
620.818	77667
620.883	77305
620.948	79292
621.013	78733
621.078	80450
621.143	85270
621.207	93617
621.272	95383
621.337	108940
621.402	103474
621.467	130845
621.532	182712
621.596	153571
621.661	112934
621.726	100825
621.791	98632
621.855	100140
621.920	100986
621.985	110415
622.049	135418
622.114	147076
622.179	135483
622.243	112134
622.308	121816
622.373	110689
622.437	113248
622.502	108405
622.566	104856
622.631	105136
622.695	109135
622.760	104242
622.824	107949
622.889	105636
622.953	123838
623.018	130503
623.082	136545
623.147	121485
623.211	111127
623.276	102808
623.340	107715
623.404	101391
623.469	99164
623.533	102836
623.597	103900
623.662	104528
623.726	105684
623.790	108132
623.854	107482
623.919	112103
623.983	105765
624.047	104470
624.111	107420
624.176	101610
624.240	103081
624.304	105213
624.368	104670
624.432	102444
624.496	101363
624.560	102413
624.625	100882
624.689	106609
624.753	98512
624.817	97640
624.881	99096
624.945	95799
625.009	94137
625.073	95602
625.137	93348
625.201	100098
625.265	105594
625.329	102169
625.393	94747
625.456	99906
625.520	100027
625.584	107697
625.648	127101
625.712	173363
625.776	314828
625.839	678499
625.903	655110
625.967	198481
626.031	152468
626.095	286502
626.158	379285
626.222	123566
626.286	98037
626.349	91905
626.413	93415
626.477	90902
626.540	92819
626.604	86119
626.668	92976
626.731	96979
626.795	94475
626.858	102918
626.922	94842
626.986	93218
627.049	85997
627.113	88600
627.176	86497
627.240	84238
627.303	86047
627.366	88509
627.430	88243
627.493	84492
627.557	90910
627.620	94396
627.684	87465
627.747	87116
627.810	87299
627.874	87575
627.937	85642
628.000	86874
628.064	87938
628.127	85408
628.190	83154
628.253	85980
628.317	86363
628.380	80975
628.443	81227
628.506	79398
628.569	81619
628.632	77265
628.696	78395
628.759	78132
628.822	76327
628.885	74559
628.948	73689
629.011	73171
629.074	76389
629.137	76700
629.200	74051
629.263	81384
629.326	90808
629.389	77847
629.452	75049
629.515	81526
629.578	84850
629.641	75896
629.704	81217
629.767	78327
629.830	79517
629.892	76599
629.955	90800
630.018	93616
630.081	76791
630.144	74817
630.207	78462
630.269	77078
630.332	82149
630.395	98110
630.458	79144
630.520	69731
630.583	71840
630.646	67499
630.708	68556
630.771	71310
630.834	71291
630.896	66096
630.959	66505
631.021	65535
631.084	69497
631.146	73601
631.209	89427
631.272	111338
631.334	128611
631.397	74707
631.459	65432
631.522	64157
631.584	61234
631.646	63521
631.709	62376
631.771	64760
631.834	75776
631.896	63580
631.958	60508
632.021	57147
632.083	60213
632.145	68370
632.208	65884
632.270	58846
632.332	58619
632.395	58200
632.457	63243
632.519	65298
632.581	62576
632.643	55967
632.706	58048
632.768	57762
632.830	57244
632.892	57052
632.954	55473
633.016	60017
633.078	58917
633.141	54632
633.203	54221
633.265	57522
633.327	56990
633.389	53359
633.451	54911
633.513	59978
633.575	64913
633.637	72597
633.698	61891
633.760	55604
633.822	53981
633.884	50807
633.946	53684
634.008	53414
634.070	55584
634.132	51526
634.193	53983
634.255	52012
634.317	51895
634.379	54077
634.441	59033
634.502	75669
634.564	90180
634.626	66203
634.687	62522
634.749	59564
634.811	59013
634.873	56444
634.934	52124
634.996	53210
635.057	54715
635.119	55305
635.181	59932
635.242	59704
635.304	59040
635.365	57005
635.427	56289
635.488	58098
635.550	56577
635.611	57892
635.673	57729
635.734	59600
635.796	60835
635.857	58798
635.918	57395
635.980	56002
636.041	56383
636.102	56258
636.164	54548
636.225	52698
636.286	53570
636.348	54513
636.409	53545
636.470	51785
636.531	52238
636.593	57239
636.654	70329
636.715	59533
636.776	49165
636.838	48550
636.899	48398
636.960	51913
637.021	50533
637.082	47457
637.143	50017
637.204	48983
637.265	46933
637.326	47287
637.387	47361
637.448	45341
637.509	45460
637.570	45527
637.631	46192
637.692	44799
637.753	45367
637.814	48047
637.875	57595
637.936	55162
637.997	52446
638.058	50627
638.119	52784
638.179	53679
638.240	48149
638.301	47946
638.362	46481
638.423	48695
638.483	51030
638.544	49776
638.605	49726
638.666	51548
638.726	48950
638.787	49378
638.848	49087
638.908	48406
638.969	47603
639.030	47393
639.090	51040
639.151	45605
639.211	46372
639.272	45229
639.332	49379
639.393	57112
639.453	46854
639.514	45621
639.574	43956
639.635	43552
639.695	41502
639.756	42978
639.816	43380
639.877	41519
639.937	44197
639.997	51986
640.058	54946
640.118	41924
640.178	39777
640.239	39802
640.299	38903
640.359	39774
640.420	39842
640.480	39180
640.540	38175
640.600	37415
640.661	39630
640.721	44324
640.781	42807
640.841	41090
640.901	40184
640.961	40792
641.021	40375
641.082	39556
641.142	40662
641.202	46685
641.262	43655
641.322	42884
641.382	40295
641.442	39555
641.502	40921
641.562	40116
641.622	39285
641.682	38321
641.742	38502
641.802	37373
641.861	39369
641.921	41939
641.981	42540
642.041	41465
642.101	42804
642.161	43888
642.221	38462
642.280	36337
642.340	36809
642.400	36002
642.460	38242
642.519	36810
642.579	39629
642.639	38692
642.698	39268
642.758	36420
642.818	35047
642.877	35771
642.937	36636
642.997	35602
643.056	37684
643.116	41110
643.175	36376
643.235	34485
643.294	33707
643.354	34638
643.414	36047
643.473	38338
643.532	35833
643.592	34189
643.651	32287
643.711	33058
643.770	34421
643.830	38047
643.889	49089
643.948	64092
644.008	35640
644.067	32333
644.126	30849
644.186	29587
644.245	29786
644.304	28911
644.363	29601
644.423	30342
644.482	31970
644.541	35243
644.600	43763
644.659	35714
644.719	34198
644.778	34357
644.837	35497
644.896	33552
644.955	35595
645.014	37459
645.073	34898
645.132	34734
645.191	36559
645.250	32319
645.309	31339
645.368	31962
645.427	31215
645.486	30561
645.545	30737
645.604	31512
645.663	30088
645.722	30582
645.781	32665
645.840	30568
645.898	29457
645.957	28932
646.016	30173
646.075	29120
646.134	28653
646.192	31474
646.251	41084
646.310	43722
646.369	29280
646.427	27619
646.486	26322
646.545	26517
646.603	27369
646.662	27609
646.721	27380
646.779	26914
646.838	24571
646.896	27697
646.955	29753
647.014	38231
647.072	45845
647.131	28884
647.189	29313
647.248	27135
647.306	30893
647.365	36907
647.423	47223
647.481	40937
647.540	38402
647.598	33407
647.657	32302
647.715	29417
647.773	31744
647.832	30407
647.890	30500
647.948	31551
648.007	32251
648.065	32685
648.123	34018
648.181	36189
648.240	36877
648.298	36900
648.356	37552
648.414	38203
648.472	38736
648.531	36480
648.589	35151
648.647	34232
648.705	34148
648.763	34348
648.821	36735
648.879	37388
648.937	41999
648.995	60943
649.053	40237
649.111	34299
649.169	35061
649.227	35659
649.285	36396
649.343	41027
649.401	46671
649.459	43578
649.516	56418
649.574	50682
649.632	47953
649.690	69430
649.748	74286
649.806	44614
649.863	41770
649.921	43974
649.979	35220
650.037	32423
650.094	32669
650.152	33230
650.210	33073
650.268	34210
650.325	38541
650.383	38460
650.440	30900
650.498	32340
650.556	34255
650.613	36356
650.671	41660
650.728	36068
650.786	37949
650.843	48015
650.901	39211
650.958	35274
651.016	32948
651.073	32205
651.131	32640
651.188	31088
651.246	33378
651.303	32721
651.360	31671
651.418	31060
651.475	32354
651.532	33415
651.590	31421
651.647	32185
651.704	33954
651.762	32325
651.819	31957
651.876	32232
651.933	32504
651.990	31399
652.048	31513
652.105	30763
652.162	31971
652.219	31043
652.276	30231
652.333	29922
652.390	29242
652.448	29202
652.505	29525
652.562	29729
652.619	30181
652.676	28980
652.733	33385
652.790	31494
652.847	27623
652.904	26473
652.961	27103
653.017	27860
653.074	27284
653.131	25856
653.188	27253
653.245	25650
653.302	26945
653.359	26553
653.415	26028
653.472	25600
653.529	26344
653.586	25509
653.642	26457
653.699	26283
653.756	24101
653.813	24473
653.869	25619
653.926	23541
653.983	24626
654.039	23947
654.096	25007
654.152	25390
654.209	27087
654.266	28267
654.322	33235
654.379	32255
654.435	32721
654.492	35792
654.548	36173
654.605	42332
654.661	62008
654.717	33577
654.774	28827
654.830	30346
654.887	31911
654.943	29843
655.000	32558
655.056	34286
655.112	34536
655.168	30738
655.225	30939
655.281	32058
655.337	35292
655.394	46318
655.450	74420
655.506	54208
655.562	48037
655.618	77038
655.675	57366
655.731	29331
655.787	28706
655.843	27399
655.899	27470
655.955	27022
656.011	27269
656.067	27305
656.123	26470
656.179	27764
656.235	28251
656.291	27319
656.347	27723
656.403	28466
656.459	30097
656.515	29818
656.571	33532
656.627	33789
656.683	28570
656.739	27840
656.795	26541
656.850	24790
656.906	25824
656.962	29698
657.018	26094
657.074	23047
657.129	24575
657.185	26320
657.241	24120
657.297	24621
657.352	24210
657.408	22881
657.464	24724
657.519	26347
657.575	26971
657.630	23221
657.686	25706
657.742	24219
657.797	25844
657.853	26162
657.908	26174
657.964	24962
658.019	23562
658.075	23370
658.130	25066
658.186	24163
658.241	22146
658.297	21991
658.352	22921
658.407	23422
658.463	21607
658.518	23610
658.573	23434
658.629	23349
658.684	22399
658.739	22449
658.795	21714
658.850	20275
658.905	21213
658.960	22924
659.016	21157
659.071	22440
659.126	25181
659.181	25150
659.236	31172
659.291	27318
659.346	26760
659.401	24135
659.457	25598
659.512	23365
659.567	25944
659.622	22906
659.677	23884
659.732	23903
659.787	23766
659.842	24248
659.897	30521
659.952	38175
660.007	25407
660.061	22060
660.116	22642
660.171	24796
660.226	21646
660.281	23337
660.336	26265
660.391	24121
660.445	21454
660.500	21105
660.555	20670
660.610	21227
660.664	21836
660.719	20061
660.774	20771
660.828	20122
660.883	20895
660.938	20401
660.992	21354
661.047	21328
661.101	20496
661.156	19861
661.211	20913
661.265	21025
661.320	21397
661.374	22311
661.429	21522
661.483	21887
661.538	21631
661.592	21763
661.647	22471
661.701	20590
661.755	20951
661.810	20611
661.864	21253
661.919	21943
661.973	21174
662.027	22078
662.081	23040
662.136	20972
662.190	21752
662.244	22865
662.299	24219
662.353	22113
662.407	21095
662.461	19177
662.515	22266
662.569	22490
662.624	23459
662.678	23432
662.732	23034
662.786	21213
662.840	22534
662.894	22857
662.948	22726
663.002	21406
663.056	20149
663.110	19346
663.164	20265
663.218	19909
663.272	19559
663.326	19526
663.380	20492
663.434	21585
663.488	22201
663.542	21649
663.595	22794
663.649	21346
663.703	22251
663.757	20799
663.811	20804
663.864	20170
663.918	20046
663.972	20774
664.026	21204
664.079	19153
664.133	19345
664.187	21140
664.240	20094
664.294	18342
664.348	19329
664.401	20872
664.455	19557
664.508	19585
664.562	20465
664.615	20358
664.669	20613
664.722	20067
664.776	19333
664.829	19891
664.883	19912
664.936	19855
664.990	22854
665.043	23773
665.097	23349
665.150	25872
665.203	26910
665.257	23959
665.310	24103
665.363	21944
665.417	23411
665.470	24323
665.523	22977
665.576	22664
665.630	22871
665.683	21804
665.736	23253
665.789	23061
665.842	23810
665.895	21312
665.949	22887
666.002	21190
666.055	20963
666.108	22088
666.161	22915
666.214	22545
666.267	23280
666.320	22006
666.373	24079
666.426	22758
666.479	22653
666.532	23736
666.585	26208
666.638	31058
666.691	33765
666.744	29961
666.796	30690
666.849	32707
666.902	29215
666.955	23258
667.008	21952
667.060	20421
667.113	20494
667.166	18924
667.219	20673
667.271	19267
667.324	20503
667.377	20544
667.430	21276
667.482	20103
667.535	21364
667.587	21290
667.640	22077
667.693	21339
667.745	26180
667.798	27439
667.850	28493
667.903	25493
667.955	23230
668.008	22920
668.060	23116
668.113	25980
668.165	27425
668.218	26146
668.270	25882
668.322	23996
668.375	25004
668.427	23817
668.479	23219
668.532	23821
668.584	23951
668.636	25788
668.689	23718
668.741	23488
668.793	24750
668.845	25309
668.898	24990
668.950	24732
669.002	23812
669.054	22755
669.106	24255
669.158	24279
669.211	25193
669.263	22104
669.315	24139
669.367	24260
669.419	24784
669.471	24939
669.523	25394
669.575	24847
669.627	27887
669.679	27363
669.731	24236
669.783	22737
669.835	24845
669.886	23701
669.938	24156
669.990	23219
670.042	21962
670.094	21438
670.146	22001
670.197	22565
670.249	23785
670.301	24899
670.353	26658
670.404	29213
670.456	33894
670.508	43209
670.560	55724
670.611	82620
670.663	128432
670.715	205993
670.766	422280
670.818	789837
670.869	303871
670.921	59532
670.972	38108
671.024	31335
671.075	28691
671.127	25376
671.178	25511
671.230	22906
671.281	23630
671.333	23103
671.384	23559
671.436	25636
671.487	26853
671.538	25420
671.590	26539
671.641	27397
671.692	29013
671.744	27028
671.795	30807
671.846	29885
671.897	25326
671.949	24753
672.000	27354
672.051	24644
672.102	24353
672.153	24624
672.204	24317
672.256	24166
672.307	23966
672.358	24247
672.409	25876
672.460	24436
672.511	23233
672.562	22080
672.613	23868
672.664	22771
672.715	23205
672.766	23020
672.817	23157
672.868	21909
672.919	22450
672.970	21694
673.021	21738
673.071	21682
673.122	22239
673.173	22916
673.224	22534
673.275	21730
673.326	21905
673.376	20695
673.427	21270
673.478	21762
673.528	22530
673.579	20466
673.630	20730
673.680	21072
673.731	20890
673.782	20084
673.832	20901
673.883	21550
673.934	23524
673.984	22498
674.035	20186
674.085	20979
674.136	21681
674.186	22046
674.237	27589
674.287	29854
674.338	45322
674.388	31197
674.438	22431
674.489	22015
674.539	22090
674.589	24755
674.640	22477
674.690	23672
674.740	21766
674.791	23384
674.841	25210
674.891	23984
674.942	23177
674.992	20572
675.042	21210
675.092	19661
675.142	19024
675.193	20433
675.243	22573
675.293	23452
675.343	22832
675.393	22601
675.443	21702
675.493	21892
675.543	18911
675.593	18659
675.643	23249
675.693	20276
675.743	19572
675.793	21994
675.843	19663
675.893	19883
675.943	21210
675.993	19496
676.043	19745
676.093	20950
676.142	20922
676.192	20812
676.242	24630
676.292	23085
676.341	19406
676.391	21476
676.441	21897
676.491	19316
676.540	18360
676.590	18570
676.640	17910
676.689	18927
676.739	20447
676.789	19217
676.838	19161
676.888	20905
676.937	26741
676.987	21355
677.037	18160
677.086	16621
677.136	16774
677.185	17450
677.235	19112
677.284	18219
677.333	18902
677.383	17379
677.432	18080
677.482	15830
677.531	17672
677.580	17662
677.630	18748
677.679	17491
677.728	16410
677.778	18025
677.827	16963
677.876	16163
677.925	16402
677.975	15318
678.024	16848
678.073	17832
678.122	17011
678.171	18994
678.220	21581
678.269	18974
678.319	20803
678.368	20705
678.417	19434
678.466	19273
678.515	19717
678.564	20010
678.613	21327
678.662	19904
678.711	18906
678.760	19517
678.809	19432
678.857	19191
678.906	19474
678.955	19025
679.004	19799
679.053	20413
679.102	20985
679.151	20124
679.199	20363
679.248	17864
679.297	17415
679.346	18457
679.394	20447
679.443	19560
679.492	17800
679.540	17496
679.589	17662
679.638	19824
679.686	19982
679.735	16257
679.784	16818
679.832	17872
679.881	18532
679.929	17309
679.978	16309
680.026	15109
680.075	16648
680.123	17399
680.172	16048
680.220	16317
680.268	14478
680.317	16073
680.365	15631
680.414	16384
680.462	16365
680.510	15931
680.559	17497
680.607	15955
680.655	14808
680.703	15650
680.752	16478
680.800	16495
680.848	14448
680.896	15436
680.945	14871
680.993	14031
681.041	16017
681.089	15361
681.137	16007
681.185	14284
681.233	14571
681.258	15549
681.281	16408
681.329	16085
681.377	14710
681.380	14839
681.425	15907
681.473	15593
681.502	17134
681.521	18085
681.569	18345
681.617	17640
681.624	17668
681.665	17322
681.713	17382
681.745	17804
681.761	17887
681.809	17106
681.857	16440
681.867	16855
681.904	18008
681.952	16416
681.989	17290
682.000	17472
682.048	17641
682.096	18776
682.111	18487
682.143	17673
682.191	18595
682.233	17560
682.239	17327
682.286	17793
682.334	18000
682.354	17759
682.382	17319
682.430	16837
682.476	18570
682.477	18543
682.525	19124
682.572	17677
682.598	18194
682.620	18528
682.667	17977
682.715	18095
682.720	18351
682.763	20198
682.810	20351
682.841	20159
682.857	19998
682.905	20572
682.952	19886
682.963	19836
683.000	19252
683.047	20028
683.085	20089
683.095	20021
683.142	19804
683.190	19447
683.206	19396
683.237	19197
683.284	20949
683.328	21297
683.332	21294
683.379	20555
683.426	20225
683.449	20629
683.473	20634
683.521	20268
683.568	19213
683.571	19343
683.615	20523
683.662	19660
683.693	19238
683.709	18994
683.757	19608
683.804	20427
683.814	20297
683.851	19585
683.898	20984
683.936	20705
683.945	20610
683.992	19844
684.039	20450
684.057	20596
684.086	20617
684.133	21256
684.179	20296
684.180	20231
684.227	20169
684.274	21498
684.300	21471
684.321	21294
684.368	21148
684.415	21067
684.422	21289
684.462	22369
684.509	21422
684.543	21749
684.556	21917
684.603	23034
684.649	24750
684.665	25631
684.696	27644
684.743	28315
684.786	25942
684.790	25631
684.837	26750
684.883	25846
684.908	27084
684.930	28132
684.977	28259
685.023	28380
685.029	28253
685.070	27541
685.117	26576
685.150	26808
685.164	26494
685.210	26749
685.257	27413
685.272	27367
685.303	28280
685.350	27646
685.393	27611
685.396	27497
685.443	27460
685.490	27415
685.514	27036
685.536	26817
685.583	28161
685.629	26988
685.636	27108
685.675	27787
685.722	27255
685.757	27320
685.768	27195
685.815	27819
685.861	27801
685.878	27721
685.908	28084
685.954	28113
686.000	28932
686.000	28915
686.047	29542
686.093	30099
686.121	31886
686.139	33685
686.185	34166
686.232	32931
686.242	33066
686.278	31938
686.324	31708
686.363	30669
686.370	30424
686.416	29196
686.463	28284
686.484	28310
686.509	28554
686.555	28472
686.601	27447
686.606	27437
686.647	27693
686.693	27920
686.727	27409
686.739	27196
686.785	27385
686.831	28100
686.848	27940
686.877	27687
686.923	27897
686.969	27567
686.969	27560
687.015	27006
687.061	27682
687.090	27807
687.107	27994
687.153	28557
687.199	28959
687.211	28748
687.245	28107
687.291	26901
687.332	28102
687.336	28226
687.382	29426
687.428	30188
687.453	29806
687.474	29709
687.520	29478
687.565	29684
687.574	29844
687.611	29254
687.657	28034
687.695	27443
687.702	27498
687.748	27434
687.794	27990
687.816	27875
687.839	28019
687.885	28332
687.931	28070
687.937	28159
687.976	27849
688.022	27640
688.058	27470
688.067	27615
688.113	28172
688.158	28776
688.179	28836
688.204	28955
688.249	29189
688.295	29700
688.300	29863
688.340	30712
688.386	30525
688.421	30868
688.431	31252
688.477	31232
688.522	32536
688.542	33054
688.567	32733
688.613	32375
688.658	32088
688.663	32036
688.703	32401
688.749	31935
688.784	33391
688.794	34167
688.839	37386
688.884	37054
688.905	37245
688.930	36527
688.975	35861
689.020	35834
689.026	35851
689.065	34309
689.110	32337
689.146	30511
689.155	30691
689.201	30698
689.246	31486
689.267	31521
689.291	30885
689.336	31098
689.381	29993
689.388	29988
689.426	30884
689.471	30751
689.509	31084
689.516	31173
689.561	30855
689.606	31377
689.630	31298
689.651	30835
689.696	30809
689.741	29857
689.750	29775
689.785	30481
689.830	30627
689.871	31008
689.875	31040
689.920	30684
689.965	30779
689.992	30675
690.010	30699
690.054	31111
690.099	31109
690.112	31139
690.144	31466
690.189	31472
690.233	32026
690.233	32059
690.278	31503
690.323	31283
690.354	30723
690.367	30661
690.412	31084
690.457	31105
690.474	31210
690.501	31770
690.546	31920
690.590	32431
690.595	32431
690.635	32042
690.680	32223
690.716	31811
690.724	31935
690.769	33084
690.813	33658
690.836	33707
690.857	33633
690.902	34031
690.946	34373
690.957	34471
690.991	35780
691.035	37201
691.077	39451
691.080	39917
691.124	47769
691.168	54235
691.198	58245
691.213	58624
691.257	59434
691.301	61317
691.318	61900
691.346	57212
691.390	49183
691.434	40976
691.439	40039
691.478	37550
691.522	34681
691.559	32774
691.567	32923
691.611	32725
691.655	33202
691.680	32968
691.699	33138
691.743	33677
691.787	34507
691.800	34682
691.831	34599
691.875	34430
691.919	34102
691.921	34049
691.964	34659
692.008	35707
692.041	35883
692.052	36208
692.096	37399
692.139	38337
692.162	39076
692.183	39246
692.227	38884
692.271	38880
692.282	38862
692.315	38850
692.359	38503
692.402	37832
692.403	37889
692.447	38101
692.490	37883
692.523	37795
692.534	37699
692.578	37446
692.622	37162
692.643	36784
692.666	37157
692.709	37523
692.753	38263
692.763	38395
692.797	37730
692.840	36736
692.884	35559
692.884	35620
692.928	35957
692.971	36246
693.004	36351
693.015	36439
693.059	37152
693.102	37126
693.124	37042
693.146	37200
693.189	37312
693.233	38059
693.245	38169
693.276	38614
693.320	39089
693.363	39080
693.365	39023
693.407	39615
693.450	40277
693.485	40675
693.493	40829
693.537	40983
693.580	41504
693.605	41750
693.624	42523
693.667	43949
693.710	45576
693.725	46102
693.753	48807
693.797	52989
693.840	57792
693.845	58324
693.883	73222
693.926	88971
693.966	101497
693.970	101668
694.013	102701
694.056	103846
694.086	104517
694.099	98334
694.142	78051
694.185	58164
694.206	48498
694.229	47715
694.272	45816
694.315	43841
694.326	43378
694.358	42704
694.401	41438
694.444	39918
694.446	39753
694.487	39064
694.530	38879
694.566	38392
694.573	38429
694.616	38508
694.659	38130
694.686	37902
694.702	37893
694.745	37431
694.787	37461
694.806	37346
694.830	37305
694.873	37316
694.916	36705
694.926	36596
694.959	37222
695.002	37548
695.044	38282
695.046	38221
695.087	37089
695.130	36239
695.166	35226
695.172	35384
695.215	35950
695.258	36634
695.286	36996
695.301	37905
695.343	40397
695.386	43850
695.406	44532
695.428	46407
695.471	49982
695.514	54122
695.526	55238
695.556	50773
695.599	44404
695.641	37805
695.646	36986
695.684	36613
695.726	36290
695.766	35603
695.769	35663
695.811	35807
695.854	35885
695.886	35828
695.896	36112
695.938	36903
695.981	37518
696.005	37965
696.023	37975
696.065	37725
696.108	37240
696.125	37123
696.150	36997
696.192	36440
696.235	35967
696.245	35742
696.277	36712
696.319	37902
696.361	39166
696.365	39168
696.404	38132
696.446	37223
696.485	36141
696.488	36249
696.530	36712
696.572	37009
696.604	37367
696.614	37908
696.656	39942
696.698	41438
696.724	42341
696.740	42210
696.783	41751
696.825	41362
696.844	41081
696.867	39797
696.909	37189
696.951	34519
696.964	33652
696.992	34306
697.034	34957
697.076	35610
697.083	35663
697.118	35564
697.160	35320
697.202	34943
697.203	34855
697.244	34807
697.286	34468
697.323	34191
697.327	34314
697.369	34671
697.411	34933
697.442	35109
697.453	34996
697.494	34275
697.536	33538
697.562	33008
697.578	33523
697.620	34468
697.661	35586
697.682	36025
697.703	35782
697.744	35167
697.786	34585
697.801	34254
697.828	34353
697.869	34418
697.911	34587
697.921	34501
697.952	34775
697.994	35161
698.035	35489
698.040	35450
698.077	35100
698.118	34509
698.160	33918
698.160	33830
698.201	33891
698.243	33964
698.279	33878
698.284	33914
698.325	33496
698.367	33052
698.399	32642
698.408	32953
698.449	33961
698.491	35023
698.518	35622
698.532	35385
698.573	34416
698.614	33439
698.638	32798
698.656	33121
698.697	33699
698.738	34261
698.757	34442
698.779	34519
698.820	34506
698.862	34490
698.877	34406
698.903	35566
698.944	37262
698.985	38984
698.996	39368
699.026	41489
699.067	44295
699.116	47536
699.235	59917
699.354	37385
699.474	40558
699.593	47212
699.713	42446
699.832	41714
699.951	33755
700.070	35541
700.190	33713
700.309	34461
700.428	35108
700.547	37248
700.667	37447
700.786	34243
700.905	36228
701.024	33714
701.143	34593
701.262	36434
701.381	29200
701.500	29736
701.619	31447
701.738	31181
701.857	29239
701.976	29679
702.095	28913
702.214	27913
702.333	29612
702.452	30146
702.571	29576
702.690	30919
702.809	40044
702.928	37976
703.047	25968
703.165	28261
703.284	28317
703.403	27511
703.522	29337
703.640	32301
703.759	33093
703.878	33398
703.997	50359
704.115	31747
704.234	28074
704.353	27055
704.471	26344
704.590	26754
704.708	26217
704.827	26498
704.946	25418
705.064	26489
705.183	31818
705.301	27473
705.420	35777
705.538	59280
705.656	57860
705.775	45813
705.893	44942
706.012	50571
706.130	68541
706.249	46934
706.367	43685
706.485	44565
706.604	47995
706.722	45428
706.840	46113
706.958	49136
707.077	48208
707.195	42692
707.313	41955
707.431	39796
707.549	38639
707.668	39420
707.786	39931
707.904	39949
708.022	38685
708.140	38432
708.258	38150
708.376	37234
708.494	37707
708.612	39295
708.730	46059
708.848	81172
708.966	72091
709.084	58034
709.202	52638
709.320	50925
709.438	56709
709.556	62009
709.674	65381
709.791	78683
709.909	117512
710.027	57800
710.145	53330
710.263	60747
710.380	96958
710.498	92356
710.616	53034
710.733	50411
710.851	50278
710.969	52769
711.086	54652
711.204	58335
711.322	66426
711.439	56037
711.557	48903
711.674	49303
711.792	46795
711.909	46250
712.027	46872
712.144	46135
712.262	45223
712.379	44622
712.497	50976
712.614	74893
712.732	87252
712.849	67541
712.966	60851
713.084	61500
713.201	70918
713.318	68919
713.436	65533
713.553	61535
713.670	63506
713.787	63035
713.905	68368
714.022	71529
714.139	62993
714.256	58857
714.373	60337
714.490	60327
714.608	59482
714.725	57036
714.842	62206
714.959	64310
715.076	55906
715.193	54896
715.310	52869
715.427	52001
715.544	51831
715.661	50402
715.778	52474
715.895	51576
716.011	60228
716.128	58661
716.245	53722
716.362	52086
716.479	51624
716.596	53935
716.713	53065
716.829	58105
716.946	85315
717.063	113800
717.180	50254
717.296	48201
717.413	45990
717.530	47664
717.646	45027
717.763	45284
717.880	45236
717.996	43271
718.113	44076
718.229	44249
718.346	40064
718.462	41989
718.579	41479
718.695	43119
718.812	47615
718.928	53406
719.045	57198
719.161	48979
719.277	38572
719.394	38007
719.510	37527
719.626	39723
719.743	39964
719.859	49308
719.975	44039
720.092	41830
720.208	43937
720.324	47428
720.440	41861
720.557	41576
720.673	42587
720.789	47259
720.905	71602
721.021	163315
721.137	91673
721.253	40691
721.369	39953
721.486	42155
721.602	45234
721.718	61546
721.834	42683
721.950	32805
722.066	35427
722.181	34057
722.297	33178
722.413	34959
722.529	33439
722.645	32562
722.761	33746
722.877	32029
722.993	32956
723.108	30947
723.224	33450
723.340	30924
723.456	32779
723.571	29436
723.687	31483
723.803	30653
723.918	31315
724.034	28748
724.150	30244
724.265	31943
724.381	33933
724.497	61173
724.612	98052
724.728	33300
724.843	28980
724.959	28110
725.074	33401
725.190	57168
725.305	89196
725.421	32316
725.536	31257
725.651	25723
725.767	24954
725.882	26498
725.997	23575
726.113	25186
726.228	24410
726.343	23580
726.459	25996
726.574	25261
726.689	25782
726.804	25166
726.920	22162
727.035	24997
727.150	24232
727.265	26023
727.380	23734
727.495	24720
727.610	23934
727.725	21546
727.841	23629
727.956	23439
728.071	26934
728.186	34133
728.301	24031
728.416	20121
728.531	22683
728.645	20292
728.760	18283
728.875	20025
728.990	21833
729.105	19563
729.220	21651
729.335	19166
729.449	19162
729.564	18865
729.679	18695
729.794	18423
729.908	18232
730.023	21494
730.138	22088
730.253	16986
730.367	18046
730.482	18071
730.596	16677
730.711	18822
730.826	18529
730.940	16751
731.055	16915
731.169	17851
731.284	18785
731.398	16648
731.513	19168
731.627	20544
731.742	20937
731.856	23929
731.970	31264
732.085	15472
732.199	15026
732.313	15519
732.428	14664
732.542	14739
732.656	15508
732.771	15872
732.885	14371
732.999	15273
733.113	15492
733.227	16546
733.342	15873
733.456	13534
733.570	14270
733.684	16696
733.798	15105
733.912	14447
734.026	14082
734.140	12647
734.254	13462
734.368	16805
734.482	32665
734.596	50521
734.710	15326
734.824	12657
734.938	13673
735.052	12359
735.166	12890
735.280	15236
735.393	14471
735.507	13051
735.621	12597
735.735	19929
735.849	41945
735.962	24842
736.076	12723
736.190	14479
736.303	14666
736.417	19637
736.531	34317
736.644	14760
736.758	13290
736.872	10919
736.985	11233
737.099	10889
737.212	11056
737.326	10392
737.439	12145
737.553	11033
737.666	10570
737.780	10743
737.893	10861
738.007	9419
738.120	10036
738.233	9942
738.347	10375
738.460	12653
738.573	9861
738.687	9762
738.800	10737
738.913	9022
739.026	9647
739.140	11212
739.253	10902
739.366	9968
739.479	9380
739.592	9059
739.705	9000
739.818	9407
739.932	9363
740.045	9551
740.158	9291
740.271	9748
740.384	9457
740.497	8715
740.610	8662
740.723	9909
740.836	8981
740.949	9567
741.062	8850
741.174	10939
741.287	11735
741.400	9353
741.513	8518
741.626	8907
741.739	10049
741.851	10653
741.964	7971
742.077	7965
742.189	8653
742.302	10533
742.415	11777
742.527	10291
742.640	8635
742.753	8663
742.865	8689
742.978	7222
743.090	7615
743.203	8304
743.316	8891
743.428	9033
743.541	7466
743.653	7410
743.766	7221
743.878	8403
743.990	10392
744.103	21070
744.215	15947
744.327	10699
744.440	8519
744.552	8428
744.664	9085
744.777	7950
744.889	7471
745.001	6724
745.113	7023
745.226	7646
745.338	6531
745.450	5989
745.562	7525
745.674	7059
745.786	6540
745.898	6848
746.010	6207
746.122	7397
746.234	6905
746.347	6315
746.459	6417
746.570	6695
746.682	6717
746.794	8305
746.906	11938
747.018	8113
747.130	6669
747.242	6107
747.354	6598
747.466	6245
747.577	7216
747.689	6737
747.801	7250
747.913	5634
748.024	6370
748.136	6702
748.248	5744
748.359	5543
748.471	5647
748.583	6361
748.694	5396
748.806	6946
748.918	8933
749.029	11928
749.141	9359
749.252	7194
749.364	6520
749.475	7114
749.587	10449
749.698	11947
749.809	7308
749.921	5880
750.032	5810
750.144	5729
750.255	5772
750.366	5256
750.478	5490
750.589	6300
750.700	6017
750.811	6751
750.923	6002
751.034	6969
751.145	9440
751.256	10101
751.367	5659
751.479	4866
751.590	5370
751.701	6093
751.812	5683
751.923	5429
752.034	5366
752.145	5803
752.256	5191
752.367	5425
752.478	5876
752.589	5075
752.700	5185
752.811	5384
752.922	5446
753.032	4856
753.143	4960
753.254	5449
753.365	5075
753.476	4546
753.586	5538
753.697	4875
753.808	4555
753.919	4636
754.029	5658
754.140	6108
754.251	5174
754.361	5983
754.472	6156
754.582	6750
754.693	5741
754.804	5303
754.914	4966
755.025	5410
755.135	5477
755.246	6926
755.356	6518
755.466	5813
755.577	7311
755.687	6021
755.798	6240
755.908	6330
756.018	6058
756.129	5948
756.239	5440
756.349	5382
756.460	4918
756.570	4633
756.680	4561
756.790	5411
756.900	5161
757.011	5594
757.121	4587
757.231	5555
757.341	5719
757.451	5193
757.561	5225
757.671	5594
757.781	5073
757.891	5102
758.001	5898
758.111	6879
758.221	5432
758.331	5291
758.441	6228
758.551	4954
758.661	6113
758.771	6558
758.880	6473
758.990	7075
759.100	8506
759.210	7611
759.320	7165
759.429	7163
759.539	7155
759.649	6894
759.758	6658
759.868	7364
759.978	7249
760.087	7137
760.197	7695
760.307	6841
760.416	7289
760.526	6918
760.635	8155
760.745	9627
760.854	12106
760.964	8192
761.073	7845
761.182	7814
761.292	8422
761.401	8250
761.511	9815
761.620	9582
761.729	8023
761.839	8631
761.948	9979
762.057	8111
762.166	8938
762.276	9815
762.385	9152
762.494	8619
762.603	8610
762.712	8720
762.822	9867
762.931	10749
763.040	10569
763.149	9612
763.258	10925
763.367	9995
763.476	11369
763.585	10928
763.694	11797
763.803	11949
763.912	12912
764.021	12980
764.130	11936
764.238	12498
764.347	13328
764.456	14266
764.565	14234
764.674	15552
764.783	16186
764.891	16891
765.000	17652
765.109	18678
765.217	20755
765.326	23403
765.435	26752
765.543	33471
765.652	36627
765.761	43636
765.869	54552
765.978	74707
766.086	107805
766.195	171408
766.303	303021
766.412	595655
766.520	1018148
766.629	902036
766.737	723237
766.846	354904
766.954	193863
767.062	124266
767.171	89337
767.279	70219
767.387	54093
767.496	42804
767.604	36891
767.712	32467
767.820	28461
767.928	26064
768.037	24485
768.145	23098
768.253	23814
768.361	21320
768.469	21490
768.577	20862
768.685	20569
768.793	22086
768.901	22599
769.009	24975
769.117	26425
769.225	31008
769.333	36206
769.441	48533
769.549	72050
769.657	121256
769.765	238392
769.873	547339
769.981	879479
770.088	670162
770.196	300252
770.304	135035
770.412	80973
770.519	58667
770.627	46051
770.735	36071
770.842	30537
770.950	25340
771.058	23128
771.165	20672
771.273	18674
771.380	18048
771.488	17012
771.595	15329
771.703	15300
771.810	14600
771.918	13477
772.025	14512
772.133	12712
772.240	12333
772.348	13264
772.455	11620
772.562	13260
772.670	11586
772.777	11440
772.884	10885
772.991	10529
773.099	10018
773.206	9751
773.313	9255
773.420	10244
773.528	9451
773.635	9113
773.742	8918
773.849	8815
773.956	8817
774.063	8307
774.170	8960
774.277	8807
774.384	10314
774.491	10115
774.598	9688
774.705	9383
774.812	9552
774.919	9888
775.026	11406
775.133	10717
775.239	11149
775.346	8150
775.453	10036
775.560	9639
775.667	8950
775.773	9125
775.880	9278
775.987	9231
776.093	9384
776.200	8897
776.307	8736
776.413	9294
776.520	7787
776.627	9151
776.733	8611
776.840	9154
776.946	8663
777.053	9716
777.159	11217
777.266	17865
777.372	13989
777.478	15852
777.585	15155
777.691	11265
777.798	7969
777.904	9385
778.010	8366
778.117	9268
778.223	10081
778.329	8072
778.435	9071
778.542	8932
778.648	7665
778.754	8479
778.860	7900
778.966	7402
779.072	7645
779.178	8530
779.284	8414
779.391	7226
779.497	7195
779.603	8253
779.708	7709
779.815	11048
779.920	14482
780.026	34167
780.132	104651
780.238	37055
780.344	8923
780.450	8440
780.556	7946
780.661	6637
780.767	6847
780.873	7480
780.979	6055
781.085	7305
781.190	6964
781.296	7188
781.402	6192
781.507	7051
781.613	6704
781.719	6626
781.824	6913
781.930	7034
782.035	9863
782.141	8432
782.246	6991
782.352	7665
782.457	7777
782.563	6304
782.668	6662
782.773	8930
782.879	7915
782.984	7507
783.090	6813
783.195	7825
783.300	7628
783.405	8283
783.511	7016
783.616	8028
783.721	7577
783.826	8156
783.932	6362
784.037	7595
784.142	7662
784.247	7357
784.352	7157
784.457	6770
784.562	7185
784.667	7585
784.772	6087
784.877	7114
784.982	8559
785.087	9514
785.192	6833
785.297	6794
785.402	6507
785.507	6901
785.611	5739
785.716	5501
785.821	5315
785.926	6143
786.031	5084
786.135	5911
786.240	6096
786.345	5899
786.450	5340
786.554	5784
786.659	5610
786.763	5853
786.868	4960
786.973	5735
787.077	7107
787.182	6464
787.286	5668
787.391	6026
787.495	5073
787.600	5680
787.704	5599
787.809	5373
787.913	4541
788.017	4907
788.122	5038
788.226	6037
788.330	5423
788.435	5011
788.539	5731
788.643	5444
788.747	4287
788.852	4793
788.956	4897
789.060	4732
789.164	4396
789.268	4500
789.372	4780
789.476	4529
789.580	5225
789.684	4110
789.788	4539
789.892	4477
789.996	4753
790.100	4881
790.204	4815
790.308	4073
790.412	5359
790.516	6071
790.620	4928
790.724	5724
790.828	5894
790.931	6230
791.035	5830
791.139	4947
791.242	4903
791.346	4542
791.450	4047
791.554	4124
791.657	4012
791.761	4270
791.864	5057
791.968	4919
792.072	4872
792.175	4185
792.279	3857
792.382	4909
792.486	4110
792.589	4757
792.693	5132
792.796	5239
792.899	4219
793.003	4164
793.106	3491
793.209	4667
793.313	3894
793.416	3964
793.519	3643
793.623	4843
793.726	4338
793.829	5762
793.932	5476
794.035	4068
794.138	4907
794.242	5624
794.345	5864
794.448	7893
794.551	12228
794.654	11802
794.757	18097
794.860	50823
794.963	24973
795.066	9016
795.169	4390
795.272	4079
795.375	3404
795.477	3397
795.580	3834
795.683	3596
795.786	5502
795.889	3564
795.991	4206
796.094	5280
796.197	5479
796.300	5903
796.402	4369
796.505	3983
796.608	2570
796.710	3169
796.813	2824
796.915	3575
797.018	2724
797.120	3186
797.223	3081
797.326	3010
797.428	2917
797.530	3541
797.633	3606
797.735	3944
797.838	4719
797.940	11351
798.042	10893
798.145	3757
798.247	2724
798.349	3277
798.452	2451
798.554	2778
798.656	2413
798.758	2279
798.860	2993
798.962	4153
799.065	3257
799.167	2376
799.269	3305
799.371	3043
799.473	2928
799.575	3543
799.677	4939
799.779	7409
799.881	3622
799.983	3348
800.085	3828
800.187	2712
800.289	2819
800.390	3059
800.492	3237
800.594	2679
800.696	2436
800.798	2587
800.899	2288
801.001	2147
801.103	2293
801.205	2069
801.306	2224
801.408	2946
801.509	2090
801.611	2119
801.713	1964
801.814	2029
801.916	1362
802.017	1778
802.119	1743
802.220	2864
802.322	2083
802.423	2819
802.525	5187
802.626	6728
802.727	2655
802.829	2601
802.930	1457
803.031	3151
803.133	2315
803.234	1812
803.335	1900
803.436	1458
803.538	2351
803.639	1920
803.740	2045
803.841	1714
803.942	2160
804.043	1726
804.144	1095
804.245	1437
804.346	1492
804.447	1527
804.548	2067
804.649	2849
804.750	3063
804.851	1658
804.952	1492
805.053	2325
805.154	1185
805.255	1957
805.355	1706
805.456	1500
805.557	1639
805.658	3144
805.758	2207
805.859	2585
805.960	3355
806.061	2092
806.161	1562
806.262	2222
806.362	4653
806.463	4868
806.564	2358
806.664	2519
806.765	3090
806.865	5146
806.966	9178
807.066	15570
807.166	18563
807.267	3093
807.367	1677
807.468	2840
807.568	1635
807.668	2598
807.769	1228
807.869	2045
807.969	2357
808.069	1099
808.170	1759
808.270	1304
808.370	1851
808.470	2416
808.570	1887
808.670	2565
808.770	1714
808.870	1005
808.970	1388
809.070	1477
809.170	611
809.271	1073
809.370	1799
809.470	1080
809.570	1341
809.670	1512
809.770	1648
809.870	2140
809.970	1034
810.070	1395
810.169	1159
810.269	1516
810.369	1332
810.469	996
810.568	1404
810.668	1316
810.768	835
810.867	613
810.967	1082
811.066	1479
811.166	1031
811.265	1608
811.365	72
811.464	700
811.564	1426
811.663	1208
811.763	648
811.862	1090
811.962	1390
812.061	1524
812.160	1436
812.260	386
812.359	697
812.458	1579
812.557	1271
812.657	2874
812.756	6592
812.855	3713
812.954	1103
813.053	1664
813.153	1754
813.252	3729
813.351	9720
813.450	13769
813.549	1627
813.648	446
813.747	398
813.846	947
813.945	690
814.044	1337
814.143	630
814.242	479
814.341	1174
814.439	281
814.538	873
814.637	874
814.736	667
814.835	986
814.933	629
815.032	1493
815.131	1203
815.229	885
815.328	1581
815.427	1185
815.525	556
815.624	1402
815.722	472
815.821	899
815.919	-151
816.018	241
816.116	846
816.215	938
816.313	1281
816.412	464
816.510	197
816.609	432
816.707	538
816.805	757
816.904	376
817.002	1054
817.100	1501
817.198	2057
817.296	927
817.395	779
817.493	1144
817.591	1489
817.689	1217
817.787	2318
817.885	3063
817.983	3822
818.081	8199
818.179	15678
818.277	38163
818.375	102082
818.473	152688
818.571	43283
818.669	11037
818.767	6520
818.865	5776
818.963	6369
819.061	5478
819.158	7543
819.256	15024
819.354	32770
819.452	79653
819.549	207875
819.647	224813
819.745	51979
819.842	13466
819.940	8309
820.038	5890
820.135	4500
820.233	4929
820.330	4362
820.428	2605
820.525	2486
820.623	1782
820.720	1477
820.818	1935
820.915	1855
821.012	1899
821.110	1909
821.207	2752
821.304	6708
821.402	8783
821.499	2177
821.596	2734
821.693	3844
821.791	3781
821.888	1249
821.985	1555
822.082	3049
822.179	3953
822.276	1599
822.373	1790
822.470	1363
822.567	637
822.664	180
822.761	1142
822.858	1315
822.955	357
823.052	1284
823.149	854
823.246	1261
823.343	527
823.440	1000
823.536	262
823.633	260
823.730	328
823.827	422
823.923	558
824.020	1642
824.117	973
824.213	1297
824.310	2062
824.407	1153
824.503	-235
824.600	379
824.696	-98
824.793	1285
824.889	-87
824.986	-81
825.082	597
825.179	885
825.275	469
825.371	287
825.468	319
825.564	171
825.660	673
825.757	90
825.853	-210
825.949	143
826.045	86
826.142	113
826.238	217
826.334	700
826.430	40
826.526	751
826.622	70
826.718	924
826.814	509
826.910	707
827.006	206
827.102	394
827.198	74
827.294	-153
827.390	380
827.486	871
827.582	134
827.678	89
827.774	150
827.869	364
827.965	157
828.061	221
828.157	314
828.252	528
828.348	386
828.444	1401
828.539	1021
828.635	107
828.731	-556
828.826	125
828.922	12
829.017	876
829.113	132
829.208	-40
829.304	25
829.399	726
829.495	1010
829.590	-188
829.685	61
829.781	736
829.876	-105
829.971	307
830.066	612
830.162	-58
830.257	82
830.352	400
830.447	1581
830.543	2648
830.638	3971
830.733	5714
830.828	1469
830.923	891
831.018	213
831.113	833
831.208	471
831.303	1157
831.398	291
831.493	-391
831.588	-32
831.683	-484
831.778	359
831.873	-391
831.967	99
832.062	161
832.157	-306
832.252	216
832.346	-239
832.441	421
832.536	-65
832.631	1089
832.725	1907
832.820	3076
832.914	1251
833.009	153
833.104	515
833.198	69
833.293	600
833.387	1307
833.482	540
833.576	1337
833.670	935
833.765	510
833.859	-46
833.954	602
834.048	233
834.142	263
834.237	-89
834.331	294
834.425	2
834.519	314
834.613	1169
834.708	-143
834.802	46
834.896	570
834.990	282
835.084	-197
835.178	243
835.272	301
835.366	159
835.460	923
835.554	515
835.648	184
835.742	432
835.836	505
835.930	93
836.024	126
836.117	695
836.211	1500
836.305	1509
836.399	3184
836.493	5791
836.586	3072
836.680	-291
836.774	466
836.867	274
836.961	506
837.055	605
837.148	1500
837.242	215
837.335	542
837.429	288
837.522	1015
837.616	774
837.709	2526
837.803	5817
837.896	7083
837.989	1815
838.083	2069
838.176	4166
838.269	8112
838.363	13059
838.456	2868
838.549	117
838.642	1326
838.735	1965
838.829	4340
838.922	4036
839.015	3414
839.108	2429
839.201	859
839.294	863
839.387	788
839.480	1116
839.573	1357
839.666	2490
839.759	6435
839.852	1784
839.945	-224
840.038	19
840.131	245
840.223	-589
840.316	-120
840.409	834
840.502	209
840.594	-149
840.687	138
840.780	-67
840.873	784
840.965	396
841.058	1748
841.150	3557
841.243	7844
841.336	10327
841.428	3874
841.521	2307
841.613	1011
841.706	1362
841.798	1906
841.890	-5
841.983	147
842.075	714
842.167	928
842.260	347
842.352	1458
842.444	2263
842.537	6067
842.629	9359
842.721	17655
842.813	7002
842.905	248
842.997	504
843.090	868
843.182	1737
843.274	3785
843.366	11089
843.458	20996
843.550	46209
843.642	44553
843.734	10686
843.826	1712
843.918	2920
844.009	2718
844.101	1052
844.193	460
844.285	896
844.377	1345
844.469	1345
844.560	1727
844.652	1969
844.744	2601
844.835	1003
844.927	84
845.019	1359
845.110	2033
845.202	2477
845.293	1830
845.385	1727
845.476	1132
845.568	216
845.659	949
845.751	866
845.842	732
845.934	799
846.025	-73
846.116	674
846.208	443
846.299	390
846.390	542
846.482	1567
846.573	1888
846.664	1534
846.755	2233
846.846	3070
846.937	3838
847.029	1314
847.120	349
847.211	203
847.302	986
847.393	1002
847.484	-178
847.575	440
847.666	473
847.757	-40
847.847	525
847.938	652
848.029	262
848.120	88
848.211	1047
848.302	-183
848.392	685
848.483	252
848.574	459
848.664	-36
848.755	389
848.846	-18
848.936	405
849.027	353
849.118	564
849.208	61
849.299	69
849.389	1113
849.480	894
849.570	920
849.661	1494
849.751	800
849.841	1406
849.932	1411
850.022	615
850.112	-155
850.203	-80
850.293	425
850.383	388
850.474	545
850.564	-143
850.654	-95
850.744	-252
850.834	307
850.924	684
851.014	48
851.104	71
851.194	-278
851.284	139
851.374	627
851.464	866
851.554	1697
851.644	1204
851.734	2160
851.824	3027
851.914	3807
852.004	1294
852.094	979
852.183	1648
852.273	482
852.363	158
852.452	189
852.542	1147
852.632	249
852.721	366
852.811	32
852.901	758
852.990	194
853.080	325
853.169	652
853.259	-206
853.348	-166
853.438	187
853.527	42
853.617	84
853.706	-70
853.795	337
853.885	1183
853.974	1021
854.063	1910
854.152	2240
854.242	3654
854.331	2078
854.420	867
854.509	488
854.598	439
854.687	744
854.777	1811
854.866	1856
854.955	716
855.044	36
855.133	-278
855.222	-217
855.311	145
855.400	542
855.488	472
855.577	567
855.666	-7
855.755	492
855.844	327
855.933	454
856.021	753
856.110	1648
856.199	-53
856.288	-21
856.376	-157
856.465	327
856.554	401
856.642	406
856.731	-113
856.819	468
856.908	626
856.996	-4
857.085	544
857.173	330
857.262	-293
857.350	-187
857.438	-73
857.527	-9
857.615	399
857.703	489
857.792	-486
857.880	-178
857.968	-221
858.056	236
858.145	-187
858.233	311
858.321	135
858.409	695
858.497	262
858.585	108
858.673	-504
858.761	-90
858.849	-118
858.937	442
859.025	-182
859.113	-417
859.201	29
859.289	242
859.377	-135
859.465	-267
859.552	-500
859.640	135
859.728	759
859.816	492
859.903	422
859.991	271
860.079	701
860.166	557
860.254	225
860.342	7
860.429	-77
860.517	-16
860.604	131
860.692	-155
860.779	154
860.867	-529
860.954	-346
861.042	-146
861.129	-159
861.216	159
861.304	-88
861.391	-19
861.478	-66
861.565	-195
861.653	266
861.740	-193
861.827	979
861.914	-159
862.001	635
862.089	-672
862.176	-820
862.263	-757
862.350	264
862.437	-180
862.524	222
862.611	-375
862.698	-156
862.785	245
862.871	557
862.958	1471
863.045	46
863.132	184
863.219	-286
863.306	-587
863.392	-549
863.479	48
863.566	-685
863.652	168
863.739	-60
863.826	172
863.912	-2
863.999	-504
864.086	65
864.172	257
864.259	-200
864.345	-941
864.432	-17
864.518	60
864.604	-216
864.691	-72
864.777	-282
864.863	84
864.950	117
865.036	108
865.122	293
865.209	104
865.295	-217
865.381	317
865.467	-34
865.553	-4
865.639	-306
865.726	-524
865.812	-550
865.898	469
865.984	975
866.070	490
866.156	2174
866.242	3273
866.328	1776
866.414	153
866.499	-587
866.585	-822
866.671	-696
866.757	-39
866.843	-553
866.928	123
867.014	-145
867.100	-154
867.186	167
867.271	853
867.357	658
867.442	1556
867.528	3593
867.614	2981
867.699	766
867.785	810
867.870	425
867.956	1655
868.041	1871
868.127	1953
868.212	810
868.297	2610
868.383	2134
868.468	517
868.553	397
868.639	1723
868.724	1419
868.809	1790
868.894	4286
868.979	1508
869.065	-264
869.150	193
869.235	1196
869.320	294
869.405	-390
869.490	-930
869.575	-698
869.660	-608
869.745	-274
869.830	-454
869.915	-245
870.000	-377
870.085	-427
870.169	-342
870.254	-373
870.339	424
870.424	-327
870.509	384
870.593	-320
870.678	-210
870.763	-163
870.847	-500
870.932	-574
871.016	0
871.101	-10
871.186	637
871.270	-383
871.355	-299
871.439	-480
871.523	-327
871.608	-756
871.692	-383
871.777	-205
871.861	94
871.945	-1045
872.030	-218
872.114	92
872.198	-166
872.282	-523
872.367	-682
872.451	-566
872.535	-614
872.619	-193
872.703	-269
872.787	-558
872.871	-712
872.955	-498
873.039	-856
873.123	-503
873.207	226
873.291	-339
873.375	29
873.459	349
873.543	-180
873.627	-604
873.711	-617
873.794	-50
873.878	-290
873.962	-806
874.045	-74
874.129	-769
874.137	-775
874.213	-841
874.245	-841
874.296	-840
874.352	-314
874.380	-62
874.460	-478
874.464	-494
874.547	40
874.568	-103
874.631	-567
874.676	-528
874.714	-468
874.784	-660
874.798	-704
874.881	258
874.892	174
874.965	-374
874.999	-325
875.048	-308
875.107	-157
875.131	-76
875.215	-386
875.215	-386
875.298	-487
875.323	-337
875.381	29
875.430	4
875.465	-18
875.538	-466
875.548	-531
875.631	-671
875.646	-657
875.714	-574
875.753	-617
875.798	-624
875.861	-597
875.881	-600
875.964	-925
875.968	-901
876.047	-513
876.076	-472
876.130	-420
876.183	-746
876.213	-886
876.291	-367
876.296	-339
876.379	-513
876.398	-486
876.462	-295
876.506	-389
876.545	-522
876.613	-498
876.628	-480
876.711	555
876.721	512
876.794	18
876.828	-100
876.877	-150
876.935	-766
876.960	-997
877.043	560
877.043	558
877.125	-25
877.150	10
877.208	219
877.258	471
877.291	564
877.365	570
877.374	578
877.456	625
877.472	620
877.539	462
877.579	254
877.622	144
877.687	84
877.704	94
877.787	188
877.794	210
877.869	204
877.901	97
877.952	64
878.008	106
878.034	51
878.115	30
878.117	34
878.199	-1
878.222	-67
878.282	-423
878.329	-75
878.364	340
878.437	232
878.447	177
878.529	310
878.544	148
878.611	-575
878.651	-320
878.694	49
878.758	-400
878.776	-509
878.858	-394
878.865	-375
878.941	-296
878.972	-123
879.023	268
879.078	238
879.105	61
879.185	-201
879.187	-194
879.269	-363
879.292	-232
879.351	-144
879.399	-301
879.433	-334
879.506	-290
879.516	-309
879.598	-728
879.613	-698
879.680	-108
879.720	177
879.762	146
879.827	-127
879.844	-143
879.926	61
879.933	35
880.007	-139
880.040	-137
880.089	-139
880.147	202
880.171	290
880.253	149
880.254	148
880.335	229
880.360	395
880.417	848
880.467	1038
880.499	1202
880.574	1696
880.580	1717
880.662	2692
880.680	2332
880.744	1037
880.787	591
880.825	20
880.893	-836
880.907	-834
880.989	351
881.000	423
881.070	-32
881.106	-291
881.152	-206
881.213	-278
881.233	-431
881.315	-472
881.319	-496
881.396	-178
881.426	-58
881.478	-278
881.532	-465
881.559	-384
881.639	-175
881.641	-175
881.722	72
881.745	-17
881.803	-142
881.852	-164
881.885	-257
881.958	-213
881.966	-175
882.047	-261
882.064	-182
882.129	-322
882.171	-516
882.210	-150
882.277	200
882.291	109
882.372	582
882.383	526
882.454	321
882.489	-4
882.535	-260
882.596	91
882.616	124
882.697	-119
882.702	-138
882.778	-229
882.808	-71
882.859	268
882.914	110
882.940	16
883.020	113
883.021	118
883.102	429
883.127	434
883.183	109
883.233	-123
883.264	-69
883.339	325
883.345	339
883.426	-27
883.445	-56
883.507	-14
883.551	109
883.587	155
883.657	-89
883.668	-85
883.749	356
883.763	347
883.830	-91
883.869	-225
883.910	39
883.975	502
883.991	459
884.072	324
884.081	269
884.152	61
884.187	34
884.233	-78
884.292	-419
884.314	-403
884.394	51
884.398	56
884.475	-65
884.504	22
884.555	219
884.610	357
884.636	273
884.716	-225
884.716	-222
884.797	-145
884.821	-79
884.877	-295
884.927	-508
884.958	-363
885.033	40
885.038	41
885.118	-173
885.139	-147
885.199	180
885.244	396
885.279	219
885.350	-359
885.359	-325
885.439	-68
885.456	-5
885.520	-419
885.561	-558
885.600	-378
885.667	-136
885.680	-95
885.760	-299
885.773	-250
885.840	-149
885.878	-257
885.920	-461
885.984	-695
886.000	-544
886.080	407
886.089	480
886.160	-2
886.195	-147
886.240	233
886.300	413
886.320	185
886.400	-378
886.406	-410
886.480	408
886.511	605
886.560	331
886.616	180
886.640	282
886.720	500
886.722	503
886.800	-51
886.827	-219
886.879	37
886.932	149
886.959	151
887.038	276
887.039	278
887.119	168
887.143	149
887.198	137
887.248	146
887.278	186
887.354	134
887.358	121
887.437	-48
887.459	-101
887.517	21
887.564	88
887.596	-63
887.669	-413
887.676	-372
887.755	52
887.774	177
887.835	183
887.880	168
887.914	296
887.985	678
887.994	645
888.073	157
888.090	55
888.153	294
888.195	450
888.232	401
888.300	372
888.311	361
888.391	206
888.405	183
888.470	440
888.510	588
888.549	552
888.615	459
888.628	398
888.708	16
888.720	-37
888.787	623
888.825	977
888.866	819
888.930	548
888.945	527
889.024	448
889.035	432
889.103	249
889.140	137
889.182	279
889.245	515
889.261	419
889.340	-65
889.349	-118
889.419	111
889.454	218
889.498	187
889.559	147
889.577	354
889.656	1271
889.664	1361
889.735	538
889.768	145
889.814	463
889.873	888
889.978	-398
890.083	1026
890.187	90
890.292	684
890.397	236
890.501	-174
890.606	441
890.710	802
890.815	877
890.919	464
891.024	259
891.128	395
891.233	1154
891.337	670
891.442	180
891.546	522
891.650	417
891.755	-317
891.859	609
891.963	756
892.068	206
892.172	415
892.276	380
892.380	584
892.484	-434
892.589	715
892.693	-310
892.797	685
892.901	485
893.005	237
893.109	-213
893.213	618
893.317	-95
893.421	-127
893.525	194
893.629	-430
893.733	-599
893.837	43
893.941	517
894.045	796
894.148	83
894.252	1320
894.356	537
894.460	625
894.564	480
894.667	103
894.771	231
894.875	836
894.978	-294
895.082	182
895.186	478
895.289	724
895.393	-184
895.496	760
895.600	218
895.703	-83
895.807	-158
895.910	460
896.014	472
896.117	158
896.221	309
896.324	-288
896.427	-128
896.531	384
896.634	37
896.737	941
896.840	360
896.944	-897
897.047	56
897.150	81
897.253	231
897.356	864
897.460	-306
897.563	417
897.666	314
897.769	39
897.872	-906
897.975	56
898.078	280
898.181	175
898.284	31
898.387	661
898.490	-543
898.593	615
898.695	-542
898.798	-70
898.901	451
899.004	328
899.107	-60
899.209	581
899.312	-363
899.415	-286
899.518	90
899.620	147
899.723	-829
899.826	595
899.928	-62
900.031	496
900.133	-7
900.236	-53
900.338	-5
900.441	438
900.543	11
900.646	326
900.748	-418
900.851	533
900.953	-181
901.055	446
901.158	-232
901.260	757
901.362	1214
901.465	83
901.567	347
901.669	-231
901.771	567
901.873	905
901.976	-619
902.078	416
902.180	-285
902.282	196
902.384	194
902.486	774
902.588	-297
902.690	830
902.792	1114
902.894	1580
902.996	196
903.098	221
903.200	-151
903.302	1113
903.404	-355
903.505	329
903.607	-362
903.709	220
903.811	-8
903.913	644
904.014	-162
904.116	211
904.218	342
904.319	278
904.421	810
904.523	784
904.624	828
904.726	782
904.827	-27
904.929	877
905.030	666
905.132	1192
905.233	452
905.335	168
905.436	79
905.537	168
905.639	298
905.740	617
905.841	45
905.943	100
906.044	493
906.145	1139
906.247	854
906.348	1090
906.449	-322
906.550	735
906.651	637
906.752	37
906.854	-186
906.955	467
907.056	-131
907.157	780
907.258	-210
907.359	-318
907.460	-539
907.561	569
907.662	-189
907.762	651
907.863	-208
907.964	253
908.065	-307
908.166	1039
908.267	-492
908.367	71
908.468	-336
908.569	94
908.670	-157
908.770	678
908.871	425
908.971	692
909.072	917
909.173	577
909.273	-732
909.374	315
909.474	-29
909.575	130
909.675	149
909.776	1146
909.876	297
909.977	645
910.077	69
910.177	391
910.278	532
910.378	-118
910.478	-215
910.579	229
910.679	-101
910.779	63
910.879	38
910.980	-301
911.080	-399
911.180	212
911.280	-145
911.380	593
911.480	-174
911.580	-183
911.680	-164
911.780	675
911.880	906
911.980	282
912.080	-275
912.180	-173
912.280	-217
912.380	801
912.480	-455
912.580	304
912.679	-680
912.779	56
912.879	-85
912.979	49
913.078	375
913.178	445
913.278	-822
913.377	-51
913.477	156
913.577	-295
913.676	420
913.776	197
913.875	-215
913.975	576
914.074	535
914.174	209
914.273	324
914.373	382
914.472	-577
914.572	265
914.671	-470
914.770	-358
914.870	-321
914.969	786
915.068	-357
915.167	102
915.267	-371
915.366	-257
915.465	-587
915.564	551
915.663	-635
915.763	-204
915.862	323
915.961	500
916.060	-888
916.159	171
916.258	-844
916.357	-397
916.456	-262
916.555	-80
916.654	-592
916.752	224
916.851	-60
916.950	-14
917.049	-318
917.148	231
917.247	-585
917.345	282
917.444	-345
917.543	-299
917.642	119
917.740	57
917.839	-28
917.937	46
918.036	92
918.135	-1210
918.233	-40
918.332	145
918.430	-408
918.529	-64
918.627	-237
918.726	-193
918.824	-43
918.923	339
919.021	-466
919.119	329
919.218	-54
919.316	22
919.414	-475
919.512	347
919.611	-842
919.709	-463
919.807	-89
919.905	33
920.003	-683
920.102	-300
920.200	151
920.298	-55
920.396	-428
920.494	-144
920.592	-614
920.690	253
920.788	-798
920.886	76
920.984	-23
921.082	85
921.180	-17
921.277	-525
921.375	-117
921.473	-241
921.571	796
921.669	600
921.766	-172
921.864	-59
921.962	-1136
922.060	114
922.157	354
922.255	422
922.352	244
922.450	-191
922.548	-486
922.645	-172
922.743	-259
922.840	384
922.938	-518
923.035	-317
923.133	-504
923.230	72
923.327	213
923.425	-163
923.522	-440
923.619	-239
923.717	-511
923.814	6
923.911	461
924.008	122
924.106	488
924.203	-5
924.300	323
924.397	-909
924.494	-376
924.591	110
924.688	-352
924.786	629
924.883	268
924.979	41
925.077	-164
925.173	11
925.270	96
925.367	167
925.464	8
925.561	652
925.658	-986
925.755	-1067
925.852	-54
925.948	645
926.045	476
926.142	1470
926.239	248
926.335	1949
926.432	1075
926.529	888
926.625	625
926.722	2130
926.818	969
926.915	576
927.011	410
927.108	82
927.204	-1151
927.301	-562
927.397	-57
927.494	572
927.590	-89
927.687	813
927.783	-243
927.879	-952
927.976	-402
928.072	28
928.168	-603
928.264	-527
928.361	-195
928.457	-558
928.553	-465
928.649	-793
928.745	-462
928.841	118
928.937	-323
929.033	-608
929.129	-706
929.225	-182
929.321	-933
929.417	263
929.513	-503
929.609	482
929.705	-687
929.801	-839
929.897	-861
929.993	188
930.089	-61
930.184	170
930.280	-199
930.376	-484
930.471	-1045
930.567	-16
930.663	-1242
930.758	-97
930.854	-566
930.950	-366
931.045	408
931.141	173
931.236	-462
931.332	540
931.427	-271
931.523	-840
931.618	-185
931.714	-158
931.809	-480
931.905	785
932.000	-549
932.095	-108
932.191	-222
932.286	-352
932.381	-1249
932.476	182
932.572	-915
932.667	-450
932.762	-612
932.857	537
932.952	-890
933.047	-391
933.142	-1035
933.237	-88
933.332	-620
933.427	431
933.522	-1198
933.617	-25
933.712	-477
933.807	-366
933.902	-1042
933.997	421
934.092	-563
934.187	-351
934.282	-195
934.376	-164
934.471	-633
934.566	-577
934.661	-679
934.755	-266
934.850	-22
934.945	-513
935.039	-1190
935.134	276
935.228	-952
935.323	279
935.417	-1055
935.512	-111
935.606	-522
935.701	-48
935.795	-724
935.890	103
935.984	-949
936.079	-67
936.173	-33
936.267	-326
936.362	-540
936.456	-70
936.550	-522
936.644	-209
936.738	-993
936.833	-192
936.927	-1551
937.021	85
937.115	-310
937.209	363
937.303	129
937.397	-464
937.491	411
937.585	124
937.679	-735
937.773	-356
937.867	-1307
937.961	464
938.055	-745
938.149	172
938.243	84
938.337	316
938.430	-497
938.524	-230
938.618	328
938.712	1540
938.805	745
938.899	677
938.993	68
939.086	173
939.180	846
939.274	2737
939.367	2628
939.461	1053
939.554	360
939.648	-34
939.741	-515
939.835	-284
939.928	-261
940.022	606
940.115	-309
940.208	-560
940.302	46
940.395	-1308
940.488	-733
940.582	-45
940.675	-990
940.768	436
940.861	-821
940.954	576
941.048	-354
941.141	365
941.234	-523
941.327	782
941.420	-465
941.513	376
941.606	99
941.699	397
941.792	-452
941.885	-609
941.978	-943
942.071	-292
942.164	-379
942.257	-876
942.349	-584
942.442	-102
942.535	-227
942.628	-168
942.721	-124
942.813	-138
942.906	-440
942.999	-115
943.091	-684
943.184	-273
943.277	-479
943.369	-255
943.462	-1248
943.554	-520
943.647	-281
943.739	-645
943.832	-172
943.924	85
944.017	-900
944.109	-319
944.201	-228
944.294	332
944.386	-180
944.478	-502
944.571	-333
944.663	475
944.755	-50
944.847	-114
944.940	-928
945.032	-426
945.124	-42
945.216	410
945.308	156
945.400	66
945.492	-279
945.584	146
945.676	-722
945.768	-492
945.860	-206
945.952	277
946.044	-619
946.136	786
946.228	-1257
946.320	-39
946.412	-133
946.503	181
946.595	391
946.687	-120
946.779	-962
946.870	-618
946.962	-95
947.054	71
947.145	-436
947.237	855
947.329	-784
947.420	-429
947.512	-317
947.603	-125
947.695	0
947.786	-364
947.878	-1110
947.969	-348
948.061	-693
948.152	155
948.243	-742
948.335	-163
948.426	-323
948.517	279
948.609	64
948.700	126
948.791	-437
948.882	694
948.973	-805
949.065	-722
949.156	-406
949.247	-957
949.338	-1097
949.429	-398
949.520	-486
949.611	302
949.702	-37
949.793	-238
949.884	-879
949.975	63
950.066	-397
950.157	-240
950.247	-94
950.338	-245
950.429	-832
950.520	812
950.611	-541
950.701	464
950.792	-666
950.883	-407
950.973	-571
951.064	100
951.155	-168
951.245	141
951.336	-813
951.427	-623
951.517	-355
951.608	-122
951.698	-773
951.788	409
951.879	-1161
951.969	-641
952.060	-727
952.150	-672
952.240	-407
952.331	-127
952.421	258
952.511	133
952.602	-760
952.692	407
952.782	-572
952.872	-567
952.962	-7
953.052	-85
953.143	-943
953.233	465
953.323	-83
953.413	-696
953.503	-934
953.593	226
953.683	-352
953.773	-299
953.863	-1093
953.953	-217
954.042	-366
954.132	-54
954.222	-1334
954.312	405
954.402	-288
954.492	401
954.581	-57
954.671	1558
954.761	-247
954.850	670
954.940	-548
955.030	154
955.119	-190
955.209	-169
955.298	-512
955.388	-92
955.477	229
955.567	264
955.656	-742
955.746	-584
955.835	-377
955.925	-578
956.014	-413
956.103	-164
956.193	-357
956.282	-424
956.371	-546
956.461	-520
956.550	-212
956.639	-357
956.728	-498
956.817	-294
956.906	-808
956.995	172
957.085	-1030
957.174	-24
957.263	-142
957.352	161
957.441	-208
957.530	171
957.619	-512
957.708	-804
957.796	-347
957.885	75
957.974	-301
958.063	312
958.152	-49
958.241	-22
958.329	-466
958.418	-174
958.507	38
958.596	340
958.684	-776
958.773	-517
958.861	-1097
958.950	-285
959.039	382
959.127	-93
959.216	188
959.304	-36
959.393	-238
959.481	20
959.570	181
959.658	83
959.746	-232
959.835	148
959.923	863
960.011	2970
960.100	1080
960.188	-180
960.276	-332
960.365	-414
960.453	-572
960.541	285
960.629	-678
960.717	-724
960.805	-123
960.893	544
960.981	-695
961.069	-95
961.158	-275
961.245	-185
961.333	-605
961.421	-617
961.509	-1093
961.597	310
961.685	-54
961.773	624
961.861	-1212
961.949	-133
962.036	-716
962.124	-354
962.212	-210
962.299	-535
962.387	-144
962.475	-284
962.562	-1248
962.650	213
962.738	-760
962.825	149
962.913	-945
963.000	-557
963.088	-273
963.175	-165
963.263	46
963.350	341
963.438	-112
963.525	228
963.612	337
963.700	1890
963.787	5050
963.874	11400
963.962	5848
964.049	311
964.136	583
964.223	-124
964.310	-426
964.398	-691
964.485	-759
964.572	806
964.659	-86
964.746	1370
964.833	794
964.920	44
965.007	-652
965.094	373
965.181	-1159
965.268	-175
965.355	237
965.441	-51
965.528	-800
965.615	-389
965.702	-794
965.789	-518
965.875	-266
965.962	0
966.049	-27
966.136	-409
966.222	19
966.309	-153
966.395	-945
966.482	5
966.569	-1435
966.655	838
966.742	-1138
966.828	125
966.915	-520
967.001	-366
967.087	-577
967.174	-702
967.260	62
967.347	11
967.433	701
967.519	3139
967.605	6835
967.692	3091
967.778	-111
967.864	-565
967.950	-367
968.036	-760
968.123	-539
968.209	5
968.295	-934
968.381	-1213
968.467	-252
968.553	-668
968.639	-875
968.725	-105
968.811	210
968.897	723
968.983	272
969.069	1515
969.154	-802
969.240	-405
969.326	-741
969.412	-1096
969.497	-426
969.583	-33
969.669	-650
969.755	-577
969.840	-1040
969.926	188
970.012	-452
970.097	-697
970.183	-780
970.268	93
970.354	-93
970.439	1073
970.525	2084
970.610	3138
970.696	2362
970.781	171
970.866	-917
970.952	6
971.037	-567
971.122	280
971.208	-990
971.293	-1123
971.378	-1243
971.463	-395
971.549	-1348
971.634	-982
971.719	-283
971.804	53
971.889	-11
971.974	-514
972.059	-1050
972.144	-1242
972.229	-1130
972.314	-358
972.399	-1501
972.484	632
972.569	83
972.654	60
972.739	23
972.824	1337
972.908	1936
972.993	284
973.078	-982
973.163	-547
973.247	-979
973.332	-714
973.417	79
973.501	126
973.586	-258
973.671	-494
973.755	-1201
973.840	-148
973.924	-569
974.009	508
974.093	-570
974.178	325
974.262	-107
974.346	435
974.431	1447
974.515	292
974.600	-947
974.684	105
974.768	-628
974.852	-234
974.937	-607
975.021	68
975.105	-1005
975.189	-815
975.273	-1358
975.358	-610
975.442	-906
975.526	-90
975.610	-1243
975.694	-549
975.778	-755
975.862	-726
975.946	-1040
976.030	-147
976.114	-369
976.198	-436
976.281	-702
976.365	438
976.449	-1670
976.533	-575
976.617	-1184
976.700	-546
976.784	-1470
976.868	-421
976.951	-649
977.035	399
977.119	-150
977.202	-74
977.286	-419
977.369	-571
977.453	-1089
977.536	-508
977.620	-1341
977.703	-1222
977.787	-905
977.870	-1013
977.953	-805
978.037	-535
978.120	-1245
978.203	98
978.287	-528
978.370	1882
978.453	156
978.536	415
978.620	-999
978.703	126
978.786	-377
978.869	38
978.952	-1769
979.035	-686
979.118	-1910
979.201	-672
979.284	-1067
979.367	-686
979.450	-1484
979.533	-1364
979.616	-1365
979.699	-1093
979.782	-1073
979.865	-233
979.948	-1372
980.030	-1244
980.113	-709
980.196	-884
980.279	-832
980.361	-978
980.444	-1195
980.526	-221
980.609	-1272
980.692	-1910
980.774	-1053
980.857	-984
980.939	-598
981.022	-962
981.104	-663
981.187	-695
981.269	-848
981.352	-1322
981.434	-1073
981.516	-1578
981.599	-1271
981.681	-1037
981.763	-1151
981.846	-1338
981.928	-1308
982.010	-749
982.092	-630
982.174	-1066
982.256	-1055
982.339	36
982.421	-960
982.503	-1362
982.585	-736
982.667	-1333
982.749	-1546
982.831	-148
982.913	-1921
982.995	-728
983.077	-1264
983.158	-388
983.240	-1032
983.322	153
983.404	-1633
983.486	-1301
983.568	-1613
983.649	-858
983.731	-1263
983.813	-1207
983.894	-544
983.976	-523
984.058	-1718
984.139	-891
984.221	-1428
984.302	-850
984.384	-2230
984.465	-786
984.547	-720
984.628	-555
984.710	-1678
984.791	-497
984.872	-310
984.954	-978
985.035	-1352
985.116	-1004
985.198	-1573
985.279	-1128
985.360	-1152
985.441	-894
985.522	-1088
985.604	-1159
985.685	-1568
985.766	-831
985.847	-1097
985.928	-1088
986.009	-1277
986.090	-851
986.171	-825
986.252	-723
986.333	-1018
986.414	-246
986.495	-566
986.576	-480
986.656	-1091
986.737	-585
986.818	-975
986.899	-299
986.980	-1425
987.060	-627
987.141	-830
987.222	-798
987.302	-1732
987.383	-1576
987.464	-1362
987.544	-222
987.625	-1890
987.705	-1217
987.786	-1380
987.866	-895
987.947	-1255
988.027	-497
988.108	-1957
988.188	-480
988.268	-1095
988.349	-1099
988.429	-1103
988.509	-364
988.589	-1975
988.670	-1619
988.750	-384
988.830	-719
988.910	-873
988.990	-890
989.070	-1361
989.151	-1005
989.231	-1264
989.311	-1199
989.391	-1102
989.471	-774
989.551	-1546
989.631	-888
989.711	-1298
989.791	-466
989.870	-1216
989.950	-58
990.030	-970
990.110	-125
990.190	-1293
990.269	-674
990.349	-1136
990.429	-473
990.509	-1786
990.588	-1025
990.668	-720
990.747	-957
990.827	-2174
990.907	-1433
990.986	-578
991.066	-1063
991.145	-1519
991.225	-543
991.304	-1313
991.383	-1001
991.463	-1008
991.542	89
991.622	-1204
991.701	-633
991.780	-1592
991.859	-824
991.939	-493
992.018	-1053
992.097	-1079
992.176	-421
992.256	-1220
992.335	-1432
992.414	-563
992.493	-802
992.572	-1597
992.651	-456
992.730	-577
992.809	-1276
992.888	-1302
992.967	-982
993.046	-824
993.125	-789
993.203	-611
993.282	-1045
993.361	-937
993.440	-1002
993.519	-957
993.597	-1141
993.676	-1600
993.755	-1200
993.834	-1141
993.912	-1177
993.991	-961
994.069	-750
994.148	-680
994.226	-769
994.305	-1429
994.384	-1310
994.462	-1223
994.540	-664
994.619	-1106
994.697	-1124
994.776	-2278
994.854	-292
994.932	-1191
995.011	-328
995.089	-800
995.167	-736
995.245	-2002
995.324	-779
995.402	-438
995.480	-342
995.558	-922
995.636	-1572
995.714	-1481
995.792	-218
995.870	-1739
995.948	-847
996.026	-749
996.104	-97
996.182	-1080
996.260	-1266
996.338	-584
996.416	-588
996.494	-1178
996.572	35
996.649	-343
996.727	-1845
996.805	-1004
996.883	-570
996.960	-1152
997.038	-776
997.116	-806
997.193	-1289
997.271	-1013
997.348	-1135
997.426	-1587
997.504	-421
997.581	-965
997.658	-1299
997.736	-1605
997.813	-837
997.891	-613
997.968	-630
998.046	-935
998.123	-1103
998.200	-628
998.277	-1062
998.355	-1121
998.432	-1182
998.509	-1137
998.586	-832
998.663	-505
998.741	-1127
998.818	-1226
998.895	-468
998.972	-1119
999.049	-1544
999.126	-1806
999.203	-539
999.280	-1500
999.357	-1167
999.434	-1342
999.511	-503
999.587	-1156
999.664	-220
999.741	-1214
999.818	-541
999.895	-2088
999.971	-1594
1000.048	-1512
1000.125	-539
1000.202	-1651
1000.278	-516
1000.355	-923
1000.431	23
1000.508	-1228
1000.584	-978
1000.661	-1288
1000.738	-859
1000.814	-1514
1000.890	-751
1000.967	-1048
1001.043	-928
1001.120	-877
1001.196	-638
1001.272	-739
1001.349	-949
1001.425	-1089
1001.501	-204
1001.577	-1864
1001.654	-183
1001.730	-1665
1001.806	-1246
1001.882	-2113
1001.958	-1759
1002.034	-562
1002.110	-1013
1002.186	-1134
1002.262	-1098
1002.338	-1221
1002.414	-568
1002.490	-1896
1002.566	-322
1002.642	-773
1002.718	-509
1002.794	-594
1002.870	-659
1002.945	-1201
1003.021	-1167
1003.097	-1743
1003.173	-244
1003.248	-1559
1003.324	-1137
1003.400	-879
1003.475	-849
1003.551	-986
1003.626	-1057
1003.702	-1686
1003.777	-957
1003.853	-879
1003.928	-1375
1004.004	-1340
1004.079	-1427
1004.155	-1560
1004.230	-1292
1004.305	-1267
1004.381	-334
1004.456	-1410
1004.531	-635
1004.607	-1530
1004.682	-1000
1004.757	-1242
1004.832	-188
1004.907	-828
1004.982	-219
1005.057	-797
1005.133	-819
1005.208	-1649
1005.283	-819
1005.358	-1275
1005.433	-1098
1005.508	-1144
1005.583	-1010
1005.657	-1269
1005.732	-49
1005.807	-925
1005.882	-1299
1005.957	-1558
1006.032	-1541
1006.106	-1156
1006.181	-1155
1006.256	-954
1006.331	-1011
1006.405	-1955
1006.480	-11
1006.554	-1212
1006.629	-776
1006.704	-1471
1006.778	-606
1006.853	-1162
1006.927	-1703
1007.002	-1290
1007.076	-632
1007.150	-1209
1007.225	-1058
1007.299	-1439
1007.373	-800
1007.448	-1275
1007.522	-791
1007.596	-1277
1007.671	-451
1007.745	-1483
1007.819	-598
1007.893	-1349
1007.967	-100
1008.041	-1948
1008.115	-436
1008.190	-307
1008.264	-882
1008.338	-1632
1008.412	-1357
1008.486	-922
1008.560	-1103
1008.633	-1568
1008.707	-1071
1008.781	-1314
1008.855	-1061
1008.929	-2075
1009.003	-542
1009.076	-1711
1009.150	-469
1009.224	-1787
1009.298	-867
1009.371	-1198
1009.445	-852
1009.519	-2040
1009.592	-860
1009.666	-1028
1009.739	-302
1009.813	-1719
1009.886	-105
1009.960	-1244
1010.033	-551
1010.107	-674
1010.180	-1098
1010.253	-1287
1010.327	-1272
1010.400	-1161
1010.473	-1038
1010.547	-1562
1010.620	-1307
1010.693	-824
1010.766	-1051
1010.840	-811
1010.913	-199
1010.986	-1435
1011.059	-494
1011.132	-1223
1011.205	-687
1011.278	-1204
1011.351	-923
1011.424	-1461
1011.497	-942
1011.570	-1056
1011.643	-619
1011.716	-2009
1011.789	-699
1011.862	-1610
1011.934	-789
1012.007	-2075
1012.080	-1078
1012.153	-1094
1012.225	-781
1012.298	-1368
1012.371	-418
1012.443	-1084
1012.516	-612
1012.588	-1106
1012.661	-442
1012.733	-1558
1012.806	-191
1012.879	-1462
1012.951	-1153
1013.023	-1164
1013.096	-1745
1013.168	-1863
1013.241	-859
1013.313	-1551
1013.385	-568
1013.458	-1367
1013.530	-1685
1013.602	-1984
1013.674	-1427
1013.746	-1671
1013.819	-1575
1013.891	-996
1013.963	-743
1014.035	-1331
1014.107	-1617
1014.179	-498
1014.251	-365
1014.323	-1722
1014.395	-1110
1014.467	-1504
1014.539	-1134
1014.611	-1501
1014.683	-1108
1014.754	-898
1014.826	-826
1014.898	-550
1014.970	-1044
1015.042	-2096
1015.113	-655
1015.185	-1198
1015.257	-569
1015.328	-1552
1015.400	-1738
1015.471	-1759
1015.543	-1697
1015.615	-1210
1015.686	-1596
1015.757	-1485
1015.829	-1289
1015.901	-1091
1015.972	-1091
1016.043	-1181
1016.115	-1279
1016.186	-537
1016.257	-527
1016.328	-1450
1016.400	-372
1016.471	-1080
1016.542	-1849
1016.613	-1528
1016.685	-856
1016.756	-1032
1016.827	-992
1016.898	-1859
1016.969	-853
1017.040	-1448
1017.111	-2194
1017.182	-2110
1017.253	-1790
1017.324	-1464
1017.395	-1598
1017.466	-1463
1017.537	-1061
1017.608	-1246
1017.678	-1257
1017.749	-1188
1017.820	-1367
1017.891	-1923
1017.961	-1468
1018.032	-1231
1018.103	-552
1018.173	-2290
1018.244	-1713
1018.315	-2021
1018.385	-581
1018.456	-1403
1018.526	-1360
1018.597	-2236
1018.667	-1534
1018.738	-1603
1018.808	-1471
1018.878	-1668
1018.949	-1193
1019.019	-1501
1019.089	-968
1019.160	-1774
1019.230	-1337
1019.300	-1169
1019.371	-1154
1019.441	-1474
1019.511	-963
1019.581	-1544
1019.651	-1288
1019.721	-1560
1019.791	-1707
1019.861	-1835
1019.931	-1516
1020.001	-1750
1020.071	-934
1020.141	-1695
1020.211	-1268
1020.281	-771
1020.351	-928
1020.421	-1078
1020.491	-1359
1020.560	-1346
1020.630	-671
1020.700	-1409
1020.770	-1643
1020.839	-1765
1020.909	-1445
1020.979	-1699
1021.048	-1469
1021.118	-1534
1021.187	-1037
1021.257	-1823
1021.326	-1112
1021.396	-939
1021.465	-773
1021.535	-2007
1021.604	-826
1021.674	-1547
1021.743	-1091
1021.812	-1391
1021.882	-1442
1021.951	-1332
1022.020	-1153
1022.089	-630
1022.159	-1306
1022.228	-1272
1022.297	-1374
1022.366	-1484
1022.435	-1683
1022.504	-1722
1022.573	-1107
1022.642	-1103
1022.711	-1359
1022.781	-1504
1022.849	-943
1022.918	-1652
1022.987	-1727
1023.056	-1327
1023.125	-658
1023.194	-900
1023.263	-805
1023.331	-1933
1023.400	-1638
1023.469	-753
1023.538	-937
1023.606	-1184
1023.675	-745
1023.744	-1187
1023.812	-1279
1023.881	-1220
1023.949	-810
1024.018	-1468
1024.086	-1468
1024.155	-1402
1024.223	-818
1024.292	-1977
1024.360	-1083
1024.429	-1563
1024.497	-1722
1024.565	-1940
1024.634	-1119
1024.702	-1551
1024.770	-1935
1024.838	-1415
1024.907	-901
1024.975	-1856
1025.043	-1137
1025.111	-984
1025.179	-1405
1025.247	-1594
1025.315	-1036
1025.383	-1359
1025.451	-694
1025.519	-2251
1025.587	-761
1025.655	-2006
1025.723	-1453
1025.791	-599
1025.859	-626
1025.927	-1449
1025.995	-1270
1026.062	-1511
1026.130	-1161
1026.198	-1303
1026.266	-1646
1026.333	-1470
1026.401	-863
1026.469	-1243
1026.536	-1567
1026.604	-1537
1026.671	-1136
1026.739	-1797
1026.806	-1141
1026.874	-1804
1026.941	-919
1027.009	-1247
1027.076	-1477
1027.144	-1694
1027.211	-1073
1027.278	-1366
1027.345	77
1027.413	-1696
1027.480	36
1027.547	-1279
1027.614	-567
1027.682	-987
1027.749	-944
1027.816	-1533
1027.883	-727
1027.950	-1349
1028.017	-1420
1028.084	-1296
1028.151	-1090
1028.218	-1764
1028.285	-1467
1028.352	-988
1028.419	-1341
1028.486	-1364
1028.553	-1206
1028.619	-1365
1028.686	-927
1028.753	-1083
1028.820	-1112
1028.886	-2003
1028.953	-759
1029.020	-1394
1029.086	-1500
1029.153	-821
1029.220	-652
1029.286	-1218
1029.353	-1091
1029.419	-1271
1029.486	-1522
1029.552	-1469
1029.619	-914
1029.685	-1214
1029.751	-648
1029.818	-1382
1029.884	-1056
1029.951	-1079
1030.017	-1015
1030.083	-1164
1030.149	-1534
1030.216	-1947
1030.282	-616
1030.348	-1338
1030.414	-1151
1030.480	-1068
1030.546	-934
1030.612	-1316
1030.678	-1507
1030.744	-1390
1030.810	-381
1030.876	-1411
1030.942	-899
1031.008	-1776
1031.074	-838
1031.140	-1848
1031.206	-554
1031.272	-1512
1031.337	-1077
1031.403	-1235
1031.469	-898
1031.534	-1562
1031.600	-696
1031.666	-1046
1031.731	-1555
1031.797	-770
1031.863	-1269
1031.928	-470
1031.994	-683
1032.059	-1541
1032.125	-678
1032.190	-748
1032.256	-488
1032.321	-2060
1032.386	-486
1032.452	-1095
1032.517	-976
1032.582	-725
1032.647	-1393
1032.713	-1720
1032.778	-228
1032.843	-1003
1032.908	-989
1032.974	-1349
1033.039	-1304
1033.104	-1052
1033.169	-870
1033.234	-1772
1033.299	-602
1033.364	-1379
1033.429	-914
1033.494	-790
1033.559	-275
1033.624	-1287
1033.688	-1240
1033.753	-1414
1033.818	-649
1033.883	-1041
1033.948	-975
1034.013	-1451
1034.077	-247
1034.142	-1368
1034.207	-848
1034.271	-1364
1034.336	-730
1034.400	-1001
1034.465	-814
1034.530	-1339
1034.594	-690
1034.658	-1224
1034.723	-955
1034.787	-1465
1034.852	-1035
1034.916	-670
1034.981	-789
1035.045	-705
1035.109	-891
1035.173	-1297
1035.238	-779
1035.302	-2029
1035.366	-1214
1035.430	-1272
1035.495	-743
1035.559	-1057
1035.623	-844
1035.687	-2083
1035.751	-999
1035.815	-1441
1035.879	-965
1035.943	-1425
1036.007	-1308
1036.071	-1564
1036.135	-761
1036.198	-1503
1036.262	-1064
1036.326	-1545
1036.390	-1077
1036.454	-352
1036.517	-668
1036.581	-902
1036.645	-1235
1036.709	-1004
1036.772	-1304
1036.836	-593
1036.900	-989
1036.963	-1549
1037.026	-837
1037.090	-922
1037.154	-725
1037.217	-1451
1037.280	-1151
1037.344	-1332
1037.407	-466
1037.471	-503
1037.534	-1073
1037.597	-1221
1037.661	-1171
1037.724	-690
1037.787	-1711
1037.850	-1146
1037.913	-980
1037.977	-1287
1038.040	-814
1038.103	-2058
1038.166	-531
1038.229	-836
1038.292	-512
1038.355	-1061
1038.418	-1113
1038.481	-43
1038.544	-565
1038.607	-796
1038.670	-156
1038.732	-999
1038.795	-954
1038.858	-970
1038.921	-590
1038.984	-481
1039.046	-1425
1039.109	-1013
1039.172	-725
1039.234	-1189
1039.297	-499
1039.360	-792
1039.422	-1137
1039.485	-1218
1039.547	-1007
1039.610	-904
1039.672	-1351
1039.734	-836
1039.797	-1132
1039.859	-815
1039.922	-815
1039.984	-1253
1040.046	-1206
1040.109	-990
1040.171	-577
1040.233	-1526
1040.295	-782
1040.358	-1367
1040.420	-918
1040.482	-1249
1040.544	-683
1040.606	-1038
1040.668	-1119
1040.730	-709
1040.792	-631
1040.854	-1591
1040.916	-1254
1040.978	-1847
1041.040	-1234
1041.102	-1591
1041.164	-599
1041.225	-600
1041.287	-568
1041.349	-1337
1041.411	-508
1041.472	-1625
1041.534	-1393
1041.596	-1208
1041.657	-1177
1041.719	-1124
1041.781	-891
1041.842	-1105
1041.904	-1307
1041.965	-1092
1042.027	-597
1042.088	-1660
1042.150	-1042
1042.211	-1032
1042.272	-1106
1042.334	-1792
1042.395	-1378
1042.456	-1145
1042.518	-1277
1042.579	-894
1042.640	-1330
1042.701	-1440
1042.763	-761
1042.824	-699
1042.885	-1131
1042.946	-1240
1043.007	-707
1043.068	-1173
1043.129	-1186
1043.190	-1250
1043.251	-894
1043.312	-1035
1043.373	-75
1043.434	-1137
1043.495	-913
1043.556	-1519
1043.616	-1049
1043.677	-1108
1043.738	-411
1043.799	-759
1043.859	-466
1043.920	-728
1043.981	-1618
1044.041	-1443
1044.102	-646
1044.162	-535
1044.223	-526
1044.284	-1387
1044.344	-783
1044.405	-922
1044.465	-995
1044.525	-941
1044.586	-832
1044.646	-1047
1044.707	-476
1044.767	-1115
1044.827	-877
1044.887	-1402
1044.948	-1215
1045.008	-1721
1045.068	27
1045.128	-1230
1045.188	-1337
1045.249	-871
1045.309	-1268
1045.369	-63
1045.429	-467
1045.489	-1599
1045.549	-580
1045.609	-985
1045.669	-587
1045.729	-954
1045.789	-403
1045.848	-842
1045.908	-989
1045.968	-924
1046.028	-602
1046.088	-1645
1046.147	-1369
1046.207	-824
1046.267	-511
1046.326	-1166
1046.386	-808
1046.446	-1259
1046.505	-355
1046.565	-832
1046.624	-41
1046.684	-180
1046.743	-299
1046.803	-647
1046.862	408
1046.922	0
