'Start Wavelength	183.907
'End Wavelength	1046.922
'Gate Delay	5.000
'Gate Width (ms)	1.050
'Laser Output Level	0.000
'X Position	0.000
'Y Position	0.000
'Z Position	0.000
'Grid Point Number	1.000
'Shot Number	100.000
183.907	834.000
183.977	724.000
184.047	1261
184.116	888
184.186	559
184.256	-41
184.325	-635
184.395	-366
184.465	768
184.534	992
184.604	-534
184.674	517
184.743	-437
184.813	514
184.883	179
184.952	40
185.022	815
185.092	817
185.161	39
185.231	579
185.301	354
185.370	1392
185.440	579
185.509	233
185.579	179
185.649	419
185.718	581
185.788	905
185.857	773
185.927	1132
185.996	41
186.066	444
186.136	1148
186.205	1332
186.275	1255
186.344	1501
186.414	368
186.483	-252
186.553	1083
186.622	2327
186.692	-237
186.761	1013
186.831	609
186.900	164
186.970	474
187.039	1678
187.109	2343
187.178	1013
187.248	1344
187.317	1437
187.387	656
187.456	1946
187.526	1538
187.595	1328
187.664	638
187.734	2006
187.803	1617
187.873	2196
187.942	2698
188.012	1976
188.081	1112
188.150	1462
188.220	2027
188.289	1593
188.358	564
188.428	1670
188.497	853
188.567	1480
188.636	715
188.705	948
188.775	856
188.844	643
188.913	1877
188.983	1575
189.052	1193
189.121	1135
189.191	1440
189.260	3003
189.329	2665
189.399	1459
189.468	2092
189.537	1040
189.606	2368
189.676	2661
189.745	2275
189.814	2138
189.883	1948
189.953	2258
190.022	3006
190.091	8365
190.161	7583
190.230	3236
190.299	1806
190.368	1955
190.437	1175
190.507	1856
190.576	1180
190.645	1361
190.714	1627
190.783	1581
190.853	2030
190.922	1566
190.991	2021
191.060	1730
191.129	1375
191.198	2404
191.268	1253
191.337	2427
191.406	1867
191.475	1972
191.544	1330
191.613	2378
191.682	1621
191.752	2361
191.821	1969
191.890	2021
191.959	2023
192.028	1811
192.097	1995
192.166	2655
192.235	1235
192.304	2250
192.373	1335
192.442	1656
192.511	1288
192.580	1393
192.650	1893
192.719	1966
192.788	2147
192.857	2133
192.926	2085
192.995	3296
193.064	3409
193.133	5700
193.202	6309
193.271	5840
193.340	4899
193.409	5259
193.478	4754
193.547	8203
193.615	9414
193.684	8453
193.753	5664
193.822	4298
193.891	2376
193.960	3178
194.029	2556
194.098	3155
194.167	2495
194.236	2861
194.305	2362
194.374	2735
194.443	2519
194.512	2898
194.580	2236
194.649	4026
194.718	3039
194.787	2112
194.856	1769
194.925	2585
194.994	2962
195.062	3119
195.131	3303
195.200	3180
195.269	3189
195.338	3145
195.407	2817
195.475	2939
195.544	3690
195.613	3474
195.682	2103
195.751	4414
195.819	3591
195.888	3831
195.957	4576
196.026	4677
196.094	3939
196.163	4262
196.232	4001
196.301	4183
196.369	3819
196.438	3625
196.507	3042
196.576	3231
196.644	2634
196.713	2723
196.782	2964
196.850	3419
196.919	2371
196.988	2979
197.056	2569
197.125	3428
197.194	3062
197.262	2279
197.331	2931
197.400	3851
197.468	2588
197.537	3363
197.606	3740
197.674	6873
197.743	8464
197.812	5233
197.880	9703
197.949	6589
198.017	8707
198.086	6105
198.155	3543
198.223	5310
198.292	10875
198.360	5170
198.429	4056
198.497	4336
198.566	8514
198.635	9252
198.703	5403
198.772	5823
198.840	12911
198.909	9828
198.977	4893
199.046	4717
199.114	4739
199.183	4296
199.251	3755
199.320	4044
199.388	3510
199.457	3818
199.525	4028
199.594	3909
199.662	3432
199.731	3836
199.799	3708
199.867	4084
199.936	2904
200.004	4198
200.073	3920
200.141	3405
200.210	3373
200.278	3756
200.346	4003
200.415	3814
200.483	4646
200.552	4025
200.620	3649
200.688	3476
200.757	3368
200.825	4422
200.893	4266
200.962	4456
201.030	4292
201.098	3874
201.167	4266
201.235	4547
201.303	4505
201.372	4189
201.440	3730
201.508	5253
201.577	4272
201.645	4824
201.713	3867
201.781	4305
201.850	5378
201.918	4770
201.986	3796
202.055	4539
202.123	4245
202.191	4227
202.259	4105
202.327	4040
202.396	4492
202.464	4131
202.532	6094
202.600	12699
202.669	7876
202.737	5214
202.805	4223
202.873	5272
202.941	4601
203.009	4259
203.078	4087
203.146	3745
203.214	4580
203.282	5330
203.350	4796
203.418	5812
203.487	4879
203.555	4286
203.623	4263
203.691	4758
203.759	4594
203.827	4756
203.895	5517
203.963	6073
204.031	4690
204.099	5094
204.168	5037
204.236	6485
204.304	5450
204.372	6033
204.440	5025
204.508	5633
204.576	4175
204.644	5275
204.712	4871
204.780	4766
204.848	5373
204.916	5691
204.984	4881
205.052	6201
205.120	5915
205.188	5346
205.256	4986
205.324	5542
205.392	6201
205.460	6416
205.528	6522
205.596	6220
205.664	5870
205.732	6808
205.799	16722
205.867	18307
205.935	7634
206.003	7158
206.071	6524
206.139	7297
206.207	6496
206.275	6662
206.343	6528
206.411	6551
206.478	5739
206.546	6021
206.614	6728
206.682	6162
206.750	6077
206.818	7484
206.885	6183
206.953	6455
207.021	6614
207.089	6266
207.157	4886
207.225	7491
207.292	5594
207.360	7352
207.428	7148
207.496	6337
207.563	6287
207.631	7136
207.699	5822
207.767	6085
207.834	6393
207.902	8184
207.970	6741
208.038	6164
208.105	7395
208.173	7764
208.241	10086
208.309	10007
208.376	8425
208.444	13747
208.512	7838
208.579	6520
208.647	8215
208.715	7530
208.782	6976
208.850	7343
208.918	7549
208.985	7078
209.053	7677
209.120	8403
209.188	6821
209.256	7309
209.323	7501
209.391	9591
209.459	8792
209.526	6784
209.594	7425
209.661	7868
209.729	7740
209.796	8389
209.864	7501
209.932	7442
209.999	7505
210.067	9430
210.134	8158
210.202	9775
210.269	9848
210.337	9273
210.404	7571
210.472	7981
210.539	7880
210.607	8923
210.674	10053
210.742	8663
210.809	8384
210.877	11033
210.944	9879
211.012	9226
211.079	9500
211.146	9439
211.214	8306
211.281	9751
211.349	9297
211.416	9707
211.484	10012
211.551	9096
211.618	9236
211.686	8901
211.753	8318
211.821	9764
211.888	8882
211.955	9542
212.023	10205
212.090	9445
212.157	10160
212.225	11656
212.292	18777
212.359	30049
212.427	53224
212.494	24245
212.561	14345
212.629	13209
212.696	11254
212.763	11890
212.831	9790
212.898	10910
212.965	9599
213.032	9754
213.100	10821
213.167	11032
213.234	11268
213.301	10717
213.369	10053
213.436	9849
213.503	9293
213.570	11118
213.638	10764
213.705	10026
213.772	9278
213.839	11600
213.906	10716
213.973	11673
214.041	9724
214.108	10224
214.175	10371
214.242	11220
214.309	10665
214.376	11269
214.444	11067
214.511	12621
214.578	11423
214.645	11608
214.712	11732
214.779	12875
214.846	11463
214.913	13396
214.980	13352
215.048	13804
215.115	13375
215.182	13406
215.249	11292
215.316	11291
215.383	9980
215.450	11298
215.517	9606
215.584	9791
215.651	9376
215.718	9997
215.785	12157
215.852	11091
215.919	12069
215.986	11857
216.053	9910
216.120	10536
216.187	10689
216.254	11045
216.321	10943
216.388	11683
216.455	12389
216.522	12158
216.589	13849
216.656	20679
216.722	18962
216.789	17481
216.856	17320
216.923	16243
216.990	14751
217.057	15076
217.124	18184
217.191	17544
217.258	20810
217.324	24378
217.391	23268
217.458	18711
217.525	15747
217.592	14602
217.659	13748
217.725	13562
217.792	18277
217.859	14423
217.926	10566
217.993	10492
218.059	9962
218.126	9855
218.193	9234
218.260	9263
218.327	8727
218.393	9224
218.460	9284
218.527	8659
218.594	10149
218.660	16644
218.727	15836
218.794	9669
218.860	7936
218.927	8904
218.994	8931
219.061	8787
219.127	10973
219.194	14136
219.261	8333
219.327	7100
219.394	7986
219.461	6990
219.527	7523
219.594	12454
219.661	8234
219.727	8108
219.794	8920
219.860	8757
219.927	10451
219.994	14891
220.060	20271
220.127	14509
220.193	13837
220.260	16209
220.326	24106
220.393	34011
220.460	37940
220.526	26002
220.593	20231
220.659	19872
220.726	23116
220.792	40634
220.859	39254
220.925	52618
220.992	57609
221.058	54179
221.125	45840
221.191	35678
221.258	18498
221.324	15368
221.391	14169
221.457	12364
221.524	12502
221.590	17807
221.657	43968
221.723	26715
221.789	28867
221.856	22187
221.922	15747
221.989	12897
222.055	10408
222.121	10547
222.188	10884
222.254	11126
222.321	8868
222.387	7979
222.453	8661
222.520	8418
222.586	7826
222.652	9678
222.719	8613
222.785	8689
222.851	7321
222.918	7467
222.984	8308
223.050	9679
223.116	8956
223.183	8944
223.249	6730
223.315	6758
223.382	7828
223.448	7079
223.514	5819
223.580	6499
223.647	6467
223.713	6841
223.779	7073
223.845	7498
223.911	7901
223.978	6709
224.044	6731
224.110	7188
224.176	7123
224.242	6646
224.309	6737
224.375	6491
224.441	5979
224.507	6473
224.573	6273
224.639	7153
224.705	5767
224.772	5955
224.838	6234
224.904	7134
224.970	6401
225.036	6894
225.102	6556
225.168	7123
225.234	6442
225.300	7436
225.366	7414
225.432	6539
225.499	6927
225.565	8698
225.631	9366
225.697	10240
225.763	12315
225.829	14067
225.895	15283
225.961	20559
226.027	16296
226.093	17689
226.159	22500
226.225	35215
226.291	73313
226.357	88834
226.423	49062
226.489	29921
226.554	22458
226.620	22919
226.686	29462
226.752	43233
226.818	72659
226.884	117998
226.950	89419
227.016	44511
227.082	27329
227.148	21930
227.214	20255
227.279	18466
227.345	15421
227.411	14325
227.477	11767
227.543	16569
227.609	19071
227.674	15618
227.740	11176
227.806	11859
227.872	10727
227.938	12417
228.003	17332
228.069	11162
228.135	9375
228.201	9408
228.267	9514
228.332	11221
228.398	14360
228.464	9499
228.530	7435
228.595	7598
228.661	9022
228.727	15710
228.792	9971
228.858	8513
228.924	9503
228.990	11293
229.055	10846
229.121	11094
229.187	8295
229.252	10277
229.318	7455
229.384	9142
229.449	9903
229.515	6748
229.581	5876
229.646	8729
229.712	10434
229.777	23507
229.843	18128
229.909	16208
229.974	17690
230.040	15245
230.105	12555
230.171	14618
230.236	19893
230.302	26364
230.368	18915
230.433	14019
230.499	12191
230.564	16360
230.630	10942
230.695	10678
230.761	10305
230.826	9836
230.892	14784
230.957	10468
231.023	9016
231.088	9519
231.154	9068
231.219	10142
231.284	16051
231.350	13997
231.415	9697
231.481	9690
231.546	8525
231.612	8467
231.677	7058
231.742	7406
231.808	8723
231.873	8185
231.939	8117
232.004	15612
232.069	12809
232.135	10228
232.200	8635
232.265	8443
232.331	6646
232.396	7038
232.461	6922
232.527	7206
232.592	6940
232.657	8201
232.723	13264
232.788	9760
232.853	6803
232.918	6574
232.984	7370
233.049	7757
233.114	11650
233.179	9086
233.245	16696
233.310	15500
233.375	7715
233.440	8906
233.506	8284
233.571	8494
233.636	6663
233.701	8329
233.766	14444
233.832	12928
233.897	9915
233.962	9213
234.027	9934
234.092	9502
234.157	8634
234.222	9997
234.288	15210
234.353	33541
234.418	26588
234.483	17519
234.548	14940
234.613	13797
234.678	12619
234.743	15641
234.808	37347
234.873	21969
234.938	13844
235.004	11542
235.069	11745
235.134	11670
235.199	10596
235.264	10710
235.329	9528
235.394	10980
235.459	11504
235.524	12574
235.589	10769
235.654	9834
235.719	8910
235.784	10532
235.849	12013
235.913	19606
235.978	22601
236.043	21130
236.108	12488
236.173	13526
236.238	12752
236.303	13009
236.368	13335
236.433	21454
236.498	28598
236.563	28727
236.627	63438
236.692	159740
236.757	111604
236.822	49939
236.887	36222
236.952	30803
237.017	27479
237.081	31083
237.146	45472
237.211	88780
237.276	168231
237.341	203471
237.405	100035
237.470	48904
237.535	31806
237.600	22716
237.664	20014
237.729	19646
237.794	30549
237.859	48717
237.923	29401
237.988	18459
238.053	23042
238.118	20341
238.182	52729
238.247	31572
238.312	21924
238.376	16508
238.441	14948
238.506	14396
238.570	9585
238.635	11472
238.700	10760
238.764	11504
238.829	24613
238.893	23104
238.958	17007
239.023	15034
239.087	11550
239.152	12657
239.216	9047
239.281	10072
239.346	10097
239.410	10365
239.475	13145
239.539	47523
239.604	25524
239.668	13213
239.733	9569
239.797	11532
239.862	18876
239.926	31121
239.991	13687
240.055	9989
240.120	10134
240.184	10214
240.249	9305
240.313	9087
240.378	10687
240.442	31704
240.507	33858
240.571	14651
240.635	23777
240.700	20405
240.764	10376
240.829	9979
240.893	7945
240.957	10049
241.022	29153
241.086	37249
241.151	17690
241.215	9659
241.279	15633
241.344	21365
241.408	15087
241.472	13608
241.537	14103
241.601	13944
241.665	12076
241.730	13550
241.794	14415
241.858	14250
241.922	13565
241.987	13737
242.051	12031
242.115	13474
242.179	13225
242.244	11139
242.308	13060
242.372	14506
242.436	16546
242.501	12915
242.565	11581
242.629	11405
242.693	12196
242.757	11902
242.822	12576
242.886	12576
242.950	12638
243.014	12762
243.078	15404
243.142	13734
243.206	13601
243.271	15983
243.335	17947
243.399	28181
243.463	107275
243.527	173476
243.591	47912
243.655	24215
243.719	15660
243.783	19000
243.847	32815
243.911	34914
243.975	39255
244.040	23896
244.104	16447
244.168	14500
244.232	22661
244.296	29387
244.360	31242
244.424	16869
244.488	13364
244.552	12741
244.615	10505
244.679	11550
244.743	16401
244.807	14315
244.871	10076
244.935	10858
244.999	9795
245.063	11575
245.127	13782
245.191	28857
245.255	20210
245.319	18395
245.383	13517
245.446	13816
245.510	10281
245.574	12044
245.638	11639
245.702	15461
245.766	30998
245.829	16703
245.893	14573
245.957	14170
246.021	14162
246.085	15155
246.149	18442
246.212	47573
246.276	54124
246.340	24308
246.404	17934
246.467	23460
246.531	29112
246.595	19077
246.659	16555
246.722	16858
246.786	19354
246.850	24901
246.913	25266
246.977	14446
247.041	14059
247.104	16177
247.168	17702
247.232	45085
247.295	77214
247.359	29425
247.423	20425
247.486	33289
247.550	18356
247.614	17422
247.677	20425
247.741	15273
247.804	14017
247.868	17497
247.932	43142
247.995	64044
248.059	23769
248.122	17175
248.186	20145
248.249	39527
248.313	136866
248.376	109057
248.440	69674
248.503	27332
248.567	25642
248.630	39591
248.694	49351
248.757	69846
248.821	128814
248.884	63520
248.948	77929
249.011	98356
249.075	153598
249.138	106258
249.202	41775
249.265	30877
249.328	34123
249.392	29234
249.455	23990
249.519	21622
249.582	27361
249.645	42421
249.709	28941
249.772	25521
249.835	22505
249.899	22751
249.962	21411
250.025	22312
250.089	60227
250.152	55955
250.215	29919
250.279	26116
250.342	25615
250.405	25553
250.468	25794
250.532	34878
250.595	58887
250.658	224970
250.721	238143
250.785	90160
250.848	49429
250.911	31784
250.974	31031
251.038	52224
251.101	77029
251.164	42699
251.227	47238
251.290	46465
251.354	84238
251.417	284088
251.480	206244
251.543	209107
251.606	435305
251.669	267706
251.732	123688
251.795	127119
251.859	138318
251.922	284036
251.985	126110
252.048	63721
252.111	47699
252.174	47038
252.237	91247
252.300	154576
252.363	209399
252.426	317976
252.489	123003
252.552	71977
252.615	50554
252.678	58949
252.741	131377
252.804	202243
252.867	335841
252.930	179458
252.993	100169
253.056	59261
253.119	46181
253.182	42407
253.245	72284
253.308	44277
253.371	42893
253.434	37598
253.497	39597
253.559	76245
253.622	43896
253.685	58564
253.748	47045
253.811	26670
253.874	35541
253.937	31629
254.000	25786
254.062	59615
254.125	67812
254.188	76180
254.251	47898
254.314	29476
254.376	56506
254.439	47373
254.502	40323
254.565	59481
254.628	76871
254.690	43363
254.753	25206
254.816	24125
254.878	26110
254.941	62649
255.004	43960
255.067	24234
255.129	22414
255.192	15117
255.255	14885
255.317	17311
255.380	12096
255.443	11841
255.505	11337
255.568	12903
255.631	13311
255.693	13979
255.756	11568
255.819	12054
255.881	11339
255.944	11678
256.006	11756
256.069	11789
256.132	11747
256.194	19257
256.257	37481
256.319	27074
256.382	24025
256.444	19437
256.507	16201
256.569	17454
256.632	21721
256.694	36944
256.757	118469
256.819	233477
256.882	84008
256.944	38914
257.007	29510
257.069	29705
257.132	22759
257.194	20742
257.257	20450
257.319	23299
257.381	32450
257.444	87719
257.506	316109
257.569	242558
257.631	95978
257.693	57060
257.756	31066
257.818	26593
257.880	18839
257.943	17980
258.005	17052
258.067	18162
258.130	17437
258.192	21407
258.254	33450
258.317	20232
258.379	18475
258.441	51696
258.503	33491
258.566	56339
258.628	44255
258.690	17313
258.753	20322
258.815	30778
258.877	18544
258.939	16671
259.001	14893
259.064	14974
259.126	19678
259.188	21438
259.250	16631
259.312	20641
259.375	35741
259.437	21540
259.499	14891
259.561	14322
259.623	17078
259.685	18290
259.747	18284
259.809	56823
259.872	68331
259.934	132475
259.996	94309
260.058	30713
260.120	16545
260.182	14464
260.244	13291
260.306	13268
260.368	14117
260.430	16221
260.492	44487
260.554	46910
260.616	27723
260.678	80122
260.740	63899
260.802	21704
260.864	18674
260.926	16154
260.988	16660
261.050	19988
261.112	67688
261.174	108986
261.236	49251
261.298	23048
261.359	44120
261.421	40005
261.483	17516
261.545	16446
261.607	11328
261.669	13802
261.731	31443
261.793	52373
261.854	23775
261.916	18232
261.978	23314
262.040	20316
262.102	14623
262.164	24452
262.225	15354
262.287	16478
262.349	40448
262.411	22833
262.472	14884
262.534	32353
262.596	41151
262.658	16025
262.719	12874
262.781	23071
262.843	46348
262.904	20791
262.966	21329
263.028	28041
263.090	157873
263.151	242514
263.213	78607
263.275	46122
263.336	20007
263.398	16534
263.459	12817
263.521	16721
263.583	36200
263.644	20194
263.706	12744
263.767	10526
263.829	9336
263.891	9530
263.952	9104
264.014	11070
264.075	37601
264.137	58931
264.198	21863
264.260	13246
264.321	13952
264.383	50558
264.444	85712
264.506	25708
264.567	18352
264.629	52636
264.690	75935
264.752	25784
264.813	16285
264.875	13515
264.936	16062
264.998	13590
265.059	12729
265.120	16923
265.182	32974
265.243	164585
265.305	102070
265.366	30153
265.427	18425
265.489	15272
265.550	11721
265.611	15668
265.673	15311
265.734	15064
265.795	12730
265.857	14121
265.918	18838
265.979	53775
266.040	244367
266.102	133849
266.163	46469
266.224	34261
266.286	19354
266.347	14842
266.408	13508
266.469	13926
266.530	12236
266.592	12091
266.653	25869
266.714	30782
266.775	12604
266.836	10597
266.898	11792
266.959	25548
267.020	14097
267.081	11114
267.142	10230
267.203	9929
267.264	9178
267.326	12320
267.387	9976
267.448	8874
267.509	10824
267.570	10435
267.631	8183
267.692	9016
267.753	10857
267.814	10633
267.875	28914
267.936	43528
267.997	32699
268.058	22067
268.119	13329
268.180	12469
268.241	9888
268.302	9845
268.363	8770
268.424	11523
268.485	12642
268.546	9541
268.607	8744
268.668	8389
268.729	8809
268.790	10797
268.851	13406
268.912	37212
268.972	29007
269.033	15973
269.094	9690
269.155	9111
269.216	9220
269.277	10096
269.338	8596
269.398	11202
269.459	12377
269.520	17595
269.581	20759
269.642	20739
269.702	15965
269.763	13762
269.824	11363
269.885	18438
269.945	19377
270.006	11302
270.067	9134
270.128	9326
270.188	9403
270.249	9778
270.310	8504
270.370	11394
270.431	9576
270.492	9247
270.553	11985
270.613	26793
270.674	40879
270.734	16171
270.795	12731
270.856	18400
270.916	12677
270.977	11367
271.038	13096
271.098	12622
271.159	23878
271.219	16884
271.280	11123
271.340	10316
271.401	15148
271.462	25382
271.522	15207
271.583	12213
271.643	13050
271.704	13198
271.764	16826
271.825	40628
271.885	128111
271.946	115204
272.006	40664
272.066	82473
272.127	90660
272.187	26686
272.248	19250
272.308	28971
272.369	82720
272.429	33876
272.489	37617
272.550	30915
272.610	33851
272.671	21765
272.731	27616
272.791	33966
272.852	20537
272.912	19054
272.972	11666
273.033	14290
273.093	20763
273.153	22471
273.214	15835
273.274	22069
273.334	89966
273.394	100815
273.455	37126
273.515	57641
273.575	91699
273.635	32702
273.696	63530
273.756	93463
273.816	33208
273.876	23948
273.936	58393
273.997	64443
274.057	22453
274.117	22066
274.177	39574
274.237	157799
274.297	88740
274.358	66068
274.418	89759
274.478	51946
274.538	23673
274.598	24435
274.658	68601
274.718	66387
274.778	26641
274.838	20352
274.898	53282
274.958	97599
275.018	107431
275.078	51967
275.138	24342
275.198	16185
275.258	13518
275.318	19072
275.378	32235
275.438	29420
275.498	22077
275.558	65475
275.618	102458
275.678	61201
275.738	46714
275.798	35479
275.858	21085
275.918	13349
275.978	16551
276.038	13657
276.098	12164
276.157	35418
276.217	63607
276.277	27687
276.337	21179
276.397	14802
276.457	16195
276.517	12699
276.576	10197
276.636	11161
276.696	20652
276.756	44581
276.815	24763
276.875	15475
276.935	17352
276.995	13557
277.055	10539
277.114	11224
277.174	26088
277.234	54608
277.293	20818
277.353	15019
277.413	11465
277.472	13554
277.532	12692
277.592	16452
277.651	58649
277.711	62204
277.771	31668
277.830	105863
277.890	54309
277.950	76795
278.009	141123
278.069	44769
278.128	65674
278.188	60810
278.248	35871
278.307	85883
278.367	35866
278.426	18287
278.486	14533
278.545	11578
278.605	12412
278.664	12570
278.724	16251
278.783	60763
278.843	92107
278.902	25422
278.962	18817
279.021	18141
279.081	20820
279.140	20883
279.199	19717
279.259	21308
279.318	21816
279.378	28927
279.437	51613
279.496	165330
279.556	396088
279.615	198524
279.675	64450
279.734	44895
279.793	75370
279.853	87103
279.912	33155
279.971	23614
280.031	22953
280.090	51688
280.149	60931
280.208	74238
280.268	314730
280.327	181503
280.386	54290
280.445	56375
280.505	39584
280.564	24489
280.623	21549
280.682	41825
280.742	40191
280.801	16941
280.860	14351
280.919	13748
280.978	12034
281.037	12752
281.097	10660
281.156	11812
281.215	11312
281.274	20773
281.333	80496
281.392	36470
281.451	13889
281.510	11568
281.569	10086
281.628	8651
281.688	9396
281.747	13518
281.806	11577
281.865	9384
281.924	8744
281.983	9154
282.042	7964
282.101	8101
282.160	8796
282.219	8782
282.278	12801
282.337	40102
282.396	18362
282.454	12001
282.513	20094
282.572	55544
282.631	21676
282.690	11929
282.749	10036
282.808	13521
282.867	13140
282.926	11449
282.985	8606
283.043	8227
283.102	8848
283.161	13045
283.220	42718
283.279	55010
283.338	17220
283.396	13012
283.455	11724
283.514	14191
283.573	19006
283.631	13949
283.690	10608
283.749	11951
283.808	28456
283.866	21623
283.925	11109
283.984	11152
284.043	16850
284.101	14738
284.160	13495
284.219	19200
284.277	15297
284.336	28620
284.395	79357
284.453	43794
284.512	21253
284.570	28231
284.629	20301
284.688	20063
284.746	20504
284.805	24068
284.863	31148
284.922	36320
284.981	44223
285.039	64864
285.098	117945
285.156	326412
285.215	592186
285.273	485205
285.332	234389
285.390	123916
285.449	73905
285.507	51709
285.566	39017
285.624	31572
285.683	25809
285.741	21116
285.799	19975
285.858	19753
285.916	16957
285.975	14089
286.033	12609
286.091	12946
286.150	12197
286.208	13701
286.267	14699
286.325	15319
286.383	22273
286.442	16224
286.500	10372
286.558	10115
286.616	10059
286.675	15137
286.733	12204
286.791	11701
286.850	14029
286.908	20558
286.966	25646
287.024	12386
287.083	10623
287.141	9415
287.199	11669
287.257	15157
287.315	12372
287.374	17022
287.432	34844
287.490	18279
287.548	14113
287.606	13355
287.664	13792
287.723	22300
287.781	23735
287.839	19911
287.897	24195
287.955	31154
288.013	47789
288.071	111643
288.129	432010
288.187	675669
288.245	279627
288.303	112248
288.361	66341
288.419	49044
288.477	31867
288.535	24413
288.593	19967
288.651	16824
288.709	14615
288.767	14460
288.825	12301
288.883	13506
288.941	11979
288.999	10520
289.057	10262
289.115	11208
289.173	10047
289.231	10960
289.289	9672
289.346	9763
289.404	12062
289.462	19283
289.520	15626
289.578	9441
289.636	8004
289.694	8530
289.751	7429
289.809	8361
289.867	9111
289.925	12942
289.983	11120
290.040	8508
290.098	8255
290.156	11226
290.214	11157
290.271	7482
290.329	7718
290.387	7614
290.444	7171
290.502	6391
290.560	8206
290.617	9089
290.675	7298
290.733	8028
290.790	8633
290.848	8328
290.906	9731
290.963	9843
291.021	9610
291.078	9674
291.136	12909
291.194	55810
291.251	66255
291.309	18510
291.366	10985
291.424	10095
291.481	8785
291.539	9052
291.596	7792
291.654	6996
291.711	6749
291.769	10814
291.826	18394
291.884	9925
291.941	7421
291.999	7909
292.056	10028
292.114	9695
292.171	7575
292.228	8535
292.286	11398
292.343	20538
292.401	21740
292.458	12993
292.515	11191
292.573	12376
292.630	11815
292.687	12123
292.745	11935
292.802	25502
292.859	54357
292.917	64758
292.974	28569
293.031	13671
293.089	10308
293.146	9383
293.203	8281
293.260	8374
293.318	14445
293.375	23073
293.432	12486
293.489	10970
293.546	10125
293.604	17576
293.661	57117
293.718	103944
293.775	44271
293.832	23639
293.889	17606
293.947	16151
294.004	12989
294.061	15572
294.118	39344
294.175	82136
294.232	89149
294.289	31723
294.346	21762
294.403	19189
294.460	15088
294.517	13513
294.574	12768
294.631	13369
294.688	17190
294.745	50244
294.802	152754
294.859	127899
294.916	43771
294.973	26394
295.030	22253
295.087	17331
295.144	13476
295.201	13019
295.258	12902
295.315	19063
295.372	61951
295.429	77390
295.486	32193
295.542	31578
295.599	96556
295.656	107703
295.713	80099
295.770	75140
295.827	29057
295.883	18900
295.940	18709
295.997	29185
296.054	20585
296.111	13608
296.167	11785
296.224	10051
296.281	11322
296.338	10783
296.394	11948
296.451	17577
296.508	52661
296.564	69378
296.621	50338
296.678	118693
296.734	113322
296.791	43260
296.848	27936
296.904	32527
296.961	62357
297.018	99423
297.074	57902
297.131	26984
297.187	22969
297.244	34041
297.301	126693
297.357	135924
297.414	43292
297.470	24919
297.527	18248
297.583	14437
297.640	14073
297.696	12958
297.753	11166
297.809	10193
297.866	9579
297.922	10283
297.979	9908
298.035	12755
298.092	25057
298.148	62282
298.204	41131
298.261	25838
298.317	64237
298.374	112592
298.430	49300
298.486	28370
298.543	22411
298.599	21442
298.656	24109
298.712	51433
298.768	107898
298.824	57806
298.881	23600
298.937	16361
298.993	15557
299.050	18153
299.106	15381
299.162	14188
299.218	13839
299.275	12587
299.331	14344
299.387	37697
299.443	106728
299.500	67866
299.556	26281
299.612	19074
299.668	16554
299.724	14930
299.780	13917
299.837	14817
299.893	30163
299.949	88831
300.005	70282
300.061	90576
300.117	123137
300.173	48130
300.229	27509
300.285	35348
300.341	32914
300.397	17220
300.453	12974
300.510	13919
300.566	12902
300.622	14403
300.678	30485
300.734	59525
300.790	75888
300.845	81337
300.901	49608
300.957	70900
301.013	43499
301.069	20944
301.125	17983
301.181	17815
301.237	13039
301.293	11036
301.349	11426
301.405	11051
301.461	13341
301.516	15398
301.572	17834
301.628	25656
301.684	23082
301.740	44458
301.796	51242
301.851	40170
301.907	61034
301.963	57632
302.019	132229
302.074	276685
302.130	205313
302.186	87111
302.242	43772
302.297	31427
302.353	34627
302.409	59821
302.464	41069
302.520	47052
302.576	107121
302.631	91527
302.687	46857
302.743	25659
302.798	17715
302.854	15850
302.910	16766
302.965	23095
303.021	33718
303.076	29715
303.132	38942
303.187	37279
303.243	19363
303.299	15528
303.354	13065
303.410	13519
303.465	11663
303.521	11521
303.576	13376
303.632	16596
303.687	40578
303.743	91036
303.798	55078
303.853	25535
303.909	17143
303.964	17025
304.020	25544
304.075	29314
304.130	31173
304.186	50815
304.241	46692
304.297	36650
304.352	20517
304.358	19978
304.407	15611
304.449	14712
304.463	14413
304.518	14902
304.539	14682
304.573	14381
304.629	17352
304.630	17590
304.684	29660
304.720	63025
304.739	79309
304.794	83373
304.811	70069
304.850	38243
304.902	22430
304.905	21501
304.960	18733
304.992	20023
305.015	20767
305.071	17432
305.083	16298
305.126	12222
305.173	11563
305.181	11524
305.236	11437
305.264	12558
305.292	13746
305.347	15771
305.354	15953
305.402	17204
305.445	19954
305.457	20654
305.512	24048
305.535	23220
305.567	22422
305.622	26124
305.626	27343
305.678	56865
305.716	104332
305.733	119008
305.788	94665
305.807	83489
305.843	69622
305.897	100728
305.898	101001
305.953	77186
305.988	50831
306.008	38069
306.063	26565
306.078	24192
306.118	19266
306.168	14441
306.173	14058
306.228	11903
306.259	11901
306.283	12270
306.338	13347
306.349	14053
306.393	17201
306.440	20104
306.448	20566
306.503	20811
306.530	24089
306.558	34576
306.613	75577
306.620	78960
306.668	91132
306.711	104429
306.723	103561
306.778	63818
306.801	47583
306.833	32963
306.888	19453
306.892	18866
306.943	16096
306.982	15106
306.997	14909
307.052	15253
307.072	15898
307.107	20491
307.162	32564
307.163	32705
307.217	50335
307.253	62140
307.272	62924
307.327	53638
307.343	48335
307.381	40445
307.434	38714
307.436	40035
307.491	88083
307.524	119275
307.546	119424
307.600	84212
307.614	72645
307.655	47032
307.704	30517
307.710	31321
307.765	47729
307.795	64590
307.819	77938
307.874	108944
307.885	108744
307.929	80665
307.975	57884
307.984	60463
308.038	90636
308.065	115832
308.093	203565
308.148	434550
308.156	475476
308.202	633344
308.246	675289
308.257	638711
308.312	348102
308.336	237175
308.366	183058
308.421	108284
308.426	102095
308.475	70286
308.517	51649
308.530	48479
308.585	42147
308.607	40576
308.639	43898
308.694	52344
308.697	53423
308.748	108853
308.787	156493
308.803	150713
308.857	96372
308.877	77715
308.912	69695
308.967	66866
308.967	66860
309.021	90498
309.058	111105
309.076	145146
309.130	265365
309.148	314807
309.185	548118
309.238	924832
309.239	926451
309.293	870296
309.328	765352
309.348	653314
309.402	324418
309.418	239354
309.457	172916
309.508	104210
309.511	102496
309.566	85594
309.598	78713
309.620	82529
309.674	98093
309.688	102088
309.729	93248
309.778	76154
309.783	74829
309.837	60030
309.868	53591
309.892	69942
309.946	115543
309.959	127615
310.001	154088
310.049	171522
310.055	164516
310.109	90665
310.139	51356
310.163	42727
310.218	30304
310.229	28033
310.272	25076
310.319	22811
310.326	22669
310.381	22018
310.409	21820
310.435	21772
310.489	21529
310.499	21519
310.543	23837
310.589	26557
310.598	26387
310.652	24968
310.679	23812
310.706	20845
310.760	14880
310.769	13951
310.814	12803
310.859	12203
310.868	12463
310.923	13457
310.948	14259
310.977	16181
311.031	19842
311.038	20309
311.085	18733
311.128	16661
311.139	16604
311.193	16659
311.218	16657
311.247	15421
311.301	12948
311.308	12640
311.356	13708
311.398	14803
311.410	14564
311.464	13109
311.488	12467
311.518	12529
311.572	12608
311.578	12636
311.626	18234
311.668	23097
311.680	23830
311.734	26851
311.758	28128
311.788	27064
311.842	24922
311.847	24669
311.896	36807
311.937	47470
311.950	45750
312.004	37439
312.027	33688
312.058	27623
312.112	16841
312.117	15747
312.165	16104
312.207	16388
312.297	30530
312.386	21453
312.476	20289
312.566	36237
312.656	16599
312.745	13824
312.835	17846
312.925	19159
313.015	21649
313.104	22567
313.194	13806
313.284	14808
313.374	19079
313.463	15252
313.553	12835
313.643	11737
313.732	10639
313.822	11600
313.912	14864
314.001	16118
314.091	22686
314.180	31157
314.270	22576
314.360	29405
314.449	20447
314.539	13304
314.628	12490
314.718	19744
314.808	25335
314.897	11961
314.987	12487
315.076	17776
315.166	26599
315.255	25842
315.345	23802
315.434	26513
315.524	22973
315.613	23729
315.703	25983
315.792	27162
315.881	36913
315.971	23948
316.060	53804
316.150	100142
316.239	100620
316.328	28222
316.418	14074
316.507	14463
316.597	20823
316.686	18888
316.775	52759
316.865	104342
316.954	15837
317.043	10402
317.133	13100
317.222	11804
317.311	11762
317.400	11671
317.490	20029
317.579	19164
317.668	12314
317.757	19678
317.847	31164
317.936	68152
318.025	49422
318.114	26152
318.203	23010
318.293	41405
318.382	73186
318.471	55794
318.560	107033
318.649	212341
318.738	35192
318.828	26082
318.917	26245
319.006	45940
319.095	132082
319.184	274404
319.273	112426
319.362	48008
319.451	20265
319.540	20859
319.629	52257
319.718	67610
319.807	33266
319.896	105161
319.985	326210
320.074	83345
320.163	35130
320.252	67424
320.341	49086
320.430	36529
320.519	41510
320.608	23292
320.697	20428
320.786	20014
320.875	24576
320.964	31091
321.053	48178
321.142	74254
321.230	67144
321.319	65095
321.408	142095
321.497	52834
321.586	56363
321.675	100860
321.764	76163
321.852	49979
321.941	81658
322.030	43588
322.119	67997
322.207	156341
322.296	134631
322.385	60416
322.474	59186
322.562	173303
322.651	74773
322.740	63665
322.829	101232
322.917	139070
323.006	56582
323.095	44233
323.183	44979
323.272	60598
323.361	144615
323.449	405505
323.538	115904
323.626	314704
323.715	137279
323.804	76811
323.892	284694
323.981	108090
324.069	38086
324.158	174566
324.246	115115
324.335	35096
324.424	45375
324.512	18463
324.601	24071
324.689	52708
324.778	96543
324.866	97772
324.954	22893
325.043	22590
325.131	66111
325.220	119819
325.308	125268
325.397	92215
325.485	41838
325.574	12368
325.662	12770
325.750	16314
325.839	11876
325.927	12460
326.015	21637
326.104	58887
326.192	66511
326.280	16217
326.369	15863
326.457	21329
326.545	40301
326.634	16118
326.722	11454
326.810	12696
326.898	10485
326.987	16094
327.075	43687
327.163	53499
327.251	25802
327.340	34483
327.428	37767
327.516	13469
327.604	15305
327.692	18789
327.781	28206
327.869	54407
327.957	27765
328.045	20222
328.133	12269
328.221	27199
328.309	16400
328.397	13403
328.485	17548
328.574	25670
328.662	89147
328.750	61858
328.838	27363
328.926	13743
329.014	12345
329.102	23781
329.190	72818
329.278	34769
329.366	10268
329.454	13062
329.542	13256
329.630	11805
329.718	13381
329.806	18951
329.893	21352
329.981	23267
330.069	36666
330.157	185739
330.245	481778
330.333	214695
330.421	35065
330.509	33909
330.597	110680
330.684	67611
330.772	31301
330.860	55481
330.948	68007
331.036	22861
331.123	10167
331.211	13643
331.299	19085
331.387	63089
331.475	93601
331.562	26458
331.650	12625
331.738	20802
331.825	31635
331.913	12433
332.001	10837
332.089	25294
332.176	59123
332.264	164870
332.352	96188
332.439	25450
332.527	18567
332.614	20375
332.702	27112
332.790	16614
332.877	70906
332.965	124963
333.052	22052
333.140	28695
333.228	55246
333.315	16013
333.403	21686
333.490	90530
333.578	54558
333.665	44590
333.753	25821
333.840	13741
333.928	24907
334.015	89930
334.103	139280
334.190	372970
334.278	69820
334.365	32716
334.452	17607
334.540	13374
334.627	27008
334.715	34318
334.802	89961
334.889	557430
334.977	396928
335.064	34288
335.151	18623
335.239	21288
335.326	34873
335.413	188955
335.501	197239
335.588	23533
335.675	16625
335.762	29714
335.850	47359
335.937	25728
336.024	114127
336.111	489994
336.199	138188
336.286	21075
336.373	12675
336.460	10575
336.547	12262
336.635	19514
336.722	16573
336.809	16035
336.896	26222
336.983	107424
337.070	260635
337.157	343789
337.245	340479
337.332	194311
337.419	24649
337.506	15761
337.593	21792
337.680	98656
337.767	242420
337.854	62812
337.941	82255
338.028	110502
338.115	32004
338.202	39335
338.289	103005
338.376	325684
338.463	80743
338.550	164390
338.637	138414
338.724	71050
338.811	97874
338.898	19022
338.984	13338
339.071	21102
339.158	23549
339.245	57349
339.332	33042
339.419	75461
339.506	57329
339.593	9416
339.679	10301
339.766	10987
339.853	18807
339.940	35811
340.027	12576
340.113	12177
340.200	20833
340.287	15447
340.374	20284
340.460	30190
340.547	13954
340.634	26874
340.720	101622
340.807	51075
340.894	11000
340.980	13951
341.067	11357
341.154	13508
341.240	22888
341.327	45853
341.414	13634
341.500	14665
341.587	11524
341.674	12701
341.760	33311
341.847	35527
341.933	12519
342.020	6157
342.106	6806
342.193	13420
342.279	24649
342.366	19738
342.452	29597
342.539	17175
342.625	45354
342.712	104666
342.798	40010
342.885	17150
342.971	7910
343.058	7787
343.144	8701
343.230	7837
343.317	9896
343.403	8228
343.490	7241
343.576	7916
343.662	10104
343.749	13860
343.835	19678
343.921	34899
344.008	234977
344.094	457934
344.180	83492
344.267	35507
344.353	141391
344.439	143289
344.525	50176
344.612	21260
344.698	21711
344.784	14599
344.870	8402
344.957	10990
345.043	17483
345.129	14812
345.215	29633
345.301	15876
345.387	10806
345.474	8819
345.560	11484
345.646	18514
345.732	12686
345.818	12752
345.904	12667
345.990	14947
346.076	21909
346.162	43301
346.249	14675
346.335	9640
346.421	12365
346.507	61880
346.593	180722
346.679	39360
346.765	13380
346.851	10850
346.937	12270
347.023	9515
347.108	13325
347.194	10566
347.280	10488
347.366	13547
347.452	56316
347.538	222353
347.624	151619
347.710	124765
347.796	22107
347.882	13506
347.967	13651
348.053	23043
348.139	15124
348.225	10294
348.311	9736
348.397	8492
348.482	13714
348.568	15466
348.654	7130
348.740	7105
348.825	8390
348.911	21332
348.997	116031
349.083	203125
349.168	32261
349.254	11937
349.340	11432
349.425	8426
349.511	15290
349.597	21004
349.682	39344
349.768	115284
349.854	50318
349.939	12889
350.025	9512
350.110	10430
350.196	7957
350.282	6017
350.367	8966
350.453	33271
350.538	30690
350.624	17832
350.709	15918
350.795	9481
350.880	10368
350.966	14094
351.051	29243
351.137	22069
351.222	11291
351.308	38414
351.393	94043
351.479	22221
351.564	8610
351.649	10481
351.735	8092
351.820	7838
351.906	9332
351.991	20491
352.076	70416
352.162	89650
352.247	17208
352.332	12713
352.418	23749
352.503	36029
352.588	138697
352.673	104564
352.759	23158
352.844	12293
352.929	14800
353.014	19932
353.100	11215
353.185	15194
353.270	34472
353.355	33369
353.441	12604
353.526	20051
353.611	36055
353.696	38193
353.781	20263
353.866	10964
353.952	11612
354.037	33327
354.122	73527
354.207	64364
354.292	24371
354.377	10900
354.462	10346
354.547	15358
354.632	15003
354.717	20587
354.802	17382
354.887	8805
354.972	8430
355.057	7599
355.142	6586
355.227	11707
355.312	22606
355.397	52950
355.482	114832
355.567	56188
355.652	40302
355.737	46126
355.822	141347
355.907	106517
355.991	15235
356.076	10745
356.161	10916
356.246	8308
356.331	11038
356.416	40838
356.501	249073
356.585	235348
356.670	29042
356.755	18147
356.840	30977
356.924	175024
357.009	551825
357.094	192806
357.179	39753
357.263	28795
357.348	29227
357.433	30295
357.517	25582
357.602	20313
357.687	16273
357.771	29792
357.856	88113
357.941	54653
358.025	148205
358.110	535834
358.195	234339
358.279	31893
358.364	26073
358.448	101335
358.533	246494
358.617	179051
358.702	170253
358.787	60919
358.871	34612
358.956	28038
359.040	10815
359.125	7721
359.209	11589
359.294	44577
359.378	68905
359.462	28793
359.547	19740
359.631	17059
359.716	9456
359.800	13509
359.885	23505
359.969	14518
360.053	11872
360.138	14379
360.222	19357
360.306	35873
360.391	28105
360.475	56689
360.559	111822
360.644	99618
360.728	72553
360.812	144150
360.896	350328
360.981	148834
361.065	74655
361.149	18969
361.233	19014
361.318	17187
361.402	18837
361.486	15207
361.570	11269
361.654	17488
361.739	54236
361.823	244379
361.907	339383
361.991	54177
362.075	32467
362.159	69550
362.243	43962
362.327	30769
362.411	26661
362.495	24778
362.580	14544
362.664	9653
362.748	8676
362.832	9770
362.916	13257
363.000	43226
363.084	222048
363.168	379211
363.252	84932
363.336	29090
363.420	56334
363.503	229756
363.587	244665
363.671	37125
363.755	25263
363.839	33548
363.923	17226
364.007	36452
364.091	47521
364.175	99479
364.258	321295
364.342	153403
364.426	47241
364.510	33857
364.594	38690
364.677	78795
364.761	307042
364.845	209099
364.929	58782
365.013	48699
365.096	42378
365.180	53783
365.264	112909
365.347	342971
365.431	146251
365.515	36766
365.598	15311
365.682	14908
365.766	40371
365.849	47496
365.933	22477
366.017	31192
366.100	26015
366.184	11039
366.267	12828
366.351	10743
366.435	9485
366.518	7257
366.602	6137
366.685	9710
366.769	14535
366.852	33270
366.936	50813
367.019	25010
367.103	28726
367.186	52106
367.270	14860
367.353	7064
367.436	9788
367.520	8680
367.603	13349
367.687	23150
367.770	40123
367.853	27018
367.937	89597
368.020	134573
368.104	32690
368.187	30383
368.270	43062
368.353	40858
368.437	90568
368.520	215316
368.603	109616
368.687	110274
368.770	178445
368.853	47208
368.936	47884
369.020	50426
369.103	16422
369.186	11901
369.269	14596
369.352	29189
369.436	43319
369.519	26287
369.602	13891
369.685	13674
369.768	18341
369.851	14299
369.934	10322
370.018	18283
370.101	34605
370.184	28961
370.267	22935
370.350	36965
370.433	63916
370.516	153921
370.599	169371
370.682	51575
370.765	89580
370.848	129500
370.931	229464
371.014	94252
371.097	19676
371.180	11378
371.263	7546
371.346	6910
371.429	8408
371.511	11572
371.594	24250
371.677	43983
371.760	51942
371.843	41541
371.926	195856
372.009	402540
372.091	124774
372.174	102073
372.257	216045
372.340	89149
372.423	74042
372.505	88588
372.588	35819
372.671	77906
372.754	215703
372.836	115313
372.919	112534
373.002	200329
373.085	56000
373.167	34345
373.250	98734
373.332	209655
373.415	311918
373.498	564738
373.580	211616
373.663	250830
373.746	334527
373.828	76791
373.911	34131
373.993	57226
374.076	203743
374.159	192496
374.241	77361
374.324	179830
374.406	124970
374.489	190663
374.571	462353
374.654	193313
374.736	103724
374.819	305011
374.901	428565
374.983	417848
375.066	72459
375.148	37886
375.231	174875
375.313	301105
375.395	106749
375.478	21379
375.560	12551
375.643	23994
375.725	112165
375.807	388364
375.890	355852
375.972	186240
376.054	102195
376.136	170712
376.219	74174
376.301	125347
376.383	310983
376.465	126150
376.548	68321
376.630	105639
376.712	256988
376.794	123387
376.877	13948
376.959	10388
377.041	15819
377.123	45411
377.205	51915
377.287	10687
377.369	8852
377.452	10448
377.534	9488
377.616	10394
377.698	10086
377.780	7870
377.862	10377
377.944	10411
378.026	7446
378.108	8501
378.190	8355
378.272	8135
378.354	6032
378.436	8191
378.518	29902
378.600	86083
378.682	71161
378.764	121743
378.846	98912
378.928	31612
379.010	36277
379.091	21135
379.173	10551
379.255	9984
379.337	18177
379.419	71665
379.501	172008
379.583	76485
379.664	20301
379.746	49612
379.828	119164
379.910	169191
379.991	140726
380.073	26730
380.155	18205
380.237	12619
380.318	8667
380.400	11562
380.482	28336
380.564	44956
380.645	36207
380.727	33468
380.809	20708
380.890	15326
380.972	11177
381.053	11650
381.135	16114
381.217	48751
381.298	118772
381.380	64343
381.461	68484
381.543	270715
381.624	322935
381.706	60549
381.787	28716
381.869	35051
381.951	141520
382.032	428208
382.113	274165
382.195	55788
382.276	33649
382.358	86600
382.439	231099
382.521	284635
382.602	404066
382.684	201074
382.765	315431
382.846	319631
382.928	288848
383.009	170595
383.090	149284
383.172	476780
383.253	655347
383.334	295108
383.416	344082
383.497	182304
383.578	69729
383.659	139639
383.741	485603
383.822	1013529
383.903	543620
383.984	247031
384.066	416921
384.147	263180
384.228	50947
384.309	34233
384.390	25254
384.471	18364
384.553	22862
384.634	34116
384.715	33986
384.796	18877
384.877	31581
384.958	107037
385.039	133440
385.120	45053
385.201	20520
385.282	32308
385.363	35119
385.444	28580
385.525	56859
385.606	180245
385.687	158861
385.768	42413
385.849	58880
385.930	207225
386.011	333898
386.092	94505
386.173	21336
386.254	19380
386.335	21719
386.416	26723
386.496	77526
386.577	121070
386.658	55125
386.739	34164
386.820	33793
386.901	28835
386.981	22047
387.062	14807
387.143	34850
387.224	114899
387.304	111977
387.385	39759
387.466	30433
387.547	35863
387.627	22427
387.708	56263
387.789	213649
387.869	262114
387.950	72607
388.031	14553
388.111	22884
388.192	62554
388.273	88112
388.353	48858
388.434	22634
388.514	57405
388.595	219319
388.676	268119
388.756	122991
388.837	103859
388.917	69131
388.998	17989
389.078	16256
389.159	14306
389.239	14918
389.320	21851
389.400	24266
389.480	57281
389.561	126996
389.641	66658
389.722	23876
389.802	37255
389.883	67556
389.963	155228
390.043	116803
390.124	46633
390.204	52358
390.284	132462
390.365	106725
390.445	187410
390.525	457934
390.605	392763
390.686	90046
390.766	25707
390.846	14871
390.927	11350
391.007	12999
391.087	17246
391.167	18590
391.247	17688
391.328	36983
391.408	52817
391.488	33979
391.568	11882
391.648	16290
391.728	22609
391.808	21402
391.888	29534
391.969	69832
392.049	108940
392.129	54528
392.209	65569
392.289	135366
392.369	90801
392.449	83406
392.529	51590
392.609	29074
392.689	48347
392.769	133350
392.849	119406
392.929	92066
393.009	201486
393.089	131775
393.169	59198
393.248	230831
393.328	880950
393.408	954019
393.488	197157
393.568	44924
393.648	27685
393.728	21747
393.807	20047
393.887	19284
393.967	21370
394.047	29204
394.127	42972
394.206	89429
394.286	369063
394.366	1205309
394.446	1279826
394.525	352530
394.605	86047
394.685	69377
394.764	137603
394.844	216967
394.924	148221
395.003	40215
395.083	26196
395.163	24363
395.242	22815
395.322	23460
395.402	19231
395.481	31692
395.561	101194
395.640	219279
395.720	173574
395.799	252085
395.879	219989
395.958	152529
396.038	544302
396.117	1565957
396.197	1683728
396.276	594997
396.356	191313
396.435	120863
396.515	66550
396.594	52544
396.673	77841
396.753	282608
396.832	831326
396.912	659228
396.991	160883
397.070	36830
397.150	22567
397.229	18637
397.308	15643
397.388	18412
397.467	14411
397.546	12043
397.625	11385
397.705	17823
397.784	18044
397.863	10742
397.942	8566
398.022	17099
398.101	89159
398.180	220237
398.259	121546
398.338	27993
398.417	16575
398.497	13598
398.576	13715
398.655	9491
398.734	8672
398.813	16924
398.892	88572
398.971	235528
399.050	122588
399.129	15271
399.208	7243
399.287	8998
399.366	8180
399.445	9438
399.524	9846
399.603	9939
399.682	24056
399.761	87257
399.840	247228
399.919	197071
399.998	28742
400.077	8488
400.156	7337
400.235	12980
400.313	11175
400.392	18318
400.471	64537
400.550	96317
400.629	32648
400.708	15352
400.786	21731
400.865	55701
400.944	59750
401.023	23558
401.102	6162
401.180	7297
401.259	11145
401.338	13495
401.416	16731
401.495	15693
401.574	14070
401.652	12147
401.731	15756
401.810	14118
401.888	6669
401.967	5588
402.046	7760
402.124	15397
402.203	22066
402.281	13066
402.360	23935
402.438	66403
402.517	51941
402.596	18193
402.674	16469
402.753	10175
402.831	8206
402.910	9713
402.988	32272
403.066	76649
403.145	49123
403.223	29738
403.302	54576
403.380	43918
403.459	35178
403.537	19768
403.615	11557
403.694	4608
403.772	4553
403.850	4604
403.929	5305
404.007	6768
404.085	12015
404.164	10579
404.242	8774
404.320	25244
404.398	73607
404.477	129452
404.555	329026
404.633	300614
404.711	73154
404.789	30525
404.868	10007
404.946	6372
405.024	5416
405.102	5047
405.180	4331
405.258	5120
405.336	6764
405.415	10390
405.493	20816
405.571	15247
405.649	5398
405.727	7759
405.805	14266
405.883	12518
405.961	16095
406.039	21643
406.117	11377
406.195	17698
406.273	91159
406.351	266091
406.429	177481
406.507	34281
406.585	13194
406.663	9614
406.740	13898
406.818	13136
406.896	8958
406.974	8448
407.052	31996
407.130	160055
407.208	219835
407.285	48801
407.363	8805
407.441	8181
407.519	7694
407.596	11814
407.674	32239
407.752	85423
407.830	94688
407.907	41735
407.985	11785
408.063	8448
408.141	8002
408.218	17360
408.296	17378
408.373	7935
408.451	9678
408.529	9996
408.606	5427
408.684	4982
408.762	3735
408.839	2243
408.917	3174
408.994	3897
409.072	3911
409.149	4076
409.227	6326
409.304	6371
409.382	4247
409.459	3887
409.537	6705
409.614	7242
409.692	4757
409.769	4760
409.846	7418
409.924	11773
410.001	9899
410.079	7609
410.156	6637
410.233	8958
410.311	8679
410.388	5472
410.465	7102
410.543	8802
410.620	5577
410.697	6808
410.775	9307
410.852	4606
410.929	9208
411.006	11880
411.083	8982
411.161	19795
411.238	24739
411.315	15533
411.392	6193
411.469	9635
411.547	11323
411.624	5912
411.701	6740
411.778	9935
411.855	21149
411.932	12775
412.009	5781
412.086	6505
412.163	9449
412.240	13797
412.317	17900
412.394	15682
412.471	6084
412.548	4495
412.625	5825
412.702	11385
412.779	21873
412.856	14801
412.933	6162
413.010	5863
413.087	16505
413.164	58058
413.241	79283
413.318	22143
413.395	13572
413.471	18512
413.548	9784
413.625	7485
413.702	12485
413.779	10210
413.855	4003
413.932	4348
414.009	3712
414.086	4349
414.162	4978
414.239	15095
414.316	63176
414.393	122023
414.469	49663
414.546	6122
414.623	3720
414.699	4648
414.776	6561
414.853	5086
414.929	7297
415.006	8018
415.082	12235
415.159	9917
415.236	6990
415.312	6963
415.389	14166
415.465	18990
415.542	10587
415.618	6609
415.695	12367
415.771	9312
415.848	8751
415.924	9337
416.000	8702
416.077	5501
416.153	2757
416.230	1596
416.306	4040
416.383	6569
416.459	4938
416.535	3302
416.612	4236
416.688	4471
416.764	4344
416.841	3308
416.917	5647
416.993	5754
417.069	8598
417.146	14402
417.222	18401
417.298	10405
417.374	6100
417.451	7561
417.527	8337
417.603	10172
417.679	7277
417.755	5714
417.831	3259
417.908	3332
417.984	3702
418.060	5232
418.136	16135
418.212	21482
418.288	9140
418.364	5363
418.440	5541
418.516	11850
418.592	21681
418.668	34206
418.744	38711
418.820	29601
418.896	9530
418.972	3309
419.048	4983
419.124	16510
419.200	13923
419.276	4466
419.352	2325
419.428	3549
419.504	5190
419.579	8279
419.655	6355
419.731	6709
419.807	25100
419.883	47084
419.959	32725
420.034	9688
420.110	23288
420.186	72548
420.262	61111
420.337	13223
420.413	8810
420.489	4394
420.565	4503
420.640	2956
420.716	4587
420.792	3076
420.867	4763
420.943	4251
421.019	10064
421.094	8348
421.170	4693
421.245	2734
421.321	4747
421.397	5699
421.472	15268
421.548	37785
421.623	26013
421.699	8308
421.774	7209
421.850	6977
421.925	12652
422.001	10615
422.076	5581
422.152	6347
422.227	11841
422.302	11074
422.378	12420
422.453	23037
422.529	62116
422.604	259334
422.679	539235
422.755	291685
422.830	60477
422.905	15954
422.981	8070
423.056	6504
423.131	5311
423.207	5108
423.282	8899
423.357	20054
423.432	15321
423.508	13330
423.583	33489
423.658	27794
423.733	10041
423.808	13371
423.883	13725
423.959	10315
424.034	5840
424.109	5070
424.184	3489
424.259	2024
424.334	2847
424.409	2879
424.484	3260
424.559	6275
424.634	4662
424.709	7769
424.784	10524
424.859	8130
424.934	15064
425.009	52167
425.084	83728
425.159	35085
425.234	6432
425.309	5307
425.384	19112
425.459	31044
425.534	12026
425.609	7378
425.683	6096
425.758	4325
425.833	5933
425.908	10912
425.983	35802
426.058	86214
426.132	45119
426.207	12300
426.282	19974
426.357	20715
426.431	6300
426.506	5054
426.581	6282
426.655	5623
426.730	4453
426.805	4973
426.879	5296
426.954	6561
427.029	20744
427.103	97066
427.178	214656
427.253	107880
427.327	14939
427.402	21667
427.476	47182
427.551	23930
427.625	10486
427.700	9851
427.774	6548
427.849	9260
427.923	5751
427.998	4856
428.072	6807
428.147	16566
428.221	40530
428.296	68271
428.370	31248
428.444	11395
428.519	27822
428.593	52376
428.667	49154
428.742	51494
428.816	46922
428.890	78296
428.965	98922
429.039	56885
429.113	59297
429.188	22727
429.262	5870
429.336	15409
429.410	40359
429.485	34276
429.559	42321
429.633	35438
429.707	10310
429.781	30515
429.855	111359
429.930	146678
430.004	144889
430.078	235209
430.152	178002
430.226	101778
430.300	89618
430.374	17506
430.448	17119
430.522	88482
430.596	220757
430.670	129183
430.744	144906
430.818	227397
430.892	59078
430.966	9362
431.040	5655
431.114	3686
431.188	4837
431.262	4919
431.336	7797
431.410	25844
431.484	63604
431.557	38518
431.631	4935
431.705	4310
431.779	13803
431.853	47709
431.927	36782
432.000	6420
432.074	5132
432.148	10348
432.222	10272
432.295	4304
432.369	4715
432.443	17700
432.516	99804
432.590	219716
432.664	89543
432.737	10138
432.811	3178
432.885	2278
432.958	2634
433.032	2921
433.106	2316
433.179	2373
433.253	1834
433.326	2806
433.400	2322
433.473	2792
433.547	1759
433.620	4035
433.694	9716
433.767	10684
433.841	6771
433.914	3306
433.988	2996
434.061	2508
434.134	3133
434.208	1039
434.281	994
434.355	2236
434.428	3589
434.501	2681
434.575	3341
434.648	4331
434.721	2383
434.795	1885
434.868	1500
434.941	1242
435.014	1390
435.088	2012
435.161	4900
435.234	8409
435.307	10493
435.381	4389
435.454	3325
435.527	2916
435.600	2231
435.673	1833
435.746	1704
435.819	1775
435.892	2329
435.966	1801
436.039	3111
436.112	3957
436.185	1088
436.258	702
436.331	691
436.404	1912
436.477	1472
436.550	1677
436.623	1630
436.696	1846
436.769	3569
436.842	3443
436.915	5310
436.987	7743
437.060	4471
437.133	1653
437.206	2547
437.279	3558
437.352	1459
437.425	2740
437.498	4279
437.570	9095
437.643	8113
437.716	2646
437.789	1942
437.861	9735
437.934	23367
438.007	11986
438.080	2759
438.152	4828
438.225	19201
438.298	127264
438.370	298057
438.443	126167
438.516	23375
438.588	6116
438.661	2799
438.734	4023
438.806	5093
438.879	5625
438.951	7775
439.024	11891
439.096	5342
439.169	3328
439.241	2448
439.314	3317
439.386	10168
439.459	18126
439.531	23996
439.604	8838
439.676	2973
439.749	1459
439.821	1918
439.893	2787
439.966	4526
440.038	5830
440.110	5800
440.183	3611
440.255	2661
440.327	8728
440.400	57228
440.472	181992
440.544	119775
440.617	13028
440.689	9598
440.761	13103
440.833	19974
440.905	12359
440.978	2981
441.050	968
441.122	1772
441.194	1646
441.266	2304
441.338	2489
441.411	10101
441.483	51644
441.555	73932
441.627	17656
441.699	14494
441.771	14861
441.843	4584
441.915	2118
441.987	2110
442.059	2219
442.131	6018
442.203	10450
442.275	11409
442.347	8256
442.419	5373
442.491	15843
442.563	34703
442.635	31500
442.706	51418
442.778	38149
442.850	5231
442.922	3489
442.994	6674
443.066	10694
443.137	7840
443.209	4075
443.281	5539
443.353	13111
443.425	32327
443.496	64046
443.568	55954
443.640	21153
443.711	8013
443.783	3568
443.855	3523
443.926	2130
443.998	4722
444.070	8778
444.141	7450
444.213	8979
444.285	11774
444.356	13714
444.428	13002
444.499	4281
444.571	1868
444.642	2537
444.714	4102
444.785	7527
444.857	17604
444.928	42523
445.000	24545
445.071	27379
445.143	29002
445.214	10218
445.285	22096
445.357	60544
445.428	78291
445.500	135275
445.571	96417
445.642	37615
445.714	44635
445.785	62897
445.856	15829
445.928	10262
445.999	9122
446.070	7389
446.141	6113
446.213	9089
446.284	5812
446.355	8995
446.426	4986
446.497	5667
446.569	12957
446.640	19339
446.711	10640
446.782	4567
446.853	12116
446.924	10824
446.995	5742
447.066	7583
447.138	17230
447.209	7916
447.280	1289
447.351	1362
447.422	2689
447.493	7495
447.564	8210
447.635	8828
447.706	3656
447.777	1835
447.847	1798
447.918	3324
447.989	8384
448.060	12805
448.131	30763
448.202	22311
448.273	12320
448.344	6384
448.414	3214
448.485	3082
448.556	2648
448.627	1967
448.698	2029
448.768	2222
448.839	4791
448.910	14808
448.981	11916
449.051	3366
449.122	1959
449.193	1607
449.263	3358
449.334	3225
449.405	5987
449.475	13966
449.546	11152
449.616	16467
449.687	13426
449.758	4571
449.828	3542
449.899	2749
449.969	2198
450.040	3532
450.110	7965
450.181	9097
450.251	2954
450.322	3030
450.392	3375
450.463	3231
450.533	2543
450.604	3321
450.674	3436
450.744	2419
450.815	2413
450.885	2588
450.955	2601
451.026	2172
451.096	3644
451.166	6380
451.237	20017
451.307	44279
451.377	13408
451.447	3305
451.518	1922
451.588	3504
451.658	3753
451.728	12347
451.799	49963
451.869	49781
451.939	9383
452.009	2813
452.079	2446
452.149	5064
452.219	15260
452.289	56658
452.360	36495
452.430	6546
452.500	5573
452.570	5957
452.640	9093
452.710	29685
452.780	44094
452.850	23333
452.920	18869
452.990	7370
453.060	5138
453.129	8460
453.199	13807
453.269	71107
453.339	126502
453.409	181948
453.479	195183
453.549	277926
453.619	280194
453.688	93127
453.758	12412
453.828	6428
453.898	4766
453.968	4754
454.037	3662
454.087	4029
454.107	4163
454.168	3195
454.177	3033
454.247	3486
454.249	3541
454.316	3588
454.330	4388
454.386	6646
454.411	14300
454.456	26795
454.492	32177
454.525	37239
454.574	17910
454.595	9607
454.655	5427
454.665	4769
454.734	7425
454.736	7841
454.804	16681
454.817	23266
454.873	48583
454.898	49973
454.943	52900
454.979	35845
455.013	21181
455.060	12913
455.082	9315
455.141	12156
455.152	12594
455.221	40854
455.222	41535
455.291	70016
455.303	68796
455.360	62539
455.384	83880
455.430	118477
455.465	88632
455.499	62293
455.546	50979
455.569	45058
455.627	26572
455.638	23494
455.707	5239
455.708	5255
455.777	4934
455.789	4984
455.846	4837
455.869	4400
455.916	3756
455.950	4159
455.985	4261
456.031	4927
456.054	5347
456.112	3734
456.124	3485
456.193	3528
456.193	3489
456.262	5730
456.274	6216
456.332	7956
456.355	8841
456.401	9789
456.436	7329
456.470	5263
456.516	3099
456.540	2192
456.597	2963
456.609	3013
456.678	2171
456.678	2156
456.747	2597
456.759	2520
456.817	2022
456.840	2128
456.886	2400
456.920	2628
456.955	3244
457.001	4255
457.024	4846
457.082	6501
457.093	6723
457.162	10769
457.163	10825
457.232	13950
457.243	12545
457.301	6709
457.324	5014
457.370	2620
457.405	2852
457.439	3155
457.485	3223
457.508	3212
457.566	3986
457.577	4042
457.646	3915
457.647	3929
457.715	4700
457.727	4864
457.784	5272
457.808	5359
457.853	5420
457.889	6145
457.922	6713
457.969	6193
457.991	6029
458.050	6412
458.060	6423
458.129	6878
458.130	6930
458.198	7355
458.211	6831
458.267	5009
458.292	4465
458.336	4104
458.372	4266
458.405	4881
458.453	6005
458.474	6402
458.533	8362
458.543	8455
458.611	11725
458.614	11760
458.680	9488
458.694	8116
458.749	4802
458.775	4432
458.818	4007
458.855	3836
458.887	3669
458.936	3689
458.955	3774
459.016	4441
459.024	4488
459.093	4807
459.097	4804
459.162	4732
459.177	4852
459.230	5426
459.257	5905
459.299	6258
459.338	6143
459.368	5908
459.418	6678
459.437	6906
459.499	5093
459.505	4902
459.574	4315
459.579	4282
459.643	4339
459.659	4392
459.711	4445
459.740	4652
459.780	5316
459.820	5993
459.849	6265
459.900	7006
459.917	6901
459.981	6718
459.986	6737
460.054	5382
460.061	5323
460.123	5853
460.141	6138
460.191	6672
460.222	7189
460.260	7741
460.302	8617
460.328	8218
460.382	5863
460.397	5990
460.462	7028
460.465	7282
460.534	13993
460.543	14940
460.602	24962
460.623	29119
460.671	41267
460.703	55127
460.739	48466
460.783	30650
460.808	28036
460.864	10056
460.876	7461
460.944	7247
460.945	7220
461.013	5901
461.024	5706
461.081	5962
461.104	6358
461.150	6286
461.184	5833
461.218	5533
461.264	4829
461.286	4780
461.345	5684
461.355	5920
461.423	7070
461.425	7086
461.491	11033
461.505	12033
461.559	27221
461.585	34508
461.628	44504
461.665	55875
461.696	54843
461.745	59867
461.764	55334
461.825	16432
461.832	15130
461.901	8056
461.905	8107
461.969	7003
461.985	6603
462.037	8279
462.065	9067
462.105	13251
462.145	17898
462.173	21760
462.225	29638
462.241	31892
462.305	44752
462.310	43405
462.378	19492
462.385	15718
462.446	7432
462.465	6801
462.514	6558
462.545	6783
462.582	7013
462.625	6992
462.650	7104
462.705	7483
462.718	8445
462.785	13581
462.786	13643
462.854	17050
462.865	17800
462.922	19304
462.945	20154
462.990	15294
463.025	9011
463.058	7316
463.104	6178
463.126	5976
463.184	6244
463.194	6471
463.262	7905
463.264	7958
463.330	8520
463.344	8658
463.398	10032
463.424	10575
463.466	9871
463.504	9447
463.533	9752
463.583	9911
463.601	10601
463.663	12852
463.669	13606
463.737	22885
463.743	23717
463.805	39436
463.823	43979
463.873	59650
463.903	70249
463.940	65225
463.982	61324
464.008	49751
464.062	16356
464.076	14746
464.142	8294
464.144	8193
464.211	7709
464.221	7722
464.279	8855
464.301	9318
464.347	11265
464.381	12711
464.414	14768
464.461	17677
464.482	17304
464.540	16815
464.550	16417
464.617	11991
464.620	11830
464.685	12717
464.699	12977
464.753	15086
464.779	16273
464.820	17679
464.859	18920
464.888	19254
464.938	19561
464.956	19487
465.018	19477
465.023	19184
465.091	14284
465.098	13778
465.158	12717
465.177	12471
465.226	13184
465.257	13604
465.293	14300
465.336	15010
465.361	17953
465.416	24592
465.428	27731
465.495	44639
465.496	44827
465.563	63065
465.575	66377
465.631	66522
465.654	66886
465.698	41254
465.734	16930
465.765	14753
465.813	12969
465.833	12988
465.893	13959
465.900	13951
465.968	13821
465.972	13783
466.035	13878
466.052	13913
466.102	14956
466.131	15478
466.170	15590
466.210	15662
466.237	15695
466.290	15748
466.304	16227
466.369	18215
466.372	18278
466.439	19248
466.449	19361
466.506	25287
466.528	27537
466.573	46438
466.607	60453
466.641	74484
466.687	93959
466.708	96039
466.766	102096
466.775	93936
466.842	30309
466.845	27246
466.909	23406
466.925	22721
466.977	22131
467.004	21865
467.044	22649
467.083	23347
467.111	24586
467.163	26833
467.178	27039
467.242	27686
467.245	27680
467.312	26653
467.321	26475
467.379	27783
467.400	28185
467.446	30507
467.480	32092
467.559	23087
467.638	22054
467.717	22593
467.796	25124
467.875	25237
467.955	31156
468.034	67792
468.113	108509
468.192	129279
468.271	21033
468.350	18019
468.429	18085
468.508	16593
468.588	18028
468.667	21984
468.746	23573
468.825	21000
468.904	19057
468.983	29681
469.062	43074
469.141	43470
469.220	16972
469.299	18464
469.378	19475
469.456	20226
469.535	19605
469.614	19288
469.693	25735
469.772	33667
469.851	48580
469.930	20908
470.009	17735
470.088	16341
470.166	19998
470.245	24087
470.324	24983
470.403	20884
470.482	18800
470.560	17647
470.639	19093
470.718	21137
470.797	19990
470.875	29676
470.954	36939
471.033	35595
471.111	14507
471.190	13545
471.269	14043
471.347	14684
471.426	15785
471.505	19551
471.583	18436
471.662	16808
471.740	15714
471.819	15698
471.898	15216
471.976	15817
472.055	16880
472.133	22477
472.212	29047
472.290	28549
472.369	15159
472.447	14798
472.526	14177
472.604	15202
472.683	15854
472.761	15000
472.839	15979
472.918	15503
472.996	18862
473.075	20622
473.153	18774
473.231	16019
473.310	20990
473.388	17184
473.466	18725
473.545	19485
473.623	25500
473.701	21534
473.780	16416
473.858	15046
473.936	17996
474.014	16708
474.093	25224
474.171	39422
474.249	54586
474.327	20668
474.405	14110
474.484	13150
474.562	15393
474.640	15202
474.718	18772
474.796	17240
474.874	15721
474.952	14238
475.030	14116
475.108	16287
475.187	18844
475.265	19120
475.343	20794
475.421	20306
475.499	15877
475.577	20075
475.655	41040
475.733	77837
475.811	129022
475.889	103953
475.966	42384
476.044	14773
476.122	17748
476.200	19293
476.278	15329
476.356	14811
476.434	15510
476.512	17138
476.590	20127
476.667	16635
476.745	14240
476.823	15161
476.901	15808
476.979	16395
477.056	16779
477.134	17501
477.212	16665
477.290	15256
477.367	12640
477.445	12885
477.523	14041
477.601	13786
477.678	17129
477.756	20730
477.834	23387
477.911	13796
477.989	14550
478.066	14024
478.144	18587
478.222	15262
478.299	19048
478.377	15642
478.454	12682
478.532	12669
478.609	13793
478.687	14476
478.764	13722
478.842	13972
478.919	16906
478.997	14338
479.074	15711
479.152	21263
479.229	29239
479.307	12879
479.384	11430
479.461	12464
479.539	15901
479.616	20126
479.694	16002
479.771	19790
479.848	23743
479.926	31971
480.003	27942
480.080	12744
480.157	12246
480.235	12264
480.312	14661
480.389	23603
480.467	37243
480.544	42514
480.621	16504
480.698	15915
480.775	19295
480.853	19728
480.930	15567
481.007	16541
481.084	21033
481.161	20540
481.238	17840
481.315	12721
481.392	12732
481.470	14618
481.547	14961
481.624	13424
481.701	13262
481.778	15150
481.855	22409
481.932	40323
482.009	64039
482.086	25576
482.163	14471
482.240	16188
482.317	21257
482.393	17177
482.470	14641
482.547	14033
482.624	13244
482.701	13983
482.778	13045
482.855	10704
482.932	11443
483.009	11353
483.085	14326
483.162	16731
483.239	14948
483.316	10943
483.393	11638
483.469	13534
483.546	18255
483.623	18882
483.699	13249
483.776	14992
483.853	21006
483.930	52226
484.006	107945
484.083	164319
484.160	53369
484.236	69617
484.313	49477
484.389	39733
484.466	35876
484.543	34499
484.619	35412
484.696	39729
484.772	44554
484.849	46155
484.925	34175
485.002	33730
485.078	37057
485.155	35771
485.231	31912
485.308	32613
485.384	39173
485.461	65760
485.537	106188
485.614	105792
485.690	33053
485.766	30910
485.843	38681
485.919	46701
485.995	43666
486.072	29145
486.148	28371
486.224	28869
486.301	33827
486.377	39808
486.453	38061
486.530	35706
486.606	49714
486.682	60359
486.758	81900
486.835	95785
486.911	82702
486.987	140083
487.063	99784
487.139	107087
487.215	69451
487.292	34546
487.368	32837
487.444	36215
487.520	42129
487.596	32945
487.672	40418
487.748	56651
487.824	64634
487.900	35778
487.976	35574
488.052	40804
488.128	45108
488.204	38050
488.280	37878
488.356	70687
488.432	137734
488.508	179462
488.584	38629
488.660	28182
488.736	29603
488.812	32596
488.888	43962
488.964	67149
489.039	130178
489.115	156945
489.191	77183
489.267	33705
489.343	31191
489.418	24637
489.494	25919
489.570	24607
489.646	25987
489.722	25933
489.797	36818
489.873	82863
489.949	153512
490.024	87860
490.100	27582
490.176	28455
490.251	34664
490.327	40635
490.403	24139
490.478	22942
490.554	20252
490.629	20097
490.705	21842
490.781	26062
490.856	25578
490.932	28222
491.007	28134
491.083	27917
491.158	30694
491.234	61761
491.309	116578
491.385	92087
491.460	28047
491.536	29091
491.611	23717
491.686	27783
491.762	43949
491.837	86674
491.913	151110
491.988	191582
492.063	198956
492.139	71323
492.214	39471
492.289	19627
492.365	22318
492.440	26981
492.515	28993
492.590	26553
492.666	25128
492.741	42458
492.816	63286
492.891	24090
492.967	20605
493.042	18804
493.117	22402
493.192	31764
493.267	93968
493.342	217543
493.418	221878
493.493	25306
493.568	17565
493.643	21712
493.718	32838
493.793	50300
493.868	40673
493.943	22220
494.018	19253
494.093	19235
494.168	19758
494.243	15452
494.318	16449
494.393	15968
494.468	16933
494.543	15759
494.618	20365
494.693	17849
494.768	19794
494.842	17504
494.917	15956
494.992	17988
495.067	15516
495.142	15055
495.217	18698
495.292	16687
495.366	21224
495.441	25686
495.516	33877
495.591	72087
495.665	201375
495.740	355787
495.815	96838
495.890	28184
495.964	23000
496.039	24159
496.114	23935
496.188	24385
496.263	25281
496.338	24471
496.412	31617
496.487	35526
496.561	34259
496.636	32647
496.710	29982
496.785	34920
496.860	40652
496.934	28710
497.009	29245
497.083	29215
497.158	33730
497.232	43000
497.307	52183
497.381	43151
497.455	60641
497.530	74412
497.604	47221
497.679	60432
497.753	91199
497.827	102782
497.902	87018
497.976	139441
498.050	409780
498.125	970438
498.199	677496
498.273	114437
498.348	96666
498.422	83608
498.496	78235
498.570	69731
498.645	59127
498.719	59174
498.793	72452
498.867	109834
498.941	197920
499.016	509060
499.090	972947
499.164	179480
499.238	39626
499.312	35828
499.386	41443
499.460	38196
499.534	37514
499.609	48077
499.683	73082
499.757	87851
499.831	286165
499.905	719726
499.979	462786
500.053	89073
500.127	82878
500.201	48728
500.275	32123
500.349	32564
500.422	38697
500.496	67708
500.570	181884
500.644	440449
500.718	644881
500.792	70049
500.866	38268
500.940	48744
501.013	33855
501.087	37231
501.161	63960
501.235	118187
501.309	336058
501.382	671728
501.456	403258
501.530	127847
501.603	203193
501.677	46059
501.751	27186
501.825	45665
501.898	123282
501.972	270049
502.046	107641
502.119	51586
502.193	141956
502.266	281809
502.340	103517
502.413	150270
502.487	242433
502.561	120366
502.634	30646
502.708	25152
502.781	21762
502.855	18841
502.928	17131
503.002	17633
503.075	19793
503.149	21386
503.222	21329
503.295	24492
503.369	33437
503.442	82113
503.516	274875
503.589	525636
503.662	260628
503.736	111819
503.809	242791
503.882	177367
503.956	254485
504.029	154301
504.102	48856
504.175	40102
504.249	22260
504.322	31292
504.395	25250
504.468	19104
504.542	19559
504.615	13992
504.688	14692
504.761	16244
504.834	20550
504.907	26290
504.980	35785
505.053	19639
505.127	25711
505.200	32280
505.273	40363
505.346	18633
505.419	17067
505.492	13210
505.565	11954
505.638	12237
505.711	13273
505.784	13410
505.857	12791
505.930	14253
506.003	13218
506.076	19039
506.149	27725
506.221	32865
506.294	42748
506.367	148342
506.440	344484
506.513	107859
506.586	37079
506.659	16996
506.731	16153
506.804	24176
506.877	30660
506.950	19663
507.022	17113
507.095	28094
507.168	28619
507.241	14639
507.313	12207
507.386	16729
507.459	20768
507.531	12731
507.604	12736
507.677	11823
507.749	11094
507.822	20652
507.894	37171
507.967	32840
508.040	19311
508.112	18124
508.185	17549
508.257	17599
508.330	24456
508.402	18058
508.475	20940
508.547	21155
508.620	26923
508.692	41563
508.765	18964
508.837	12441
508.909	13953
508.982	14223
509.054	16609
509.127	13581
509.199	14231
509.271	13044
509.344	12321
509.416	13507
509.488	14224
509.560	13871
509.633	16189
509.705	18736
509.777	19227
509.849	24617
509.922	16532
509.994	14060
510.066	16189
510.138	20242
510.210	32437
510.283	26908
510.355	22789
510.427	19555
510.499	18730
510.571	19352
510.643	20818
510.715	31281
510.787	25196
510.859	21820
510.931	27246
511.003	28449
511.076	23950
511.148	18319
511.219	25542
511.291	46519
511.363	43550
511.435	17367
511.507	15798
511.579	16420
511.651	16164
511.723	15161
511.795	15399
511.867	18952
511.939	36055
512.010	75039
512.082	39426
512.154	18758
512.226	20547
512.298	30100
512.369	36286
512.441	29131
512.513	28413
512.585	22050
512.656	23718
512.728	26006
512.800	19951
512.871	19254
512.943	19931
513.015	16038
513.086	19355
513.158	21543
513.230	24957
513.301	35572
513.373	31315
513.444	19167
513.516	17130
513.588	18119
513.659	21838
513.731	24978
513.802	27232
513.874	55547
513.945	74338
514.016	21271
514.088	18971
514.159	21973
514.231	30261
514.302	33360
514.374	27061
514.445	37763
514.516	78215
514.588	41836
514.659	36891
514.730	65077
514.802	37277
514.873	32084
514.944	33268
515.016	29009
515.087	32724
515.158	50021
515.229	58697
515.301	38267
515.372	48145
515.443	32772
515.514	26342
515.585	19232
515.656	19236
515.728	17868
515.799	19034
515.870	20170
515.941	20428
516.012	22559
516.083	27979
516.154	29536
516.225	35728
516.296	31321
516.367	27117
516.438	30044
516.509	38447
516.580	71337
516.651	227102
516.722	526020
516.793	156298
516.864	48998
516.935	46342
517.006	54380
517.077	90847
517.148	248418
517.219	711444
517.289	793427
517.360	361300
517.431	80477
517.502	30926
517.573	27880
517.643	30981
517.714	33301
517.785	32769
517.856	33163
517.926	37139
517.997	41055
518.068	48014
518.138	66583
518.209	158476
518.280	603362
518.350	1351469
518.421	325053
518.492	51366
518.562	40199
518.633	38267
518.703	30833
518.774	39296
518.845	54187
518.915	43500
518.986	33002
519.056	45277
519.127	89005
519.197	177792
519.268	390752
519.338	154071
519.408	45873
519.479	46600
519.549	30061
519.620	22087
519.690	18207
519.760	20121
519.831	20525
519.901	19852
519.971	18604
520.042	24946
520.112	30697
520.182	28830
520.253	28962
520.323	23337
520.393	34579
520.463	43613
520.534	44711
520.604	69380
520.674	30238
520.744	45168
520.814	86544
520.885	77920
520.955	187424
521.025	451568
521.095	89927
521.165	26966
521.235	24776
521.305	20534
521.375	17475
521.445	21389
521.515	27174
521.585	31311
521.655	25086
521.725	25262
521.795	22457
521.865	21660
521.935	39504
522.005	27013
522.075	17759
522.145	21441
522.215	30918
522.285	47597
522.355	80267
522.424	141200
522.494	91885
522.564	42462
522.634	95004
522.704	177188
522.774	42849
522.843	22621
522.913	20570
522.983	26027
523.053	19675
523.122	21594
523.192	42860
523.262	121468
523.331	76601
523.401	19652
523.471	14791
523.540	15520
523.610	12050
523.680	14139
523.749	16506
523.819	26872
523.888	22303
523.958	13780
524.027	14831
524.097	16753
524.166	14759
524.236	17847
524.305	16262
524.375	14007
524.444	13251
524.514	17588
524.583	21071
524.653	28894
524.722	28914
524.791	16205
524.861	14086
524.930	13622
524.999	16776
525.069	24695
525.138	22835
525.207	28792
525.277	16431
525.346	17164
525.415	15017
525.484	17072
525.554	25564
525.623	19072
525.692	15316
525.761	15118
525.830	12912
525.900	16164
525.969	24477
526.038	24046
526.107	33361
526.176	60329
526.245	45257
526.314	44532
526.383	53585
526.452	52116
526.522	100764
526.591	117879
526.660	80582
526.729	33472
526.797	50005
526.867	160823
526.935	480742
527.004	303229
527.073	90493
527.142	21107
527.211	16589
527.280	21674
527.349	19475
527.418	11678
527.487	13414
527.555	12484
527.624	10998
527.693	10760
527.762	11492
527.831	9561
527.899	11891
527.968	11845
528.037	12185
528.106	20420
528.174	36827
528.243	32652
528.312	58803
528.380	49231
528.449	14923
528.518	11560
528.586	8365
528.655	10993
528.723	9193
528.792	11573
528.861	14493
528.929	11343
528.998	10477
529.066	9441
529.135	8275
529.203	10298
529.272	8649
529.340	11129
529.409	10684
529.477	13587
529.545	22153
529.614	21471
529.682	30925
529.751	29561
529.819	29490
529.887	14834
529.956	10492
530.024	12103
530.092	9079
530.161	17396
530.229	22674
530.297	11664
530.365	9699
530.434	8306
530.502	7299
530.570	9096
530.638	7921
530.707	10797
530.775	10647
530.843	8586
530.911	9355
530.979	9052
531.047	9421
531.115	9539
531.183	8647
531.252	10972
531.320	11352
531.388	9495
531.456	9060
531.524	7371
531.592	10386
531.660	11762
531.728	9286
531.796	8841
531.864	10278
531.932	11888
532.000	10556
532.067	10801
532.135	11540
532.203	14746
532.271	16816
532.339	42255
532.407	88167
532.475	33137
532.542	17764
532.610	21120
532.678	47836
532.746	206687
532.814	282936
532.881	45614
532.949	13267
533.017	12703
533.084	11334
533.152	10142
533.220	10906
533.287	12849
533.355	9307
533.423	10516
533.490	8622
533.558	11379
533.625	12989
533.693	14024
533.761	12798
533.828	14989
533.896	15214
533.963	34237
534.031	36994
534.098	44593
534.166	16458
534.233	11897
534.300	14121
534.368	14238
534.435	12919
534.503	12087
534.570	13741
534.637	10595
534.705	10306
534.772	12653
534.840	17016
534.907	39092
534.974	30206
535.041	17716
535.109	22130
535.176	10816
535.243	10166
535.310	12036
535.378	9687
535.445	9715
535.512	9458
535.579	10215
535.646	9738
535.714	11901
535.781	14253
535.848	14628
535.915	14479
535.982	14534
536.049	14146
536.116	15528
536.183	13410
536.250	14134
536.317	15890
536.384	20676
536.451	29028
536.518	25748
536.585	19547
536.652	30064
536.719	36487
536.786	24438
536.853	21410
536.920	42599
536.987	55967
537.053	65410
537.120	206422
537.187	89337
537.254	13377
537.321	13202
537.388	12323
537.454	11231
537.521	10321
537.588	11199
537.654	15357
537.721	16538
537.788	14861
537.855	11668
537.921	13719
537.988	12814
538.055	14316
538.121	14946
538.188	18612
538.254	37173
538.321	54697
538.388	25512
538.454	14998
538.521	12934
538.587	10838
538.654	11886
538.720	11596
538.787	13018
538.853	16287
538.920	23596
538.986	22448
539.053	15324
539.119	16329
539.185	15677
539.252	21511
539.318	29821
539.385	20136
539.451	18673
539.517	18779
539.583	27519
539.650	80975
539.716	118961
539.782	23672
539.849	14830
539.915	14982
539.981	18093
540.047	20367
540.114	17734
540.180	18493
540.246	19336
540.312	33948
540.378	63142
540.444	47399
540.510	80075
540.576	134092
540.643	26569
540.709	13712
540.775	15054
540.841	17620
540.907	34436
540.973	44915
541.039	34909
541.105	28605
541.171	16202
541.237	15464
541.303	16957
541.369	21686
541.435	34643
541.500	48674
541.566	23160
541.632	13983
541.698	12683
541.764	13637
541.830	13993
541.896	13732
541.961	14407
542.027	12969
542.093	14384
542.159	18002
542.224	23234
542.290	35602
542.356	57226
542.421	45918
542.487	21723
542.553	18842
542.618	20697
542.684	15176
542.750	17494
542.815	24311
542.881	60449
542.947	149568
543.012	55146
543.078	12607
543.143	13409
543.209	15198
543.274	17244
543.340	23312
543.405	64566
543.471	58559
543.536	15146
543.602	15768
543.667	14353
543.732	13915
543.798	14600
543.863	14829
543.928	12637
543.994	12329
544.059	12573
544.124	14140
544.190	12526
544.255	13473
544.320	15107
544.386	16709
544.451	26255
544.516	25807
544.581	35867
544.646	112367
544.712	94867
544.777	20800
544.842	23782
544.907	24352
544.972	18804
545.037	17461
545.102	20542
545.168	20170
545.233	21766
545.298	23893
545.363	30654
545.428	32896
545.493	70738
545.558	101356
545.623	30879
545.688	20207
545.753	19255
545.818	18354
545.883	19432
545.947	20971
546.012	25706
546.077	23501
546.142	21410
546.207	22592
546.272	31875
546.337	26504
546.401	21812
546.466	20018
546.531	19194
546.596	23365
546.661	20211
546.725	18586
546.790	17156
546.855	16249
546.919	16193
546.984	18771
547.049	21753
547.113	27716
547.178	20275
547.243	26254
547.307	28215
547.372	35767
547.436	35710
547.501	19588
547.565	24355
547.630	31971
547.695	32204
547.759	45043
547.823	28268
547.888	18646
547.952	19340
548.017	22398
548.081	36669
548.146	52479
548.210	31897
548.274	19201
548.339	17859
548.403	17560
548.468	17396
548.532	17650
548.596	19984
548.660	18968
548.725	24435
548.789	34375
548.853	31886
548.917	27576
548.982	52600
549.046	37160
549.110	20112
549.174	20421
549.238	17229
549.303	15923
549.367	20679
549.431	17811
549.495	18301
549.559	16676
549.623	19643
549.687	25601
549.751	32536
549.815	21420
549.879	21663
549.943	19142
550.007	21084
550.071	25093
550.135	31849
550.199	22218
550.263	22488
550.327	35978
550.391	46821
550.455	23381
550.519	21190
550.582	24424
550.646	35267
550.710	28466
550.774	22936
550.838	21595
550.901	22950
550.965	24514
551.029	26470
551.093	34401
551.156	62990
551.220	148260
551.284	94610
551.347	71087
551.411	203444
551.475	124095
551.538	24743
551.602	20313
551.666	19251
551.729	18166
551.793	20813
551.856	20746
551.920	21114
551.983	19438
552.047	19482
552.110	18755
552.174	19200
552.237	19479
552.301	18042
552.364	18377
552.428	18679
552.491	17350
552.554	20522
552.618	21073
552.681	23407
552.745	28470
552.808	44496
552.871	49622
552.934	30498
552.998	26370
553.061	26194
553.124	21918
553.187	21578
553.251	23874
553.314	26266
553.377	29004
553.440	60768
553.503	196084
553.567	165408
553.630	27748
553.693	20059
553.756	19754
553.819	18740
553.882	18929
553.945	18083
554.008	17303
554.071	16605
554.134	16607
554.197	16291
554.260	15314
554.323	19808
554.386	18671
554.449	17408
554.512	17609
554.575	17322
554.638	18853
554.701	17394
554.764	15919
554.827	16472
554.889	14883
554.952	14230
555.015	14461
555.078	15799
555.141	14797
555.203	15026
555.266	16335
555.329	17353
555.391	15950
555.454	18940
555.517	17211
555.580	15630
555.642	14466
555.705	16133
555.768	17303
555.830	16836
555.893	14768
555.955	15751
556.018	15924
556.080	15939
556.143	15690
556.206	16391
556.268	19480
556.330	20895
556.393	19334
556.455	24924
556.518	51476
556.580	33795
556.643	15527
556.705	15704
556.767	15453
556.830	18161
556.892	24695
556.955	37086
557.017	20443
557.079	17086
557.142	17852
557.204	28288
557.266	57234
557.328	30858
557.391	15187
557.453	15547
557.515	17578
557.577	25669
557.639	20178
557.701	15965
557.764	13660
557.826	17270
557.888	18514
557.950	15343
558.012	14870
558.074	20146
558.136	33825
558.198	45894
558.260	22794
558.322	18355
558.384	17657
558.446	21637
558.508	24721
558.570	34423
558.632	73677
558.694	74712
558.756	56874
558.818	164343
558.880	221311
558.942	53350
559.003	48702
559.065	21827
559.127	16816
559.189	18814
559.251	19466
559.312	29397
559.374	75069
559.436	148248
559.498	43357
559.559	17582
559.621	19299
559.683	25296
559.744	48948
559.806	104517
559.868	81509
559.929	26174
559.991	26197
560.052	36049
560.114	54858
560.176	33270
560.237	48998
560.299	48334
560.360	20044
560.422	19302
560.483	18973
560.545	18350
560.606	17394
560.667	18033
560.729	16372
560.790	18230
560.852	18045
560.913	18319
560.974	16478
561.036	16985
561.097	17701
561.158	18086
561.220	18072
561.281	19086
561.342	20619
561.403	27100
561.465	39759
561.526	98621
561.587	78718
561.648	23086
561.709	18545
561.771	19396
561.832	18618
561.893	17652
561.954	17299
562.015	17352
562.076	17407
562.137	18838
562.198	18043
562.259	19079
562.320	18067
562.381	24236
562.442	32573
562.503	21716
562.564	17472
562.625	16649
562.686	17668
562.747	20732
562.808	18388
562.869	21212
562.930	24785
562.991	23099
563.051	20829
563.112	19968
563.173	18705
563.234	18005
563.294	18614
563.355	18378
563.416	19910
563.477	19043
563.537	21454
563.598	22464
563.659	20554
563.720	20461
563.780	21555
563.841	22257
563.901	19687
563.962	19348
564.023	19081
564.083	20788
564.144	20830
564.204	21414
564.265	24846
564.325	41253
564.386	88748
564.446	44753
564.507	20847
564.567	19958
564.628	19977
564.688	19863
564.749	22350
564.809	30655
564.869	32435
564.930	20562
564.990	19278
565.050	18861
565.111	19498
565.171	20153
565.231	17857
565.292	19899
565.352	18587
565.412	21515
565.472	22089
565.532	22815
565.593	20275
565.653	21137
565.713	22591
565.773	24321
565.833	30953
565.893	32418
565.953	22649
566.013	23550
566.074	29123
566.134	45662
566.194	75981
566.254	60688
566.314	36720
566.374	28284
566.434	29329
566.494	28411
566.554	28259
566.614	31435
566.673	31257
566.733	34430
566.793	35773
566.853	37580
566.913	36509
566.973	39060
567.033	39535
567.092	38238
567.152	38037
567.212	40035
567.272	42283
567.331	47111
567.391	46496
567.451	53597
567.511	72176
567.570	57593
567.630	39119
567.690	39521
567.749	40596
567.809	44003
567.868	49720
567.928	57892
567.988	67503
568.047	77793
568.107	98883
568.166	137533
568.226	204686
568.285	247641
568.345	217602
568.404	187735
568.464	164462
568.523	153302
568.582	156838
568.642	178138
568.701	226034
568.761	326566
568.820	436650
568.879	414117
568.939	340939
568.998	255587
569.057	198578
569.116	159588
569.176	129890
569.235	107906
569.294	90921
569.353	79287
569.413	70214
569.472	62846
569.531	56190
569.590	51338
569.649	46148
569.708	42353
569.767	43026
569.827	43498
569.886	35942
569.945	33590
570.004	32157
570.063	31512
570.122	32195
570.181	34335
570.240	37364
570.299	34445
570.358	29698
570.417	24939
570.475	23136
570.534	25236
570.593	24214
570.652	26271
570.711	25421
570.770	26697
570.829	28742
570.887	26286
570.946	24139
571.005	20489
571.064	20881
571.122	24852
571.181	27034
571.240	20852
571.299	19574
571.357	24198
571.416	24090
571.475	33866
571.533	24391
571.592	22148
571.650	22428
571.709	17565
571.768	17934
571.826	16858
571.885	15358
571.943	16449
572.002	19062
572.060	19309
572.119	14766
572.177	15679
572.236	13169
572.294	13669
572.352	14368
572.411	14301
572.469	13202
572.528	14453
572.586	15841
572.644	20136
572.703	21045
572.761	16014
572.819	13550
572.877	13424
572.936	12883
572.994	14242
573.052	14055
573.110	15084
573.169	14290
573.227	13049
573.285	13329
573.343	14067
573.401	14664
573.459	13803
573.517	12245
573.576	13321
573.634	13652
573.692	15198
573.750	13240
573.808	15317
573.866	19485
573.924	28514
573.982	20489
574.040	15423
574.098	12989
574.155	12657
574.213	12470
574.271	13174
574.329	12406
574.387	12763
574.445	12037
574.503	11984
574.560	10900
574.618	11247
574.676	11132
574.734	10728
574.792	11205
574.849	12127
574.907	10934
574.965	11527
575.022	10144
575.080	11093
575.138	12618
575.195	12668
575.253	13755
575.311	14130
575.368	12002
575.426	11628
575.483	11118
575.541	12305
575.598	11430
575.656	14031
575.713	10712
575.771	11786
575.828	11226
575.886	11958
575.943	13557
576.001	14134
576.058	13563
576.115	17433
576.173	21175
576.230	23176
576.287	22064
576.345	16379
576.402	14178
576.459	15508
576.517	16213
576.574	19692
576.631	18349
576.688	14919
576.746	13927
576.803	14545
576.860	13613
576.917	14149
576.974	12470
577.031	13618
577.089	13614
577.146	15688
577.203	15110
577.260	16622
577.317	19706
577.374	21572
577.431	17764
577.488	15501
577.545	13054
577.602	14174
577.659	14919
577.716	15760
577.773	15797
577.830	14218
577.886	13226
577.943	14274
578.000	13264
578.057	16488
578.114	15083
578.171	16778
578.227	17142
578.284	17355
578.341	16810
578.398	17966
578.454	18881
578.511	22780
578.568	22623
578.625	17596
578.681	14605
578.738	13959
578.794	13453
578.851	13366
578.908	13851
578.964	14020
579.021	13478
579.077	14253
579.134	12561
579.190	12153
579.247	12843
579.303	11780
579.360	12554
579.416	13130
579.473	11417
579.529	12174
579.586	12609
579.642	13216
579.698	14169
579.755	15038
579.811	13510
579.867	13967
579.924	13592
579.980	15558
580.036	16530
580.093	19109
580.149	23343
580.205	23195
580.261	19877
580.317	19422
580.374	20206
580.430	21975
580.486	20291
580.542	17625
580.598	15780
580.619	15994
580.654	16379
580.692	15299
580.710	14780
580.765	14190
580.767	14183
580.823	14773
580.838	14753
580.879	14723
580.911	13829
580.935	13195
580.984	13973
580.991	14092
581.047	14801
581.057	14634
581.103	13927
581.130	14769
581.159	15668
581.203	16765
581.215	17073
581.270	16220
581.276	16213
581.326	16194
581.349	15645
581.382	14816
581.422	14893
581.438	14943
581.494	15374
581.494	15361
581.550	14579
581.567	14864
581.606	15523
581.640	14918
581.661	14575
581.713	15111
581.717	15149
581.773	14028
581.786	13924
581.829	13658
581.859	14126
581.885	14532
581.932	13942
581.940	13841
581.996	14943
582.004	14857
582.052	14311
582.077	14464
582.107	14703
582.150	15004
582.163	15084
582.219	14936
582.223	14961
582.274	15368
582.296	16299
582.330	17802
582.368	16245
582.386	15528
582.441	15213
582.441	15212
582.497	14900
582.514	15168
582.552	15987
582.587	16886
582.608	17246
582.659	15389
582.663	15271
582.719	15627
582.732	15676
582.774	15571
582.805	15557
582.830	15676
582.877	16137
582.885	16223
582.941	16532
582.950	16598
582.996	16728
583.023	16723
583.052	16877
583.095	18381
583.107	18856
583.162	21567
583.168	21606
583.218	21490
583.240	20600
583.273	19103
583.313	18464
583.328	18253
583.384	17435
583.385	17435
583.439	17624
583.458	17583
583.494	17468
583.531	16713
583.549	16335
583.603	16756
583.605	16772
583.660	17050
583.676	17291
583.715	17943
583.748	18574
583.770	19017
583.820	19060
583.825	19062
583.881	18755
583.893	18747
583.936	18470
583.965	18099
583.991	17903
584.038	18612
584.046	18775
584.101	19501
584.110	19473
584.156	19105
584.183	19241
584.211	19303
584.255	18697
584.266	18569
584.321	19036
584.328	19038
584.376	19291
584.400	19657
584.431	20078
584.472	19512
584.486	19273
584.541	19415
584.545	19458
584.596	20625
584.617	20856
584.651	21316
584.689	21700
584.706	21688
584.761	21948
584.762	21940
584.816	21913
584.834	22128
584.871	22653
584.906	22368
584.926	22139
584.978	23112
584.980	23165
585.035	22845
585.051	23243
585.090	24801
585.123	25922
585.145	26275
585.195	27131
585.200	27322
585.254	28878
585.267	30188
585.309	35560
585.340	36963
585.364	36793
585.412	33071
585.419	32365
585.473	30781
585.484	30645
585.528	31983
585.556	33528
585.583	36025
585.628	42352
585.637	44740
585.692	65735
585.700	67629
585.747	75641
585.772	71026
585.801	54279
585.845	37751
585.856	36312
585.910	33235
585.917	32892
585.965	32326
585.989	32280
586.019	32853
586.061	33675
586.074	33870
586.128	34647
586.133	34801
586.183	37561
586.205	38045
586.237	38559
586.277	38875
586.292	38989
586.346	39488
586.349	39526
586.401	40239
586.421	41187
586.455	43824
586.493	48480
586.509	52146
586.564	68572
586.565	69124
586.618	103890
586.637	101492
586.672	75149
586.709	59391
586.727	54429
586.781	47051
586.781	47089
586.835	46952
586.853	46652
586.889	47014
586.925	48123
586.944	48934
586.996	50853
586.998	50929
587.052	52146
587.068	52347
587.106	53856
587.140	55587
587.161	56547
587.212	59201
587.215	59425
587.269	62534
587.284	63302
587.323	65080
587.356	66678
587.377	67842
587.427	70528
587.431	70878
587.485	75580
587.499	76634
587.539	79491
587.571	82056
587.593	84740
587.643	90551
587.648	91140
587.702	97254
587.715	98901
587.755	105910
587.786	110573
587.810	114235
587.858	121585
587.864	122651
587.917	134924
587.930	137625
587.971	150323
588.001	159149
588.025	166341
588.073	180781
588.079	183071
588.133	204484
588.145	209246
588.187	230784
588.217	246693
588.241	262863
588.288	295204
588.295	300622
588.348	347684
588.360	357945
588.402	406100
588.431	442093
588.456	478449
588.503	553393
588.510	567424
588.564	686227
588.575	714027
588.617	856358
588.646	964659
588.671	1098030
588.718	1377871
588.725	1444194
588.778	1996579
588.789	2112659
588.832	2778180
588.861	3200404
588.886	3414824
588.932	3568312
588.939	3510708
588.993	3145555
589.004	3097130
589.047	3452361
589.075	3522430
589.100	3133179
589.147	2384524
589.154	2302784
589.207	1696056
589.218	1577329
589.261	1429702
589.290	1349891
589.314	1386631
589.361	1485705
589.368	1536990
589.421	1996584
589.433	2100053
589.475	2754305
589.504	3139542
589.528	3228946
589.576	3300440
589.582	3284348
589.635	3181431
589.647	3109568
589.689	2385445
589.718	1886101
589.742	1571196
589.790	974314
589.795	946444
589.849	693710
589.861	636582
589.902	545892
589.932	476565
589.955	433771
590.004	347701
590.009	343267
590.062	293604
590.075	281191
590.115	252518
590.146	230560
590.168	221450
590.218	200580
590.222	199502
590.275	182557
590.289	177808
590.328	166544
590.360	157094
590.381	152447
590.431	140954
590.435	140609
590.488	131044
590.503	128303
590.541	122769
590.574	117589
590.594	115291
590.645	108541
590.647	108502
590.700	102666
590.716	100685
590.753	97440
590.787	94467
590.806	93088
590.859	88282
590.859	88400
590.912	85435
590.930	84283
590.965	82327
591.001	80290
591.018	79679
591.071	76919
591.072	76735
591.124	75224
591.143	74447
591.177	73303
591.214	71756
591.230	71628
591.283	70841
591.285	70656
591.336	70974
591.356	70869
591.389	69771
591.427	68048
591.442	67209
591.495	63585
591.498	63174
591.547	62430
591.569	61932
591.600	61231
591.640	59977
591.653	60186
591.706	60475
591.711	60385
591.759	61234
591.782	61556
591.811	63981
591.853	66672
591.864	65432
591.917	58471
591.924	57338
591.969	56074
591.995	55157
592.022	55601
592.066	56100
592.075	56723
592.127	59771
592.137	60252
592.180	67280
592.208	71198
592.233	65835
592.279	55444
592.285	55245
592.338	52458
592.350	51691
592.390	50609
592.421	49563
592.443	49425
592.491	48740
592.495	48780
592.548	47643
592.562	47215
592.600	47414
592.633	47366
592.653	47467
592.704	47163
592.705	47417
592.775	46484
592.846	45951
592.916	46904
592.987	47450
593.058	46616
593.128	43529
593.199	44196
593.270	41846
593.341	41899
593.411	41216
593.482	41016
593.553	40296
593.623	40365
593.694	40717
593.764	44041
593.835	40852
593.906	40037
593.976	38567
594.047	41945
594.117	46585
594.188	50641
594.258	38392
594.329	36847
594.399	36127
594.470	35315
594.540	34876
594.611	34827
594.681	35001
594.751	36836
594.822	39564
594.892	40278
594.963	40090
595.033	38644
595.103	38119
595.174	42787
595.244	57247
595.314	80529
595.384	44819
595.455	35748
595.525	37202
595.595	36157
595.665	36024
595.736	35806
595.806	36043
595.876	34876
595.946	35312
596.016	33679
596.087	34921
596.157	34420
596.227	34040
596.297	36154
596.367	36399
596.437	40481
596.507	51822
596.577	73508
596.647	41397
596.717	34471
596.787	34283
596.857	33854
596.927	34462
596.997	34263
597.067	34853
597.137	38516
597.207	38398
597.277	35126
597.347	35666
597.417	33812
597.487	33984
597.557	36030
597.626	36937
597.696	38872
597.766	47577
597.836	65013
597.906	44557
597.975	32641
598.045	32462
598.115	32507
598.185	33102
598.254	34183
598.324	35841
598.394	35383
598.464	35165
598.533	34264
598.603	31501
598.672	34076
598.742	33411
598.812	33235
598.881	32742
598.951	31816
599.020	30882
599.090	30948
599.159	30425
599.229	31804
599.299	28985
599.368	30206
599.437	30091
599.507	30710
599.576	33413
599.646	32638
599.715	34809
599.785	31485
599.854	34370
599.924	37909
599.993	35894
600.062	30797
600.132	31150
600.201	31101
600.270	32921
600.340	32664
600.409	30006
600.478	31369
600.547	29725
600.617	31560
600.686	31235
600.755	30604
600.824	30139
600.894	30263
600.963	28501
601.032	26887
601.101	27821
601.170	28683
601.239	28575
601.308	29274
601.378	28088
601.447	26724
601.516	26425
601.585	26621
601.654	28581
601.723	28847
601.792	27900
601.861	29768
601.930	33421
601.999	32530
602.068	28101
602.137	28592
602.206	27568
602.275	28251
602.343	32259
602.412	33310
602.481	28011
602.550	26516
602.619	26422
602.688	28104
602.756	27452
602.825	25751
602.894	25387
602.963	26609
603.032	26859
603.100	26633
603.169	25543
603.238	27242
603.307	25911
603.375	25775
603.444	26426
603.513	25506
603.581	26009
603.650	26501
603.719	25744
603.787	25456
603.856	26239
603.924	26076
603.993	26750
604.061	26431
604.130	25892
604.198	27315
604.267	26902
604.335	25851
604.404	26739
604.472	26465
604.541	26314
604.609	26734
604.678	26318
604.746	26711
604.815	26504
604.883	27854
604.951	26396
605.020	26365
605.088	27878
605.156	27075
605.225	27772
605.293	27077
605.361	26970
605.429	26894
605.498	27812
605.566	28754
605.634	28942
605.702	27381
605.771	29083
605.839	28741
605.907	28746
605.975	28359
606.043	28751
606.111	27725
606.180	28585
606.248	32179
606.316	37344
606.384	30344
606.452	36553
606.520	36833
606.588	31880
606.656	26043
606.724	26093
606.792	25475
606.860	23679
606.928	22536
606.996	22543
607.064	22098
607.132	22280
607.200	24211
607.267	22717
607.335	24073
607.403	24403
607.471	24642
607.539	23522
607.607	24503
607.674	22388
607.742	24056
607.810	25377
607.878	24471
607.946	22364
608.013	23387
608.081	23798
608.149	24178
608.216	23136
608.284	24347
608.352	23484
608.419	25863
608.487	38130
608.555	32421
608.622	22970
608.690	23448
608.757	24355
608.825	26541
608.893	26724
608.960	28359
609.028	34777
609.095	43014
609.163	30044
609.230	24388
609.298	24648
609.365	22631
609.432	22568
609.500	23232
609.567	25117
609.635	26662
609.702	27937
609.769	29203
609.837	30752
609.904	27639
609.971	24487
610.039	28359
610.106	34403
610.173	55526
610.241	116876
610.308	143409
610.375	100446
610.442	36646
610.509	25734
610.577	24770
610.644	23727
610.711	22305
610.778	22572
610.845	24201
610.912	24424
610.980	27846
611.047	36736
611.114	33048
611.181	24303
611.248	23364
611.315	23584
611.382	23754
611.449	23288
611.516	24157
611.583	24012
611.650	25271
611.717	25711
611.784	25254
611.851	28154
611.918	31080
611.984	34849
612.051	47416
612.118	83875
612.185	197919
612.252	170904
612.319	39472
612.386	29697
612.452	29286
612.519	31263
612.586	44344
612.653	38047
612.719	26954
612.786	26112
612.853	24295
612.919	24122
612.986	24507
613.053	22594
613.120	22739
613.186	21934
613.253	24196
613.319	22369
613.386	24867
613.453	23493
613.519	26318
613.586	29403
613.652	42222
613.719	33024
613.785	33163
613.852	25908
613.918	27466
613.985	32401
614.051	47143
614.118	100435
614.184	127441
614.250	34000
614.317	25084
614.383	22376
614.449	23191
614.516	22371
614.582	23997
614.648	23521
614.715	22198
614.781	22508
614.847	24765
614.914	25693
614.980	26079
615.046	24984
615.112	25209
615.179	26354
615.245	31416
615.311	41286
615.377	73494
615.443	96328
615.509	47779
615.575	31637
615.642	29734
615.708	31455
615.774	35259
615.840	42675
615.906	56159
615.972	85077
616.038	169293
616.104	238560
616.170	299477
616.236	317437
616.302	71096
616.368	44837
616.434	35935
616.500	33771
616.565	34258
616.631	37531
616.697	33896
616.763	33761
616.829	41154
616.895	62846
616.961	67993
617.026	38459
617.092	27292
617.158	26752
617.224	26412
617.289	25933
617.355	25916
617.421	28232
617.487	28078
617.552	25729
617.618	23442
617.684	23982
617.749	26322
617.815	22856
617.880	22500
617.946	22581
618.012	23709
618.077	23188
618.143	22633
618.208	24301
618.274	24831
618.339	26618
618.405	24992
618.470	24129
618.536	25026
618.601	28839
618.667	28727
618.732	24905
618.798	24890
618.863	24940
618.928	24471
618.994	25575
619.059	28644
619.124	36450
619.190	31999
619.255	25754
619.320	26308
619.386	25665
619.451	24349
619.516	23414
619.581	24770
619.647	23946
619.712	23765
619.777	24413
619.842	24115
619.907	24368
619.972	24512
620.038	25447
620.103	24400
620.168	22625
620.233	23181
620.298	22833
620.363	23090
620.428	22885
620.493	24124
620.558	23201
620.623	23288
620.688	22732
620.753	23338
620.818	22818
620.883	23551
620.948	23202
621.013	23217
621.078	24181
621.143	24923
621.207	28023
621.272	27275
621.337	28775
621.402	31335
621.467	39792
621.532	46498
621.596	33649
621.661	30650
621.726	27207
621.791	28151
621.855	28884
621.920	32133
621.985	33527
622.049	39261
622.114	38194
622.179	32197
622.243	33186
622.308	31561
622.373	31784
622.437	31203
622.502	30086
622.566	29693
622.631	29798
622.695	31102
622.760	30846
622.824	30402
622.889	30549
622.953	31359
623.018	40718
623.082	44476
623.147	30451
623.211	29970
623.276	30238
623.340	28654
623.404	27292
623.469	27963
623.533	27349
623.597	27694
623.662	27445
623.726	27099
623.790	27355
623.854	26759
623.919	27463
623.983	26991
624.047	27785
624.111	27002
624.176	26629
624.240	28822
624.304	31869
624.368	28293
624.432	27548
624.496	28335
624.560	28004
624.625	31564
624.689	27742
624.753	26855
624.817	26276
624.881	26073
624.945	25715
625.009	25158
625.073	26436
625.137	27338
625.201	30997
625.265	34528
625.329	26740
625.393	27526
625.456	29290
625.520	30761
625.584	35308
625.648	45349
625.712	65089
625.776	147986
625.839	199364
625.903	96630
625.967	36939
626.031	55338
626.095	105041
626.158	46357
626.222	24202
626.286	22477
626.349	22152
626.413	22246
626.477	23959
626.540	22159
626.604	21587
626.668	21770
626.731	20826
626.795	22787
626.858	23652
626.922	21611
626.986	21068
627.049	20885
627.113	21134
627.176	20624
627.240	20351
627.303	20871
627.366	21047
627.430	21398
627.493	21141
627.557	22398
627.620	22494
627.684	21282
627.747	21723
627.810	20460
627.874	20030
627.937	19119
628.000	21649
628.064	21511
628.127	18899
628.190	19664
628.253	19836
628.317	19501
628.380	19035
628.443	19219
628.506	19975
628.569	18540
628.632	18222
628.696	17941
628.759	18179
628.822	17883
628.885	16694
628.948	18303
629.011	18044
629.074	18277
629.137	17901
629.200	17674
629.263	19570
629.326	16984
629.389	18101
629.452	16617
629.515	19370
629.578	18167
629.641	19335
629.704	18560
629.767	19379
629.830	17013
629.892	16664
629.955	16213
630.018	18457
630.081	18174
630.144	22935
630.207	18789
630.269	19951
630.332	21006
630.395	20613
630.458	15997
630.520	15922
630.583	17290
630.646	15009
630.708	15383
630.771	15445
630.834	16283
630.896	15320
630.959	15300
631.021	15134
631.084	15994
631.146	16932
631.209	21256
631.272	17004
631.334	15538
631.397	14440
631.459	14360
631.522	14946
631.584	15686
631.646	15997
631.709	15647
631.771	19952
631.834	18914
631.896	14676
631.958	13615
632.021	15024
632.083	13241
632.145	15745
632.208	14192
632.270	15469
632.332	13095
632.395	12717
632.457	15174
632.519	13632
632.581	14842
632.643	13560
632.706	13736
632.768	13796
632.830	13776
632.892	13850
632.954	14514
633.016	14597
633.078	13251
633.141	12746
633.203	13807
633.265	13889
633.327	13849
633.389	12842
633.451	15537
633.513	17988
633.575	18396
633.637	17792
633.698	16700
633.760	13645
633.822	13459
633.884	13607
633.946	13151
634.008	12744
634.070	13954
634.132	15392
634.193	15426
634.255	13926
634.317	14180
634.379	13869
634.441	13189
634.502	13246
634.564	14272
634.626	13638
634.687	15251
634.749	14137
634.811	13130
634.873	11251
634.934	12680
634.996	11651
635.057	12902
635.119	12385
635.181	12361
635.242	12419
635.304	10476
635.365	12803
635.427	13647
635.488	11771
635.550	11812
635.611	11722
635.673	10652
635.734	13823
635.796	12935
635.857	13710
635.918	12463
635.980	13095
636.041	13481
636.102	13139
636.164	12106
636.225	13518
636.286	12379
636.348	13089
636.409	12141
636.470	11649
636.531	12832
636.593	13977
636.654	15693
636.715	10828
636.776	10470
636.838	10279
636.899	11485
636.960	11251
637.021	10501
637.082	11085
637.143	12133
637.204	9132
637.265	10116
637.326	11068
637.387	10643
637.448	9456
637.509	9701
637.570	9229
637.631	9940
637.692	10501
637.753	9757
637.814	9622
637.875	9495
637.936	11012
637.997	10064
638.058	11064
638.119	11589
638.179	9976
638.240	10311
638.301	10093
638.362	10030
638.423	10488
638.483	11402
638.544	8809
638.605	10345
638.666	9091
638.726	10709
638.787	10512
638.848	8941
638.908	9350
638.969	10106
639.030	10144
639.090	9684
639.151	9558
639.211	10264
639.272	12167
639.332	18892
639.393	15187
639.453	10747
639.514	10486
639.574	9973
639.635	8642
639.695	10042
639.756	9545
639.816	10897
639.877	11095
639.937	16185
639.997	23777
640.058	12180
640.118	9023
640.178	8742
640.239	8123
640.299	8846
640.359	8915
640.420	8848
640.480	8636
640.540	9044
640.600	9863
640.661	10212
640.721	8175
640.781	13058
640.841	11034
640.901	10296
640.961	9793
641.021	9780
641.082	11252
641.142	14923
641.202	11571
641.262	8410
641.322	8536
641.382	8573
641.442	8730
641.502	9175
641.562	9617
641.622	7965
641.682	9489
641.742	8211
641.802	9360
641.861	10025
641.921	9929
641.981	11118
642.041	11497
642.101	12315
642.161	10776
642.221	8073
642.280	7719
642.340	7676
642.400	8014
642.460	9056
642.519	8249
642.579	9272
642.639	8613
642.698	7514
642.758	9222
642.818	8011
642.877	7682
642.937	9373
642.997	9340
643.056	12926
643.116	10077
643.175	10312
643.235	8052
643.294	8716
643.354	9508
643.414	9114
643.473	10732
643.532	11586
643.592	13408
643.651	17588
643.711	25321
643.770	39685
643.830	77399
643.889	209588
643.948	92553
644.008	14759
644.067	10820
644.126	9516
644.186	8582
644.245	9465
644.304	7183
644.363	9212
644.423	7066
644.482	8166
644.541	8178
644.600	6675
644.659	8860
644.719	8514
644.778	10914
644.837	12270
644.896	18452
644.955	36014
645.014	25031
645.073	11527
645.132	9377
645.191	8877
645.250	7446
645.309	9860
645.368	7796
645.427	9315
645.486	8533
645.545	12439
645.604	8509
645.663	7248
645.722	8885
645.781	8297
645.840	8530
645.898	9779
645.957	12058
646.016	14588
646.075	20841
646.134	33454
646.192	67896
646.251	152222
646.310	41189
646.369	10111
646.427	8861
646.486	7276
646.545	7333
646.603	8341
646.662	7765
646.721	7175
646.779	6573
646.838	6035
646.896	7878
646.955	8893
647.014	9700
647.072	10792
647.131	21748
647.189	18700
647.248	7245
647.306	7766
647.365	7284
647.423	6030
647.481	7888
647.540	4875
647.598	7241
647.657	7169
647.715	6595
647.773	6403
647.832	7048
647.890	6900
647.948	7263
648.007	7912
648.065	6246
648.123	6692
648.181	7759
648.240	9308
648.298	10031
648.356	7582
648.414	7893
648.472	8954
648.531	7183
648.589	7602
648.647	6650
648.705	7461
648.763	7328
648.821	7467
648.879	7447
648.937	7625
648.995	8368
649.053	9014
649.111	10153
649.169	13201
649.227	17580
649.285	25272
649.343	62592
649.401	60951
649.459	27391
649.516	28392
649.574	20015
649.632	38365
649.690	66693
649.748	25665
649.806	15315
649.863	26703
649.921	22366
649.979	18776
650.037	7968
650.094	6145
650.152	7112
650.210	6183
650.268	7265
650.325	7569
650.383	7250
650.440	6305
650.498	6324
650.556	6505
650.613	6247
650.671	6387
650.728	6585
650.786	7032
650.843	6368
650.901	5816
650.958	5731
651.016	5608
651.073	5998
651.131	6166
651.188	4913
651.246	7223
651.303	5725
651.360	5707
651.418	5668
651.475	6951
651.532	4738
651.590	6939
651.647	5451
651.704	6568
651.762	6101
651.819	6625
651.876	5544
651.933	6275
651.990	6398
652.048	5195
652.105	5657
652.162	6265
652.219	5803
652.276	5714
652.333	5722
652.390	5497
652.448	5589
652.505	5323
652.562	6617
652.619	6388
652.676	10051
652.733	12844
652.790	6089
652.847	4935
652.904	5024
652.961	5156
653.017	5322
653.074	5752
653.131	5672
653.188	4654
653.245	5801
653.302	5791
653.359	4962
653.415	5183
653.472	4844
653.529	5457
653.586	5029
653.642	5010
653.699	4957
653.756	5205
653.813	5002
653.869	5707
653.926	5330
653.983	4955
654.039	5835
654.096	5064
654.152	6992
654.209	5381
654.266	5999
654.322	4882
654.379	7010
654.435	7858
654.492	7689
654.548	9345
654.605	15154
654.661	13126
654.717	5535
654.774	6327
654.830	6212
654.887	6144
654.943	6572
655.000	6486
655.056	6852
655.112	6828
655.168	5191
655.225	6885
655.281	7604
655.337	9502
655.394	16837
655.450	16210
655.506	11313
655.562	14426
655.618	18727
655.675	6621
655.731	5827
655.787	5927
655.843	6432
655.899	5755
655.955	7006
656.011	5985
656.067	6028
656.123	7115
656.179	7545
656.235	8486
656.291	6804
656.347	8626
656.403	8279
656.459	7173
656.515	7904
656.571	8431
656.627	6646
656.683	6394
656.739	6501
656.795	6123
656.850	6267
656.906	6952
656.962	7239
657.018	5268
657.074	5401
657.129	4994
657.185	5673
657.241	6335
657.297	5971
657.352	5961
657.408	5752
657.464	7136
657.519	6051
657.575	4295
657.630	5027
657.686	5877
657.742	4612
657.797	5650
657.853	5535
657.908	7198
657.964	4962
658.019	6009
658.075	5975
658.130	6053
658.186	5048
658.241	5663
658.297	4499
658.352	5407
658.407	5707
658.463	4730
658.518	5441
658.573	5952
658.629	4909
658.684	4365
658.739	5346
658.795	4519
658.850	5307
658.905	5358
658.960	5945
659.016	4915
659.071	5088
659.126	6372
659.181	7092
659.236	8542
659.291	10255
659.346	8643
659.401	7375
659.457	8556
659.512	9850
659.567	9065
659.622	5664
659.677	5721
659.732	5282
659.787	6373
659.842	6923
659.897	9694
659.952	7258
660.007	4896
660.061	5246
660.116	5846
660.171	5134
660.226	5766
660.281	5936
660.336	5105
660.391	5805
660.445	5102
660.500	5693
660.555	5087
660.610	4485
660.664	6355
660.719	4809
660.774	5556
660.828	5798
660.883	5269
660.938	5631
660.992	5113
661.047	5530
661.101	5300
661.156	4829
661.211	4833
661.265	4814
661.320	5210
661.374	4930
661.429	4776
661.483	5898
661.538	5109
661.592	4979
661.647	5910
661.701	6050
661.755	6144
661.810	5487
661.864	5374
661.919	4064
661.973	5583
662.027	5291
662.081	5318
662.136	5571
662.190	5499
662.244	6455
662.299	5991
662.353	6042
662.407	5953
662.461	5680
662.515	5835
662.569	5649
662.624	7046
662.678	6036
662.732	6311
662.786	5255
662.840	6390
662.894	6023
662.948	5095
663.002	5339
663.056	4552
663.110	4940
663.164	5604
663.218	5245
663.272	5510
663.326	5882
663.380	5298
663.434	6503
663.488	6118
663.542	5863
663.595	5720
663.649	5521
663.703	5413
663.757	6068
663.811	5734
663.864	5525
663.918	6014
663.972	5273
664.026	5566
664.079	5456
664.133	5922
664.187	4469
664.240	5109
664.294	5355
664.348	5495
664.401	5137
664.455	5670
664.508	5494
664.562	6457
664.615	5175
664.669	4880
664.722	5841
664.776	4805
664.829	5613
664.883	5842
664.936	5596
664.990	6651
665.043	6032
665.097	6094
665.150	8625
665.203	6547
665.257	7100
665.310	6979
665.363	6705
665.417	6621
665.470	6471
665.523	6734
665.576	6718
665.630	6091
665.683	5617
665.736	6112
665.789	6675
665.842	5696
665.895	6092
665.949	6842
666.002	5505
666.055	6833
666.108	6907
666.161	7102
666.214	6716
666.267	7406
666.320	7296
666.373	7641
666.426	6286
666.479	5924
666.532	6864
666.585	9109
666.638	9298
666.691	8489
666.744	8931
666.796	9116
666.849	7765
666.902	8378
666.955	6454
667.008	6059
667.060	6156
667.113	5625
667.166	5949
667.219	6555
667.271	5635
667.324	5669
667.377	6549
667.430	6983
667.482	6830
667.535	8227
667.587	7076
667.640	7218
667.693	7801
667.745	10179
667.798	11954
667.850	8437
667.903	6226
667.955	6812
668.008	6360
668.060	7353
668.113	7896
668.165	8332
668.218	7880
668.270	6205
668.322	7318
668.375	7005
668.427	6282
668.479	6354
668.532	7770
668.584	7392
668.636	8023
668.689	7520
668.741	6897
668.793	7388
668.845	7078
668.898	7677
668.950	6448
669.002	7690
669.054	6819
669.106	7276
669.158	6599
669.211	8065
669.263	6984
669.315	8172
669.367	10221
669.419	9481
669.471	9276
669.523	10501
669.575	14335
669.627	14042
669.679	10355
669.731	9898
669.783	9047
669.835	10338
669.886	10797
669.938	8967
669.990	7936
670.042	8186
670.094	8910
670.146	9560
670.197	11168
670.249	13718
670.301	16829
670.353	22702
670.404	31082
670.456	45575
670.508	64550
670.560	95609
670.611	145318
670.663	228866
670.715	444494
670.766	996282
670.818	578550
670.869	92799
670.921	31947
670.972	23733
671.024	17561
671.075	13120
671.127	12028
671.178	10199
671.230	9919
671.281	9354
671.333	8306
671.384	8582
671.436	9761
671.487	10142
671.538	10528
671.590	9176
671.641	11134
671.692	12281
671.744	15559
671.795	16642
671.846	10517
671.897	8448
671.949	7820
672.000	8535
672.051	7833
672.102	8155
672.153	8044
672.204	7797
672.256	7387
672.307	7210
672.358	7603
672.409	8024
672.460	7675
672.511	7105
672.562	7437
672.613	7614
672.664	6846
672.715	7997
672.766	7756
672.817	7903
672.868	6883
672.919	6568
672.970	6934
673.021	7451
673.071	6054
673.122	7308
673.173	7409
673.224	6983
673.275	7301
673.326	6672
673.376	6668
673.427	6252
673.478	6698
673.528	7141
673.579	6763
673.630	6910
673.680	7603
673.731	6161
673.782	5017
673.832	6946
673.883	7278
673.934	6491
673.984	6802
674.035	6830
674.085	7257
674.136	8098
674.186	6854
674.237	8542
674.287	12588
674.338	11207
674.388	6883
674.438	6235
674.489	6793
674.539	7465
674.589	6042
674.640	7373
674.690	6489
674.740	7198
674.791	7494
674.841	7660
674.891	7565
674.942	7109
674.992	6793
675.042	7310
675.092	6586
675.142	6082
675.193	6294
675.243	6078
675.293	6326
675.343	7125
675.393	6546
675.443	7101
675.493	6595
675.543	5487
675.593	6628
675.643	7306
675.693	6157
675.743	6426
675.793	5830
675.843	5558
675.893	5635
675.943	6401
675.993	6355
676.043	5853
676.093	6385
676.142	5923
676.192	6289
676.242	5991
676.292	5170
676.341	6538
676.391	7284
676.441	5793
676.491	5846
676.540	5381
676.590	5770
676.640	6003
676.689	5725
676.739	4925
676.789	4988
676.838	4880
676.888	5058
676.937	5357
676.987	5013
677.037	5651
677.086	4451
677.136	5036
677.185	5058
677.235	5928
677.284	5032
677.333	5488
677.383	4531
677.432	5083
677.482	4241
677.531	5653
677.580	4722
677.630	5509
677.679	4863
677.728	5419
677.778	5950
677.827	4611
677.876	4439
677.925	5221
677.975	4445
678.024	5099
678.073	5065
678.122	5649
678.171	5728
678.220	5559
678.269	6141
678.319	5999
678.368	6556
678.417	5894
678.466	6131
678.515	6753
678.564	6013
678.613	6088
678.662	4847
678.711	5838
678.760	5532
678.809	5505
678.857	5439
678.906	5538
678.955	5760
679.004	6127
679.053	5658
679.102	6150
679.151	5298
679.199	5288
679.248	5245
679.297	5548
679.346	5930
679.394	5457
679.443	5789
679.492	5365
679.540	4696
679.589	5919
679.638	5211
679.686	5379
679.735	4550
679.784	5333
679.832	5212
679.881	5022
679.929	5317
679.978	5042
680.026	5109
680.075	5794
680.123	5382
680.172	5314
680.220	4855
680.268	4794
680.317	4789
680.365	5548
680.414	4664
680.462	5254
680.510	5077
680.559	4569
680.607	3689
680.655	4894
680.703	4506
680.752	4933
680.800	4287
680.848	4274
680.896	4019
680.945	4598
680.993	4842
681.041	4544
681.089	4561
681.137	4517
681.185	4622
681.233	4581
681.258	4461
681.281	4334
681.329	5261
681.377	3937
681.380	4001
681.425	4951
681.473	4621
681.502	5564
681.521	6195
681.569	5476
681.617	5095
681.624	5156
681.665	5437
681.713	4792
681.745	5381
681.761	5650
681.809	4241
681.857	5038
681.867	4987
681.904	4743
681.952	3949
681.989	4402
682.000	4525
682.048	5380
682.096	4594
682.111	4907
682.143	5503
682.191	4324
682.233	5186
682.239	5305
682.286	5245
682.334	4046
682.354	4506
682.382	5101
682.430	4491
682.476	4621
682.477	4612
682.525	5024
682.572	4549
682.598	4448
682.620	4345
682.667	4810
682.715	4808
682.720	4931
682.763	5909
682.810	4505
682.841	4647
682.857	4716
682.905	4242
682.952	4892
682.963	4911
683.000	4930
683.047	5802
683.085	5004
683.095	4758
683.142	5496
683.190	4839
683.206	4789
683.237	4695
683.284	5303
683.328	5120
683.332	5095
683.379	5176
683.426	4850
683.449	4855
683.473	4808
683.521	4718
683.568	4784
683.571	4862
683.615	5813
683.662	4951
683.693	4788
683.709	4677
683.757	5292
683.804	5437
683.814	5352
683.851	5020
683.898	5989
683.936	5219
683.945	5026
683.992	5221
684.039	5371
684.057	5439
684.086	5498
684.133	5535
684.179	5959
684.180	5963
684.227	5909
684.274	5688
684.300	5732
684.321	5735
684.368	5241
684.415	5962
684.422	5860
684.462	5193
684.509	4969
684.543	5487
684.556	5684
684.603	5154
684.649	5305
684.665	5435
684.696	5688
684.743	6105
684.786	5521
684.790	5463
684.837	5820
684.883	5702
684.908	6118
684.930	6565
684.977	7030
685.023	6469
685.029	6456
685.070	5947
685.117	6547
685.150	5867
685.164	5712
685.210	6972
685.257	7443
685.272	7550
685.303	7567
685.350	6163
685.393	6535
685.396	6563
685.443	7014
685.490	6796
685.514	6777
685.536	6778
685.583	7342
685.629	6627
685.636	6684
685.675	6852
685.722	6497
685.757	6511
685.768	6550
685.815	7155
685.861	7056
685.878	7048
685.908	6985
685.954	7070
686.000	7300
686.000	7308
686.047	7295
686.093	8879
686.121	9837
686.139	10168
686.185	8467
686.232	7783
686.242	7718
686.278	7367
686.324	7396
686.363	6601
686.370	6520
686.416	6560
686.463	6798
686.484	6988
686.509	7197
686.555	6641
686.601	6536
686.606	6608
686.647	7181
686.693	6999
686.727	6935
686.739	6912
686.785	7092
686.831	7233
686.848	7223
686.877	7125
686.923	6666
686.969	6477
686.969	6476
687.015	6112
687.061	6806
687.090	7062
687.107	7159
687.153	7219
687.199	7007
687.211	6928
687.245	6659
687.291	6833
687.332	6762
687.336	6792
687.382	7487
687.428	8153
687.453	7899
687.474	7357
687.520	7139
687.565	6624
687.574	6540
687.611	6596
687.657	6420
687.695	7430
687.702	7642
687.748	7664
687.794	7531
687.816	7583
687.839	7440
687.885	7295
687.931	6787
687.937	6795
687.976	6786
688.022	6574
688.058	6836
688.067	6975
688.113	6398
688.158	6724
688.179	6871
688.204	6984
688.249	7414
688.295	7021
688.300	7125
688.340	8050
688.386	7979
688.421	7896
688.431	7800
688.477	7450
688.522	7709
688.542	7725
688.567	7794
688.613	7309
688.658	6874
688.663	6905
688.703	7198
688.749	7280
688.784	7263
688.794	7345
688.839	7391
688.884	7751
688.905	7942
688.930	7836
688.975	7441
689.020	7000
689.026	6986
689.065	7317
689.110	6803
689.146	7099
689.155	7135
689.201	7148
689.246	7333
689.267	7269
689.291	7310
689.336	7244
689.381	7260
689.388	7287
689.426	7383
689.471	7606
689.509	7665
689.516	7656
689.561	7071
689.606	6934
689.630	6946
689.651	7150
689.696	6982
689.741	7459
689.750	7510
689.785	7564
689.830	7875
689.871	7448
689.875	7391
689.920	7491
689.965	7356
689.992	7081
690.010	7049
690.054	7195
690.099	7450
690.112	7443
690.144	7413
690.189	7389
690.233	7240
690.233	7247
690.278	7528
690.323	7409
690.354	7269
690.367	7228
690.412	7252
690.457	7664
690.474	7761
690.501	7929
690.546	7467
690.590	7337
690.595	7354
690.635	7736
690.680	8111
690.716	8161
690.724	8211
690.769	8652
690.813	9110
690.836	9397
690.857	9837
690.902	10257
690.946	11281
690.957	11517
690.991	14185
691.035	18238
691.077	23080
691.080	23195
691.124	22487
691.168	20564
691.198	19754
691.213	18527
691.257	15520
691.301	12488
691.318	11214
691.346	10415
691.390	9766
691.434	8420
691.439	8308
691.478	8246
691.522	8364
691.559	8074
691.567	8063
691.611	8716
691.655	8113
691.680	8192
691.699	8205
691.743	8288
691.787	8345
691.800	8315
691.831	8521
691.875	8540
691.919	8897
691.921	8891
691.964	8985
692.008	9141
692.041	9231
692.052	9245
692.096	9409
692.139	9279
692.162	9168
692.183	8985
692.227	9022
692.271	9122
692.282	8924
692.315	8701
692.359	9098
692.402	9392
692.403	9405
692.447	9177
692.490	9053
692.523	9020
692.534	9126
692.578	9083
692.622	9290
692.643	9492
692.666	9521
692.709	9231
692.753	9129
692.763	9017
692.797	8820
692.840	8919
692.884	9017
692.884	9034
692.928	8885
692.971	9232
693.004	9385
693.015	9360
693.059	9599
693.102	8920
693.124	8963
693.146	9110
693.189	8999
693.233	8969
693.245	9031
693.276	9578
693.320	9901
693.363	10386
693.365	10388
693.407	10667
693.450	10726
693.485	10913
693.493	11100
693.537	12073
693.580	13075
693.605	13471
693.624	14229
693.667	16282
693.710	18546
693.725	19194
693.753	24036
693.797	32448
693.840	42115
693.845	42976
693.883	41744
693.926	38312
693.966	35541
693.970	34719
694.013	26587
694.056	18500
694.086	13118
694.099	12926
694.142	11967
694.185	11817
694.206	11349
694.229	11002
694.272	10761
694.315	9987
694.326	9897
694.358	10175
694.401	10240
694.444	10469
694.446	10459
694.487	10398
694.530	10262
694.566	10189
694.573	10178
694.616	9746
694.659	9499
694.686	9296
694.702	9107
694.745	8666
694.787	8182
694.806	7940
694.830	8176
694.873	8484
694.916	8782
694.926	8868
694.959	8706
695.002	8433
695.044	8115
695.046	8087
695.087	8551
695.130	9004
695.166	9352
695.172	9375
695.215	9385
695.258	9432
695.286	9384
695.301	9391
695.343	9580
695.386	9469
695.406	9466
695.428	9348
695.471	9124
695.514	8772
695.526	8653
695.556	8663
695.599	8929
695.641	8918
695.646	8910
695.684	9094
695.726	8999
695.766	9232
695.769	9247
695.811	9087
695.854	8992
695.886	8779
695.896	8773
695.938	8575
695.981	8481
696.005	8376
696.023	8379
696.065	8589
696.108	8609
696.125	8616
696.150	8594
696.192	8584
696.235	8425
696.245	8364
696.277	8368
696.319	8525
696.361	8422
696.365	8419
696.404	8669
696.446	8785
696.485	8789
696.488	8819
696.530	9013
696.572	9266
696.604	9346
696.614	9266
696.656	8893
696.698	8518
696.724	8269
696.740	8335
696.783	8425
696.825	8572
696.844	8631
696.867	8709
696.909	8723
696.951	8695
696.964	8712
696.992	8623
697.034	8434
697.076	8241
697.083	8170
697.118	8512
697.160	9042
697.202	9499
697.203	9489
697.244	8967
697.286	8428
697.323	8012
697.327	8052
697.369	8132
697.411	8151
697.442	8223
697.453	8335
697.494	8755
697.536	9151
697.562	9360
697.578	9327
697.620	9186
697.661	9048
697.682	8943
697.703	9117
697.744	9417
697.786	9822
697.801	9918
697.828	9980
697.869	9975
697.911	10086
697.921	10069
697.952	9747
697.994	9352
698.035	8924
698.040	8853
698.077	8958
698.118	9000
698.160	9081
698.160	9058
698.201	9076
698.243	9020
698.279	8984
698.284	9039
698.325	9354
698.367	9643
698.399	9830
698.408	9775
698.449	9394
698.491	9090
698.518	8823
698.532	8830
698.573	8798
698.614	8768
698.638	8738
698.656	8890
698.697	9176
698.738	9473
698.757	9588
698.779	9531
698.820	9382
698.862	9232
698.877	9152
698.903	9284
698.944	9468
698.985	9651
698.996	9680
699.026	9655
699.067	9596
699.116	9504
699.235	9037
699.354	8829
699.474	9816
699.593	10813
699.713	11678
699.832	9218
699.951	10080
700.070	9547
700.190	9701
700.309	9019
700.428	11328
700.547	10703
700.667	9111
700.786	10641
700.905	10142
701.024	10522
701.143	10246
701.262	7920
701.381	8434
701.500	9021
701.619	9297
701.738	8578
701.857	8540
701.976	8187
702.095	7949
702.214	8585
702.333	9434
702.452	8247
702.571	7962
702.690	8286
702.809	8032
702.928	7504
703.047	8598
703.165	8935
703.284	8515
703.403	8646
703.522	9440
703.640	10438
703.759	10494
703.878	16953
703.997	10313
704.115	8354
704.234	8530
704.353	8007
704.471	7162
704.590	7537
704.708	7804
704.827	7660
704.946	8308
705.064	9693
705.183	7596
705.301	9929
705.420	15940
705.538	15755
705.656	12539
705.775	12618
705.893	20688
706.012	30087
706.130	12664
706.249	12800
706.367	12385
706.485	12592
706.604	13008
706.722	13447
706.840	14182
706.958	16109
707.077	12587
707.195	11422
707.313	10264
707.431	10085
707.549	12514
707.668	11214
707.786	11711
707.904	10374
708.022	11350
708.140	11032
708.258	10871
708.376	10705
708.494	10222
708.612	12831
708.730	17537
708.848	18103
708.966	15607
709.084	13855
709.202	14509
709.320	14751
709.438	14161
709.556	15086
709.674	14929
709.791	16123
709.909	13796
710.027	14041
710.145	14607
710.263	15089
710.380	14829
710.498	14275
710.616	13885
710.733	13486
710.851	15522
710.969	15568
711.086	13769
711.204	13469
711.322	13217
711.439	13460
711.557	14747
711.674	13405
711.792	13235
711.909	14391
712.027	15779
712.144	13100
712.262	12447
712.379	14557
712.497	21517
712.614	23163
712.732	18141
712.849	17400
712.966	17629
713.084	22261
713.201	18857
713.318	17868
713.436	17516
713.553	17038
713.670	17012
713.787	18848
713.905	19734
714.022	16674
714.139	16621
714.256	17273
714.373	16972
714.490	18055
714.608	23391
714.725	56550
714.842	81477
714.959	19087
715.076	14866
715.193	14153
715.310	15259
715.427	14344
715.544	14847
715.661	14195
715.778	14572
715.895	16088
716.011	16034
716.128	14620
716.245	14713
716.362	15933
716.479	17197
716.596	15205
716.713	15484
716.829	14116
716.946	14727
717.063	12727
717.180	14139
717.296	12931
717.413	13513
717.530	13257
717.646	13433
717.763	12451
717.880	12227
717.996	13091
718.113	13857
718.229	12257
718.346	12383
718.462	12470
718.579	14412
718.695	19301
718.812	18384
718.928	18566
719.045	14602
719.161	11683
719.277	11648
719.394	11286
719.510	12617
719.626	12024
719.743	14692
719.859	13385
719.975	13573
720.092	19925
720.208	40185
720.324	17031
720.440	12625
720.557	13321
720.673	17633
720.789	26749
720.905	62737
721.021	31388
721.137	11950
721.253	12141
721.369	12539
721.486	14565
721.602	20240
721.718	13400
721.834	9879
721.950	11167
722.066	11293
722.181	8927
722.297	10391
722.413	10825
722.529	10764
722.645	10500
722.761	9571
722.877	10541
722.993	9889
723.108	10167
723.224	8831
723.340	11497
723.456	9131
723.571	10264
723.687	9766
723.803	9161
723.918	8972
724.034	8800
724.150	9374
724.265	10982
724.381	20801
724.497	35334
724.612	10698
724.728	9439
724.843	9939
724.959	11099
725.074	21858
725.190	31814
725.305	10725
725.421	10204
725.536	8126
725.651	8543
725.767	8761
725.882	8161
725.997	7183
726.113	7582
726.228	7174
726.343	7305
726.459	6427
726.574	8613
726.689	7372
726.804	7993
726.920	7948
727.035	7433
727.150	8125
727.265	7793
727.380	9180
727.495	8006
727.610	7458
727.725	8336
727.841	9083
727.956	15575
728.071	16547
728.186	8451
728.301	6432
728.416	7764
728.531	7471
728.645	7304
728.760	7856
728.875	9873
728.990	9208
729.105	7876
729.220	8166
729.335	7855
729.449	6746
729.564	6268
729.679	6005
729.794	6168
729.908	7788
730.023	7690
730.138	6114
730.253	5697
730.367	6082
730.482	5548
730.596	6044
730.711	7033
730.826	6072
730.940	6874
731.055	7021
731.169	6493
731.284	6297
731.398	5849
731.513	7727
731.627	6483
731.742	7878
731.856	8452
731.970	6451
732.085	5245
732.199	6573
732.313	5963
732.428	8047
732.542	17554
732.656	15221
732.771	6518
732.885	5349
732.999	5595
733.113	7406
733.227	6492
733.342	5111
733.456	5487
733.570	5333
733.684	5496
733.798	5200
733.912	5641
734.026	4769
734.140	4963
734.254	6354
734.368	11898
734.482	19087
734.596	5738
734.710	5014
734.824	5443
734.938	5337
735.052	5702
735.166	6653
735.280	6066
735.393	5276
735.507	5143
735.621	8097
735.735	16124
735.849	8897
735.962	5454
736.076	5578
736.190	6566
736.303	8916
736.417	13993
736.531	6908
736.644	5482
736.758	4926
736.872	5316
736.985	5191
737.099	5087
737.212	4599
737.326	5253
737.439	4464
737.553	4645
737.666	5263
737.780	5048
737.893	4779
738.007	4803
738.120	4938
738.233	4689
738.347	5095
738.460	4884
738.573	5119
738.687	5162
738.800	4625
738.913	6188
739.026	5173
739.140	4857
739.253	5666
739.366	4093
739.479	4130
739.592	4762
739.705	3794
739.818	3923
739.932	4340
740.045	4107
740.158	4043
740.271	4223
740.384	4755
740.497	5603
740.610	5823
740.723	5801
740.836	5705
740.949	5965
741.062	6909
741.174	5674
741.287	4140
741.400	4148
741.513	5440
741.626	7605
741.739	5135
741.851	4325
741.964	4300
742.077	4709
742.189	4956
742.302	7076
742.415	7855
742.527	5244
742.640	3845
742.753	3564
742.865	3201
742.978	3777
743.090	3977
743.203	4029
743.316	3859
743.428	3983
743.541	3795
743.653	3252
743.766	3750
743.878	4290
743.990	6255
744.103	6364
744.215	6590
744.327	4554
744.440	4284
744.552	6695
744.664	4628
744.777	3859
744.889	3101
745.001	4131
745.113	3494
745.226	3050
745.338	3160
745.450	3035
745.562	3888
745.674	2883
745.786	3319
745.898	3149
746.010	3509
746.122	3224
746.234	3174
746.347	3864
746.459	3494
746.570	4417
746.682	4409
746.794	7166
746.906	5835
747.018	3058
747.130	3019
747.242	3466
747.354	3015
747.466	4368
747.577	3548
747.689	3316
747.801	3060
747.913	2812
748.024	2409
748.136	2662
748.248	3137
748.359	2704
748.471	3205
748.583	4220
748.694	3688
748.806	5038
748.918	4471
749.029	4162
749.141	3024
749.252	3169
749.364	3705
749.475	6144
749.587	6614
749.698	3076
749.809	3230
749.921	2920
750.032	2697
750.144	2342
750.255	2695
750.366	2987
750.478	2956
750.589	2589
750.700	3126
750.811	2976
750.923	3858
751.034	7376
751.145	8831
751.256	3234
751.367	2670
751.479	2593
751.590	2425
751.701	2657
751.812	2890
751.923	2627
752.034	2728
752.145	3078
752.256	2261
752.367	3075
752.478	2626
752.589	3073
752.700	3160
752.811	2035
752.922	2539
753.032	3301
753.143	4238
753.254	1903
753.365	2792
753.476	1915
753.586	3190
753.697	2771
753.808	1955
753.919	2915
754.029	1862
754.140	2584
754.251	2298
754.361	2321
754.472	3612
754.582	3335
754.693	3023
754.804	2182
754.914	2555
755.025	2619
755.135	2182
755.246	3000
755.356	2341
755.466	2572
755.577	3198
755.687	2949
755.798	2232
755.908	2734
756.018	2124
756.129	2320
756.239	3579
756.349	3008
756.460	2516
756.570	2806
756.680	3592
756.790	2912
756.900	4117
757.011	3298
757.121	1939
757.231	2545
757.341	2899
757.451	2707
757.561	2453
757.671	2720
757.781	2567
757.891	2799
758.001	3145
758.111	3035
758.221	2813
758.331	3363
758.441	3672
758.551	4653
758.661	4676
758.771	3767
758.880	3797
758.990	3754
759.100	3659
759.210	3437
759.320	3708
759.429	3743
759.539	3642
759.649	2351
759.758	3064
759.868	3845
759.978	4027
760.087	4182
760.197	3903
760.307	4247
760.416	3646
760.526	3071
760.635	4177
760.745	4045
760.854	4470
760.964	3923
761.073	4652
761.182	4430
761.292	3965
761.401	5237
761.511	3927
761.620	5133
761.729	4191
761.839	4899
761.948	5282
762.057	4492
762.166	5360
762.276	3720
762.385	4983
762.494	4565
762.603	4397
762.712	5089
762.822	5151
762.931	5117
763.040	5823
763.149	5546
763.258	5798
763.367	6175
763.476	6730
763.585	7083
763.694	7305
763.803	6826
763.912	7336
764.021	8035
764.130	7839
764.238	8315
764.347	8284
764.456	8804
764.565	9688
764.674	11211
764.783	11020
764.891	10764
765.000	12920
765.109	14705
765.217	16759
765.326	19425
765.435	25073
765.543	28166
765.652	33812
765.761	43939
765.869	65249
765.978	99462
766.086	171781
766.195	325985
766.303	693866
766.412	1190353
766.520	1199572
766.629	679286
766.737	266932
766.846	143058
766.954	94084
767.062	66548
767.171	52193
767.279	39291
767.387	30246
767.496	26592
767.604	23052
767.712	20294
767.820	18439
767.928	16808
768.037	16018
768.145	16051
768.253	14548
768.361	14537
768.469	14649
768.577	14015
768.685	15641
768.793	16065
768.901	16540
769.009	19699
769.117	21960
769.225	28465
769.333	42365
769.441	68253
769.549	124790
769.657	270122
769.765	666379
769.873	1060948
769.981	706154
770.088	217419
770.196	96830
770.304	60367
770.412	42775
770.519	31585
770.627	24141
770.735	18880
770.842	17397
770.950	15112
771.058	13327
771.165	12057
771.273	10590
771.380	10573
771.488	9098
771.595	8998
771.703	8299
771.810	8106
771.918	7122
772.025	6886
772.133	6817
772.240	6531
772.348	6667
772.455	6227
772.562	5953
772.670	5694
772.777	5809
772.884	5858
772.991	5479
773.099	4810
773.206	5251
773.313	5244
773.420	5630
773.528	4315
773.635	4441
773.742	4753
773.849	5006
773.956	4837
774.063	4661
774.170	3301
774.277	5357
774.384	4752
774.491	4658
774.598	4068
774.705	4646
774.812	4859
774.919	5127
775.026	5164
775.133	4093
775.239	4608
775.346	4076
775.453	4134
775.560	3912
775.667	3484
775.773	3657
775.880	4439
775.987	3952
776.093	4856
776.200	4124
776.307	3303
776.413	3867
776.520	4154
776.627	4791
776.733	4056
776.840	3450
776.946	4456
777.053	6455
777.159	14470
777.266	9690
777.372	10533
777.478	11025
777.585	6778
777.691	4723
777.798	3708
777.904	4621
778.010	6195
778.117	5318
778.223	3752
778.329	3039
778.435	2944
778.542	3904
778.648	2798
778.754	3244
778.860	3077
778.966	3347
779.072	3460
779.178	3141
779.284	3578
779.391	3934
779.497	3273
779.603	5275
779.708	6775
779.815	16102
779.920	49103
780.026	114429
780.132	18938
780.238	4784
780.344	3267
780.450	4129
780.556	2934
780.661	2979
780.767	4153
780.873	3359
780.979	2454
781.085	2685
781.190	2984
781.296	2440
781.402	2547
781.507	2621
781.613	3094
781.719	2615
781.824	3055
781.930	3786
782.035	3376
782.141	2826
782.246	3157
782.352	3041
782.457	2855
782.563	3378
782.668	2805
782.773	3692
782.879	2995
782.984	3241
783.090	4015
783.195	4466
783.300	4478
783.405	3329
783.511	3456
783.616	3901
783.721	4455
783.826	3940
783.932	3321
784.037	4059
784.142	3243
784.247	3481
784.352	3566
784.457	3574
784.562	3534
784.667	3228
784.772	3514
784.877	3050
784.982	3087
785.087	3190
785.192	3462
785.297	2821
785.402	1996
785.507	2902
785.611	3254
785.716	2827
785.821	2403
785.926	1416
786.031	2325
786.135	3363
786.240	2047
786.345	1919
786.450	3352
786.554	2435
786.659	2356
786.763	1472
786.868	2244
786.973	3375
787.077	1201
787.182	2041
787.286	2438
787.391	2265
787.495	2095
787.600	1851
787.704	2065
787.809	1965
787.913	1828
788.017	2162
788.122	2384
788.226	2703
788.330	1143
788.435	1497
788.539	1020
788.643	1773
788.747	2062
788.852	1529
788.956	1900
789.060	1913
789.164	2546
789.268	1468
789.372	1442
789.476	1814
789.580	1708
789.684	1817
789.788	1939
789.892	2188
789.996	2491
790.100	1389
790.204	2032
790.308	1510
790.412	2080
790.516	2892
790.620	2868
790.724	2138
790.828	2206
790.931	2247
791.035	2902
791.139	2010
791.242	1214
791.346	2820
791.450	1496
791.554	2007
791.657	1822
791.761	1991
791.864	2551
791.968	2394
792.072	1546
792.175	2423
792.279	2141
792.382	1659
792.486	2675
792.589	1866
792.693	2270
792.796	1039
792.899	2737
793.003	2477
793.106	667
793.209	2214
793.313	2613
793.416	937
793.519	2982
793.623	3205
793.726	3897
793.829	2564
793.932	1831
794.035	2518
794.138	3303
794.242	2627
794.345	4060
794.448	4465
794.551	8936
794.654	25770
794.757	53775
794.860	12824
794.963	3326
795.066	2191
795.169	2342
795.272	1094
795.375	2191
795.477	1448
795.580	1659
795.683	1267
795.786	1247
795.889	219
795.991	1801
796.094	2727
796.197	1039
796.300	2566
796.402	514
796.505	595
796.608	977
796.710	1675
796.813	1434
796.915	943
797.018	1593
797.120	1387
797.223	735
797.326	1497
797.428	1243
797.530	1261
797.633	1433
797.735	1917
797.838	3500
797.940	4325
798.042	1358
798.145	907
798.247	1417
798.349	397
798.452	1411
798.554	1466
798.656	450
798.758	1775
798.860	1642
798.962	922
799.065	1362
799.167	475
799.269	1769
799.371	1270
799.473	2399
799.575	2409
799.677	1919
799.779	2845
799.881	2251
799.983	1385
800.085	1376
800.187	1535
800.289	742
800.390	1694
800.492	561
800.594	680
800.696	701
800.798	1134
800.899	1598
801.001	651
801.103	247
801.205	757
801.306	1414
801.408	620
801.509	1030
801.611	239
801.713	881
801.814	521
801.916	636
802.017	-23
802.119	5
802.220	1031
802.322	-302
802.423	2553
802.525	1640
802.626	1127
802.727	1347
802.829	931
802.930	-824
803.031	1762
803.133	689
803.234	615
803.335	642
803.436	470
803.538	594
803.639	168
803.740	1462
803.841	0
803.942	666
804.043	706
804.144	264
804.245	1177
804.346	781
804.447	830
804.548	1116
804.649	2371
804.750	1016
804.851	326
804.952	993
805.053	468
805.154	-254
805.255	1648
805.355	183
805.456	376
805.557	651
805.658	436
805.758	784
805.859	1011
805.960	579
806.061	1321
806.161	567
806.262	1867
806.362	101
806.463	228
806.564	616
806.664	943
806.765	2316
806.865	1575
806.966	1267
807.066	23
807.166	1021
807.267	699
807.367	653
807.468	156
807.568	126
807.668	449
807.769	524
807.869	-194
807.969	621
808.069	715
808.170	-62
808.270	378
808.370	1027
808.470	1641
808.570	367
808.670	254
808.770	618
808.870	297
808.970	669
809.070	202
809.170	-97
809.271	858
809.370	477
809.470	985
809.570	-149
809.670	536
809.770	886
809.870	1111
809.970	603
810.070	43
810.169	589
810.269	-148
810.369	1079
810.469	522
810.568	53
810.668	-76
810.768	546
810.867	192
810.967	210
811.066	1181
811.166	494
811.265	1457
811.365	-117
811.464	386
811.564	328
811.663	627
811.763	-1010
811.862	406
811.962	128
812.061	621
812.160	-234
812.260	1060
812.359	503
812.458	968
812.557	3007
812.657	4370
812.756	928
812.855	234
812.954	5
813.053	968
813.153	1073
813.252	468
813.351	435
813.450	-54
813.549	641
813.648	651
813.747	424
813.846	827
813.945	969
814.044	819
814.143	986
814.242	396
814.341	213
814.439	755
814.538	627
814.637	535
814.736	454
814.835	938
814.933	391
815.032	440
815.131	-74
815.229	809
815.328	352
815.427	416
815.525	640
815.624	834
815.722	182
815.821	1037
815.919	1263
816.018	803
816.116	1481
816.215	438
816.313	1256
816.412	722
816.510	1529
816.609	932
816.707	1932
816.805	1225
816.904	1054
817.002	2280
817.100	2473
817.198	2883
817.296	2923
817.395	2421
817.493	4025
817.591	4735
817.689	8092
817.787	10923
817.885	18367
817.983	36378
818.081	82986
818.179	205886
818.277	515771
818.375	503464
818.473	113298
818.571	34202
818.669	21298
818.767	19693
818.865	20097
818.963	23993
819.061	38675
819.158	71985
819.256	162035
819.354	374812
819.452	849986
819.549	622839
819.647	139915
819.745	45175
819.842	27208
819.940	20179
820.038	12783
820.135	10533
820.233	8264
820.330	6302
820.428	4024
820.525	5511
820.623	4391
820.720	3524
820.818	2373
820.915	3726
821.012	3776
821.110	2712
821.207	2605
821.304	1055
821.402	1723
821.499	3050
821.596	4210
821.693	3149
821.791	2402
821.888	1984
821.985	3902
822.082	2821
822.179	1453
822.276	1762
822.373	2330
822.470	734
822.567	888
822.664	112
822.761	750
822.858	737
822.955	1139
823.052	614
823.149	433
823.246	1010
823.343	654
823.440	838
823.536	168
823.633	62
823.730	-408
823.827	337
823.923	-227
824.020	1383
824.117	426
824.213	336
824.310	1654
824.407	-221
824.503	316
824.600	384
824.696	105
824.793	447
824.889	41
824.986	54
825.082	-118
825.179	901
825.275	67
825.371	436
825.468	163
825.564	-724
825.660	745
825.757	833
825.853	169
825.949	1116
826.045	-346
826.142	-636
826.238	1324
826.334	362
826.430	-534
826.526	-58
826.622	29
826.718	195
826.814	-305
826.910	548
827.006	-472
827.102	-214
827.198	766
827.294	247
827.390	444
827.486	-233
827.582	-985
827.678	-936
827.774	490
827.869	-1265
827.965	592
828.061	-114
828.157	-546
828.252	226
828.348	-477
828.444	859
828.539	-547
828.635	-205
828.731	834
828.826	-160
828.922	88
829.017	4
829.113	552
829.208	-18
829.304	-613
829.399	496
829.495	-411
829.590	922
829.685	-473
829.781	67
829.876	-196
829.971	-233
830.066	-495
830.162	413
830.257	-426
830.352	-153
830.447	878
830.543	42
830.638	14
830.733	197
830.828	-390
830.923	-2
831.018	-284
831.113	601
831.208	-323
831.303	397
831.398	-332
831.493	-459
831.588	308
831.683	-604
831.778	402
831.873	307
831.967	51
832.062	-779
832.157	-961
832.252	688
832.346	816
832.441	77
832.536	418
832.631	3387
832.725	2620
832.820	114
832.914	-517
833.009	317
833.104	-142
833.198	1192
833.293	-168
833.387	106
833.482	-882
833.576	-387
833.670	468
833.765	-561
833.859	-968
833.954	416
834.048	-298
834.142	-432
834.237	-647
834.331	-326
834.425	128
834.519	-747
834.613	35
834.708	-534
834.802	-96
834.896	-255
834.990	-801
835.084	8
835.178	-151
835.272	108
835.366	-1240
835.460	419
835.554	219
835.648	-236
835.742	-193
835.836	102
835.930	-916
836.024	-163
836.117	1120
836.211	617
836.305	1106
836.399	2049
836.493	-607
836.586	1347
836.680	74
836.774	-757
836.867	-390
836.961	-593
837.055	-674
837.148	-289
837.242	205
837.335	-374
837.429	511
837.522	-245
837.616	700
837.709	2361
837.803	1827
837.896	374
837.989	405
838.083	1311
838.176	3581
838.269	4598
838.363	1200
838.456	194
838.549	585
838.642	524
838.735	2936
838.829	1489
838.922	-6
839.015	308
839.108	-432
839.201	-4
839.294	513
839.387	967
839.480	-375
839.573	285
839.666	1249
839.759	323
839.852	-323
839.945	51
840.038	963
840.131	-525
840.223	-474
840.316	478
840.409	-840
840.502	-380
840.594	658
840.687	-743
840.780	95
840.873	-163
840.965	157
841.058	1671
841.150	3054
841.243	2495
841.336	380
841.428	130
841.521	540
841.613	269
841.706	1201
841.798	209
841.890	165
841.983	-485
842.075	183
842.167	-45
842.260	28
842.352	1636
842.444	2052
842.537	3891
842.629	6523
842.721	1760
842.813	-128
842.905	-930
842.997	171
843.090	231
843.182	1444
843.274	3745
843.366	9784
843.458	19379
843.550	15974
843.642	2722
843.734	128
843.826	1496
843.918	1311
844.009	1115
844.101	-607
844.193	-127
844.285	-172
844.377	222
844.469	1900
844.560	2078
844.652	2340
844.744	593
844.835	226
844.927	864
845.019	108
845.110	974
845.202	-327
845.293	-411
845.385	164
845.476	-406
845.568	82
845.659	643
845.751	-120
845.842	-233
845.934	-526
846.025	-28
846.116	-360
846.208	271
846.299	282
846.390	-164
846.482	102
846.573	877
846.664	1063
846.755	1638
846.846	1837
846.937	-427
847.029	-124
847.120	-271
847.211	-196
847.302	366
847.393	-863
847.484	320
847.575	-652
847.666	96
847.757	1365
847.847	238
847.938	216
848.029	-719
848.120	194
848.211	-70
848.302	-273
848.392	-377
848.483	-534
848.574	-400
848.664	-456
848.755	-225
848.846	-273
848.936	205
849.027	-739
849.118	-219
849.208	144
849.299	-29
849.389	507
849.480	269
849.570	1285
849.661	2136
849.751	4068
849.841	2631
849.932	419
850.022	-609
850.112	447
850.203	-875
850.293	-515
850.383	-522
850.474	-459
850.564	368
850.654	-444
850.744	-120
850.834	504
850.924	-210
851.014	-239
851.104	-263
851.194	358
851.284	779
851.374	339
851.464	10
851.554	217
851.644	-148
851.734	832
851.824	805
851.914	544
852.004	988
852.094	691
852.183	31
852.273	53
852.363	-278
852.452	-129
852.542	142
852.632	221
852.721	842
852.811	203
852.901	699
852.990	-704
853.080	-568
853.169	147
853.259	-189
853.348	-993
853.438	459
853.527	93
853.617	-418
853.706	1325
853.795	2223
853.885	6241
853.974	12487
854.063	19811
854.152	39046
854.242	19328
854.331	1898
854.420	-35
854.509	40
854.598	380
854.687	264
854.777	396
854.866	-39
854.955	487
855.044	-728
855.133	-375
855.222	398
855.311	-732
855.400	-313
855.488	71
855.577	422
855.666	27
855.755	485
855.844	552
855.933	23
856.021	-55
856.110	-364
856.199	-578
856.288	-184
856.376	-134
856.465	-791
856.554	-19
856.642	-198
856.731	259
856.819	-458
856.908	-126
856.996	-91
857.085	-657
857.173	2
857.262	-371
857.350	-119
857.438	444
857.527	863
857.615	-1375
857.703	-649
857.792	-825
857.880	-319
857.968	-983
858.056	-553
858.145	-996
858.233	-610
858.321	-601
858.409	234
858.497	-104
858.585	-711
858.673	-75
858.761	-934
858.849	-343
858.937	-599
859.025	-20
859.113	-95
859.201	75
859.289	133
859.377	173
859.465	-543
859.552	-1051
859.640	-148
859.728	-985
859.816	345
859.903	303
859.991	-237
860.079	-52
860.166	-506
860.254	-155
860.342	-791
860.429	-297
860.517	-509
860.604	-792
860.692	-21
860.779	-75
860.867	-241
860.954	-521
861.042	175
861.129	-519
861.216	-202
861.304	-1389
861.391	-879
861.478	-723
861.565	148
861.653	-15
861.740	-301
861.827	184
861.914	-69
862.001	-388
862.089	-54
862.176	-697
862.263	-888
862.350	306
862.437	-1461
862.524	-150
862.611	301
862.698	-127
862.785	1044
862.871	1015
862.958	5
863.045	291
863.132	-796
863.219	63
863.306	-1895
863.392	168
863.479	408
863.566	-391
863.652	-225
863.739	47
863.826	-163
863.912	-386
863.999	-861
864.086	-235
864.172	-353
864.259	-1093
864.345	-673
864.432	43
864.518	-648
864.604	-331
864.691	-125
864.777	-75
864.863	71
864.950	-276
865.036	-552
865.122	103
865.209	-295
865.295	-387
865.381	-196
865.467	-73
865.553	4
865.639	32
865.726	1101
865.812	2434
865.898	5313
865.984	7645
866.070	12912
866.156	20445
866.242	6193
866.328	277
866.414	-260
866.499	-149
866.585	145
866.671	-256
866.757	-739
866.843	-160
866.928	36
867.014	137
867.100	-90
867.186	-94
867.271	212
867.357	513
867.442	1752
867.528	901
867.614	15
867.699	65
867.785	772
867.870	1711
867.956	2287
868.041	2293
868.127	125
868.212	1822
868.297	1624
868.383	17
868.468	1125
868.553	1207
868.639	1567
868.724	2390
868.809	3017
868.894	1479
868.979	143
869.065	-95
869.150	-1012
869.235	-618
869.320	-245
869.405	566
869.490	-757
869.575	-480
869.660	568
869.745	-191
869.830	173
869.915	-76
870.000	-25
870.085	-48
870.169	-598
870.254	575
870.339	-1056
870.424	-112
870.509	-123
870.593	-262
870.678	279
870.763	-451
870.847	128
870.932	-507
871.016	-452
871.101	-6
871.186	407
871.270	11
871.355	-568
871.439	-610
871.523	-525
871.608	-155
871.692	-186
871.777	941
871.861	169
871.945	-486
872.030	-51
872.114	-11
872.198	-307
872.282	-293
872.367	-161
872.451	-733
872.535	-268
872.619	-1
872.703	-541
872.787	-763
872.871	348
872.955	-171
873.039	-465
873.123	-134
873.207	413
873.291	-1014
873.375	-17
873.459	-232
873.543	-831
873.627	-761
873.711	-631
873.794	-63
873.878	-147
873.962	-199
874.045	-408
874.129	383
874.137	325
874.213	-250
874.245	-189
874.296	-93
874.352	-172
874.380	-208
874.460	-506
874.464	-519
874.547	-695
874.568	-607
874.631	-361
874.676	-359
874.714	-343
874.784	-358
874.798	-364
874.881	394
874.892	279
874.965	-502
874.999	-261
875.048	44
875.107	160
875.131	223
875.215	261
875.215	261
875.298	-156
875.323	-310
875.381	-676
875.430	-894
875.465	-997
875.538	-218
875.548	-123
875.631	358
875.646	185
875.714	-661
875.753	-572
875.798	-439
875.861	53
875.881	193
875.964	-12
875.968	7
876.047	341
876.076	234
876.130	98
876.183	-23
876.213	-88
876.291	1200
876.296	1283
876.379	174
876.398	173
876.462	223
876.506	367
876.545	425
876.613	74
876.628	44
876.711	394
876.721	422
876.794	484
876.828	524
876.877	497
876.935	324
876.960	371
877.043	568
877.043	571
877.125	996
877.150	970
877.208	977
877.258	947
877.291	979
877.365	1625
877.374	1680
877.456	1914
877.472	1840
877.539	1728
877.579	1942
877.622	1947
877.687	1050
877.704	884
877.787	485
877.794	504
877.869	607
877.901	500
877.952	320
878.008	899
878.034	1151
878.115	197
878.117	181
878.199	856
878.222	732
878.282	291
878.329	465
878.364	743
878.437	524
878.447	461
878.529	-237
878.544	-145
878.611	308
878.651	106
878.694	19
878.758	474
878.776	554
878.858	55
878.865	48
878.941	-118
878.972	11
879.023	246
879.078	-128
879.105	-158
879.185	304
879.187	306
879.269	669
879.292	400
879.351	-211
879.399	-289
879.433	-328
879.506	-17
879.516	42
879.598	375
879.613	248
879.680	-397
879.720	-186
879.762	196
879.827	508
879.844	475
879.926	41
879.933	89
880.007	766
880.040	652
880.089	672
880.147	850
880.171	850
880.253	1200
880.254	1200
880.335	1553
880.360	1649
880.417	2318
880.467	2984
880.499	3785
880.574	6643
880.580	6612
880.662	3059
880.680	2321
880.744	551
880.787	-41
880.825	-139
880.893	62
880.907	73
880.989	281
881.000	253
881.070	338
881.106	207
881.152	-88
881.213	-120
881.233	-10
881.315	612
881.319	625
881.396	256
881.426	129
881.478	186
881.532	267
881.559	264
881.639	25
881.641	31
881.722	223
881.745	388
881.803	314
881.852	305
881.885	394
881.958	-94
881.966	-114
882.047	658
882.064	712
882.129	899
882.171	620
882.210	607
882.277	1618
882.291	1616
882.372	833
882.383	743
882.454	687
882.489	554
882.535	254
882.596	158
882.616	171
882.697	-111
882.702	-94
882.778	484
882.808	417
882.859	19
882.914	248
882.940	509
883.020	297
883.021	293
883.102	78
883.127	-67
883.183	122
883.233	326
883.264	180
883.339	7
883.345	30
883.426	11
883.445	31
883.507	257
883.551	429
883.587	310
883.657	219
883.668	274
883.749	459
883.763	442
883.830	262
883.869	362
883.910	350
883.975	308
883.991	308
884.072	233
884.081	209
884.152	303
884.187	360
884.233	412
884.292	304
884.314	278
884.394	462
884.398	458
884.475	194
884.504	214
884.555	327
884.610	144
884.636	56
884.716	135
884.716	140
884.797	310
884.821	360
884.877	195
884.927	-137
884.958	38
885.033	919
885.038	924
885.118	699
885.139	639
885.199	560
885.244	421
885.279	289
885.350	-78
885.359	-47
885.439	526
885.456	598
885.520	449
885.561	424
885.600	466
885.667	490
885.680	525
885.760	801
885.773	814
885.840	839
885.878	782
885.920	667
885.984	635
886.000	664
886.080	743
886.089	754
886.160	580
886.195	476
886.240	395
886.300	141
886.320	145
886.400	489
886.406	500
886.480	1105
886.511	1405
886.560	1370
886.616	842
886.640	736
886.720	1097
886.722	1095
886.800	783
886.827	643
886.879	701
886.932	845
886.959	792
887.038	450
887.039	453
887.119	383
887.143	489
887.198	426
887.248	143
887.278	246
887.354	702
887.358	724
887.437	944
887.459	1042
887.517	976
887.564	795
887.596	742
887.669	703
887.676	697
887.755	661
887.774	590
887.835	477
887.880	507
887.914	693
887.985	977
887.994	933
888.073	468
888.090	371
888.153	368
888.195	382
888.232	755
888.300	1419
888.311	1402
888.391	1180
888.405	1146
888.470	1222
888.510	1246
888.549	1285
888.615	1358
888.628	1341
888.708	1162
888.720	1138
888.787	688
888.825	415
888.866	665
888.930	1026
888.945	970
889.024	695
889.035	655
889.103	1008
889.140	1203
889.182	1105
889.245	904
889.261	914
889.340	995
889.349	1001
889.419	917
889.454	866
889.498	699
889.559	466
889.577	539
889.656	867
889.664	899
889.735	1376
889.768	1601
889.814	1310
889.873	918
889.978	782
890.083	1944
890.187	1082
890.292	1305
890.397	1040
890.501	1455
890.606	778
890.710	1007
890.815	677
890.919	1309
891.024	786
891.128	453
891.233	838
891.337	1660
891.442	373
891.546	317
891.650	500
891.755	832
891.859	2365
891.963	663
892.068	706
892.172	1395
892.276	1192
892.380	958
892.484	606
892.589	972
892.693	224
892.797	472
892.901	1543
893.005	866
893.109	458
893.213	1168
893.317	1183
893.421	695
893.525	539
893.629	615
893.733	662
893.837	1416
893.941	426
894.045	1872
894.148	624
894.252	1788
894.356	1730
894.460	1475
894.564	1237
894.667	747
894.771	753
894.875	887
894.978	186
895.082	389
895.186	1085
895.289	641
895.393	950
895.496	840
895.600	199
895.703	758
895.807	219
895.910	759
896.014	-431
896.117	1102
896.221	537
896.324	1201
896.427	970
896.531	653
896.634	520
896.737	890
896.840	1001
896.944	866
897.047	50
897.150	211
897.253	213
897.356	787
897.460	554
897.563	380
897.666	297
897.769	264
897.872	310
897.975	863
898.078	1261
898.181	291
898.284	1
898.387	790
898.490	1084
898.593	1011
898.695	722
898.798	329
898.901	831
899.004	475
899.107	-246
899.209	665
899.312	252
899.415	201
899.518	159
899.620	690
899.723	885
899.826	1370
899.928	1934
900.031	325
900.133	498
900.236	437
900.338	723
900.441	304
900.543	1278
900.646	190
900.748	575
900.851	183
900.953	482
901.055	1032
901.158	1192
901.260	834
901.362	1021
901.465	649
901.567	1237
901.669	806
901.771	290
901.873	-209
901.976	-38
902.078	286
902.180	762
902.282	413
902.384	362
902.486	778
902.588	1670
902.690	2129
902.792	673
902.894	750
902.996	1103
903.098	656
903.200	366
903.302	828
903.404	143
903.505	421
903.607	199
903.709	530
903.811	369
903.913	1456
904.014	1049
904.116	685
904.218	856
904.319	-401
904.421	1209
904.523	862
904.624	846
904.726	859
904.827	205
904.929	1034
905.030	757
905.132	601
905.233	858
905.335	428
905.436	-192
905.537	64
905.639	703
905.740	-296
905.841	-221
905.943	-62
906.044	676
906.145	238
906.247	653
906.348	27
906.449	684
906.550	553
906.651	616
906.752	305
906.854	457
906.955	-189
907.056	403
907.157	475
907.258	1114
907.359	-387
907.460	714
907.561	532
907.662	865
907.762	75
907.863	175
907.964	1043
908.065	1099
908.166	142
908.267	784
908.367	726
908.468	319
908.569	470
908.670	536
908.770	2065
908.871	583
908.971	1390
909.072	1928
909.173	870
909.273	502
909.374	733
909.474	403
909.575	-193
909.675	-465
909.776	315
909.876	736
909.977	586
910.077	843
910.177	7
910.278	638
910.378	122
910.478	379
910.579	-52
910.679	1139
910.779	423
910.879	810
910.980	397
911.080	-75
911.180	857
911.280	421
911.380	-68
911.480	752
911.580	-362
911.680	671
911.780	194
911.880	1126
911.980	535
912.080	215
912.180	44
912.280	624
912.380	674
912.480	208
912.580	560
912.679	1088
912.779	579
912.879	927
912.979	69
913.078	392
913.178	271
913.278	386
913.377	480
913.477	72
913.577	450
913.676	573
913.776	1484
913.875	675
913.975	27
914.074	884
914.174	191
914.273	-33
914.373	719
914.472	987
914.572	700
914.671	-88
914.770	167
914.870	612
914.969	-98
915.068	197
915.167	88
915.267	185
915.366	555
915.465	831
915.564	295
915.663	347
915.763	-269
915.862	559
915.961	43
916.060	205
916.159	753
916.258	178
916.357	225
916.456	800
916.555	716
916.654	-76
916.752	-4
916.851	399
916.950	-87
917.049	844
917.148	579
917.247	342
917.345	-165
917.444	267
917.543	687
917.642	369
917.740	153
917.839	310
917.937	113
918.036	-272
918.135	601
918.233	534
918.332	279
918.430	123
918.529	257
918.627	-199
918.726	293
918.824	889
918.923	327
919.021	141
919.119	38
919.218	508
919.316	31
919.414	183
919.512	64
919.611	228
919.709	362
919.807	142
919.905	-191
920.003	-59
920.102	295
920.200	-81
920.298	468
920.396	233
920.494	570
920.592	796
920.690	356
920.788	-126
920.886	91
920.984	646
921.082	77
921.180	470
921.277	-34
921.375	557
921.473	1259
921.571	125
921.669	675
921.766	327
921.864	36
921.962	254
922.060	226
922.157	447
922.255	434
922.352	-6
922.450	104
922.548	88
922.645	-228
922.743	870
922.840	-92
922.938	682
923.035	1152
923.133	518
923.230	744
923.327	825
923.425	657
923.522	170
923.619	868
923.717	-255
923.814	1033
923.911	556
924.008	1016
924.106	729
924.203	720
924.300	-475
924.397	577
924.494	1048
924.591	682
924.688	380
924.786	927
924.883	544
924.979	787
925.077	770
925.173	-9
925.270	116
925.367	-333
925.464	1041
925.561	1612
925.658	1314
925.755	996
925.852	646
925.948	568
926.045	1618
926.142	556
926.239	324
926.335	729
926.432	1125
926.529	449
926.625	1096
926.722	-12
926.818	717
926.915	120
927.011	836
927.108	298
927.204	709
927.301	498
927.397	179
927.494	1578
927.590	908
927.687	449
927.783	1223
927.879	670
927.976	634
928.072	813
928.168	492
928.264	431
928.361	180
928.457	-64
928.553	351
928.649	376
928.745	77
928.841	804
928.937	332
929.033	469
929.129	-86
929.225	-336
929.321	-229
929.417	83
929.513	131
929.609	-62
929.705	190
929.801	-657
929.897	-389
929.993	495
930.089	-561
930.184	-13
930.280	-474
930.376	836
930.471	-323
930.567	-215
930.663	104
930.758	-175
930.854	-497
930.950	632
931.045	-234
931.141	699
931.236	-194
931.332	-113
931.427	-372
931.523	-120
931.618	-639
931.714	276
931.809	269
931.905	-585
932.000	-205
932.095	-656
932.191	244
932.286	-175
932.381	-111
932.476	558
932.572	846
932.667	-250
932.762	772
932.857	-289
932.952	-250
933.047	319
933.142	447
933.237	313
933.332	-18
933.427	62
933.522	-477
933.617	1
933.712	412
933.807	97
933.902	-625
933.997	647
934.092	765
934.187	160
934.282	-251
934.376	-621
934.471	393
934.566	-281
934.661	-131
934.755	-14
934.850	-128
934.945	314
935.039	604
935.134	466
935.228	232
935.323	124
935.417	-367
935.512	-416
935.606	232
935.701	88
935.795	-974
935.890	-553
935.984	224
936.079	52
936.173	192
936.267	726
936.362	-716
936.456	243
936.550	577
936.644	-115
936.738	-402
936.833	362
936.927	1381
937.021	246
937.115	-282
937.209	-525
937.303	-622
937.397	-191
937.491	107
937.585	-285
937.679	132
937.773	-12
937.867	-212
937.961	-410
938.055	-38
938.149	37
938.243	329
938.337	-51
938.430	324
938.524	846
938.618	501
938.712	828
938.805	97
938.899	380
938.993	366
939.086	41
939.180	1176
939.274	1263
939.367	1172
939.461	540
939.554	-204
939.648	190
939.741	-153
939.835	-28
939.928	-339
940.022	-907
940.115	-96
940.208	858
940.302	661
940.395	476
940.488	-305
940.582	450
940.675	-630
940.768	-249
940.861	133
940.954	-74
941.048	478
941.141	-199
941.234	4
941.327	1236
941.420	2047
941.513	493
941.606	191
941.699	1431
941.792	125
941.885	-143
941.978	225
942.071	-373
942.164	-650
942.257	-400
942.349	-268
942.442	-521
942.535	-325
942.628	-550
942.721	-30
942.813	-353
942.906	-143
942.999	109
943.091	-213
943.184	-453
943.277	-220
943.369	329
943.462	218
943.554	-116
943.647	-149
943.739	-51
943.832	310
943.924	-709
944.017	160
944.109	-433
944.201	129
944.294	350
944.386	141
944.478	-578
944.571	-133
944.663	101
944.755	-839
944.847	135
944.940	161
945.032	-298
945.124	-174
945.216	341
945.308	-475
945.400	317
945.492	-331
945.584	-261
945.676	-618
945.768	40
945.860	-372
945.952	-67
946.044	587
946.136	-576
946.228	-46
946.320	-487
946.412	-954
946.503	214
946.595	309
946.687	-47
946.779	-815
946.870	-457
946.962	-620
947.054	316
947.145	251
947.237	-779
947.329	-777
947.420	-204
947.512	-574
947.603	-197
947.695	-283
947.786	-282
947.878	-781
947.969	-6
948.061	-325
948.152	-749
948.243	-857
948.335	113
948.426	-936
948.517	-335
948.609	-182
948.700	-150
948.791	-959
948.882	-739
948.973	-101
949.065	-634
949.156	-266
949.247	-872
949.338	-341
949.429	-1260
949.520	-607
949.611	-789
949.702	-233
949.793	-339
949.884	-1096
949.975	-168
950.066	-491
950.157	-479
950.247	-339
950.338	-21
950.429	-653
950.520	507
950.611	403
950.701	505
950.792	78
950.883	146
950.973	-287
951.064	-440
951.155	-211
951.245	68
951.336	-603
951.427	-927
951.517	-357
951.608	-597
951.698	-1175
951.788	-213
951.879	-529
951.969	-820
952.060	-1058
952.150	46
952.240	-469
952.331	-1187
952.421	162
952.511	-757
952.602	-958
952.692	-797
952.782	-811
952.872	-686
952.962	-712
953.052	-391
953.143	-743
953.233	-702
953.323	-555
953.413	-701
953.503	-889
953.593	-1025
953.683	-318
953.773	-1625
953.863	-354
953.953	-380
954.042	-73
954.132	-1162
954.222	-515
954.312	-392
954.402	-116
954.492	349
954.581	1561
954.671	472
954.761	-270
954.850	-187
954.940	-905
955.030	117
955.119	-461
955.209	-1161
955.298	-598
955.388	-723
955.477	-961
955.567	-1395
955.656	-693
955.746	-481
955.835	-397
955.925	-1083
956.014	-350
956.103	-809
956.193	-311
956.282	-138
956.371	-444
956.461	-1331
956.550	-603
956.639	-133
956.728	105
956.817	-1143
956.906	-951
956.995	-446
957.085	-524
957.174	-435
957.263	-1133
957.352	-955
957.441	-448
957.530	-854
957.619	-872
957.708	-459
957.796	-254
957.885	-871
957.974	-777
958.063	-271
958.152	-960
958.241	-193
958.329	-191
958.418	-1065
958.507	-1597
958.596	374
958.684	-776
958.773	253
958.861	70
958.950	-260
959.039	51
959.127	63
959.216	-347
959.304	-378
959.393	395
959.481	-478
959.570	-243
959.658	464
959.746	52
959.835	1068
959.923	1966
960.011	872
960.100	133
960.188	-463
960.276	-452
960.365	-748
960.453	-112
960.541	-1272
960.629	-911
960.717	-799
960.805	-390
960.893	-443
960.981	-1082
961.069	-128
961.158	-663
961.245	126
961.333	-882
961.421	-734
961.509	-845
961.597	-796
961.685	-714
961.773	-982
961.861	-1484
961.949	-609
962.036	201
962.124	-156
962.212	-404
962.299	-494
962.387	-249
962.475	-1073
962.562	-1399
962.650	218
962.738	-606
962.825	-839
962.913	-903
963.000	-857
963.088	-24
963.175	-653
963.263	-778
963.350	-486
963.438	-149
963.525	169
963.612	2072
963.700	6520
963.787	13478
963.874	7300
963.962	-43
964.049	-1451
964.136	-577
964.223	-1318
964.310	-819
964.398	-742
964.485	-539
964.572	-294
964.659	1999
964.746	1163
964.833	-999
964.920	-264
965.007	-1265
965.094	-895
965.181	-1543
965.268	-497
965.355	-938
965.441	-1072
965.528	-1154
965.615	-738
965.702	-795
965.789	-961
965.875	-851
965.962	-1052
966.049	-1343
966.136	-926
966.222	-1044
966.309	-788
966.395	-827
966.482	-994
966.569	-1241
966.655	-1167
966.742	-827
966.828	-1198
966.915	-522
967.001	-357
967.087	-1421
967.174	-493
967.260	711
967.347	508
967.433	3943
967.519	8559
967.605	3647
967.692	-86
967.778	-913
967.864	-982
967.950	-1090
968.036	-1440
968.123	-1216
968.209	-1040
968.295	-1983
968.381	-571
968.467	-763
968.553	-1455
968.639	-245
968.725	-380
968.811	951
968.897	85
968.983	-1057
969.069	-1958
969.154	-576
969.240	-378
969.326	-2172
969.412	-1091
969.497	-1557
969.583	-1020
969.669	-564
969.755	-1388
969.840	-970
969.926	-804
970.012	-1428
970.097	-843
970.183	-1373
970.268	-306
970.354	797
970.439	1711
970.525	4920
970.610	678
970.696	-118
970.781	-341
970.866	-1793
970.952	-1220
971.037	-1201
971.122	-1198
971.208	-1226
971.293	-1154
971.378	-1593
971.463	-355
971.549	-1009
971.634	-988
971.719	-452
971.804	-19
971.889	134
971.974	-776
972.059	-1065
972.144	-689
972.229	-1608
972.314	-1363
972.399	-490
972.484	-1512
972.569	-437
972.654	-844
972.739	1867
972.824	745
972.908	84
972.993	-1436
973.078	-1184
973.163	-262
973.247	-809
973.332	-1844
973.417	-363
973.501	-1514
973.586	-927
973.671	-771
973.755	-962
973.840	-893
973.924	-1230
974.009	-532
974.093	-438
974.178	967
974.262	1869
974.346	1103
974.431	-110
974.515	-1807
974.600	-1647
974.684	-759
974.768	-1336
974.852	-428
974.937	-1537
975.021	-683
975.105	-1151
975.189	-1145
975.273	-1027
975.358	-1262
975.442	-1507
975.526	-521
975.610	-1396
975.694	-783
975.778	-867
975.862	-775
975.946	-2705
976.030	-736
976.114	-1053
976.198	-956
976.281	-1595
976.365	-501
976.449	-2320
976.533	-854
976.617	-1705
976.700	-1152
976.784	-180
976.868	-460
976.951	-493
977.035	-739
977.119	-1222
977.202	-1850
977.286	-842
977.369	-1437
977.453	-842
977.536	-1487
977.620	-1832
977.703	-292
977.787	-1712
977.870	102
977.953	200
978.037	-1340
978.120	481
978.203	681
978.287	1950
978.370	446
978.453	-614
978.536	-303
978.620	396
978.703	-42
978.786	-13
978.869	-2158
978.952	-1852
979.035	-80
979.118	-1259
979.201	-1236
979.284	-544
979.367	-1928
979.450	-1323
979.533	-829
979.616	-1403
979.699	-1053
979.782	-1182
979.865	-915
979.948	-1627
980.030	-778
980.113	-918
980.196	-1598
980.279	323
980.361	-1698
980.444	-942
980.526	-709
980.609	-1762
980.692	-1225
980.774	-1570
980.857	-1264
980.939	-1023
981.022	-1307
981.104	-1530
981.187	-1434
981.269	-535
981.352	-1470
981.434	-2357
981.516	-1827
981.599	-725
981.681	-1525
981.763	-1144
981.846	-1305
981.928	-1219
982.010	-1784
982.092	-1019
982.174	-823
982.256	-1174
982.339	-1463
982.421	-1868
982.503	-842
982.585	-1555
982.667	-1383
982.749	-944
982.831	-1694
982.913	-1952
982.995	-474
983.077	-1768
983.158	277
983.240	-1623
983.322	-549
983.404	-1457
983.486	-1827
983.568	-1131
983.649	-1129
983.731	-976
983.813	-1659
983.894	-308
983.976	-1423
984.058	-1790
984.139	-391
984.221	-2009
984.302	-869
984.384	-654
984.465	-2586
984.547	-1340
984.628	-1398
984.710	-1539
984.791	-943
984.872	-1822
984.954	-940
985.035	-961
985.116	-1840
985.198	-1832
985.279	-153
985.360	-974
985.441	-805
985.522	-733
985.604	-817
985.685	-2591
985.766	-312
985.847	-475
985.928	-2176
986.009	-1172
986.090	-1078
986.171	-489
986.252	-1644
986.333	-1093
986.414	-289
986.495	-487
986.576	-1786
986.656	-1646
986.737	-1088
986.818	-1452
986.899	-1121
986.980	-1918
987.060	-699
987.141	-1574
987.222	-970
987.302	-918
987.383	-922
987.464	-2200
987.544	-942
987.625	-1464
987.705	-1946
987.786	-1244
987.866	-1546
987.947	-1599
988.027	-1673
988.108	-1533
988.188	-1191
988.268	-393
988.349	-1008
988.429	-753
988.509	-1486
988.589	-606
988.670	-2662
988.750	-550
988.830	-1542
988.910	-875
988.990	-869
989.070	-1053
989.151	-1469
989.231	-1966
989.311	-743
989.391	-1286
989.471	-731
989.551	-502
989.631	-2335
989.711	-597
989.791	-1880
989.870	-1549
989.950	-807
990.030	-1780
990.110	-1766
990.190	-1112
990.269	-1100
990.349	-2028
990.429	-800
990.509	-1242
990.588	-1801
990.668	-771
990.747	-1672
990.827	-1311
990.907	-1333
990.986	-1157
991.066	-1735
991.145	-2171
991.225	-1098
991.304	-1803
991.383	-1372
991.463	-1140
991.542	-899
991.622	-1632
991.701	-1509
991.780	-1884
991.859	-954
991.939	-1107
992.018	-645
992.097	-1238
992.176	-1155
992.256	-1030
992.335	-1660
992.414	-105
992.493	-1611
992.572	-1306
992.651	-645
992.730	-1241
992.809	-1325
992.888	-1332
992.967	-1550
993.046	-412
993.125	-1326
993.203	-1312
993.282	-1229
993.361	-1920
993.440	-1588
993.519	-1535
993.597	-1393
993.676	-1538
993.755	-56
993.834	-1208
993.912	-1897
993.991	-291
994.069	-1373
994.148	-1968
994.226	-2122
994.305	-412
994.384	-1425
994.462	-1018
994.540	-1838
994.619	-1151
994.697	-1010
994.776	-1627
994.854	-1447
994.932	-1652
995.011	-1424
995.089	-1662
995.167	-1225
995.245	-1422
995.324	-1138
995.402	-1352
995.480	-1576
995.558	-1057
995.636	-2568
995.714	-1837
995.792	-956
995.870	-1055
995.948	-922
996.026	-591
996.104	-2066
996.182	-1012
996.260	-1779
996.338	-1000
996.416	-1753
996.494	-2025
996.572	-1147
996.649	-1450
996.727	-1710
996.805	-993
996.883	-2336
996.960	-1706
997.038	-1431
997.116	-1329
997.193	-2779
997.271	-335
997.348	-1195
997.426	-2159
997.504	-2242
997.581	-1123
997.658	-1508
997.736	-2263
997.813	-2478
997.891	-712
997.968	-1843
998.046	-1004
998.123	-1732
998.200	-662
998.277	-1090
998.355	-937
998.432	-2046
998.509	-1232
998.586	-845
998.663	-1106
998.741	-1119
998.818	-1737
998.895	-1138
998.972	-1336
999.049	-1823
999.126	-1672
999.203	-1128
999.280	-916
999.357	-1908
999.434	-1459
999.511	-1056
999.587	-980
999.664	-1837
999.741	-2574
999.818	-679
999.895	-2029
999.971	-1461
1000.048	-1609
1000.125	-1209
1000.202	-1302
1000.278	-1815
1000.355	-1542
1000.431	-1558
1000.508	-2116
1000.584	-1817
1000.661	-1163
1000.738	-2291
1000.814	-2234
1000.890	-769
1000.967	-1493
1001.043	-1173
1001.120	-2245
1001.196	-1321
1001.272	-1896
1001.349	-1737
1001.425	-1038
1001.501	-1214
1001.577	-1792
1001.654	-1258
1001.730	-1564
1001.806	-1815
1001.882	-1819
1001.958	-1489
1002.034	-2229
1002.110	-2027
1002.186	-2001
1002.262	-1294
1002.338	-2327
1002.414	-1114
1002.490	-1499
1002.566	-1495
1002.642	-1390
1002.718	-1022
1002.794	-1002
1002.870	-1391
1002.945	-2719
1003.021	-1597
1003.097	-1627
1003.173	-531
1003.248	-1901
1003.324	-347
1003.400	-1638
1003.475	-1558
1003.551	-1211
1003.626	-1904
1003.702	-1774
1003.777	-1253
1003.853	-1906
1003.928	-1226
1004.004	-1832
1004.079	-894
1004.155	-1595
1004.230	-2273
1004.305	-1046
1004.381	-1966
1004.456	-1595
1004.531	-2254
1004.607	-1809
1004.682	-1394
1004.757	-1632
1004.832	-1153
1004.907	-1848
1004.982	-1375
1005.057	-1973
1005.133	-2084
1005.208	-1860
1005.283	-1531
1005.358	-650
1005.433	-1609
1005.508	-1328
1005.583	-1913
1005.657	-1869
1005.732	-617
1005.807	-2023
1005.882	-1714
1005.957	-1426
1006.032	-1268
1006.106	-2628
1006.181	-1403
1006.256	-1729
1006.331	-2344
1006.405	-2162
1006.480	-1491
1006.554	-2584
1006.629	-1730
1006.704	-1964
1006.778	-1527
1006.853	-1167
1006.927	-1933
1007.002	-1788
1007.076	-1872
1007.150	-1485
1007.225	-2144
1007.299	-1842
1007.373	-1752
1007.448	-1662
1007.522	-608
1007.596	-943
1007.671	-1684
1007.745	-1838
1007.819	-2160
1007.893	-2387
1007.967	-2259
1008.041	-2287
1008.115	-1695
1008.190	-1946
1008.264	-1667
1008.338	-3117
1008.412	-1708
1008.486	-2129
1008.560	-2142
1008.633	-2043
1008.707	-2016
1008.781	-1144
1008.855	-1773
1008.929	-1954
1009.003	-1670
1009.076	-2426
1009.150	-1983
1009.224	-1385
1009.298	-1707
1009.371	-1646
1009.445	-1678
1009.519	-1979
1009.592	-1666
1009.666	-1523
1009.739	-1551
1009.813	-3183
1009.886	-1607
1009.960	-2788
1010.033	-1705
1010.107	-1062
1010.180	-2142
1010.253	-1857
1010.327	-2618
1010.400	-1452
1010.473	-2511
1010.547	-1232
1010.620	-2085
1010.693	-1655
1010.766	-2382
1010.840	-1515
1010.913	-1422
1010.986	-2373
1011.059	-1390
1011.132	-2260
1011.205	-1397
1011.278	-1831
1011.351	-2185
1011.424	-1611
1011.497	-2527
1011.570	-2449
1011.643	-1721
1011.716	-1769
1011.789	-2109
1011.862	-1834
1011.934	-1465
1012.007	-2512
1012.080	-1805
1012.153	-1382
1012.225	-1068
1012.298	-1968
1012.371	-2037
1012.443	-1656
1012.516	-2436
1012.588	-1473
1012.661	-2220
1012.733	-2176
1012.806	-1455
1012.879	-2635
1012.951	-2440
1013.023	-2022
1013.096	-2003
1013.168	-2538
1013.241	-1355
1013.313	-2370
1013.385	-1657
1013.458	-2131
1013.530	-1009
1013.602	-2213
1013.674	-2116
1013.746	-2599
1013.819	-2327
1013.891	-2123
1013.963	-1652
1014.035	-2112
1014.107	-1607
1014.179	-1088
1014.251	-2133
1014.323	-2008
1014.395	-1567
1014.467	-2179
1014.539	-2243
1014.611	-2393
1014.683	-2323
1014.754	-1770
1014.826	-1978
1014.898	-1519
1014.970	-2416
1015.042	-1746
1015.113	-2116
1015.185	-2174
1015.257	-1922
1015.328	-2020
1015.400	-2507
1015.471	-2193
1015.543	-2514
1015.615	-2229
1015.686	-1937
1015.757	-1666
1015.829	-1070
1015.901	-2367
1015.972	-2396
1016.043	-1924
1016.115	-1716
1016.186	-1696
1016.257	-2913
1016.328	-1359
1016.400	-1342
1016.471	-1334
1016.542	-1333
1016.613	-1996
1016.685	-2008
1016.756	-2078
1016.827	-2141
1016.898	-2370
1016.969	-1482
1017.040	-2455
1017.111	-1869
1017.182	-3128
1017.253	-2039
1017.324	-1962
1017.395	-1438
1017.466	-1150
1017.537	-1851
1017.608	-2568
1017.678	-2044
1017.749	-2264
1017.820	-1726
1017.891	-2157
1017.961	-2011
1018.032	-1695
1018.103	-1647
1018.173	-1878
1018.244	-2355
1018.315	-2683
1018.385	-2134
1018.456	-1972
1018.526	-1765
1018.597	-2354
1018.667	-1936
1018.738	-1472
1018.808	-2167
1018.878	-2567
1018.949	-1631
1019.019	-1989
1019.089	-1278
1019.160	-1212
1019.230	-2677
1019.300	-1507
1019.371	-2659
1019.441	-1255
1019.511	-1698
1019.581	-2697
1019.651	-1417
1019.721	-1933
1019.791	-2613
1019.861	-1950
1019.931	-1791
1020.001	-2657
1020.071	-1851
1020.141	-2656
1020.211	-1435
1020.281	-2313
1020.351	-1796
1020.421	-2033
1020.491	-2296
1020.560	-2296
1020.630	-1600
1020.700	-1267
1020.770	-2019
1020.839	-2133
1020.909	-2694
1020.979	-2378
1021.048	-1754
1021.118	-1800
1021.187	-1177
1021.257	-2577
1021.326	-1619
1021.396	-2079
1021.465	-1045
1021.535	-1922
1021.604	-2262
1021.674	-2001
1021.743	-2373
1021.812	-1632
1021.882	-2395
1021.951	-1128
1022.020	-2040
1022.089	-1532
1022.159	-1686
1022.228	-1963
1022.297	-1848
1022.366	-2375
1022.435	-1550
1022.504	-1723
1022.573	-2542
1022.642	-1858
1022.711	-2626
1022.781	-1535
1022.849	-1516
1022.918	-2232
1022.987	-1959
1023.056	-2781
1023.125	-1800
1023.194	-828
1023.263	-1022
1023.331	-2082
1023.400	-2699
1023.469	-2233
1023.538	-2017
1023.606	-2505
1023.675	-2117
1023.744	-1041
1023.812	-2473
1023.881	-1061
1023.949	-2736
1024.018	-1801
1024.086	-2096
1024.155	-2238
1024.223	-1576
1024.292	-1611
1024.360	-2437
1024.429	-2024
1024.497	-3049
1024.565	-1135
1024.634	-1535
1024.702	-1759
1024.770	-1930
1024.838	-1858
1024.907	-1540
1024.975	-3095
1025.043	-1308
1025.111	-2748
1025.179	-1883
1025.247	-1440
1025.315	-1549
1025.383	-2318
1025.451	-2738
1025.519	-1632
1025.587	-3030
1025.655	-1682
1025.723	-2532
1025.791	-2375
1025.859	-1662
1025.927	-1448
1025.995	-3195
1026.062	-2168
1026.130	-2662
1026.198	-2362
1026.266	-1890
1026.333	-1841
1026.401	-2118
1026.469	-2433
1026.536	-2341
1026.604	-2326
1026.671	-2847
1026.739	-1656
1026.806	-2442
1026.874	-1775
1026.941	-2393
1027.009	-1523
1027.076	-2045
1027.144	-1022
1027.211	-2221
1027.278	-2195
1027.345	-1553
1027.413	-2014
1027.480	-2161
1027.547	-2364
1027.614	-2133
1027.682	-2385
1027.749	-929
1027.816	-2059
1027.883	-1013
1027.950	-1355
1028.017	-1789
1028.084	-878
1028.151	-2869
1028.218	-1935
1028.285	-2133
1028.352	-2218
1028.419	-1956
1028.486	-1871
1028.553	-1227
1028.619	-2341
1028.686	-1659
1028.753	-1194
1028.820	-2446
1028.886	-2175
1028.953	-1847
1029.020	-1533
1029.086	-2218
1029.153	-1634
1029.220	-2446
1029.286	-1994
1029.353	-1237
1029.419	-1896
1029.486	-2357
1029.552	-2041
1029.619	-2501
1029.685	-2060
1029.751	-2026
1029.818	-2009
1029.884	-1902
1029.951	-926
1030.017	-2056
1030.083	-2201
1030.149	-2169
1030.216	-1945
1030.282	-1816
1030.348	-2070
1030.414	-2240
1030.480	-1699
1030.546	-1754
1030.612	-1603
1030.678	-2042
1030.744	-1502
1030.810	-1838
1030.876	-2046
1030.942	-2098
1031.008	-2200
1031.074	-2190
1031.140	-1793
1031.206	-1534
1031.272	-2008
1031.337	-1441
1031.403	-2256
1031.469	-1458
1031.534	-1809
1031.600	-2338
1031.666	-1789
1031.731	-2478
1031.797	-2615
1031.863	-1988
1031.928	-2051
1031.994	-2097
1032.059	-2251
1032.125	-2172
1032.190	-2966
1032.256	-1910
1032.321	-2332
1032.386	-1821
1032.452	-1644
1032.517	-2985
1032.582	-1891
1032.647	-1785
1032.713	-1632
1032.778	-1833
1032.843	-1900
1032.908	-2097
1032.974	-2208
1033.039	-2605
1033.104	-2175
1033.169	-1778
1033.234	-1727
1033.299	-2114
1033.364	-2257
1033.429	-1853
1033.494	-2087
1033.559	-2306
1033.624	-2417
1033.688	-2158
1033.753	-1728
1033.818	-2310
1033.883	-2178
1033.948	-1892
1034.013	-2186
1034.077	-1594
1034.142	-843
1034.207	-2369
1034.271	-1573
1034.336	-1240
1034.400	-2549
1034.465	-2568
1034.530	-1400
1034.594	-1571
1034.658	-1642
1034.723	-2188
1034.787	-1455
1034.852	-1799
1034.916	-1959
1034.981	-1984
1035.045	-2054
1035.109	-2524
1035.173	-916
1035.238	-1772
1035.302	-1734
1035.366	-2583
1035.430	-1898
1035.495	-1919
1035.559	-1559
1035.623	-1858
1035.687	-1739
1035.751	-1846
1035.815	-2032
1035.879	-1588
1035.943	-2740
1036.007	-2369
1036.071	-1444
1036.135	-1231
1036.198	-1756
1036.262	-1764
1036.326	-1679
1036.390	-2204
1036.454	-2031
1036.517	-1190
1036.581	-1388
1036.645	-1727
1036.709	-978
1036.772	-1984
1036.836	-2032
1036.900	-1862
1036.963	-2058
1037.026	-2089
1037.090	-2096
1037.154	-1854
1037.217	-2196
1037.280	-2088
1037.344	-1616
1037.407	-2570
1037.471	-1936
1037.534	-1736
1037.597	-1587
1037.661	-2105
1037.724	-2304
1037.787	-2609
1037.850	-1635
1037.913	-2202
1037.977	-2014
1038.040	-2131
1038.103	-1766
1038.166	-2053
1038.229	-1369
1038.292	-2733
1038.355	-2170
1038.418	-1976
1038.481	-1000
1038.544	-1149
1038.607	-2217
1038.670	-1765
1038.732	-1822
1038.795	-1967
1038.858	-1764
1038.921	-1477
1038.984	-1833
1039.046	-2360
1039.109	-1506
1039.172	-1575
1039.234	-2040
1039.297	-2369
1039.360	-1223
1039.422	-1839
1039.485	-1418
1039.547	-2286
1039.610	-1082
1039.672	-2016
1039.734	-2377
1039.797	-1818
1039.859	-1991
1039.922	-1864
1039.984	-2661
1040.046	-2072
1040.109	-2093
1040.171	-2563
1040.233	-2463
1040.295	-2522
1040.358	-2088
1040.420	-1687
1040.482	-2321
1040.544	-1885
1040.606	-1914
1040.668	-1858
1040.730	-2632
1040.792	-1576
1040.854	-1675
1040.916	-2202
1040.978	-1939
1041.040	-1379
1041.102	-1663
1041.164	-2039
1041.225	-2071
1041.287	-1840
1041.349	-1549
1041.411	-2184
1041.472	-2349
1041.534	-2387
1041.596	-2133
1041.657	-1642
1041.719	-2401
1041.781	-1889
1041.842	-2001
1041.904	-962
1041.965	-2397
1042.027	-1832
1042.088	-1791
1042.150	-1655
1042.211	-2167
1042.272	-1527
1042.334	-1925
1042.395	-1519
1042.456	-2249
1042.518	-1685
1042.579	-868
1042.640	-1980
1042.701	-1652
1042.763	-2534
1042.824	-2123
1042.885	-2049
1042.946	-2539
1043.007	-2288
1043.068	-1652
1043.129	-2223
1043.190	-1935
1043.251	-1196
1043.312	-2486
1043.373	-1516
1043.434	-2075
1043.495	-573
1043.556	-1685
1043.616	-1527
1043.677	-2182
1043.738	-1987
1043.799	-2954
1043.859	-1849
1043.920	-2291
1043.981	-2118
1044.041	-2491
1044.102	-2281
1044.162	-1923
1044.223	-2178
1044.284	-1645
1044.344	-2082
1044.405	-1885
1044.465	-2449
1044.525	-2405
1044.586	-2691
1044.646	-1383
1044.707	-1848
1044.767	-1737
1044.827	-1978
1044.887	-1461
1044.948	-2017
1045.008	-2141
1045.068	-2065
1045.128	-1689
1045.188	-2282
1045.249	-1438
1045.309	-1233
1045.369	-998
1045.429	-2043
1045.489	-1547
1045.549	-1304
1045.609	-2136
1045.669	-1712
1045.729	-1797
1045.789	-1679
1045.848	-895
1045.908	-501
1045.968	-1604
1046.028	-1938
1046.088	-1000
1046.147	-1350
1046.207	-1877
1046.267	-1291
1046.326	-663
1046.386	-2355
1046.446	-1278
1046.505	-1130
1046.565	-1095
1046.624	-385
1046.684	-360
1046.743	-168
1046.803	-830
1046.862	-773
1046.922	0
