'Start Wavelength	183.907
'End Wavelength	1046.922
'Gate Delay	5.000
'Gate Width (ms)	1.050
'Laser Output Level	0.000
'X Position	0.000
'Y Position	0.000
'Z Position	0.000
'Grid Point Number	1.000
'Shot Number	100.000
183.907	155.000
183.977	-151.000
184.047	1251
184.116	-6
184.186	304
184.256	134
184.325	-84
184.395	-274
184.465	680
184.534	318
184.604	316
184.674	-580
184.743	329
184.813	-48
184.883	726
184.952	243
185.022	113
185.092	285
185.161	250
185.231	289
185.301	119
185.370	209
185.440	811
185.509	781
185.579	438
185.649	-22
185.718	490
185.788	266
185.857	227
185.927	241
185.996	227
186.066	399
186.136	1071
186.205	109
186.275	916
186.344	447
186.414	771
186.483	415
186.553	1900
186.622	1528
186.692	668
186.761	-65
186.831	1065
186.900	1448
186.970	471
187.039	181
187.109	1118
187.178	600
187.248	356
187.317	141
187.387	1182
187.456	874
187.526	478
187.595	965
187.664	369
187.734	829
187.803	254
187.873	-101
187.942	1259
188.012	898
188.081	768
188.150	476
188.220	1920
188.289	1822
188.358	672
188.428	693
188.497	539
188.567	289
188.636	493
188.705	792
188.775	1004
188.844	166
188.913	1087
188.983	1029
189.052	824
189.121	668
189.191	1040
189.260	1728
189.329	1652
189.399	1221
189.468	975
189.537	761
189.606	768
189.676	918
189.745	1559
189.814	1531
189.883	667
189.953	374
190.022	1520
190.091	4494
190.161	3865
190.230	1650
190.299	744
190.368	814
190.437	1012
190.507	2022
190.576	953
190.645	198
190.714	890
190.783	909
190.853	1051
190.922	1210
190.991	568
191.060	778
191.129	1754
191.198	1078
191.268	911
191.337	1102
191.406	1692
191.475	992
191.544	748
191.613	726
191.682	1070
191.752	839
191.821	345
191.890	-4
191.959	1335
192.028	1173
192.097	974
192.166	633
192.235	829
192.304	843
192.373	1128
192.442	1491
192.511	458
192.580	140
192.650	1071
192.719	823
192.788	2194
192.857	2395
192.926	1063
192.995	1334
193.064	3355
193.133	2927
193.202	3461
193.271	1756
193.340	2362
193.409	3177
193.478	2251
193.547	4357
193.615	3957
193.684	2791
193.753	2333
193.822	1746
193.891	1176
193.960	1963
194.029	1316
194.098	1261
194.167	1535
194.236	1080
194.305	1257
194.374	979
194.443	1621
194.512	799
194.580	2225
194.649	1273
194.718	1802
194.787	1370
194.856	1730
194.925	1521
194.994	1760
195.062	1012
195.131	1845
195.200	1747
195.269	1989
195.338	660
195.407	1510
195.475	1719
195.544	1901
195.613	1464
195.682	1957
195.751	2349
195.819	1611
195.888	1125
195.957	2966
196.026	1997
196.094	2247
196.163	1407
196.232	2314
196.301	1998
196.369	2284
196.438	1532
196.507	2087
196.576	1735
196.644	1287
196.713	1708
196.782	1440
196.850	1536
196.919	804
196.988	1717
197.056	642
197.125	1245
197.194	1939
197.262	1009
197.331	1078
197.400	1237
197.468	1208
197.537	977
197.606	2053
197.674	3836
197.743	4860
197.812	2650
197.880	5568
197.949	3363
198.017	4008
198.086	2954
198.155	1848
198.223	3032
198.292	5874
198.360	3074
198.429	2315
198.497	2230
198.566	6269
198.635	3832
198.703	2603
198.772	2742
198.840	8650
198.909	4879
198.977	1988
199.046	2516
199.114	2051
199.183	1843
199.251	2342
199.320	2378
199.388	1213
199.457	1742
199.525	1753
199.594	1173
199.662	2862
199.731	1703
199.799	2053
199.867	2361
199.936	1874
200.004	1565
200.073	2064
200.141	1710
200.210	1646
200.278	1246
200.346	2555
200.415	3595
200.483	4069
200.552	2137
200.620	2311
200.688	2020
200.757	2113
200.825	1760
200.893	2001
200.962	2075
201.030	1860
201.098	1853
201.167	1967
201.235	1451
201.303	1909
201.372	1764
201.440	1568
201.508	1791
201.577	2062
201.645	2413
201.713	1828
201.781	1831
201.850	3068
201.918	1398
201.986	1930
202.055	1781
202.123	1381
202.191	1934
202.259	2025
202.327	2528
202.396	2062
202.464	1283
202.532	3705
202.600	6833
202.669	3049
202.737	2084
202.805	1091
202.873	2822
202.941	2068
203.009	1739
203.078	1605
203.146	2044
203.214	2400
203.282	1212
203.350	2376
203.418	2289
203.487	1828
203.555	1760
203.623	2102
203.691	1935
203.759	1393
203.827	1586
203.895	2563
203.963	2695
204.031	2774
204.099	2120
204.168	1907
204.236	2564
204.304	2589
204.372	1482
204.440	3255
204.508	2011
204.576	2218
204.644	1727
204.712	2220
204.780	1892
204.848	2827
204.916	1556
204.984	1629
205.052	2077
205.120	2422
205.188	2134
205.256	2048
205.324	1931
205.392	2109
205.460	2787
205.528	2879
205.596	2222
205.664	3271
205.732	3333
205.799	10672
205.867	8290
205.935	2526
206.003	2587
206.071	3289
206.139	2803
206.207	3146
206.275	2723
206.343	2923
206.411	3083
206.478	2484
206.546	2067
206.614	2637
206.682	3086
206.750	3430
206.818	4488
206.885	3476
206.953	2960
207.021	3049
207.089	2570
207.157	2339
207.225	2675
207.292	2533
207.360	3636
207.428	2408
207.496	2744
207.563	2822
207.631	2100
207.699	3162
207.767	2673
207.834	1991
207.902	3482
207.970	3644
208.038	3277
208.105	2863
208.173	3437
208.241	4402
208.309	3538
208.376	3951
208.444	6805
208.512	3260
208.579	2453
208.647	4040
208.715	3437
208.782	3178
208.850	2396
208.918	3614
208.985	3006
209.053	3003
209.120	2973
209.188	2435
209.256	2808
209.323	3736
209.391	4003
209.459	2984
209.526	3039
209.594	3000
209.661	3792
209.729	3734
209.796	3096
209.864	3689
209.932	3112
209.999	4355
210.067	4121
210.134	3196
210.202	3736
210.269	5036
210.337	5595
210.404	3122
210.472	4195
210.539	3516
210.607	3482
210.674	3862
210.742	3326
210.809	3392
210.877	4677
210.944	4237
211.012	3672
211.079	3972
211.146	3313
211.214	5128
211.281	6887
211.349	4788
211.416	4549
211.484	4358
211.551	3711
211.618	4303
211.686	4182
211.753	3678
211.821	4392
211.888	3315
211.955	4676
212.023	4572
212.090	4089
212.157	4192
212.225	4299
212.292	8947
212.359	20032
212.427	34018
212.494	10491
212.561	6754
212.629	5059
212.696	4677
212.763	3550
212.831	4258
212.898	3882
212.965	3122
213.032	3772
213.100	4747
213.167	4627
213.234	4900
213.301	4672
213.369	4562
213.436	3619
213.503	4963
213.570	5011
213.638	5343
213.705	3446
213.772	3749
213.839	6221
213.906	4348
213.973	4565
214.041	4051
214.108	4106
214.175	4567
214.242	4357
214.309	4420
214.376	5656
214.444	4123
214.511	4743
214.578	5444
214.645	5334
214.712	5793
214.779	5246
214.846	5164
214.913	6462
214.980	5990
215.048	6518
215.115	6837
215.182	5546
215.249	5917
215.316	4899
215.383	4353
215.450	4477
215.517	3799
215.584	4819
215.651	4085
215.718	4349
215.785	4717
215.852	5302
215.919	4561
215.986	4308
216.053	3869
216.120	3928
216.187	5007
216.254	4623
216.321	4283
216.388	4620
216.455	5313
216.522	4799
216.589	6466
216.656	9893
216.722	8162
216.789	6529
216.856	6962
216.923	6049
216.990	6563
217.057	5713
217.124	7895
217.191	7551
217.258	8549
217.324	8884
217.391	8229
217.458	7144
217.525	6622
217.592	5154
217.659	5636
217.725	5557
217.792	9990
217.859	6132
217.926	4385
217.993	4031
218.059	5035
218.126	4265
218.193	4238
218.260	4238
218.327	3370
218.393	3620
218.460	3307
218.527	4064
218.594	5601
218.660	9197
218.727	6943
218.794	4092
218.860	4471
218.927	3126
218.994	4259
219.061	3924
219.127	5403
219.194	6868
219.261	3701
219.327	3547
219.394	3929
219.461	2722
219.527	3534
219.594	7073
219.661	3872
219.727	2888
219.794	5380
219.860	3383
219.927	5250
219.994	9113
220.060	14352
220.127	9281
220.193	6458
220.260	6918
220.326	10547
220.393	14522
220.460	14672
220.526	9358
220.593	6662
220.659	7866
220.726	11306
220.792	21227
220.859	17052
220.925	23034
220.992	23482
221.058	27633
221.125	23811
221.191	16145
221.258	7636
221.324	7342
221.391	6051
221.457	4290
221.524	6244
221.590	10882
221.657	25828
221.723	12009
221.789	16819
221.856	10349
221.922	7281
221.989	5130
222.055	4829
222.121	5717
222.188	7355
222.254	5612
222.321	5175
222.387	2973
222.453	3256
222.520	3562
222.586	4578
222.652	3454
222.719	3526
222.785	3928
222.851	3593
222.918	3625
222.984	4553
223.050	3250
223.116	2801
223.183	3554
223.249	2594
223.315	2872
223.382	2941
223.448	2608
223.514	3229
223.580	3023
223.647	2368
223.713	3464
223.779	3231
223.845	2759
223.911	3603
223.978	2782
224.044	3242
224.110	3537
224.176	3889
224.242	2873
224.309	2890
224.375	2830
224.441	3528
224.507	3400
224.573	2907
224.639	3460
224.705	2383
224.772	2798
224.838	3208
224.904	2609
224.970	3362
225.036	3441
225.102	4433
225.168	3956
225.234	3283
225.300	3746
225.366	3092
225.432	3582
225.499	3706
225.565	3877
225.631	4724
225.697	4558
225.763	5918
225.829	5278
225.895	6928
225.961	8885
226.027	7080
226.093	7627
226.159	9092
226.225	16242
226.291	36499
226.357	36947
226.423	18251
226.489	11466
226.554	9181
226.620	9345
226.686	12135
226.752	17338
226.818	34931
226.884	63094
226.950	37101
227.016	16278
227.082	11389
227.148	9317
227.214	8486
227.279	7681
227.345	6163
227.411	7208
227.477	12549
227.543	26996
227.609	18234
227.674	8827
227.740	7073
227.806	6620
227.872	5712
227.938	6082
228.003	7105
228.069	4999
228.135	4888
228.201	3720
228.267	4123
228.332	4194
228.398	6550
228.464	4484
228.530	3530
228.595	3979
228.661	4845
228.727	7095
228.792	5343
228.858	4015
228.924	4565
228.990	4966
229.055	5429
229.121	4513
229.187	4012
229.252	4549
229.318	4246
229.384	4220
229.449	5354
229.515	3574
229.581	2495
229.646	4486
229.712	4793
229.777	13331
229.843	8945
229.909	8498
229.974	6993
230.040	6090
230.105	6754
230.171	6648
230.236	9583
230.302	10865
230.368	7387
230.433	6568
230.499	5933
230.564	5467
230.630	5357
230.695	4369
230.761	5204
230.826	5019
230.892	7010
230.957	3609
231.023	4226
231.088	5263
231.154	4478
231.219	5413
231.284	8146
231.350	5466
231.415	4567
231.481	3550
231.546	4173
231.612	4350
231.677	3994
231.742	2800
231.808	4308
231.873	3846
231.939	3653
232.004	8063
232.069	6344
232.135	5247
232.200	4236
232.265	3917
232.331	3922
232.396	3528
232.461	3900
232.527	2962
232.592	3254
232.657	4800
232.723	7534
232.788	3837
232.853	4235
232.918	3921
232.984	3702
233.049	3422
233.114	6923
233.179	5870
233.245	11795
233.310	7605
233.375	4296
233.440	3760
233.506	3999
233.571	3457
233.636	3992
233.701	3834
233.766	8618
233.832	5229
233.897	4604
233.962	4581
234.027	4833
234.092	4665
234.157	4531
234.222	6626
234.288	11422
234.353	21258
234.418	15362
234.483	9054
234.548	8113
234.613	6373
234.678	6556
234.743	9533
234.808	23229
234.873	9842
234.938	6577
235.004	6330
235.069	5785
235.134	4778
235.199	6456
235.264	4466
235.329	4725
235.394	6156
235.459	6575
235.524	5734
235.589	5287
235.654	5438
235.719	4628
235.784	4602
235.849	7539
235.913	11077
235.978	14560
236.043	10478
236.108	6489
236.173	6879
236.238	6651
236.303	5949
236.368	6561
236.433	11358
236.498	13034
236.563	12156
236.627	35371
236.692	88282
236.757	43162
236.822	21493
236.887	16726
236.952	13094
237.017	12284
237.081	12676
237.146	20033
237.211	41580
237.276	103358
237.341	106416
237.405	39299
237.470	21084
237.535	15135
237.600	10234
237.664	9134
237.729	7597
237.794	14177
237.859	18958
237.923	11282
237.988	8336
238.053	11632
238.118	11877
238.182	35203
238.247	16341
238.312	11645
238.376	8053
238.441	7634
238.506	6711
238.570	5080
238.635	5159
238.700	5645
238.764	6080
238.829	17066
238.893	11383
238.958	9254
239.023	7290
239.087	6601
239.152	6867
239.216	4942
239.281	5855
239.346	4628
239.410	4860
239.475	9179
239.539	33292
239.604	13188
239.668	7504
239.733	8525
239.797	24059
239.862	42590
239.926	26617
239.991	9834
240.055	7000
240.120	7191
240.184	5699
240.249	5824
240.313	5237
240.378	6391
240.442	22469
240.507	18567
240.571	7980
240.635	15697
240.700	10161
240.764	4880
240.829	4787
240.893	4555
240.957	5817
241.022	20927
241.086	20860
241.151	8360
241.215	4772
241.279	10201
241.344	11727
241.408	7680
241.472	6715
241.537	7381
241.601	6650
241.665	6229
241.730	6379
241.794	7237
241.858	5970
241.922	6309
241.987	6242
242.051	6085
242.115	5749
242.179	6241
242.244	5961
242.308	7103
242.372	7542
242.436	6749
242.501	5596
242.565	6262
242.629	5570
242.693	6538
242.757	5802
242.822	5453
242.886	6115
242.950	6807
243.014	6437
243.078	7393
243.142	6529
243.206	6800
243.271	7126
243.335	7731
243.399	14952
243.463	76188
243.527	85839
243.591	21528
243.655	11243
243.719	8623
243.783	10458
243.847	17411
243.911	16430
243.975	18235
244.040	9294
244.104	7285
244.168	7255
244.232	11744
244.296	14398
244.360	13260
244.424	7837
244.488	6463
244.552	6939
244.615	5206
244.679	5400
244.743	8829
244.807	5501
244.871	5267
244.935	5035
244.999	5073
245.063	5580
245.127	7861
245.191	14263
245.255	8995
245.319	8592
245.383	5916
245.446	7100
245.510	4766
245.574	5899
245.638	6043
245.702	9236
245.766	14810
245.829	7950
245.893	7280
245.957	6036
246.021	7870
246.085	8160
246.149	10225
246.212	29812
246.276	27114
246.340	11339
246.404	8735
246.467	13214
246.531	13797
246.595	8943
246.659	8796
246.722	8640
246.786	8600
246.850	13496
246.913	11611
246.977	6262
247.041	7728
247.104	6867
247.168	9202
247.232	29208
247.295	42121
247.359	12527
247.423	12491
247.486	15993
247.550	9254
247.614	8227
247.677	10111
247.741	7093
247.804	8772
247.868	10697
247.932	30043
247.995	32373
248.059	10793
248.122	6934
248.186	10492
248.249	26411
248.313	86516
248.376	55651
248.440	33431
248.503	12375
248.567	14271
248.630	19983
248.694	24073
248.757	44550
248.821	68634
248.884	29611
248.948	48172
249.011	59917
249.075	90129
249.138	48942
249.202	20406
249.265	16973
249.328	19827
249.392	14142
249.455	11385
249.519	10672
249.582	14428
249.645	21871
249.709	13153
249.772	11710
249.835	12185
249.899	12140
249.962	11461
250.025	12147
250.089	38107
250.152	25662
250.215	14498
250.279	12385
250.342	12849
250.405	13068
250.468	11497
250.532	16831
250.595	34626
250.658	156447
250.721	116304
250.785	39957
250.848	24889
250.911	16528
250.974	15991
251.038	34159
251.101	37060
251.164	20509
251.227	21495
251.290	20156
251.354	52674
251.417	178347
251.480	92654
251.543	134844
251.606	280578
251.669	123011
251.732	59056
251.795	70317
251.859	90123
251.922	160521
251.985	54541
252.048	27959
252.111	22578
252.174	23088
252.237	57625
252.300	82831
252.363	141169
252.426	174433
252.489	55809
252.552	32345
252.615	25391
252.678	34787
252.741	73730
252.804	136617
252.867	187953
252.930	86285
252.993	44836
253.056	30566
253.119	21505
253.182	22760
253.245	33967
253.308	20108
253.371	20251
253.434	16663
253.497	22904
253.559	39238
253.622	21371
253.685	30728
253.748	19324
253.811	12641
253.874	20493
253.937	14589
254.000	14445
254.062	37389
254.125	32766
254.188	34753
254.251	19533
254.314	14948
254.376	27606
254.439	19918
254.502	18535
254.565	38339
254.628	36804
254.690	18536
254.753	11422
254.816	11545
254.878	15801
254.941	38510
255.004	20729
255.067	12323
255.129	9521
255.192	7187
255.255	8348
255.317	8016
255.380	6241
255.443	7229
255.505	6804
255.568	4703
255.631	6307
255.693	7497
255.756	5602
255.819	7334
255.881	6528
255.944	5390
256.006	7377
256.069	5210
256.132	5876
256.194	11832
256.257	20512
256.319	16051
256.382	14265
256.444	10671
256.507	8494
256.569	6985
256.632	9768
256.694	17394
256.757	74967
256.819	100620
256.882	30895
256.944	16269
257.007	15803
257.069	13662
257.132	10006
257.194	9044
257.257	10290
257.319	9267
257.381	14280
257.444	53787
257.506	180069
257.569	105010
257.631	53333
257.693	26898
257.756	16542
257.818	13360
257.880	10244
257.943	8863
258.005	6744
258.067	7285
258.130	7703
258.192	11179
258.254	15748
258.317	7705
258.379	12016
258.441	29676
258.503	15756
258.566	38162
258.628	21801
258.690	8724
258.753	12415
258.815	14862
258.877	8097
258.939	8413
259.001	7579
259.064	6912
259.126	11449
259.188	10618
259.250	9811
259.312	16570
259.375	30657
259.437	12128
259.499	8239
259.561	8272
259.623	8602
259.685	6623
259.747	10328
259.809	39217
259.872	39838
259.934	82711
259.996	35238
260.058	13235
260.120	9060
260.182	7142
260.244	7310
260.306	5773
260.368	6182
260.430	6088
260.492	16481
260.554	29024
260.616	17918
260.678	50130
260.740	28710
260.802	10234
260.864	9224
260.926	8196
260.988	8235
261.050	10375
261.112	24723
261.174	53920
261.236	22254
261.298	11426
261.359	27588
261.421	18402
261.483	8302
261.545	8013
261.607	6672
261.669	7728
261.731	20721
261.793	25053
261.854	10327
261.916	8985
261.978	8697
262.040	8100
262.102	8443
262.164	13779
262.225	7221
262.287	9171
262.349	20334
262.411	9010
262.472	8210
262.534	22926
262.596	20572
262.658	8124
262.719	6621
262.781	15739
262.843	22921
262.904	9324
262.966	10057
263.028	16987
263.090	111841
263.151	110900
263.213	32320
263.275	17655
263.336	10189
263.398	8724
263.459	7403
263.521	9045
263.583	17846
263.644	8131
263.706	5562
263.767	4916
263.829	5382
263.891	4421
263.952	4511
264.014	4257
264.075	12282
264.137	14458
264.198	7572
264.260	4596
264.321	6441
264.383	21175
264.444	20850
264.506	7392
264.567	7296
264.629	18531
264.690	16768
264.752	7567
264.813	7299
264.875	5321
264.936	6455
264.998	5825
265.059	6258
265.120	8173
265.182	19978
265.243	77238
265.305	33306
265.366	11352
265.427	8044
265.489	7102
265.550	4916
265.611	8157
265.673	6010
265.734	5130
265.795	5771
265.857	6502
265.918	7882
265.979	35298
266.040	118851
266.102	43484
266.163	16973
266.224	12618
266.286	8675
266.347	5705
266.408	6784
266.469	6465
266.530	5896
266.592	6199
266.653	15528
266.714	11937
266.775	6205
266.836	4799
266.898	5233
266.959	8266
267.020	4791
267.081	5349
267.142	4845
267.203	4909
267.264	4377
267.326	6474
267.387	3892
267.448	4079
267.509	5696
267.570	4596
267.631	4092
267.692	3899
267.753	5303
267.814	4727
267.875	17744
267.936	17664
267.997	10726
268.058	7816
268.119	5671
268.180	6420
268.241	4589
268.302	4064
268.363	4329
268.424	5443
268.485	5296
268.546	4049
268.607	4061
268.668	4302
268.729	4128
268.790	4247
268.851	6405
268.912	18235
268.972	11590
269.033	5984
269.094	4660
269.155	4904
269.216	4638
269.277	5764
269.338	4576
269.398	5367
269.459	5890
269.520	7587
269.581	9744
269.642	9716
269.702	7292
269.763	5499
269.824	6265
269.885	9051
269.945	8431
270.006	5207
270.067	4554
270.128	5181
270.188	4566
270.249	4456
270.310	4462
270.370	5564
270.431	5462
270.492	3713
270.553	7329
270.613	14967
270.674	17495
270.734	6858
270.795	6243
270.856	8954
270.916	5692
270.977	5477
271.038	7862
271.098	6704
271.159	12592
271.219	6802
271.280	5501
271.340	4995
271.401	10304
271.462	12989
271.522	7246
271.583	6069
271.643	6152
271.704	5237
271.764	8697
271.825	24470
271.885	82512
271.946	49204
272.006	20163
272.066	57352
272.127	45107
272.187	17142
272.248	11583
272.308	22869
272.369	44833
272.429	15281
272.489	17452
272.550	12825
272.610	15612
272.671	9506
272.731	16385
272.791	15085
272.852	9532
272.912	8162
272.972	6248
273.033	7530
273.093	9437
273.153	7687
273.214	6782
273.274	10494
273.334	49488
273.394	40667
273.455	16504
273.515	32598
273.575	36436
273.635	15019
273.696	43040
273.756	45499
273.816	15608
273.876	12735
273.936	39894
273.997	27343
274.057	9773
274.117	9966
274.177	27215
274.237	81152
274.297	41394
274.358	36871
274.418	47140
274.478	22246
274.538	11487
274.598	16480
274.658	44558
274.718	33772
274.778	12607
274.838	10425
274.898	40204
274.958	58310
275.018	61725
275.078	23044
275.138	11680
275.198	9208
275.258	8468
275.318	11830
275.378	15701
275.438	12287
275.498	12621
275.558	46340
275.618	57231
275.678	25529
275.738	21651
275.798	13817
275.858	8261
275.918	6389
275.978	8377
276.038	6578
276.098	6596
276.157	20888
276.217	27305
276.277	11922
276.337	9021
276.397	7013
276.457	8001
276.517	5318
276.576	5849
276.636	6447
276.696	12174
276.756	23132
276.815	10690
276.875	8678
276.935	8433
276.995	6977
277.055	7218
277.114	7027
277.174	17531
277.234	23559
277.293	10135
277.353	6322
277.413	5536
277.472	6928
277.532	6380
277.592	9745
277.651	33932
277.711	23155
277.771	20800
277.830	50492
277.890	24763
277.950	54371
278.009	66775
278.069	20972
278.128	37214
278.188	25663
278.248	21782
278.307	41240
278.367	16441
278.426	8983
278.486	8109
278.545	6060
278.605	6729
278.664	6562
278.724	9758
278.783	42222
278.843	42327
278.902	12486
278.962	9879
279.021	10866
279.081	15584
279.140	11801
279.199	10517
279.259	10858
279.318	11834
279.378	16768
279.437	48910
279.496	145483
279.556	267071
279.615	99829
279.675	36091
279.734	32222
279.793	71656
279.853	68106
279.912	22343
279.971	15172
280.031	18247
280.090	55374
280.149	45288
280.208	60721
280.268	202590
280.327	85440
280.386	28997
280.445	30493
280.505	18472
280.564	11981
280.623	10718
280.682	23246
280.742	17471
280.801	7752
280.860	7348
280.919	6300
280.978	5985
281.037	6384
281.097	5828
281.156	6690
281.215	6346
281.274	15673
281.333	42144
281.392	14526
281.451	7425
281.510	6553
281.569	5959
281.628	4743
281.688	4947
281.747	6770
281.806	5779
281.865	4715
281.924	5184
281.983	5195
282.042	4521
282.101	4585
282.160	4729
282.219	5044
282.278	9198
282.337	18603
282.396	8049
282.454	6674
282.513	13215
282.572	24502
282.631	9351
282.690	5451
282.749	5225
282.808	6486
282.867	7286
282.926	4807
282.985	4675
283.043	3712
283.102	4911
283.161	7811
283.220	25553
283.279	21893
283.338	8147
283.396	6390
283.455	6327
283.514	7386
283.573	8490
283.631	8037
283.690	5282
283.749	5915
283.808	14517
283.866	7882
283.925	5352
283.984	6411
284.043	9390
284.101	6064
284.160	5430
284.219	8183
284.277	7250
284.336	16637
284.395	39879
284.453	16141
284.512	10466
284.570	12939
284.629	9587
284.688	8912
284.746	9873
284.805	10636
284.863	13305
284.922	15453
284.981	18323
285.039	30446
285.098	67439
285.156	213291
285.215	387602
285.273	244329
285.332	104263
285.390	57603
285.449	38870
285.507	27366
285.566	18889
285.624	14902
285.683	11625
285.741	9924
285.799	8980
285.858	8173
285.916	7957
285.975	6813
286.033	5961
286.091	6356
286.150	4762
286.208	5653
286.267	7784
286.325	7714
286.383	10435
286.442	7297
286.500	6657
286.558	5649
286.616	5253
286.675	7370
286.733	5426
286.791	5824
286.850	7317
286.908	11495
286.966	11178
287.024	4918
287.083	6001
287.141	4399
287.199	7706
287.257	7718
287.315	6705
287.374	10382
287.432	15294
287.490	7515
287.548	7177
287.606	5665
287.664	7657
287.723	9710
287.781	8626
287.839	7573
287.897	8387
287.955	12604
288.013	23310
288.071	70364
288.129	296590
288.187	354338
288.245	115675
288.303	49978
288.361	33643
288.419	25310
288.477	16543
288.535	11740
288.593	9251
288.651	7465
288.709	6029
288.767	6889
288.825	4938
288.883	6312
288.941	5649
288.999	4486
289.057	5342
289.115	5187
289.173	4414
289.231	5073
289.289	4642
289.346	4332
289.404	7263
289.462	8671
289.520	7276
289.578	4589
289.636	4248
289.694	4602
289.751	3754
289.809	4702
289.867	4426
289.925	6103
289.983	5972
290.040	4983
290.098	4842
290.156	4814
290.214	5743
290.271	3769
290.329	4941
290.387	3899
290.444	3675
290.502	3162
290.560	4898
290.617	4235
290.675	4269
290.733	4174
290.790	4523
290.848	4191
290.906	5194
290.963	4693
291.021	4912
291.078	4915
291.136	6465
291.194	23434
291.251	20865
291.309	5934
291.366	5072
291.424	4317
291.481	4937
291.539	4556
291.596	4344
291.654	3267
291.711	3375
291.769	6434
291.826	8186
291.884	5253
291.941	4056
291.999	4437
292.056	4541
292.114	4003
292.171	5233
292.228	6177
292.286	6150
292.343	9372
292.401	8443
292.458	6527
292.515	5809
292.573	6788
292.630	6851
292.687	5425
292.745	5270
292.802	9303
292.859	21592
292.917	27393
292.974	10166
293.031	5741
293.089	5254
293.146	4757
293.203	3945
293.260	5070
293.318	7703
293.375	6016
293.432	4331
293.489	4753
293.546	5612
293.604	11574
293.661	40257
293.718	45598
293.775	15970
293.832	11702
293.889	10481
293.947	10981
294.004	7277
294.061	9107
294.118	20764
294.175	28894
294.232	21460
294.289	9860
294.346	8416
294.403	7478
294.460	6023
294.517	5225
294.574	5111
294.631	5268
294.688	9310
294.745	33003
294.802	67757
294.859	37444
294.916	19967
294.973	12543
295.030	9789
295.087	7466
295.144	6396
295.201	5882
295.258	4956
295.315	11613
295.372	38200
295.429	32698
295.486	12856
295.542	13147
295.599	32031
295.656	28971
295.713	34288
295.770	28576
295.827	10936
295.883	8564
295.940	8998
295.997	11383
296.054	8412
296.111	5169
296.167	4441
296.224	3497
296.281	4358
296.338	4030
296.394	5188
296.451	8568
296.508	26469
296.564	25984
296.621	26989
296.678	69939
296.734	47252
296.791	17298
296.848	12202
296.904	16258
296.961	33332
297.018	47442
297.074	20988
297.131	11061
297.187	11841
297.244	25186
297.301	82851
297.357	62536
297.414	20155
297.470	11348
297.527	8776
297.583	7230
297.640	6700
297.696	5655
297.753	5202
297.809	4569
297.866	3914
297.922	4207
297.979	4283
298.035	6594
298.092	14482
298.148	30037
298.204	17333
298.261	14017
298.317	39573
298.374	55536
298.430	22560
298.486	12615
298.543	10653
298.599	10748
298.656	12690
298.712	29252
298.768	46379
298.824	21244
298.881	9915
298.937	7386
298.993	8193
299.050	7888
299.106	7240
299.162	6590
299.218	5993
299.275	5057
299.331	9348
299.387	29733
299.443	70392
299.500	49580
299.556	21401
299.612	13588
299.668	16194
299.724	29947
299.780	19882
299.837	12579
299.893	24250
299.949	58836
300.005	46138
300.061	65065
300.117	68498
300.173	25164
300.229	16294
300.285	18668
300.341	15439
300.397	8386
300.453	7538
300.510	6608
300.566	8757
300.622	23349
300.678	64136
300.734	56457
300.790	53333
300.845	48201
300.901	48633
300.957	49237
301.013	23887
301.069	11806
301.125	10970
301.181	9179
301.237	7758
301.293	5372
301.349	6345
301.405	5407
301.461	5634
301.516	6077
301.572	8156
301.628	10093
301.684	10807
301.740	21376
301.796	21418
301.851	17512
301.907	26601
301.963	33441
302.019	93283
302.074	157790
302.130	100021
302.186	39697
302.242	20411
302.297	16590
302.353	22022
302.409	28533
302.464	19433
302.520	27515
302.576	57355
302.631	40886
302.687	19465
302.743	10957
302.798	9052
302.854	7758
302.910	7455
302.965	10065
303.021	13456
303.076	13086
303.132	17050
303.187	13838
303.243	8402
303.299	6456
303.354	5329
303.410	5387
303.465	4934
303.521	4662
303.576	5480
303.632	9081
303.687	28194
303.743	49444
303.798	27091
303.853	11016
303.909	8531
303.964	8917
304.020	12813
304.075	13116
304.130	14863
304.186	22578
304.241	20313
304.297	14708
304.352	8656
304.358	8565
304.407	7829
304.449	8004
304.463	8069
304.518	6687
304.539	6469
304.573	6120
304.629	8841
304.630	9093
304.684	20908
304.720	39047
304.739	48148
304.794	41380
304.811	34742
304.850	18257
304.902	10088
304.905	9618
304.960	8879
304.992	8537
305.015	8329
305.071	7823
305.083	7414
305.126	5696
305.173	4676
305.181	4561
305.236	4616
305.264	5365
305.292	6071
305.347	6698
305.354	6815
305.402	7696
305.445	9039
305.457	9391
305.512	9323
305.535	9156
305.567	8952
305.622	11500
305.626	12287
305.678	28477
305.716	47221
305.733	53626
305.788	42019
305.807	39683
305.843	37027
305.897	53690
305.898	53864
305.953	36232
305.988	25199
306.008	19385
306.063	12401
306.078	11153
306.118	9193
306.168	6282
306.173	6047
306.228	5785
306.259	5431
306.283	5213
306.338	5515
306.349	5706
306.393	6634
306.440	7353
306.448	7432
306.503	7155
306.530	8530
306.558	11589
306.613	22037
306.620	23504
306.668	34028
306.711	43001
306.723	43214
306.778	26484
306.801	20570
306.833	14394
306.888	8039
306.892	7756
306.943	6722
306.982	6548
306.997	6561
307.052	6230
307.072	6378
307.107	7085
307.162	8941
307.163	8971
307.217	13157
307.253	15197
307.272	15333
307.327	14188
307.343	13494
307.381	11826
307.434	12024
307.436	12435
307.491	26749
307.524	36189
307.546	38388
307.600	32396
307.614	29714
307.655	18757
307.704	10840
307.710	10858
307.765	13963
307.795	17685
307.819	21919
307.874	29956
307.885	30237
307.929	24062
307.975	20458
307.984	21592
308.038	33936
308.065	46919
308.093	84210
308.148	189502
308.156	207773
308.202	311927
308.246	338668
308.257	314553
308.312	155033
308.336	98103
308.366	75468
308.421	43837
308.426	41312
308.475	28870
308.517	21262
308.530	20079
308.585	16575
308.607	15588
308.639	15366
308.694	16344
308.697	16620
308.748	29795
308.787	39692
308.803	38935
308.857	28316
308.877	25320
308.912	23406
308.967	22186
308.967	22181
309.021	31799
309.058	41199
309.076	53856
309.130	102889
309.148	124882
309.185	244994
309.238	444532
309.239	446141
309.293	452621
309.328	411627
309.348	338398
309.402	146415
309.418	97180
309.457	68425
309.508	40259
309.511	39656
309.566	33761
309.598	31212
309.620	33093
309.674	40239
309.688	41823
309.729	38395
309.778	32090
309.783	31394
309.837	23980
309.868	21136
309.892	26680
309.946	43245
309.959	47329
310.001	61794
310.049	72467
310.055	69500
310.109	38707
310.139	22915
310.163	18634
310.218	11755
310.229	10427
310.272	9165
310.319	8193
310.326	8078
310.381	7593
310.409	7196
310.435	7043
310.489	6953
310.499	6925
310.543	7068
310.589	7408
310.598	7432
310.652	7587
310.679	7479
310.706	6697
310.760	5126
310.769	4921
310.814	5284
310.859	5605
310.868	5602
310.923	5337
310.948	5404
310.977	6132
311.031	7395
311.038	7562
311.085	6895
311.128	6115
311.139	6204
311.193	6711
311.218	6908
311.247	6210
311.301	4814
311.308	4663
311.356	5208
311.398	5614
311.410	5539
311.464	5105
311.488	4936
311.518	5332
311.572	6027
311.578	6101
311.626	7310
311.668	8367
311.680	8506
311.734	8956
311.758	9156
311.788	8787
311.842	8103
311.847	8020
311.896	10129
311.937	11970
311.950	11792
312.004	10858
312.027	10426
312.058	8853
312.112	6037
312.117	5748
312.165	5831
312.207	5893
312.297	9335
312.386	7326
312.476	6820
312.566	13117
312.656	7194
312.745	5386
312.835	6143
312.925	6906
313.015	8108
313.104	8023
313.194	6586
313.284	5835
313.374	8930
313.463	7651
313.553	6538
313.643	6452
313.732	6457
313.822	6187
313.912	7593
314.001	8063
314.091	9220
314.180	11333
314.270	10471
314.360	10442
314.449	10439
314.539	7413
314.628	7384
314.718	8729
314.808	10872
314.897	7791
314.987	9376
315.076	10179
315.166	12822
315.255	10546
315.345	12005
315.434	11650
315.524	11091
315.613	13887
315.703	18832
315.792	43370
315.881	169133
315.971	62697
316.060	21187
316.150	25923
316.239	25804
316.328	12073
316.418	8464
316.507	8267
316.597	10662
316.686	12019
316.775	14639
316.865	26636
316.954	10029
317.043	7978
317.133	8583
317.222	7117
317.311	7898
317.400	7743
317.490	10497
317.579	13699
317.668	14120
317.757	25322
317.847	77102
317.936	285838
318.025	95793
318.114	55413
318.203	29801
318.293	18693
318.382	33973
318.471	28072
318.560	37717
318.649	64022
318.738	16468
318.828	11183
318.917	11032
319.006	12940
319.095	33543
319.184	78865
319.273	44988
319.362	23367
319.451	9012
319.540	9074
319.629	18211
319.718	27284
319.807	13291
319.896	29815
319.985	98805
320.074	39254
320.163	10385
320.252	17499
320.341	14268
320.430	12112
320.519	15214
320.608	10754
320.697	10254
320.786	10063
320.875	12894
320.964	15357
321.053	22680
321.142	29914
321.230	32450
321.319	26313
321.408	52577
321.497	26865
321.586	24980
321.675	27735
321.764	25725
321.852	18253
321.941	29281
322.030	21782
322.119	23750
322.207	53747
322.296	41638
322.385	25104
322.474	30523
322.562	68285
322.651	39566
322.740	28588
322.829	39360
322.917	34954
323.006	22431
323.095	18635
323.183	14551
323.272	19586
323.361	36093
323.449	106436
323.538	39243
323.626	71419
323.715	49290
323.804	18788
323.892	63692
323.981	37380
324.069	12153
324.158	34511
324.246	36922
324.335	13407
324.424	18842
324.512	9138
324.601	10426
324.689	12736
324.778	22399
324.866	25727
324.954	9647
325.043	7810
325.131	15419
325.220	26576
325.308	29822
325.397	21956
325.485	14873
325.574	7025
325.662	6794
325.750	7650
325.839	7235
325.927	5793
326.015	8197
326.104	11712
326.192	17574
326.280	6145
326.369	6815
326.457	8307
326.545	16497
326.634	8953
326.722	5653
326.810	6410
326.898	6339
326.987	7626
327.075	14748
327.163	15102
327.251	9386
327.340	9492
327.428	12067
327.516	8642
327.604	7150
327.692	7592
327.781	7530
327.869	12788
327.957	9707
328.045	8696
328.133	5443
328.221	6359
328.309	6955
328.397	5914
328.485	8302
328.574	12547
328.662	35796
328.750	21984
328.838	10404
328.926	6626
329.014	6236
329.102	8026
329.190	19106
329.278	13249
329.366	5599
329.454	5151
329.542	7002
329.630	5406
329.718	6666
329.806	7745
329.893	8245
329.981	8417
330.069	14443
330.157	68577
330.245	225279
330.333	119278
330.421	18227
330.509	13531
330.597	38382
330.684	27205
330.772	10655
330.860	12143
330.948	15718
331.036	8019
331.123	5226
331.211	5712
331.299	6841
331.387	13614
331.475	23373
331.562	8966
331.650	5541
331.738	6194
331.825	9159
331.913	5838
332.001	5420
332.089	7555
332.176	12764
332.264	31400
332.352	27488
332.439	8467
332.527	7124
332.614	5323
332.702	8212
332.790	6892
332.877	15801
332.965	30403
333.052	10177
333.140	8529
333.228	17944
333.315	7027
333.403	7485
333.490	18744
333.578	16627
333.665	17698
333.753	12653
333.840	7602
333.928	9962
334.015	20603
334.103	35964
334.190	110485
334.278	35989
334.365	21578
334.452	20442
334.540	12822
334.627	13209
334.715	18101
334.802	31800
334.889	138542
334.977	164753
335.064	37639
335.151	17885
335.239	12657
335.326	15514
335.413	53883
335.501	77440
335.588	15152
335.675	11723
335.762	14436
335.850	23342
335.937	24619
336.024	52428
336.111	167354
336.199	99446
336.286	30305
336.373	16149
336.460	10318
336.547	10381
336.635	9994
336.722	9630
336.809	8028
336.896	10660
336.983	28638
337.070	72957
337.157	113459
337.245	82153
337.332	62983
337.419	10847
337.506	6555
337.593	7634
337.680	23017
337.767	65456
337.854	20683
337.941	20394
338.028	25585
338.115	13209
338.202	10144
338.289	21251
338.376	76785
338.463	28646
338.550	36968
338.637	43302
338.724	14380
338.811	24054
338.898	7037
338.984	5883
339.071	6690
339.158	8683
339.245	18697
339.332	13450
339.419	15481
339.506	17221
339.593	5147
339.679	5485
339.766	5714
339.853	8043
339.940	14506
340.027	6682
340.113	5791
340.200	8170
340.287	6803
340.374	8152
340.460	13026
340.547	6107
340.634	9537
340.720	38178
340.807	24988
340.894	5783
340.980	6141
341.067	5976
341.154	6031
341.240	8798
341.327	19101
341.414	7932
341.500	7542
341.587	6230
341.674	5816
341.760	12680
341.847	15552
341.933	6920
342.020	4475
342.106	4174
342.193	5822
342.279	11443
342.366	7839
342.452	13706
342.539	8562
342.625	16632
342.712	41260
342.798	18934
342.885	8332
342.971	4316
343.058	4049
343.144	4633
343.230	5414
343.317	5697
343.403	5107
343.490	4303
343.576	4397
343.662	5668
343.749	6837
343.835	8978
343.921	14524
344.008	99756
344.094	253237
344.180	59528
344.267	16278
344.353	55426
344.439	62186
344.525	22489
344.612	10191
344.698	9782
344.784	7061
344.870	5262
344.957	5324
345.043	9253
345.129	6979
345.215	13912
345.301	8419
345.387	6539
345.474	4417
345.560	5387
345.646	5607
345.732	6861
345.818	5415
345.904	6813
345.990	6456
346.076	7344
346.162	11861
346.249	6759
346.335	5119
346.421	8543
346.507	26206
346.593	90448
346.679	24365
346.765	7357
346.851	9631
346.937	8388
347.023	5574
347.108	6982
347.194	5427
347.280	5314
347.366	8128
347.452	29562
347.538	116159
347.624	77914
347.710	57669
347.796	10910
347.882	6216
347.967	6495
348.053	6777
348.139	6029
348.225	5134
348.311	6260
348.397	4364
348.482	6905
348.568	7833
348.654	6591
348.740	16090
348.825	19301
348.911	12732
348.997	48749
349.083	103878
349.168	19148
349.254	6597
349.340	6533
349.425	5174
349.511	7258
349.597	9098
349.682	16155
349.768	53281
349.854	29496
349.939	6396
350.025	4985
350.110	6166
350.196	5005
350.282	3742
350.367	4343
350.453	8080
350.538	10075
350.624	7526
350.709	7768
350.795	5120
350.880	5875
350.966	6344
351.051	8932
351.137	6967
351.222	5535
351.308	15677
351.393	42097
351.479	14184
351.564	6013
351.649	5072
351.735	5770
351.820	4410
351.906	4854
351.991	7101
352.076	26559
352.162	43632
352.247	10119
352.332	5696
352.418	11107
352.503	15058
352.588	56006
352.673	51730
352.759	11901
352.844	6751
352.929	7390
353.014	8967
353.100	7571
353.185	14534
353.270	17828
353.355	15492
353.441	6636
353.526	6460
353.611	13672
353.696	16068
353.781	9992
353.866	5440
353.952	5905
354.037	12793
354.122	29224
354.207	25486
354.292	12143
354.377	5962
354.462	5728
354.547	7332
354.632	7559
354.717	10274
354.802	18696
354.887	9527
354.972	5452
355.057	4841
355.142	4377
355.227	6202
355.312	9670
355.397	19347
355.482	44598
355.567	25497
355.652	15944
355.737	18605
355.822	58995
355.907	56712
355.991	10010
356.076	6504
356.161	6214
356.246	5719
356.331	7204
356.416	15834
356.501	107491
356.585	130605
356.670	18790
356.755	10247
356.840	15294
356.924	73212
357.009	272338
357.094	113655
357.179	19081
357.263	12857
357.348	12014
357.433	12410
357.517	11597
357.602	10226
357.687	9084
357.771	14987
357.856	33561
357.941	25090
358.025	56564
358.110	267104
358.195	142266
358.279	17887
358.364	13242
358.448	37496
358.533	105992
358.617	81273
358.702	77535
358.787	31799
358.871	15671
358.956	14428
359.040	7049
359.125	5884
359.209	6481
359.294	16852
359.378	30048
359.462	16499
359.547	9926
359.631	7589
359.716	5941
359.800	5833
359.885	8657
359.969	7140
360.053	8098
360.138	7622
360.222	9516
360.306	14767
360.391	11727
360.475	18924
360.559	42163
360.644	38200
360.728	33334
360.812	57398
360.896	176018
360.981	69596
361.065	30759
361.149	10970
361.233	9584
361.318	8277
361.402	9440
361.486	8050
361.570	7388
361.654	9556
361.739	22060
361.823	102924
361.907	185717
361.991	37054
362.075	18588
362.159	33530
362.243	31281
362.327	46963
362.411	70634
362.495	33434
362.580	15790
362.664	12244
362.748	13450
362.832	19375
362.916	37503
363.000	113647
363.084	248360
363.168	257319
363.252	65036
363.336	20813
363.420	23509
363.503	70671
363.587	94796
363.671	20439
363.755	14599
363.839	18199
363.923	14112
364.007	21446
364.091	28009
364.175	41636
364.258	142830
364.342	176050
364.426	269807
364.510	159439
364.594	47620
364.677	40142
364.761	149367
364.845	123454
364.929	31615
365.013	24347
365.096	18809
365.180	24260
365.264	32588
365.347	118990
365.431	59495
365.515	14251
365.598	8766
365.682	7290
365.766	11343
365.849	13676
365.933	9290
366.017	10753
366.100	9506
366.184	5710
366.267	7043
366.351	6388
366.435	6556
366.518	6086
366.602	5798
366.685	6501
366.769	7373
366.852	10065
366.936	18103
367.019	11860
367.103	10681
367.186	14878
367.270	7581
367.353	5766
367.436	7820
367.520	6480
367.603	8158
367.687	11539
367.770	18590
367.853	13857
367.937	38338
368.020	72713
368.104	20420
368.187	12847
368.270	19312
368.353	17872
368.437	22504
368.520	48548
368.603	33875
368.687	41982
368.770	84978
368.853	24636
368.936	15824
369.020	18110
369.103	8903
369.186	6262
369.269	7100
369.352	11836
369.436	17542
369.519	11608
369.602	7676
369.685	7102
369.768	8759
369.851	6168
369.934	4955
370.018	6610
370.101	15777
370.184	12499
370.267	9705
370.350	14789
370.433	24745
370.516	80199
370.599	143576
370.682	56506
370.765	40170
370.848	52375
370.931	107205
371.014	50531
371.097	12338
371.180	7022
371.263	5998
371.346	4947
371.429	5646
371.511	5775
371.594	10531
371.677	15319
371.760	17243
371.843	17696
371.926	86911
372.009	227337
372.091	78555
372.174	39593
372.257	110072
372.340	50563
372.423	23021
372.505	26056
372.588	14289
372.671	29978
372.754	99121
372.836	59256
372.919	31265
373.002	61762
373.085	24061
373.167	15384
373.250	41806
373.332	101888
373.415	138304
373.498	303720
373.580	132568
373.663	186986
373.746	280116
373.828	61415
373.911	19043
373.993	20265
374.076	59195
374.159	64545
374.241	30354
374.324	79069
374.406	64214
374.489	82878
374.571	249945
374.654	119154
374.736	47125
374.819	147764
374.901	214077
374.983	239170
375.066	49046
375.148	17000
375.231	50466
375.313	102517
375.395	42082
375.478	13653
375.560	10606
375.643	12588
375.725	42639
375.807	181468
375.890	157494
375.972	54869
376.054	27319
376.136	39487
376.219	23859
376.301	49023
376.383	158434
376.465	72081
376.548	30297
376.630	41806
376.712	123391
376.794	73508
376.877	10598
376.959	6318
377.041	7912
377.123	11770
377.205	15334
377.287	6366
377.369	6687
377.452	8875
377.534	6676
377.616	6409
377.698	6706
377.780	5231
377.862	6711
377.944	5570
378.026	5520
378.108	5019
378.190	5153
378.272	4615
378.354	4850
378.436	4681
378.518	8248
378.600	22796
378.682	24414
378.764	53072
378.846	51160
378.928	15185
379.010	18250
379.091	11877
379.173	6657
379.255	5950
379.337	8736
379.419	26349
379.501	79771
379.583	41018
379.664	9436
379.746	19201
379.828	50763
379.910	76335
379.991	70911
380.073	16720
380.155	8567
380.237	6681
380.318	6115
380.400	6659
380.482	11823
380.564	19433
380.645	20548
380.727	20664
380.809	11304
380.890	9016
380.972	7974
381.053	6549
381.135	8705
381.217	18455
381.298	55079
381.380	32833
381.461	24973
381.543	116167
381.624	169247
381.706	35456
381.787	14282
381.869	14880
381.951	54586
382.032	220385
382.113	160991
382.195	28725
382.276	18230
382.358	41569
382.439	117657
382.521	137134
382.602	218617
382.684	102479
382.765	136922
382.846	144434
382.928	133409
383.009	85108
383.090	54290
383.172	188519
383.253	320026
383.334	137607
383.416	169256
383.497	104072
383.578	30563
383.659	48274
383.741	171572
383.822	471144
383.903	287911
383.984	107364
384.066	195255
384.147	138703
384.228	30478
384.309	19703
384.390	18346
384.471	14001
384.553	13706
384.634	16094
384.715	17426
384.796	11555
384.877	14662
384.958	47297
385.039	67128
385.120	25754
385.201	12773
385.282	13583
385.363	14390
385.444	13899
385.525	25688
385.606	90290
385.687	95611
385.768	22341
385.849	23819
385.930	96235
386.011	197280
386.092	65659
386.173	15671
386.254	11618
386.335	12519
386.416	13259
386.496	32789
386.577	57932
386.658	25904
386.739	15762
386.820	15245
386.901	12933
386.981	13342
387.062	12472
387.143	20956
387.224	56959
387.304	60719
387.385	24631
387.466	19424
387.547	19690
387.627	19261
387.708	29339
387.789	99647
387.869	144261
387.950	49482
388.031	13261
388.111	11904
388.192	19831
388.273	26913
388.353	20946
388.434	13151
388.514	24324
388.595	106743
388.676	148600
388.756	66330
388.837	47804
388.917	37765
388.998	11032
389.078	9777
389.159	9848
389.239	10445
389.320	12106
389.400	11808
389.480	23396
389.561	62459
389.641	39149
389.722	14045
389.802	17235
389.883	28653
389.963	76068
390.043	56938
390.124	17369
390.204	21918
390.284	59542
390.365	47697
390.445	49274
390.525	150112
390.605	158358
390.686	47617
390.766	16257
390.846	11031
390.927	9288
391.007	10349
391.087	11572
391.167	12306
391.247	10712
391.328	14705
391.408	18400
391.488	15953
391.568	10335
391.648	13328
391.728	16988
391.808	17179
391.888	19913
391.969	37560
392.049	62869
392.129	34076
392.209	35549
392.289	79292
392.369	56700
392.449	36955
392.529	32396
392.609	30481
392.689	39024
392.769	86892
392.849	94032
392.929	71386
393.009	137792
393.089	155347
393.169	193051
393.248	541409
393.328	1547485
393.408	1830404
393.488	729480
393.568	220692
393.648	108242
393.728	68974
393.807	48651
393.887	41383
393.967	34630
394.047	33655
394.127	34497
394.206	45344
394.286	135913
394.366	568713
394.446	720164
394.525	195056
394.605	45840
394.685	32312
394.764	45181
394.844	77059
394.924	70886
395.003	29615
395.083	19555
395.163	19669
395.242	17086
395.322	18803
395.402	15875
395.481	19894
395.561	35672
395.640	89415
395.720	103961
395.799	105786
395.879	89011
395.958	61290
396.038	192633
396.117	737938
396.197	954611
396.276	300443
396.356	91060
396.435	66428
396.515	60954
396.594	77629
396.673	153841
396.753	516110
396.832	1422909
396.912	1247917
396.991	351502
397.070	105540
397.150	56565
397.229	42260
397.308	57854
397.388	98714
397.467	56058
397.546	23388
397.625	16885
397.705	18795
397.784	18092
397.863	14413
397.942	11982
398.022	12346
398.101	25663
398.180	67981
398.259	43894
398.338	14477
398.417	10854
398.497	9136
398.576	8925
398.655	8100
398.734	7377
398.813	10031
398.892	23431
398.971	72982
399.050	47679
399.129	8965
399.208	6105
399.287	7274
399.366	5672
399.445	5917
399.524	5885
399.603	6624
399.682	8822
399.761	25118
399.840	77615
399.919	74993
399.998	13251
400.077	5872
400.156	4614
400.235	6602
400.313	5931
400.392	6610
400.471	26074
400.550	47200
400.629	17954
400.708	7653
400.786	6435
400.865	13910
400.944	17376
401.023	10595
401.102	3598
401.180	4702
401.259	4532
401.338	5792
401.416	6782
401.495	7279
401.574	5430
401.652	5551
401.731	6300
401.810	8441
401.888	5070
401.967	3873
402.046	4794
402.124	7144
402.203	8557
402.281	6313
402.360	7629
402.438	17019
402.517	15250
402.596	6980
402.674	5752
402.753	4928
402.831	4623
402.910	7170
402.988	27574
403.066	97626
403.145	70375
403.223	30887
403.302	79977
403.380	69721
403.459	60184
403.537	30023
403.615	10334
403.694	5363
403.772	4626
403.850	5426
403.929	4221
404.007	5005
404.085	11274
404.164	15240
404.242	7700
404.320	11287
404.398	29190
404.477	47864
404.555	150258
404.633	163800
404.711	40045
404.789	15505
404.868	7284
404.946	6095
405.024	3536
405.102	4090
405.180	3344
405.258	3280
405.336	3538
405.415	4091
405.493	8450
405.571	10446
405.649	5341
405.727	4175
405.805	7285
405.883	8099
405.961	7398
406.039	8591
406.117	4393
406.195	8070
406.273	32050
406.351	124350
406.429	93124
406.507	15319
406.585	5125
406.663	5338
406.740	6740
406.818	6784
406.896	3986
406.974	5872
407.052	10675
407.130	65017
407.208	111701
407.285	29632
407.363	5567
407.441	5893
407.519	4636
407.596	9398
407.674	39170
407.752	175468
407.830	173597
407.907	35484
407.985	10430
408.063	6147
408.141	3549
408.218	6595
408.296	8042
408.373	8060
408.451	6712
408.529	5957
408.606	4261
408.684	4398
408.762	3432
408.839	4429
408.917	4044
408.994	5283
409.072	4739
409.149	6818
409.227	9883
409.304	16319
409.382	16322
409.459	18516
409.537	23380
409.614	22950
409.692	15587
409.769	16048
409.846	24212
409.924	31459
410.001	24456
410.079	15921
410.156	11570
410.233	12251
410.311	10116
410.388	7490
410.465	7352
410.543	7278
410.620	5535
410.697	6613
410.775	7045
410.852	5864
410.929	6639
411.006	9422
411.083	7403
411.161	10397
411.238	11508
411.315	7490
411.392	4736
411.469	6698
411.547	6515
411.624	4570
411.701	3943
411.778	5607
411.855	9284
411.932	6933
412.009	3382
412.086	4244
412.163	4404
412.240	5576
412.317	5408
412.394	6419
412.471	3544
412.548	3421
412.625	3127
412.702	5637
412.779	8900
412.856	8970
412.933	3555
413.010	3739
413.087	5978
413.164	22648
413.241	37280
413.318	12458
413.395	6508
413.471	9146
413.548	5153
413.625	3718
413.702	4342
413.779	4636
413.855	2644
413.932	2616
414.009	2103
414.086	2873
414.162	3503
414.239	5981
414.316	23333
414.393	55743
414.469	26400
414.546	4329
414.623	2575
414.699	2417
414.776	3515
414.853	3075
414.929	3644
415.006	4138
415.082	3975
415.159	4218
415.236	2856
415.312	3910
415.389	4807
415.465	8073
415.542	4845
415.618	2798
415.695	5378
415.771	4235
415.848	3298
415.924	3686
416.000	3027
416.077	2950
416.153	1740
416.230	2104
416.306	1295
416.383	3431
416.459	2135
416.535	1274
416.612	1986
416.688	2635
416.764	2365
416.841	2366
416.917	2253
416.993	2457
417.069	2994
417.146	5029
417.222	8016
417.298	5341
417.374	2462
417.451	3432
417.527	3381
417.603	5188
417.679	4019
417.755	3958
417.831	2227
417.908	2493
417.984	1568
418.060	2945
418.136	5956
418.212	10451
418.288	4762
418.364	3384
418.440	2264
418.516	4996
418.592	5967
418.668	10836
418.744	16091
418.820	13880
418.896	5108
418.972	2181
419.048	2944
419.124	7268
419.200	6989
419.276	3298
419.352	2190
419.428	2955
419.504	2592
419.579	5024
419.655	4063
419.731	4556
419.807	9296
419.883	19199
419.959	16130
420.034	6326
420.110	9180
420.186	32718
420.262	32536
420.337	8252
420.413	5788
420.489	4679
420.565	4955
420.640	4252
420.716	4905
420.792	4296
420.867	5557
420.943	5262
421.019	7829
421.094	7728
421.170	6425
421.245	6082
421.321	7845
421.397	10002
421.472	31953
421.548	111258
421.623	88507
421.699	20328
421.774	13874
421.850	13536
421.925	16969
422.001	20044
422.076	20357
422.152	24717
422.227	33884
422.302	45892
422.378	65899
422.453	120845
422.529	270638
422.604	635205
422.679	954128
422.755	794725
422.830	367730
422.905	152473
422.981	83512
423.056	54785
423.131	39800
423.207	29851
423.282	25012
423.357	26409
423.432	21469
423.508	18977
423.583	25592
423.658	24232
423.733	12366
423.808	11636
423.883	12095
423.959	12785
424.034	14531
424.109	12851
424.184	8295
424.259	6654
424.334	6608
424.409	5143
424.484	4644
424.559	5117
424.634	4754
424.709	5885
424.784	7040
424.859	5177
424.934	6610
425.009	21965
425.084	38841
425.159	20239
425.234	4136
425.309	4285
425.384	7396
425.459	14898
425.534	7552
425.609	3587
425.683	2914
425.758	2798
425.833	3137
425.908	4813
425.983	12092
426.058	37112
426.132	22817
426.207	5579
426.282	5782
426.357	6217
426.431	3130
426.506	4009
426.581	2912
426.655	4157
426.730	3353
426.805	3911
426.879	3450
426.954	3994
427.029	6568
427.103	35528
427.178	101468
427.253	62261
427.327	8481
427.402	6390
427.476	14115
427.551	10339
427.625	4761
427.700	4107
427.774	2949
427.849	4575
427.923	3713
427.998	3442
428.072	4664
428.147	12195
428.221	57080
428.296	205273
428.370	152069
428.444	21301
428.519	9126
428.593	14605
428.667	14512
428.742	15732
428.816	25229
428.890	110135
428.965	220386
429.039	75782
429.113	19901
429.188	10742
429.262	4760
429.336	7360
429.410	18655
429.485	16100
429.559	12581
429.633	12535
429.707	6634
429.781	19106
429.855	109213
429.930	205489
430.004	83931
430.078	66299
430.152	93076
430.226	250718
430.300	323948
430.374	71500
430.448	15243
430.522	23399
430.596	63853
430.670	63657
430.744	168707
430.818	284400
430.892	71733
430.966	9453
431.040	5660
431.114	4250
431.188	3244
431.262	3968
431.336	3111
431.410	7339
431.484	15797
431.557	14613
431.631	5404
431.705	7418
431.779	38466
431.853	179391
431.927	168478
432.000	23822
432.074	4930
432.148	4921
432.222	3592
432.295	3302
432.369	2141
432.443	5151
432.516	33405
432.590	103664
432.664	51603
432.737	5723
432.811	1792
432.885	1312
432.958	1268
433.032	1511
433.106	1024
433.179	1812
433.253	708
433.326	2091
433.400	1412
433.473	1991
433.547	1017
433.620	1722
433.694	2914
433.767	4539
433.841	1655
433.914	1908
433.988	341
434.061	1431
434.134	1446
434.208	1437
434.281	613
434.355	1728
434.428	1435
434.501	2303
434.575	1106
434.648	2147
434.721	609
434.795	990
434.868	650
434.941	1115
435.014	1047
435.088	1719
435.161	2007
435.234	4206
435.307	6418
435.381	4578
435.454	5554
435.527	10226
435.600	13655
435.673	10482
435.746	7613
435.819	5348
435.892	3305
435.966	3202
436.039	2419
436.112	2724
436.185	965
436.258	1828
436.331	829
436.404	1388
436.477	602
436.550	722
436.623	134
436.696	1435
436.769	1411
436.842	1721
436.915	918
436.987	3255
437.060	1489
437.133	1144
437.206	184
437.279	1788
437.352	556
437.425	1653
437.498	2382
437.570	4943
437.643	4484
437.716	1421
437.789	766
437.861	3037
437.934	9216
438.007	6477
438.080	1371
438.152	1635
438.225	5183
438.298	44635
438.370	152994
438.443	81679
438.516	14068
438.588	3792
438.661	1219
438.734	1602
438.806	1908
438.879	3301
438.951	2915
439.024	6413
439.096	2605
439.169	1809
439.241	872
439.314	1089
439.386	1410
439.459	4363
439.531	6334
439.604	3049
439.676	1743
439.749	893
439.821	1307
439.893	1722
439.966	782
440.038	2054
440.110	1872
440.183	1696
440.255	599
440.327	3344
440.400	15763
440.472	77958
440.544	67808
440.617	9401
440.689	4419
440.761	5506
440.833	8032
440.905	6276
440.978	1736
441.050	217
441.122	820
441.194	1643
441.266	811
441.338	1819
441.411	3413
441.483	20013
441.555	37618
441.627	9723
441.699	3977
441.771	4732
441.843	2590
441.915	1794
441.987	2072
442.059	1635
442.131	2437
442.203	4922
442.275	6298
442.347	7464
442.419	15206
442.491	86743
442.563	249559
442.635	128683
442.706	27373
442.778	17991
442.850	6281
442.922	4899
442.994	4827
443.066	7070
443.137	7226
443.209	7316
443.281	10857
443.353	23970
443.425	100334
443.496	393917
443.568	460993
443.640	188981
443.711	33060
443.783	11922
443.855	7186
443.926	5425
443.998	4255
444.070	4935
444.141	4162
444.213	6823
444.285	5975
444.356	5574
444.428	5943
444.499	3296
444.571	2217
444.642	3203
444.714	3896
444.785	5043
444.857	6548
444.928	11652
445.000	9795
445.071	9222
445.143	13678
445.214	13247
445.285	19252
445.357	54499
445.428	220970
445.500	581151
445.571	416232
445.642	234027
445.714	70950
445.785	32684
445.856	13193
445.928	9334
445.999	7033
446.070	6339
446.141	5398
446.213	7146
446.284	3789
446.355	3896
446.426	3028
446.497	3040
446.569	3177
446.640	6284
446.711	4805
446.782	1828
446.853	2321
446.924	3453
446.995	2024
447.066	2111
447.138	2708
447.209	2423
447.280	30
447.351	718
447.422	335
447.493	1378
447.564	2254
447.635	3680
447.706	939
447.777	699
447.847	693
447.918	886
447.989	1491
448.060	2045
448.131	5466
448.202	6058
448.273	3882
448.344	1499
448.414	484
448.485	898
448.556	801
448.627	386
448.698	874
448.768	373
448.839	238
448.910	2628
448.981	2759
449.051	1968
449.122	237
449.193	269
449.263	190
449.334	881
449.405	1672
449.475	5081
449.546	3699
449.616	4086
449.687	4287
449.758	945
449.828	1470
449.899	1157
449.969	487
450.040	976
450.110	1163
450.181	2314
450.251	149
450.322	674
450.392	703
450.463	1342
450.533	317
450.604	776
450.674	730
450.744	1422
450.815	587
450.885	1814
450.955	646
451.026	1061
451.096	141
451.166	1044
451.237	3565
451.307	10590
451.377	4375
451.447	1878
451.518	19
451.588	1128
451.658	191
451.728	2361
451.799	8208
451.869	12723
451.939	2534
452.009	1495
452.079	64
452.149	713
452.219	1819
452.289	10679
452.360	9716
452.430	2782
452.500	1863
452.570	4020
452.640	7384
452.710	23156
452.780	31721
452.850	18325
452.920	12450
452.990	4457
453.060	1882
453.129	3259
453.199	2766
453.269	11832
453.339	32031
453.409	52288
453.479	39616
453.549	64671
453.619	67014
453.688	29391
453.758	3525
453.828	1711
453.898	890
453.968	1823
454.037	401
454.087	706
454.107	819
454.168	302
454.177	210
454.247	1327
454.249	1299
454.316	145
454.330	465
454.386	1545
454.411	2547
454.456	4107
454.492	6626
454.525	8890
454.574	4739
454.595	2945
454.655	1658
454.665	1442
454.734	712
454.736	810
454.804	3102
454.817	4203
454.873	8345
454.898	9881
454.943	12682
454.979	8221
455.013	4300
455.060	2936
455.082	2365
455.141	2033
455.152	2049
455.221	7828
455.222	8040
455.291	17407
455.303	18347
455.360	20823
455.384	33873
455.430	56194
455.465	44670
455.499	34938
455.546	18793
455.569	10985
455.627	7583
455.638	7053
455.707	1556
455.708	1572
455.777	1469
455.789	1415
455.846	1092
455.869	893
455.916	539
455.950	900
455.985	1189
456.031	1545
456.054	1686
456.112	852
456.124	701
456.193	1111
456.193	1097
456.262	781
456.274	1024
456.332	2062
456.355	2200
456.401	2212
456.436	1796
456.470	1498
456.516	905
456.540	611
456.597	1111
456.609	1189
456.678	1114
456.678	1101
456.747	1101
456.759	1006
456.817	539
456.840	643
456.886	778
456.920	965
456.955	1168
457.001	1381
457.024	1509
457.082	1809
457.093	1840
457.162	2431
457.163	2451
457.232	3099
457.243	2992
457.301	2643
457.324	2222
457.370	1622
457.405	1985
457.439	2144
457.485	1952
457.508	2081
457.566	3318
457.577	3686
457.646	4664
457.647	4718
457.715	10954
457.727	12362
457.784	18782
457.808	24525
457.853	30613
457.889	36948
457.922	41767
457.969	30576
457.991	29086
458.050	30932
458.060	31034
458.129	51422
458.130	52189
458.198	59806
458.211	52914
458.267	30878
458.292	22042
458.336	12935
458.372	13312
458.405	18489
458.453	27983
458.474	32634
458.533	52531
458.543	53208
458.611	84424
458.614	84712
458.680	63596
458.694	50721
458.749	19362
458.775	14044
458.818	7479
458.855	5581
458.887	4279
458.936	3838
458.955	3723
459.016	3467
459.024	3433
459.093	3976
459.097	3959
459.162	3591
459.177	3606
459.230	3516
459.257	3500
459.299	3507
459.338	3696
459.368	3769
459.418	3937
459.437	3818
459.499	3463
459.505	3501
459.574	2838
459.579	2866
459.643	3124
459.659	3177
459.711	3096
459.740	2915
459.780	2820
459.820	3388
459.849	3636
459.900	3108
459.917	3018
459.981	3564
459.986	3578
460.054	3300
460.061	3302
460.123	3858
460.141	4105
460.191	4720
460.222	4994
460.260	4957
460.302	5095
460.328	5077
460.382	4742
460.397	5105
460.462	6378
460.465	7002
460.534	22404
460.543	24480
460.602	54736
460.623	66127
460.671	93383
460.703	124031
460.739	105335
460.783	74312
460.808	71843
460.864	20589
460.876	13313
460.944	4470
460.945	4366
461.013	3225
461.024	3083
461.081	3138
461.104	3389
461.150	3287
461.184	3016
461.218	3122
461.264	3575
461.286	3579
461.345	3021
461.355	3066
461.423	3833
461.425	3840
461.491	3515
461.505	3636
461.559	6573
461.585	7539
461.628	9272
461.665	11707
461.696	11695
461.745	12886
461.764	12046
461.825	6043
461.832	6001
461.901	3723
461.905	3809
461.969	3800
461.985	3541
462.037	3543
462.065	3563
462.105	3858
462.145	4519
462.173	5635
462.225	7721
462.241	7982
462.305	9259
462.310	9064
462.378	6743
462.385	6158
462.446	4143
462.465	3901
462.514	4151
462.545	4448
462.582	4359
462.625	4023
462.650	3859
462.705	3771
462.718	3907
462.785	4333
462.786	4343
462.854	5110
462.865	5287
462.922	6059
462.945	6279
462.990	4985
463.025	3822
463.058	3924
463.104	3717
463.126	3521
463.184	3527
463.194	3620
463.262	4137
463.264	4167
463.330	4162
463.344	4058
463.398	4207
463.424	4283
463.466	3814
463.504	3371
463.533	3619
463.583	4252
463.601	4469
463.663	4871
463.669	4938
463.737	6025
463.743	6090
463.805	9206
463.823	10199
463.873	12846
463.903	14433
463.940	13485
463.982	13038
464.008	11153
464.062	5737
464.076	5614
464.142	4449
464.144	4414
464.211	3756
464.221	3730
464.279	4748
464.301	5018
464.347	5782
464.381	6552
464.414	6373
464.461	5739
464.482	5810
464.540	6333
464.550	6285
464.617	5590
464.620	5564
464.685	6714
464.699	6939
464.753	8031
464.779	8675
464.820	9070
464.859	9266
464.888	8984
464.938	8559
464.956	8335
465.018	7194
465.023	7189
465.091	7177
465.098	7149
465.158	7398
465.177	7554
465.226	7745
465.257	7685
465.293	7601
465.336	7665
465.361	8251
465.416	9338
465.428	9871
465.495	13004
465.496	13043
465.563	15728
465.575	16218
465.631	17600
465.654	18383
465.698	13177
465.734	8198
465.765	8142
465.813	7974
465.833	7934
465.893	8279
465.900	8288
465.968	8158
465.972	8143
466.035	7294
466.052	7039
466.102	8323
466.131	9039
466.170	8780
466.210	8440
466.237	8785
466.290	9456
466.304	9558
466.369	9830
466.372	9848
466.439	9958
466.449	9934
466.506	11335
466.528	11894
466.573	15432
466.607	17986
466.641	21242
466.687	25744
466.708	26716
466.766	29354
466.775	27619
466.842	14269
466.845	13602
466.909	12635
466.925	12445
466.977	11990
467.004	11739
467.044	12289
467.083	12818
467.111	13520
467.163	14766
467.178	14879
467.242	15236
467.245	15190
467.312	13680
467.321	13459
467.379	13664
467.400	13698
467.446	13618
467.480	13517
467.559	11742
467.638	11674
467.717	11700
467.796	12829
467.875	12847
467.955	13513
468.034	18706
468.113	30121
468.192	34928
468.271	15142
468.350	17007
468.429	20087
468.508	19036
468.588	14443
468.667	12210
468.746	11059
468.825	10899
468.904	9763
468.983	11995
469.062	14124
469.141	13805
469.220	8568
469.299	9748
469.378	10206
469.456	12264
469.535	10924
469.614	10412
469.693	11270
469.772	12616
469.851	14661
469.930	10976
470.009	10005
470.088	9345
470.166	10500
470.245	11821
470.324	11861
470.403	9504
470.482	10420
470.560	10351
470.639	10078
470.718	11285
470.797	9546
470.875	11187
470.954	12372
471.033	12779
471.111	7080
471.190	7723
471.269	7117
471.347	7931
471.426	8875
471.505	10303
471.583	10100
471.662	9661
471.740	8304
471.819	9553
471.898	8559
471.976	9015
472.055	10145
472.133	11481
472.212	13792
472.290	10533
472.369	8211
472.447	8332
472.526	7890
472.604	9308
472.683	9588
472.761	8734
472.839	9514
472.918	8306
472.996	8237
473.075	9584
473.153	9051
473.231	7515
473.310	9324
473.388	9385
473.466	9002
473.545	9798
473.623	12669
473.701	10000
473.780	8861
473.858	8759
473.936	9648
474.014	9919
474.093	11999
474.171	14839
474.249	14842
474.327	9422
474.405	8059
474.484	8485
474.562	7671
474.640	8403
474.718	9972
474.796	9295
474.874	8780
474.952	8609
475.030	9077
475.108	9143
475.187	10544
475.265	12795
475.343	15481
475.421	14707
475.499	8806
475.577	8857
475.655	10329
475.733	17647
475.811	24303
475.889	20324
475.966	12544
476.044	9094
476.122	12571
476.200	13150
476.278	9948
476.356	7665
476.434	8710
476.512	10811
476.590	12900
476.667	10572
476.745	7375
476.823	7876
476.901	6720
476.979	7703
477.056	6729
477.134	7684
477.212	7786
477.290	6277
477.367	6953
477.445	6484
477.523	6185
477.601	6932
477.678	6770
477.756	7962
477.834	7608
477.911	7019
477.989	7401
478.066	6841
478.144	7829
478.222	11726
478.299	17374
478.377	14337
478.454	8307
478.532	6721
478.609	6637
478.687	7389
478.764	6302
478.842	7585
478.919	7576
478.997	6063
479.074	5976
479.152	6973
479.229	9207
479.307	5896
479.384	5583
479.461	6046
479.539	6865
479.616	7880
479.694	6394
479.771	7770
479.848	7173
479.926	9024
480.003	9796
480.080	7025
480.157	6104
480.235	6154
480.312	6395
480.389	7765
480.467	10162
480.544	11077
480.621	8020
480.698	7836
480.775	8134
480.853	7218
480.930	6971
481.007	8171
481.084	13107
481.161	19404
481.238	9846
481.315	6034
481.392	6399
481.470	6726
481.547	6842
481.624	6911
481.701	6741
481.778	7247
481.855	9455
481.932	10921
482.009	15209
482.086	10804
482.163	10295
482.240	14687
482.317	22404
482.393	13859
482.470	8606
482.547	8111
482.624	8310
482.701	7252
482.778	7162
482.855	7410
482.932	7546
483.009	8084
483.085	12336
483.162	15689
483.239	13271
483.316	8907
483.393	8778
483.469	7900
483.546	8087
483.623	7645
483.699	6977
483.776	6918
483.853	8413
483.930	12383
484.006	23999
484.083	34979
484.160	26464
484.236	37552
484.313	26256
484.389	21923
484.466	20912
484.543	21117
484.619	22529
484.696	22981
484.772	21757
484.849	19326
484.925	17834
485.002	16866
485.078	18768
485.155	18126
485.231	17789
485.308	16356
485.384	18276
485.461	21592
485.537	27177
485.614	27161
485.690	15288
485.766	16037
485.843	17850
485.919	21308
485.995	19714
486.072	14772
486.148	14667
486.224	15406
486.301	15217
486.377	17754
486.453	17001
486.530	17980
486.606	23370
486.682	24090
486.758	26217
486.835	28521
486.911	25646
486.987	35877
487.063	37599
487.139	44202
487.215	37794
487.292	22668
487.368	19733
487.444	25083
487.520	33792
487.596	46495
487.672	95148
487.748	221591
487.824	281764
487.900	85577
487.976	32528
488.052	25722
488.128	24906
488.204	19428
488.280	18153
488.356	22534
488.432	32940
488.508	39122
488.584	17061
488.660	13895
488.736	14483
488.812	15289
488.888	19420
488.964	25892
489.039	45212
489.115	56766
489.191	31715
489.267	15329
489.343	14678
489.418	12658
489.494	13810
489.570	12780
489.646	13170
489.722	11737
489.797	14328
489.873	20335
489.949	32318
490.024	23197
490.100	13169
490.176	13328
490.251	14956
490.327	17508
490.403	11868
490.478	12211
490.554	11192
490.629	10472
490.705	10994
490.781	12071
490.856	10416
490.932	12770
491.007	12187
491.083	11370
491.158	11546
491.234	14203
491.309	24567
491.385	21166
491.460	10577
491.536	11804
491.611	10142
491.686	11994
491.762	16607
491.837	27773
491.913	44846
491.988	58584
492.063	62699
492.139	18432
492.214	12651
492.289	8775
492.365	9440
492.440	10418
492.515	9223
492.590	9767
492.666	8521
492.741	12691
492.816	14949
492.891	9431
492.967	9648
493.042	9277
493.117	11151
493.192	13788
493.267	34437
493.342	88010
493.418	94798
493.493	12422
493.568	8307
493.643	8676
493.718	10187
493.793	13563
493.868	14474
493.943	9163
494.018	9377
494.093	8380
494.168	7391
494.243	7820
494.318	6848
494.393	7329
494.468	8071
494.543	6955
494.618	8394
494.693	7397
494.768	6393
494.842	8431
494.917	7501
494.992	8170
495.067	7061
495.142	7524
495.217	8094
495.292	7433
495.366	8830
495.441	9247
495.516	12531
495.591	22405
495.665	64299
495.740	113057
495.815	35305
495.890	11066
495.964	9339
496.039	11113
496.114	13576
496.188	20744
496.263	16198
496.338	9765
496.412	10651
496.487	11642
496.561	11907
496.636	12370
496.710	11909
496.785	13316
496.860	14119
496.934	11021
497.009	11111
497.083	11874
497.158	12459
497.232	14036
497.307	15881
497.381	15567
497.455	17785
497.530	21092
497.604	17749
497.679	20367
497.753	29183
497.827	35104
497.902	36328
497.976	42836
498.050	97002
498.125	242187
498.199	187907
498.273	48304
498.348	41624
498.422	35206
498.496	32192
498.570	28249
498.645	24242
498.719	20870
498.793	22361
498.867	27982
498.941	41112
499.016	113375
499.090	221100
499.164	52750
499.238	13455
499.312	12379
499.386	15234
499.460	13962
499.534	12268
499.609	14744
499.683	18685
499.757	20306
499.831	56106
499.905	152927
499.979	106396
500.053	18394
500.127	18717
500.201	13784
500.275	10367
500.349	10757
500.422	13211
500.496	18907
500.570	40771
500.644	91089
500.718	131703
500.792	19969
500.866	11017
500.940	12836
501.013	10739
501.087	11936
501.161	18484
501.235	24679
501.309	56758
501.382	124493
501.456	84491
501.530	24773
501.603	36171
501.677	13163
501.751	7933
501.825	12247
501.898	23202
501.972	47771
502.046	22654
502.119	11215
502.193	28045
502.266	50041
502.340	21611
502.413	27171
502.487	40845
502.561	22180
502.634	9343
502.708	9438
502.781	8485
502.855	6775
502.928	5805
503.002	6304
503.075	7199
503.149	6450
503.222	6875
503.295	7643
503.369	9007
503.442	15365
503.516	43354
503.589	86695
503.662	46568
503.736	23184
503.809	44495
503.882	40082
503.956	63871
504.029	75187
504.102	124391
504.175	147074
504.249	52639
504.322	23548
504.395	15850
504.468	10919
504.542	8736
504.615	7212
504.688	6869
504.761	6258
504.834	8282
504.907	10701
504.980	13264
505.053	7673
505.127	9230
505.200	9783
505.273	8908
505.346	6773
505.419	5677
505.492	6053
505.565	5094
505.638	4545
505.711	3634
505.784	4938
505.857	4435
505.930	5962
506.003	5357
506.076	7561
506.149	7389
506.221	6641
506.294	9085
506.367	26873
506.440	64523
506.513	25037
506.586	8229
506.659	5546
506.731	5322
506.804	6644
506.877	9674
506.950	6198
507.022	5357
507.095	7020
507.168	7968
507.241	5001
507.313	4448
507.386	6273
507.459	7643
507.531	4617
507.604	4554
507.677	5015
507.749	4280
507.822	7659
507.894	15155
507.967	15359
508.040	9625
508.112	8665
508.185	8461
508.257	8288
508.330	10022
508.402	6976
508.475	7605
508.547	6733
508.620	8448
508.692	11183
508.765	8403
508.837	5997
508.909	7331
508.982	6304
509.054	7017
509.127	6188
509.199	6092
509.271	6345
509.344	4628
509.416	5280
509.488	5997
509.560	6198
509.633	6923
509.705	7399
509.777	7059
509.849	9866
509.922	6930
509.994	6948
510.066	7370
510.138	8796
510.210	15133
510.283	12415
510.355	11241
510.427	8822
510.499	8227
510.571	8454
510.643	10031
510.715	12578
510.787	9353
510.859	9093
510.931	9517
511.003	11999
511.076	10377
511.148	7521
511.219	7608
511.291	12117
511.363	12230
511.435	6814
511.507	7322
511.579	7504
511.651	6955
511.723	7625
511.795	7408
511.867	7206
511.939	8750
512.010	14946
512.082	9829
512.154	7306
512.226	8236
512.298	13412
512.369	16496
512.441	12457
512.513	12010
512.585	9683
512.656	9317
512.728	10219
512.800	9466
512.871	7933
512.943	8988
513.015	8309
513.086	8492
513.158	8381
513.230	9036
513.301	12732
513.373	12887
513.444	8100
513.516	8100
513.588	8169
513.659	8410
513.731	9863
513.802	9903
513.874	18766
513.945	25363
514.016	10066
514.088	9087
514.159	9260
514.231	12359
514.302	14944
514.374	11384
514.445	11415
514.516	17782
514.588	12828
514.659	11644
514.730	16388
514.802	14358
514.873	15801
514.944	16473
515.016	12583
515.087	11731
515.158	13975
515.229	18747
515.301	18780
515.372	22959
515.443	15051
515.514	11405
515.585	9898
515.656	9470
515.728	8296
515.799	8692
515.870	8066
515.941	9089
516.012	9991
516.083	12441
516.154	12707
516.225	13526
516.296	12885
516.367	11555
516.438	12198
516.509	14886
516.580	24268
516.651	70881
516.722	179239
516.793	61717
516.864	18008
516.935	17723
517.006	20971
517.077	31336
517.148	75828
517.219	229742
517.289	262424
517.360	79703
517.431	23249
517.502	11698
517.573	10086
517.643	11962
517.714	13409
517.785	13278
517.856	12357
517.926	14985
517.997	17243
518.068	20294
518.138	27818
518.209	53254
518.280	191632
518.350	484340
518.421	138844
518.492	26801
518.562	24587
518.633	30037
518.703	45970
518.774	101766
518.845	224297
518.915	170668
518.986	50428
519.056	30041
519.127	33530
519.197	45070
519.268	79972
519.338	38705
519.408	16122
519.479	18783
519.549	12752
519.620	9826
519.690	8186
519.760	8796
519.831	9013
519.901	8129
519.971	8291
520.042	9218
520.112	9510
520.182	10556
520.253	11108
520.323	9504
520.393	12065
520.463	15685
520.534	12251
520.604	21627
520.674	10389
520.744	13433
520.814	25658
520.885	21542
520.955	34001
521.025	86960
521.095	24210
521.165	8747
521.235	7950
521.305	7267
521.375	7316
521.445	8580
521.515	10456
521.585	11684
521.655	10074
521.725	9636
521.795	7943
521.865	6905
521.935	10032
522.005	8440
522.075	6842
522.145	8631
522.215	9123
522.285	11203
522.355	15172
522.424	24396
522.494	20897
522.564	13787
522.634	27849
522.704	60283
522.774	17737
522.843	8330
522.913	8630
522.983	10707
523.053	8190
523.122	8455
523.192	14341
523.262	36981
523.331	26238
523.401	7516
523.471	6363
523.540	7140
523.610	6280
523.680	6752
523.749	7260
523.819	10870
523.888	9514
523.958	7684
524.027	7097
524.097	7340
524.166	6746
524.236	7621
524.305	8569
524.375	6068
524.444	6458
524.514	7441
524.583	8119
524.653	8570
524.722	9775
524.791	6998
524.861	8248
524.930	7262
524.999	7687
525.069	10361
525.138	7861
525.207	10046
525.277	8979
525.346	8805
525.415	9029
525.484	10143
525.554	11948
525.623	12971
525.692	16353
525.761	16049
525.830	17902
525.900	25689
525.969	43170
526.038	83099
526.107	203110
526.176	483185
526.245	316505
526.314	111804
526.383	263679
526.452	325418
526.522	556274
526.591	394790
526.660	73236
526.729	45908
526.797	59931
526.867	129715
526.935	441732
527.004	982197
527.073	429068
527.142	43507
527.211	19737
527.280	15560
527.349	13430
527.418	8815
527.487	9432
527.555	6902
527.624	7250
527.693	7280
527.762	7071
527.831	5853
527.899	6603
527.968	7260
528.037	6187
528.106	8684
528.174	13327
528.243	10673
528.312	14852
528.380	14624
528.449	6795
528.518	6431
528.586	4980
528.655	5084
528.723	5685
528.792	5565
528.861	6218
528.929	4443
528.998	6181
529.066	5721
529.135	7204
529.203	7863
529.272	8246
529.340	10698
529.409	9330
529.477	8668
529.545	8071
529.614	11608
529.682	12132
529.751	12989
529.819	14109
529.887	12676
529.956	11301
530.024	10750
530.092	9223
530.161	11172
530.229	14041
530.297	11262
530.365	10873
530.434	10913
530.502	11057
530.570	10208
530.638	8132
530.707	9935
530.775	9962
530.843	9939
530.911	9958
530.979	9629
531.047	9940
531.115	10929
531.183	9943
531.252	9133
531.320	9634
531.388	9509
531.456	11135
531.524	9980
531.592	12292
531.660	12770
531.728	10842
531.796	9710
531.864	10742
531.932	11573
532.000	10632
532.067	11760
532.135	12728
532.203	14263
532.271	15405
532.339	19280
532.407	35274
532.475	21208
532.542	16132
532.610	17218
532.678	23731
532.746	75284
532.814	122738
532.881	29335
532.949	13887
533.017	12897
533.084	10712
533.152	11312
533.220	11235
533.287	11883
533.355	12345
533.423	12050
533.490	12013
533.558	11543
533.625	12166
533.693	12382
533.761	11456
533.828	11625
533.896	12258
533.963	18318
534.031	22153
534.098	25571
534.166	16154
534.233	13077
534.300	14069
534.368	13239
534.435	13224
534.503	14944
534.570	15952
534.637	18670
534.705	21605
534.772	29458
534.840	67290
534.907	260036
534.974	228455
535.041	27549
535.109	15765
535.176	11284
535.243	12146
535.310	12818
535.378	11267
535.445	11037
535.512	10391
535.579	10488
535.646	10491
535.714	11339
535.781	12719
535.848	11638
535.915	12578
535.982	12968
536.049	11696
536.116	12183
536.183	11366
536.250	10761
536.317	11853
536.384	13038
536.451	16058
536.518	14612
536.585	12346
536.652	14882
536.719	17610
536.786	13482
536.853	12710
536.920	17108
536.987	22454
537.053	25866
537.120	77025
537.187	46581
537.254	11658
537.321	10180
537.388	11954
537.454	9702
537.521	8589
537.588	9826
537.654	12135
537.721	12456
537.788	12259
537.855	10473
537.921	10386
537.988	11064
538.055	11043
538.121	10465
538.188	10729
538.254	14989
538.321	20907
538.388	13827
538.454	11361
538.521	11433
538.587	10214
538.654	10232
538.720	10097
538.787	9932
538.853	11024
538.920	11429
538.986	10448
539.053	9943
539.119	10610
539.185	10662
539.252	12812
539.318	15387
539.385	14563
539.451	13370
539.517	13849
539.583	15636
539.650	27586
539.716	48941
539.782	14643
539.849	10621
539.915	10707
539.981	11207
540.047	12300
540.114	10322
540.180	11173
540.246	11931
540.312	15671
540.378	23817
540.444	20459
540.510	29128
540.576	56362
540.643	16901
540.709	10152
540.775	10652
540.841	10554
540.907	13637
540.973	16801
541.039	15362
541.105	13957
541.171	11729
541.237	10808
541.303	11446
541.369	12735
541.435	15535
541.500	19770
541.566	13278
541.632	9847
541.698	9562
541.764	10564
541.830	10135
541.896	10309
541.961	10292
542.027	11624
542.093	11025
542.159	12093
542.224	12719
542.290	16392
542.356	20974
542.421	20752
542.487	12311
542.553	11091
542.618	12189
542.684	10885
542.750	10964
542.815	12443
542.881	20780
542.947	55393
543.012	29340
543.078	11111
543.143	10149
543.209	11171
543.274	11335
543.340	13422
543.405	26135
543.471	29258
543.536	12211
543.602	10714
543.667	9826
543.732	10914
543.798	10400
543.863	10934
543.928	9100
543.994	9426
544.059	10420
544.124	10597
544.190	10390
544.255	11811
544.320	11106
544.386	10800
544.451	14280
544.516	14984
544.581	17271
544.646	39946
544.712	44935
544.777	13602
544.842	12925
544.907	12630
544.972	12328
545.037	13322
545.102	14303
545.168	12774
545.233	13821
545.298	14493
545.363	16723
545.428	17453
545.493	28381
545.558	42844
545.623	18919
545.688	13692
545.753	13420
545.818	12793
545.883	15670
545.947	15111
546.012	15936
546.077	16303
546.142	16656
546.207	16840
546.272	19572
546.337	19032
546.401	19071
546.466	19098
546.531	18662
546.596	20805
546.661	21258
546.725	22191
546.790	21048
546.855	22967
546.919	24969
546.984	27580
547.049	29415
547.113	33408
547.178	35101
547.243	40383
547.307	46901
547.372	51666
547.436	51424
547.501	51538
547.565	55176
547.630	51307
547.695	50664
547.759	52653
547.823	50980
547.888	50913
547.952	52355
548.017	58329
548.081	66729
548.146	59594
548.210	58402
548.274	60774
548.339	57255
548.403	53013
548.468	49231
548.532	49038
548.596	52356
548.660	52463
548.725	56672
548.789	60726
548.853	59102
548.917	56488
548.982	56105
549.046	49318
549.110	43169
549.174	46254
549.238	55030
549.303	58196
549.367	59935
549.431	55742
549.495	53239
549.559	53256
549.623	62672
549.687	68738
549.751	72764
549.815	80996
549.879	77962
549.943	73786
550.007	79342
550.071	77325
550.135	72507
550.199	68629
550.263	65268
550.327	65227
550.391	72654
550.455	75031
550.519	75776
550.582	81908
550.646	96747
550.710	93348
550.774	89604
550.838	92019
550.901	95872
550.965	102918
551.029	110255
551.093	121006
551.156	139335
551.220	175975
551.284	182593
551.347	128379
551.411	121399
551.475	111018
551.538	98422
551.602	87714
551.666	83402
551.729	76963
551.793	75972
551.856	74728
551.920	74254
551.983	73715
552.047	73219
552.110	73363
552.174	77429
552.237	75659
552.301	67905
552.364	65795
552.428	64803
552.491	67023
552.554	68338
552.618	67677
552.681	70476
552.745	67737
552.808	76169
552.871	79750
552.934	72970
552.998	68682
553.061	67043
553.124	64268
553.187	65361
553.251	68661
553.314	69426
553.377	73232
553.440	88598
553.503	147340
553.567	158917
553.630	77323
553.693	70357
553.756	70301
553.819	67115
553.882	63841
553.945	65096
554.008	65671
554.071	65660
554.134	63948
554.197	60147
554.260	58373
554.323	62312
554.386	61988
554.449	65524
554.512	65259
554.575	61394
554.638	62175
554.701	61097
554.764	60044
554.827	57364
554.889	54825
554.952	51288
555.015	51540
555.078	53138
555.141	53115
555.203	51027
555.266	52421
555.329	51930
555.391	49657
555.454	49570
555.517	49001
555.580	47067
555.642	44882
555.705	44049
555.768	44054
555.830	43486
555.893	40378
555.955	39501
556.018	39388
556.080	40797
556.143	40637
556.206	39784
556.268	39491
556.330	39553
556.393	37657
556.455	36984
556.518	40972
556.580	37654
556.643	34144
556.705	35144
556.767	32815
556.830	34470
556.892	34348
556.955	38211
557.017	33489
557.079	31683
557.142	31766
557.204	33485
557.266	43218
557.328	34446
557.391	27329
557.453	27212
557.515	28091
557.577	29285
557.639	31061
557.701	28551
557.764	28708
557.826	30090
557.888	34520
557.950	36928
558.012	43241
558.074	65881
558.136	181712
558.198	355487
558.260	88687
558.322	37995
558.384	38464
558.446	45204
558.508	53806
558.570	68767
558.632	95944
558.694	132873
558.756	232279
558.818	756299
558.880	1326484
558.942	380055
559.003	388738
559.065	137631
559.127	60566
559.189	64356
559.251	80116
559.312	131749
559.374	373666
559.436	986998
559.498	334147
559.559	73297
559.621	64647
559.683	83080
559.744	159558
559.806	549826
559.868	597330
559.929	96380
559.991	72481
560.052	142900
560.114	371323
560.176	182644
560.237	231954
560.299	289229
560.360	46524
560.422	21754
560.483	19776
560.545	18607
560.606	16460
560.667	17000
560.729	15363
560.790	14771
560.852	15413
560.913	15128
560.974	13810
561.036	14036
561.097	14366
561.158	14792
561.220	14845
561.281	13231
561.342	12892
561.403	15159
561.465	17610
561.526	34204
561.587	33723
561.648	14427
561.709	12423
561.771	12477
561.832	12136
561.893	11816
561.954	11953
562.015	12983
562.076	12243
562.137	11596
562.198	11318
562.259	12808
562.320	11304
562.381	13392
562.442	15947
562.503	13997
562.564	12462
562.625	10692
562.686	11617
562.747	11881
562.808	11256
562.869	12219
562.930	13687
562.991	13112
563.051	11898
563.112	11761
563.173	10598
563.234	9912
563.294	11057
563.355	10120
563.416	11584
563.477	10776
563.537	10550
563.598	11672
563.659	11913
563.720	10949
563.780	10696
563.841	11428
563.901	11063
563.962	10082
564.023	10449
564.083	10700
564.144	10667
564.204	11541
564.265	11311
564.325	11763
564.386	18498
564.446	15601
564.507	9677
564.567	10419
564.628	10679
564.688	9811
564.749	10035
564.809	12726
564.869	12915
564.930	11325
564.990	10990
565.050	10490
565.111	10505
565.171	10318
565.231	10217
565.292	11485
565.352	9708
565.412	11434
565.472	11276
565.532	11073
565.593	10526
565.653	10463
565.713	12092
565.773	11765
565.833	13075
565.893	15068
565.953	11673
566.013	11695
566.074	11683
566.134	13786
566.194	17655
566.254	16891
566.314	14063
566.374	12586
566.434	13739
566.494	13251
566.554	13902
566.614	13671
566.673	15201
566.733	16602
566.793	15884
566.853	17218
566.913	16687
566.973	17110
567.033	18138
567.092	18056
567.152	17093
567.212	17555
567.272	18157
567.331	19131
567.391	20266
567.451	21996
567.511	24863
567.570	22911
567.630	18042
567.690	18102
567.749	18961
567.809	19967
567.868	22615
567.928	24995
567.988	29651
568.047	36183
568.107	44698
568.166	63338
568.226	101800
568.285	130891
568.345	109441
568.404	86680
568.464	73344
568.523	68772
568.582	71092
568.642	79469
568.701	104410
568.761	156126
568.820	230083
568.879	209058
568.939	154955
568.998	111352
569.057	85245
569.116	67112
569.176	54200
569.235	45013
569.294	37633
569.353	32323
569.413	29500
569.472	25706
569.531	23200
569.590	21922
569.649	19830
569.708	18045
569.767	18170
569.827	18470
569.886	16175
569.945	15248
570.004	14137
570.063	14121
570.122	13981
570.181	14227
570.240	14374
570.299	13928
570.358	13564
570.417	12026
570.475	11353
570.534	13303
570.593	13090
570.652	12610
570.711	11766
570.770	11204
570.829	12510
570.887	11833
570.946	12821
571.005	10236
571.064	10791
571.122	11621
571.181	11513
571.240	10121
571.299	9560
571.357	10387
571.416	9774
571.475	11655
571.533	11410
571.592	10462
571.650	11268
571.709	9833
571.768	11864
571.826	11676
571.885	10183
571.943	9970
572.002	10142
572.060	9173
572.119	9489
572.177	9178
572.236	8666
572.294	9005
572.352	10373
572.411	9205
572.469	8838
572.528	9469
572.586	8730
572.644	9671
572.703	11530
572.761	9222
572.819	8062
572.877	7631
572.936	7822
572.994	7902
573.052	8887
573.110	9391
573.169	9063
573.227	8117
573.285	8297
573.343	7899
573.401	8902
573.459	8733
573.517	8920
573.576	9163
573.634	9812
573.692	8756
573.750	8766
573.808	8619
573.866	8082
573.924	9762
573.982	9730
574.040	8637
574.098	8058
574.155	8482
574.213	8293
574.271	8669
574.329	8893
574.387	7444
574.445	8442
574.503	7379
574.560	6981
574.618	7231
574.676	8232
574.734	7421
574.792	8490
574.849	7320
574.907	6560
574.965	6515
575.022	5970
575.080	6376
575.138	6977
575.195	7173
575.253	6472
575.311	8176
575.368	6383
575.426	6625
575.483	7139
575.541	6826
575.598	7260
575.656	7402
575.713	6870
575.771	7265
575.828	7430
575.886	6772
575.943	7106
576.001	6529
576.058	6784
576.115	7967
576.173	8782
576.230	8670
576.287	9169
576.345	8483
576.402	8321
576.459	7376
576.517	6875
576.574	8266
576.631	7045
576.688	7518
576.746	7402
576.803	6422
576.860	5950
576.917	6926
576.974	6385
577.031	7004
577.089	6725
577.146	7063
577.203	6836
577.260	8042
577.317	7721
577.374	7494
577.431	7540
577.488	7245
577.545	6279
577.602	7464
577.659	6878
577.716	7518
577.773	8191
577.830	6598
577.886	6332
577.943	5994
578.000	6759
578.057	7490
578.114	7089
578.171	7927
578.227	8420
578.284	7799
578.341	7242
578.398	6923
578.454	7339
578.511	7710
578.568	9259
578.625	6967
578.681	6985
578.738	6865
578.794	6674
578.851	6805
578.908	7822
578.964	7526
579.021	7786
579.077	6525
579.134	7063
579.190	6406
579.247	6618
579.303	5787
579.360	5488
579.416	6891
579.473	7431
579.529	7217
579.586	7278
579.642	7456
579.698	7203
579.755	7051
579.811	6519
579.867	8013
579.924	6690
579.980	7263
580.036	7846
580.093	9437
580.149	11200
580.205	9925
580.261	9298
580.317	9398
580.374	7980
580.430	9573
580.486	8728
580.542	8287
580.598	8093
580.619	8224
580.654	8456
580.692	7810
580.710	7499
580.765	7942
580.767	7960
580.823	8206
580.838	8367
580.879	8794
580.911	8620
580.935	8507
580.984	8351
580.991	8331
581.047	9065
581.057	8956
581.103	8507
581.130	8225
581.159	7940
581.203	8612
581.215	8788
581.270	8551
581.276	8587
581.326	8950
581.349	8606
581.382	8104
581.422	8387
581.438	8488
581.494	8220
581.494	8220
581.550	8683
581.567	8665
581.606	8565
581.640	8088
581.661	7816
581.713	8978
581.717	9071
581.773	9219
581.786	9162
581.829	8959
581.859	9045
581.885	9117
581.932	9381
581.940	9444
581.996	9057
582.004	9172
582.052	9731
582.077	9055
582.107	8259
582.150	9483
582.163	9836
582.219	9093
582.223	9109
582.274	9391
582.296	9282
582.330	9139
582.368	9584
582.386	9752
582.441	9220
582.441	9219
582.497	9729
582.514	9900
582.552	10356
582.587	11052
582.608	11522
582.659	10418
582.663	10302
582.719	10444
582.732	10379
582.774	10375
582.805	10228
582.830	10184
582.877	11137
582.885	11267
582.941	11304
582.950	11439
582.996	12191
583.023	12602
583.052	13089
583.095	13255
583.107	13298
583.162	13438
583.168	13545
583.218	14222
583.240	13274
583.273	11875
583.313	11829
583.328	11888
583.384	11724
583.385	11732
583.439	11822
583.458	11778
583.494	11713
583.531	11603
583.549	11643
583.603	12340
583.605	12350
583.660	11769
583.676	11829
583.715	12258
583.748	12341
583.770	12369
583.820	12187
583.825	12166
583.881	12846
583.893	12796
583.936	12505
583.965	12145
583.991	11891
584.038	12297
584.046	12390
584.101	12691
584.110	12729
584.156	13046
584.183	13378
584.211	13488
584.255	12859
584.266	12759
584.321	13516
584.328	13482
584.376	13547
584.400	13825
584.431	13908
584.472	13848
584.486	13838
584.541	14536
584.545	14546
584.596	15315
584.617	15315
584.651	15103
584.689	15879
584.706	16342
584.761	16929
584.762	16927
584.816	16553
584.834	16563
584.871	17192
584.906	17680
584.926	17865
584.978	17892
584.980	17921
585.035	19599
585.051	20021
585.090	20865
585.123	21982
585.145	23081
585.195	24335
585.200	24524
585.254	28603
585.267	29898
585.309	35139
585.340	38881
585.364	41571
585.412	45746
585.419	46191
585.473	51792
585.484	53910
585.528	66490
585.556	78903
585.583	98850
585.628	152746
585.637	175969
585.692	393002
585.700	420804
585.747	608430
585.772	586950
585.801	383554
585.845	168492
585.856	140873
585.910	58204
585.917	49116
585.965	39821
585.989	35717
586.019	33596
586.061	31366
586.074	30934
586.128	29213
586.133	29075
586.183	29039
586.205	29195
586.237	29239
586.277	29139
586.292	29139
586.346	28847
586.349	28834
586.401	29245
586.421	29061
586.455	29176
586.493	30401
586.509	31279
586.564	33573
586.565	33655
586.618	41821
586.637	42778
586.672	41522
586.709	41402
586.727	41246
586.781	41557
586.781	41599
586.835	37437
586.853	36694
586.889	35526
586.925	34316
586.944	34497
586.996	35321
586.998	35377
587.052	36193
587.068	36203
587.106	36976
587.140	37831
587.161	38238
587.212	39572
587.215	39717
587.269	41554
587.284	41953
587.323	43125
587.356	44191
587.377	44971
587.427	47209
587.431	47466
587.485	49504
587.499	50110
587.539	52428
587.571	54559
587.593	56212
587.643	58991
587.648	59348
587.702	63134
587.715	63972
587.755	67679
587.786	70449
587.810	72463
587.858	76778
587.864	77512
587.917	83803
587.930	85429
587.971	93232
588.001	98135
588.025	102707
588.073	112516
588.079	114017
588.133	126301
588.145	129337
588.187	143385
588.217	153342
588.241	164232
588.288	185876
588.295	189372
588.348	219277
588.360	225716
588.402	257427
588.431	280896
588.456	303150
588.503	348595
588.510	357458
588.564	433109
588.575	450155
588.617	534714
588.646	598076
588.671	676103
588.718	838432
588.725	878165
588.778	1213025
588.789	1287254
588.832	1790854
588.861	2139320
588.886	2468996
588.932	2969094
588.939	2964671
588.993	2815094
589.004	2799078
589.047	2868252
589.075	2815561
589.100	2459152
589.147	1782763
589.154	1714036
589.207	1194626
589.218	1091184
589.261	963148
589.290	886286
589.314	897025
589.361	934298
589.368	964568
589.421	1241105
589.433	1306288
589.475	1838252
589.504	2199920
589.528	2471690
589.576	2880726
589.582	2867512
589.635	2690440
589.647	2624493
589.689	1938970
589.718	1460964
589.742	1193659
589.790	682338
589.795	661173
589.849	464611
589.861	420007
589.902	351698
589.932	301742
589.955	277447
590.004	226913
590.009	224052
590.062	190894
590.075	182520
590.115	166296
590.146	153462
590.168	147163
590.218	132939
590.222	132188
590.275	119733
590.289	116249
590.328	111331
590.360	106956
590.381	103659
590.431	95508
590.435	95417
590.488	90702
590.503	89301
590.541	85946
590.574	82722
590.594	81518
590.645	77814
590.647	77823
590.700	73674
590.716	72258
590.753	70869
590.787	69443
590.806	69036
590.859	67309
590.859	67426
590.912	65288
590.930	64489
590.965	63978
591.001	63221
591.018	62935
591.071	61535
591.072	61368
591.124	59853
591.143	59114
591.177	58282
591.214	57183
591.230	57461
591.283	57864
591.285	57724
591.336	56886
591.356	56424
591.389	55884
591.427	54816
591.442	54676
591.495	53709
591.498	53486
591.547	51925
591.569	51087
591.600	51179
591.640	50848
591.653	50856
591.706	50394
591.711	50209
591.759	51111
591.782	51389
591.811	52168
591.853	52897
591.864	52911
591.917	52116
591.924	51861
591.969	50988
591.995	50241
592.022	50598
592.066	50884
592.075	50999
592.127	50750
592.137	50559
592.180	52172
592.208	52964
592.233	52711
592.279	51785
592.285	51743
592.338	50095
592.350	49573
592.390	49706
592.421	49557
592.443	49915
592.491	50210
592.495	50325
592.548	49817
592.562	49529
592.600	50329
592.633	50738
592.653	50708
592.704	49956
592.705	50241
592.775	50094
592.846	50166
592.916	52541
592.987	52739
593.058	51566
593.128	51326
593.199	49982
593.270	49629
593.341	49861
593.411	51367
593.482	52692
593.553	52287
593.623	52543
593.694	53740
593.764	54326
593.835	54527
593.906	54043
593.976	54387
594.047	56921
594.117	58833
594.188	61192
594.258	59238
594.329	57880
594.399	58017
594.470	59750
594.540	59973
594.611	62451
594.681	61623
594.751	62402
594.822	63789
594.892	67980
594.963	67437
595.033	69842
595.103	68672
595.174	70667
595.244	75616
595.314	84258
595.384	76776
595.455	75584
595.525	76717
595.595	79517
595.665	80878
595.736	78674
595.806	79343
595.876	80130
595.946	78215
596.016	81955
596.087	84299
596.157	85687
596.227	86441
596.297	89126
596.367	93308
596.437	101236
596.507	104285
596.577	108622
596.647	104488
596.717	106281
596.787	108536
596.857	108459
596.927	109559
596.997	109873
597.067	110795
597.137	113358
597.207	117904
597.277	116620
597.347	110446
597.417	107983
597.487	107229
597.557	108427
597.626	111889
597.696	112847
597.766	115244
597.836	116334
597.906	107373
597.975	100076
598.045	101383
598.115	104315
598.185	108480
598.254	118705
598.324	132844
598.394	137328
598.464	135540
598.533	130624
598.603	126564
598.672	120546
598.742	121857
598.812	123688
598.881	124348
598.951	125126
599.020	126551
599.090	128338
599.159	134356
599.229	129353
599.299	124487
599.368	128398
599.437	129754
599.507	121429
599.576	115837
599.646	114537
599.715	114478
599.785	112777
599.854	111113
599.924	110563
599.993	107965
600.062	109949
600.132	113578
600.201	114869
600.270	131195
600.340	143307
600.409	143118
600.478	142050
600.547	140019
600.617	140987
600.686	113936
600.755	102119
600.824	98399
600.894	95535
600.963	94521
601.032	93793
601.101	92927
601.170	90964
601.239	88271
601.308	89417
601.378	89810
601.447	87888
601.516	90384
601.585	92837
601.654	94939
601.723	95537
601.792	94820
601.861	99112
601.930	105965
601.999	110548
602.068	108224
602.137	108936
602.206	112056
602.275	109851
602.343	112290
602.412	114980
602.481	110996
602.550	112599
602.619	112724
602.688	114810
602.756	116746
602.825	116107
602.894	117278
602.963	121726
603.032	121435
603.100	123416
603.169	121605
603.238	124174
603.307	123651
603.375	123762
603.444	125070
603.513	127557
603.581	125548
603.650	134266
603.719	126810
603.787	124198
603.856	125644
603.924	128369
603.993	135069
604.061	137496
604.130	143204
604.198	148241
604.267	148947
604.335	153176
604.404	154804
604.472	159205
604.541	157886
604.609	159403
604.678	163139
604.746	163452
604.815	170279
604.883	172812
604.951	170116
605.020	173075
605.088	172884
605.156	171427
605.225	173901
605.293	176373
605.361	174356
605.429	176298
605.498	179657
605.566	184087
605.634	188059
605.702	196223
605.771	201973
605.839	207087
605.907	200685
605.975	195511
606.043	190494
606.111	184814
606.180	190472
606.248	190955
606.316	186258
606.384	186238
606.452	185120
606.520	178877
606.588	184906
606.656	181496
606.724	182012
606.792	172150
606.860	158031
606.928	140594
606.996	133704
607.064	129364
607.132	130325
607.200	137917
607.267	145902
607.335	146573
607.403	153312
607.471	151495
607.539	140211
607.607	147404
607.674	131683
607.742	127370
607.810	125746
607.878	125445
607.946	125201
608.013	131266
608.081	136382
608.149	137983
608.216	138773
608.284	145689
608.352	146971
608.419	146981
608.487	144690
608.555	142450
608.622	142701
608.690	148528
608.757	161534
608.825	174715
608.893	167809
608.960	165000
609.028	154738
609.095	152857
609.163	152570
609.230	140194
609.298	124902
609.365	124959
609.432	135057
609.500	147569
609.567	165961
609.635	190945
609.702	210417
609.769	209314
609.837	179500
609.904	141493
609.971	144651
610.039	162398
610.106	201994
610.173	336411
610.241	806198
610.308	921205
610.375	257583
610.442	159777
610.509	142179
610.577	138241
610.644	139636
610.711	143253
610.778	147065
610.845	151996
610.912	160975
610.980	171028
611.047	179706
611.114	178651
611.181	164950
611.248	159576
611.315	166649
611.382	174749
611.449	178785
611.516	186815
611.583	182789
611.650	184933
611.717	185562
611.784	194996
611.851	206722
611.918	227348
611.984	266098
612.051	358561
612.118	626913
612.185	1544183
612.252	1999050
612.319	462061
612.386	264982
612.452	237984
612.519	218738
612.586	211549
612.653	211750
612.719	215193
612.786	215156
612.853	197768
612.919	186119
612.986	191091
613.053	181386
613.120	170959
613.186	160349
613.253	163322
613.319	160557
613.386	164243
613.453	165232
613.519	168246
613.586	166137
613.652	175364
613.719	171225
613.785	172855
613.852	170135
613.918	168247
613.985	171493
614.051	186244
614.118	217548
614.184	259606
614.250	181129
614.317	171001
614.383	165726
614.449	169794
614.516	169196
614.582	169467
614.648	168482
614.715	163545
614.781	165284
614.847	161069
614.914	162218
614.980	157292
615.046	156448
615.112	159805
615.179	164485
615.245	168381
615.311	170257
615.377	186669
615.443	212860
615.509	185434
615.575	179091
615.642	179448
615.708	181533
615.774	194686
615.840	215488
615.906	245904
615.972	305963
616.038	458898
616.104	824374
616.170	1764292
616.236	2761279
616.302	773786
616.368	364107
616.434	278779
616.500	222875
616.565	229782
616.631	293803
616.697	282458
616.763	250644
616.829	321425
616.895	591445
616.961	793356
617.026	397422
617.092	199843
617.158	174655
617.224	171712
617.289	158454
617.355	149122
617.421	145003
617.487	143739
617.552	136162
617.618	132716
617.684	132121
617.749	132961
617.815	129199
617.880	124339
617.946	124477
618.012	125438
618.077	129536
618.143	125598
618.208	122224
618.274	129067
618.339	138895
618.405	120327
618.470	107027
618.536	110831
618.601	107547
618.667	105143
618.732	95701
618.798	93424
618.863	91301
618.928	92584
618.994	92010
619.059	93448
619.124	100468
619.190	100228
619.255	92749
619.320	91177
619.386	90564
619.451	91254
619.516	88819
619.581	86734
619.647	89186
619.712	92836
619.777	87719
619.842	85828
619.907	88488
619.972	90433
620.038	92422
620.103	87681
620.168	85712
620.233	87222
620.298	87416
620.363	88262
620.428	91024
620.493	92340
620.558	97272
620.623	95505
620.688	98149
620.753	96200
620.818	96994
620.883	97734
620.948	98298
621.013	96319
621.078	96912
621.143	95606
621.207	98731
621.272	95249
621.337	96076
621.402	92729
621.467	94068
621.532	94962
621.596	94379
621.661	91327
621.726	87527
621.791	88201
621.855	90214
621.920	89389
621.985	91376
622.049	94564
622.114	93823
622.179	94107
622.243	97353
622.308	99388
622.373	102878
622.437	103574
622.502	96992
622.566	94285
622.631	94146
622.695	95814
622.760	95246
622.824	94605
622.889	96049
622.953	96927
623.018	102044
623.082	116704
623.147	102517
623.211	100057
623.276	99305
623.340	97221
623.404	91673
623.469	91199
623.533	90698
623.597	90704
623.662	88243
623.726	85594
623.790	77497
623.854	74828
623.919	75800
623.983	75852
624.047	79984
624.111	79023
624.176	81203
624.240	83080
624.304	87087
624.368	83970
624.432	82045
624.496	82946
624.560	87996
624.625	94608
624.689	89293
624.753	91411
624.817	90296
624.881	86739
624.945	82423
625.009	75296
625.073	76240
625.137	79707
625.201	84633
625.265	90430
625.329	82312
625.393	79676
625.456	82000
625.520	84108
625.584	87093
625.648	91313
625.712	97390
625.776	113930
625.839	132929
625.903	105574
625.967	71402
626.031	74446
626.095	97079
626.158	96522
626.222	69344
626.286	57901
626.349	55788
626.413	53203
626.477	51665
626.540	52753
626.604	52065
626.668	50561
626.731	50465
626.795	50098
626.858	52198
626.922	49903
626.986	49721
627.049	48468
627.113	50710
627.176	51786
627.240	48430
627.303	49463
627.366	49830
627.430	49862
627.493	49899
627.557	48973
627.620	49256
627.684	50473
627.747	52008
627.810	50092
627.874	45056
627.937	41464
628.000	43322
628.064	43713
628.127	39756
628.190	36958
628.253	36623
628.317	36329
628.380	34609
628.443	32915
628.506	33755
628.569	32966
628.632	29936
628.696	30490
628.759	29904
628.822	29547
628.885	27920
628.948	28494
629.011	27878
629.074	27793
629.137	27163
629.200	25531
629.263	25959
629.326	25719
629.389	25236
629.452	25772
629.515	25468
629.578	24923
629.641	25376
629.704	26312
629.767	26277
629.830	24845
629.892	24188
629.955	23280
630.018	25647
630.081	26554
630.144	28756
630.207	26510
630.269	26634
630.332	24775
630.395	24875
630.458	23776
630.520	22525
630.583	23124
630.646	23022
630.708	23361
630.771	22525
630.834	24918
630.896	24159
630.959	24044
631.021	23864
631.084	24461
631.146	25104
631.209	25326
631.272	25232
631.334	24076
631.397	24504
631.459	26261
631.522	26438
631.584	27666
631.646	29770
631.709	31768
631.771	34331
631.834	33773
631.896	28968
631.958	27758
632.021	25482
632.083	24707
632.145	24303
632.208	24327
632.270	23832
632.332	23612
632.395	22124
632.457	23585
632.519	22974
632.581	23479
632.643	21799
632.706	23017
632.768	21808
632.830	21642
632.892	22802
632.954	22433
633.016	23973
633.078	22709
633.141	23401
633.203	23512
633.265	23128
633.327	22620
633.389	22825
633.451	24280
633.513	26369
633.575	25682
633.637	25249
633.698	25850
633.760	25177
633.822	25738
633.884	26970
633.946	27850
634.008	28464
634.070	29470
634.132	32917
634.193	36834
634.255	36963
634.317	38746
634.379	39345
634.441	36058
634.502	32054
634.564	30378
634.626	27013
634.687	27550
634.749	25311
634.811	23627
634.873	22445
634.934	22852
634.996	21893
635.057	22796
635.119	23887
635.181	23438
635.242	23548
635.304	23216
635.365	24930
635.427	23147
635.488	24507
635.550	21977
635.611	23751
635.673	23130
635.734	25111
635.796	25686
635.857	29024
635.918	31424
635.980	35977
636.041	38515
636.102	42153
636.164	43515
636.225	42911
636.286	38818
636.348	32578
636.409	28764
636.470	25193
636.531	24044
636.593	24368
636.654	22772
636.715	20816
636.776	20516
636.838	19271
636.899	20332
636.960	19428
637.021	19098
637.082	18970
637.143	19022
637.204	17884
637.265	17716
637.326	17489
637.387	17934
637.448	17625
637.509	18437
637.570	17346
637.631	17196
637.692	16561
637.753	16916
637.814	15703
637.875	16613
637.936	17224
637.997	16446
638.058	17314
638.119	16909
638.179	15869
638.240	15729
638.301	16266
638.362	16156
638.423	14630
638.483	14769
638.544	14238
638.605	15789
638.666	15711
638.726	15969
638.787	14505
638.848	15685
638.908	15014
638.969	14816
639.030	14310
639.090	14025
639.151	14299
639.211	15033
639.272	16252
639.332	18860
639.393	20239
639.453	16378
639.514	17629
639.574	16380
639.635	13707
639.695	12692
639.756	13269
639.816	14414
639.877	14166
639.937	16532
639.997	23018
640.058	17898
640.118	13690
640.178	13675
640.239	13377
640.299	12742
640.359	13945
640.420	14422
640.480	15723
640.540	19544
640.600	21491
640.661	18904
640.721	17918
640.781	22895
640.841	26511
640.901	18770
640.961	14937
641.021	14604
641.082	16823
641.142	18702
641.202	17324
641.262	12326
641.322	12934
641.382	13169
641.442	10832
641.502	12504
641.562	12831
641.622	12903
641.682	14184
641.742	15438
641.802	17159
641.861	14048
641.921	13005
641.981	13014
642.041	13160
642.101	13707
642.161	13865
642.221	12693
642.280	12596
642.340	11426
642.400	11765
642.460	12142
642.519	12144
642.579	12618
642.639	13134
642.698	11970
642.758	13704
642.818	13047
642.877	12566
642.937	12992
642.997	13752
643.056	15756
643.116	14896
643.175	13811
643.235	14421
643.294	14910
643.354	17086
643.414	19231
643.473	26217
643.532	33956
643.592	46787
643.651	73460
643.711	119518
643.770	211303
643.830	413416
643.889	1229186
643.948	970244
644.008	111893
644.067	42640
644.126	30600
644.186	23336
644.245	20681
644.304	16311
644.363	16123
644.423	15014
644.482	15888
644.541	16791
644.600	17435
644.659	23187
644.719	28755
644.778	40645
644.837	64899
644.896	115670
644.955	294532
645.014	308410
645.073	46197
645.132	22702
645.191	19159
645.250	17377
645.309	18164
645.368	17122
645.427	22773
645.486	31821
645.545	70308
645.604	52253
645.663	17980
645.722	17607
645.781	19334
645.840	23594
645.898	30176
645.957	43473
646.016	66577
646.075	112348
646.134	194359
646.192	401499
646.251	1129622
646.310	533151
646.369	63606
646.427	35268
646.486	28456
646.545	19736
646.603	18515
646.662	15991
646.721	15651
646.779	15491
646.838	16091
646.896	20160
646.955	26552
647.014	38609
647.072	64726
647.131	160112
647.189	245574
647.248	41069
647.306	15954
647.365	12630
647.423	10555
647.481	11572
647.540	9771
647.598	11178
647.657	9890
647.715	10348
647.773	9724
647.832	9884
647.890	8150
647.948	8713
648.007	9352
648.065	8038
648.123	8979
648.181	9999
648.240	9758
648.298	11336
648.356	10035
648.414	9920
648.472	8796
648.531	8727
648.589	9197
648.647	9792
648.705	9275
648.763	9446
648.821	10854
648.879	11037
648.937	13665
648.995	17579
649.053	23123
649.111	34282
649.169	53957
649.227	88971
649.285	158833
649.343	424852
649.401	651367
649.459	109739
649.516	40929
649.574	27269
649.632	32867
649.690	60216
649.748	39443
649.806	33570
649.863	57014
649.921	108146
649.979	196865
650.037	46559
650.094	12659
650.152	10020
650.210	9258
650.268	9801
650.325	9401
650.383	13101
650.440	10549
650.498	7752
650.556	6880
650.613	6329
650.671	6935
650.728	7100
650.786	7218
650.843	8140
650.901	9803
650.958	7155
651.016	5545
651.073	5119
651.131	6195
651.188	5723
651.246	6198
651.303	5419
651.360	6190
651.418	4881
651.475	6486
651.532	4972
651.590	5286
651.647	4795
651.704	4531
651.762	5623
651.819	5862
651.876	4550
651.933	5244
651.990	4808
652.048	5130
652.105	4605
652.162	5042
652.219	4513
652.276	4584
652.333	5692
652.390	4831
652.448	4964
652.505	5242
652.562	4928
652.619	5426
652.676	6445
652.733	10778
652.790	6052
652.847	4130
652.904	4935
652.961	3686
653.017	3669
653.074	4946
653.131	3853
653.188	3954
653.245	3796
653.302	4907
653.359	3817
653.415	5035
653.472	3845
653.529	4272
653.586	4522
653.642	4017
653.699	4460
653.756	3897
653.813	4149
653.869	5693
653.926	4287
653.983	4563
654.039	4790
654.096	3990
654.152	4941
654.209	3693
654.266	4917
654.322	3826
654.379	4961
654.435	4828
654.492	4408
654.548	5689
654.605	7911
654.661	8848
654.717	4896
654.774	3848
654.830	4554
654.887	5291
654.943	6004
655.000	6884
655.056	7360
655.112	5446
655.168	3966
655.225	5193
655.281	5299
655.337	4862
655.394	6694
655.450	7790
655.506	6103
655.562	6912
655.618	8982
655.675	5550
655.731	5488
655.787	5651
655.843	5645
655.899	5837
655.955	6703
656.011	6396
656.067	6095
656.123	8728
656.179	9334
656.235	10352
656.291	9243
656.347	10319
656.403	7870
656.459	7760
656.515	6557
656.571	6485
656.627	6347
656.683	5220
656.739	5257
656.795	4979
656.850	4828
656.906	5234
656.962	6378
657.018	5644
657.074	5755
657.129	7072
657.185	8032
657.241	14746
657.297	22736
657.352	8326
657.408	3488
657.464	5252
657.519	4557
657.575	3870
657.630	4534
657.686	4750
657.742	3844
657.797	3740
657.853	3615
657.908	4340
657.964	4454
658.019	3703
658.075	3438
658.130	3490
658.186	3667
658.241	3475
658.297	3825
658.352	4029
658.407	4112
658.463	3116
658.518	3640
658.573	3647
658.629	2002
658.684	3381
658.739	3193
658.795	3847
658.850	2806
658.905	3524
658.960	4510
659.016	3403
659.071	3807
659.126	3775
659.181	3644
659.236	5129
659.291	7050
659.346	4841
659.401	4506
659.457	5618
659.512	5841
659.567	6627
659.622	4075
659.677	4036
659.732	2833
659.787	3912
659.842	3346
659.897	4804
659.952	4086
660.007	3584
660.061	3579
660.116	3398
660.171	3073
660.226	3464
660.281	4295
660.336	2792
660.391	3719
660.445	3513
660.500	3405
660.555	3464
660.610	3417
660.664	4325
660.719	3314
660.774	3692
660.828	3673
660.883	3274
660.938	3114
660.992	2770
661.047	3716
661.101	3234
661.156	3176
661.211	3205
661.265	3271
661.320	3765
661.374	2923
661.429	3020
661.483	3703
661.538	3766
661.592	3323
661.647	4089
661.701	5091
661.755	5980
661.810	4050
661.864	2649
661.919	2560
661.973	3506
662.027	3490
662.081	3331
662.136	2184
662.190	2998
662.244	4096
662.299	3463
662.353	3096
662.407	3350
662.461	2777
662.515	3818
662.569	2498
662.624	4456
662.678	2742
662.732	3574
662.786	3691
662.840	3465
662.894	3335
662.948	3286
663.002	3345
663.056	3017
663.110	2540
663.164	2769
663.218	3415
663.272	3352
663.326	3268
663.380	3695
663.434	3443
663.488	3236
663.542	3836
663.595	3457
663.649	2742
663.703	4419
663.757	3182
663.811	3716
663.864	2528
663.918	4223
663.972	3351
664.026	3964
664.079	2919
664.133	3918
664.187	3436
664.240	3233
664.294	3976
664.348	4523
664.401	3618
664.455	3479
664.508	3077
664.562	3839
664.615	3467
664.669	2977
664.722	3555
664.776	3239
664.829	3412
664.883	3636
664.936	2459
664.990	3377
665.043	3603
665.097	2944
665.150	4107
665.203	3623
665.257	3662
665.310	3956
665.363	3544
665.417	3551
665.470	3596
665.523	3976
665.576	4485
665.630	3284
665.683	3360
665.736	3828
665.789	4492
665.842	3351
665.895	3372
665.949	3809
666.002	3279
666.055	3844
666.108	4384
666.161	4120
666.214	3821
666.267	4644
666.320	3732
666.373	5353
666.426	3922
666.479	3726
666.532	4519
666.585	3860
666.638	5396
666.691	4069
666.744	3978
666.796	4157
666.849	4106
666.902	4328
666.955	3976
667.008	3604
667.060	3394
667.113	3352
667.166	3366
667.219	4525
667.271	3463
667.324	3496
667.377	3269
667.430	4617
667.482	3298
667.535	4843
667.587	4020
667.640	3879
667.693	3492
667.745	5147
667.798	7228
667.850	5379
667.903	3454
667.955	3910
668.008	4143
668.060	4127
668.113	3457
668.165	4191
668.218	3588
668.270	3587
668.322	3258
668.375	3282
668.427	3823
668.479	3435
668.532	3796
668.584	3811
668.636	3812
668.689	4031
668.741	2977
668.793	4554
668.845	2763
668.898	3382
668.950	3993
669.002	4180
669.054	3223
669.106	3147
669.158	4224
669.211	4182
669.263	3845
669.315	4633
669.367	4569
669.419	5353
669.471	3883
669.523	5163
669.575	6800
669.627	7366
669.679	5188
669.731	4801
669.783	4537
669.835	4764
669.886	4650
669.938	4489
669.990	3702
670.042	3870
670.094	4483
670.146	4540
670.197	5033
670.249	5937
670.301	7376
670.353	10080
670.404	12418
670.456	18504
670.508	27929
670.560	39671
670.611	61178
670.663	94767
670.715	166395
670.766	428078
670.818	402455
670.869	73846
670.921	17063
670.972	12609
671.024	8757
671.075	7451
671.127	6112
671.178	5601
671.230	5982
671.281	5831
671.333	6027
671.384	6431
671.436	8670
671.487	11178
671.538	14219
671.590	19357
671.641	28143
671.692	43452
671.744	86914
671.795	125323
671.846	56862
671.897	19073
671.949	10184
672.000	8148
672.051	7127
672.102	5767
672.153	4375
672.204	4151
672.256	5009
672.307	4173
672.358	3353
672.409	4166
672.460	3292
672.511	3970
672.562	2933
672.613	3532
672.664	2930
672.715	3552
672.766	3285
672.817	3370
672.868	2791
672.919	2681
672.970	3030
673.021	3352
673.071	3093
673.122	3043
673.173	2516
673.224	2158
673.275	3145
673.326	2851
673.376	2710
673.427	2427
673.478	2694
673.528	3482
673.579	1863
673.630	2926
673.680	2479
673.731	2755
673.782	2408
673.832	3006
673.883	2615
673.934	2351
673.984	2825
674.035	2399
674.085	2464
674.136	4150
674.186	3174
674.237	4020
674.287	3368
674.338	4862
674.388	3010
674.438	2678
674.489	3836
674.539	3705
674.589	3393
674.640	3337
674.690	3154
674.740	3281
674.791	3219
674.841	3741
674.891	3176
674.942	2158
674.992	2532
675.042	2544
675.092	2683
675.142	3029
675.193	2273
675.243	2656
675.293	2847
675.343	1975
675.393	2790
675.443	2283
675.493	2272
675.543	2153
675.593	2986
675.643	3518
675.693	2069
675.743	2484
675.793	2715
675.843	2157
675.893	1630
675.943	2296
675.993	2457
676.043	1674
676.093	2873
676.142	2085
676.192	2083
676.242	1776
676.292	2533
676.341	2300
676.391	2044
676.441	2729
676.491	1126
676.540	1699
676.590	1805
676.640	1318
676.689	1249
676.739	2495
676.789	1782
676.838	2119
676.888	2029
676.937	1719
676.987	1742
677.037	1716
677.086	1788
677.136	1563
677.185	2187
677.235	1725
677.284	1477
677.333	2200
677.383	1268
677.432	1984
677.482	1218
677.531	1705
677.580	704
677.630	1776
677.679	1502
677.728	835
677.778	1230
677.827	1523
677.876	1486
677.925	1905
677.975	1010
678.024	2412
678.073	1807
678.122	1870
678.171	1881
678.220	1910
678.269	2511
678.319	2334
678.368	3404
678.417	3024
678.466	3151
678.515	1450
678.564	1748
678.613	1946
678.662	1374
678.711	1233
678.760	1875
678.809	1498
678.857	1666
678.906	1788
678.955	2055
679.004	2324
679.053	1973
679.102	2795
679.151	2210
679.199	2477
679.248	931
679.297	2240
679.346	1443
679.394	1090
679.443	406
679.492	1194
679.540	1413
679.589	1919
679.638	3052
679.686	2590
679.735	1762
679.784	2914
679.832	1953
679.881	2531
679.929	1201
679.978	1232
680.026	1305
680.075	1857
680.123	935
680.172	1929
680.220	1108
680.268	1131
680.317	1188
680.365	1139
680.414	1138
680.462	1406
680.510	1820
680.559	2330
680.607	989
680.655	1314
680.703	1550
680.752	1594
680.800	1131
680.848	571
680.896	1607
680.945	630
680.993	1243
681.041	1156
681.089	1518
681.137	1591
681.185	627
681.233	1969
681.258	1730
681.281	1496
681.329	990
681.377	839
681.380	871
681.425	1291
681.473	1607
681.502	1593
681.521	1569
681.569	2162
681.617	1063
681.624	1042
681.665	830
681.713	1268
681.745	1123
681.761	1040
681.809	830
681.857	1623
681.867	1617
681.904	1569
681.952	989
681.989	1454
682.000	1581
682.048	1069
682.096	1844
682.111	1568
682.143	970
682.191	1942
682.233	1875
682.239	1854
682.286	1529
682.334	1391
682.354	1398
682.382	1402
682.430	1715
682.476	2168
682.477	2170
682.525	1615
682.572	1437
682.598	1443
682.620	1440
682.667	1816
682.715	2177
682.720	2146
682.763	1802
682.810	1312
682.841	1170
682.857	1091
682.905	1517
682.952	1850
682.963	1763
683.000	1410
683.047	874
683.085	1599
683.095	1786
683.142	1878
683.190	1506
683.206	1619
683.237	1812
683.284	1761
683.328	1175
683.332	1117
683.379	1935
683.426	1334
683.449	1690
683.473	2059
683.521	2135
683.568	1453
683.571	1450
683.615	1277
683.662	1553
683.693	1937
683.709	2118
683.757	991
683.804	1658
683.814	1630
683.851	1570
683.898	2138
683.936	1532
683.945	1371
683.992	1542
684.039	1559
684.057	1846
684.086	2300
684.133	1342
684.179	1526
684.180	1527
684.227	1762
684.274	1931
684.300	2139
684.321	2278
684.368	1698
684.415	1963
684.422	1877
684.462	1321
684.509	1565
684.543	1513
684.556	1503
684.603	1467
684.649	2225
684.665	2128
684.696	1919
684.743	2031
684.786	1855
684.790	1827
684.837	2397
684.883	1843
684.908	1793
684.930	1793
684.977	2366
685.023	2133
685.029	2135
685.070	2095
685.117	2069
685.150	2018
685.164	1988
685.210	2250
685.257	2609
685.272	2765
685.303	3079
685.350	2089
685.393	2213
685.396	2225
685.443	1998
685.490	2497
685.514	2493
685.536	2476
685.583	3027
685.629	2565
685.636	2592
685.675	2613
685.722	1738
685.757	2187
685.768	2362
685.815	2599
685.861	2653
685.878	2670
685.908	2625
685.954	2754
686.000	2183
686.000	2173
686.047	2565
686.093	2621
686.121	2946
686.139	3234
686.185	3065
686.232	3898
686.242	3749
686.278	2919
686.324	3055
686.363	3013
686.370	3016
686.416	2497
686.463	2535
686.484	2386
686.509	2272
686.555	2215
686.601	2572
686.606	2562
686.647	2531
686.693	2973
686.727	2823
686.739	2716
686.785	2398
686.831	2666
686.848	2563
686.877	2481
686.923	2642
686.969	2528
686.969	2526
687.015	2974
687.061	2971
687.090	3049
687.107	3046
687.153	3282
687.199	2976
687.211	2921
687.245	2843
687.291	2628
687.332	2686
687.336	2698
687.382	2973
687.428	3380
687.453	3186
687.474	3002
687.520	3445
687.565	3017
687.574	3151
687.611	3733
687.657	3195
687.695	3787
687.702	3968
687.748	4892
687.794	6211
687.816	6619
687.839	6780
687.885	5990
687.931	5091
687.937	5085
687.976	4471
688.022	3759
688.058	2984
688.067	2922
688.113	2951
688.158	3200
688.179	3243
688.204	3266
688.249	2987
688.295	3226
688.300	3171
688.340	3006
688.386	3599
688.421	3559
688.431	3500
688.477	3174
688.522	2872
688.542	2980
688.567	3173
688.613	3285
688.658	3502
688.663	3557
688.703	4052
688.749	3312
688.784	3381
688.794	3357
688.839	3297
688.884	3465
688.905	3002
688.930	2569
688.975	3333
689.020	3263
689.026	3310
689.065	3728
689.110	3814
689.146	3689
689.155	3626
689.201	3865
689.246	3880
689.267	3691
689.291	3560
689.336	4040
689.381	3768
689.388	3796
689.426	3772
689.471	3461
689.509	3470
689.516	3496
689.561	3237
689.606	3529
689.630	3449
689.651	3391
689.696	3533
689.741	3212
689.750	3230
689.785	3317
689.830	3262
689.871	3405
689.875	3414
689.920	2981
689.965	3352
689.992	3210
690.010	3256
690.054	3137
690.099	3151
690.112	3410
690.144	3885
690.189	3640
690.233	3301
690.233	3305
690.278	3479
690.323	3514
690.354	3451
690.367	3435
690.412	4117
690.457	3527
690.474	3662
690.501	3906
690.546	4029
690.590	3944
690.595	3920
690.635	3626
690.680	3884
690.716	3577
690.724	3541
690.769	4001
690.813	4038
690.836	4053
690.857	4173
690.902	4313
690.946	4722
690.957	4757
690.991	5326
691.035	6469
691.077	7852
691.080	7930
691.124	8689
691.168	8947
691.198	9075
691.213	8498
691.257	7057
691.301	5923
691.318	5406
691.346	5167
691.390	4459
691.434	4061
691.439	4031
691.478	4143
691.522	4031
691.559	3723
691.567	3694
691.611	4294
691.655	4066
691.680	3990
691.699	3899
691.743	4152
691.787	4003
691.800	3892
691.831	3685
691.875	3492
691.919	4094
691.921	4080
691.964	3826
692.008	3769
692.041	3745
692.052	3782
692.096	3688
692.139	4060
692.162	3914
692.183	3730
692.227	4034
692.271	4012
692.282	4005
692.315	4159
692.359	4481
692.402	4507
692.403	4514
692.447	4442
692.490	4451
692.523	4465
692.534	4502
692.578	4458
692.622	4342
692.643	4366
692.666	4368
692.709	4340
692.753	4250
692.763	4198
692.797	4045
692.840	3829
692.884	3937
692.884	3950
692.928	4006
692.971	4529
693.004	4593
693.015	4527
693.059	4485
693.102	4151
693.124	4177
693.146	4318
693.189	4340
693.233	4446
693.245	4494
693.276	4610
693.320	4498
693.363	4494
693.365	4485
693.407	4856
693.450	5125
693.485	5367
693.493	5340
693.537	5305
693.580	5052
693.605	5048
693.624	5375
693.667	6144
693.710	6668
693.725	6770
693.753	7946
693.797	10697
693.840	13416
693.845	13666
693.883	15475
693.926	16958
693.966	18056
693.970	17688
694.013	13872
694.056	10314
694.086	7807
694.099	7432
694.142	6215
694.185	5129
694.206	4447
694.229	4480
694.272	4873
694.315	5255
694.326	5326
694.358	5372
694.401	5265
694.444	5140
694.446	5127
694.487	5337
694.530	5671
694.566	5654
694.573	5568
694.616	5075
694.659	4755
694.686	4406
694.702	4426
694.745	4423
694.787	4688
694.806	4666
694.830	4598
694.873	4806
694.916	4443
694.926	4497
694.959	4699
695.002	4570
695.044	4466
695.046	4453
695.087	4728
695.130	5103
695.166	5174
695.172	5174
695.215	5234
695.258	5263
695.286	5415
695.301	5503
695.343	5290
695.386	5372
695.406	5333
695.428	5288
695.471	5319
695.514	5325
695.526	5316
695.556	5546
695.599	5754
695.641	6135
695.646	6132
695.684	5936
695.726	5930
695.766	5677
695.769	5679
695.811	5636
695.854	5628
695.886	5635
695.896	5681
695.938	5678
695.981	5919
696.005	5822
696.023	5846
696.065	6075
696.108	6362
696.125	6411
696.150	6492
696.192	6704
696.235	7007
696.245	7000
696.277	6994
696.319	7072
696.361	7149
696.365	7144
696.404	7133
696.446	6973
696.485	6892
696.488	6903
696.530	6764
696.572	6701
696.604	6559
696.614	6588
696.656	6698
696.698	6836
696.724	6738
696.740	6649
696.783	6730
696.825	6740
696.844	6633
696.867	6552
696.909	6530
696.951	6485
696.964	6475
696.992	6597
697.034	6589
697.076	6623
697.083	6622
697.118	6741
697.160	6800
697.202	7000
697.203	6985
697.244	6925
697.286	6814
697.323	6794
697.327	6811
697.369	6721
697.411	6665
697.442	6531
697.453	6581
697.494	6804
697.536	7106
697.562	7238
697.578	7290
697.620	7359
697.661	7390
697.682	7378
697.703	7465
697.744	7711
697.786	7943
697.801	7969
697.828	8175
697.869	8495
697.911	8910
697.921	8963
697.952	8632
697.994	8184
698.035	7709
698.040	7639
698.077	7719
698.118	7749
698.160	7788
698.160	7767
698.201	7759
698.243	7689
698.279	7646
698.284	7712
698.325	8130
698.367	8535
698.399	8821
698.408	8854
698.449	8892
698.491	8972
698.518	8983
698.532	9039
698.573	9134
698.614	9233
698.638	9270
698.656	9196
698.697	8948
698.738	8729
698.757	8598
698.779	8592
698.820	8537
698.862	8478
698.877	8439
698.903	8582
698.944	8770
698.985	8961
698.996	8992
699.026	8937
699.067	8826
699.116	8672
699.235	8644
699.354	8193
699.474	8131
699.593	7799
699.713	9289
699.832	8775
699.951	8663
700.070	8838
700.190	8108
700.309	9154
700.428	8430
700.547	8548
700.667	8185
700.786	7575
700.905	7964
701.024	7243
701.143	8478
701.262	7520
701.381	7651
701.500	7742
701.619	8385
701.738	7817
701.857	8016
701.976	7292
702.095	7499
702.214	8211
702.333	7854
702.452	7394
702.571	7762
702.690	7503
702.809	7641
702.928	7273
703.047	7382
703.165	6734
703.284	6765
703.403	6679
703.522	7544
703.640	7780
703.759	7079
703.878	8302
703.997	7102
704.115	6570
704.234	7485
704.353	7056
704.471	6850
704.590	6327
704.708	7046
704.827	6097
704.946	6342
705.064	6761
705.183	6679
705.301	6353
705.420	7629
705.538	8559
705.656	7571
705.775	6863
705.893	10132
706.012	19225
706.130	9482
706.249	6971
706.367	7656
706.485	7638
706.604	8036
706.722	6881
706.840	8845
706.958	13916
707.077	16582
707.195	7672
707.313	6972
707.431	6195
707.549	7127
707.668	5649
707.786	6482
707.904	6393
708.022	6470
708.140	6028
708.258	6746
708.376	6550
708.494	6089
708.612	6824
708.730	8413
708.848	9415
708.966	7991
709.084	7784
709.202	7555
709.320	6997
709.438	6725
709.556	7508
709.674	7281
709.791	7143
709.909	7022
710.027	6809
710.145	6785
710.263	6989
710.380	7039
710.498	7520
710.616	6631
710.733	6340
710.851	6561
710.969	6884
711.086	5863
711.204	6846
711.322	6687
711.439	6130
711.557	6741
711.674	6203
711.792	6020
711.909	6132
712.027	8057
712.144	6589
712.262	5808
712.379	6358
712.497	7354
712.614	9638
712.732	7756
712.849	7443
712.966	6876
713.084	9113
713.201	8012
713.318	7775
713.436	7933
713.553	7929
713.670	8663
713.787	8351
713.905	8705
714.022	7715
714.139	7923
714.256	8744
714.373	12710
714.490	24485
714.608	52498
714.725	216445
714.842	673550
714.959	120073
715.076	15761
715.193	10902
715.310	10122
715.427	8797
715.544	7928
715.661	8191
715.778	7519
715.895	6011
716.011	7496
716.128	6885
716.245	6896
716.362	7316
716.479	7902
716.596	7020
716.713	7376
716.829	6761
716.946	6029
717.063	5794
717.180	6264
717.296	5765
717.413	5887
717.530	5847
717.646	4942
717.763	5598
717.880	5571
717.996	6056
718.113	5618
718.229	5885
718.346	6304
718.462	4905
718.579	6069
718.695	7920
718.812	8527
718.928	7302
719.045	7281
719.161	5230
719.277	6538
719.394	5833
719.510	5591
719.626	6800
719.743	7275
719.859	10804
719.975	19759
720.092	60127
720.208	268043
720.324	138091
720.440	11278
720.557	7186
720.673	8374
720.789	10374
720.905	13004
721.021	13657
721.137	5870
721.253	5324
721.369	4828
721.486	5647
721.602	7075
721.718	6165
721.834	4308
721.950	4730
722.066	4625
722.181	4078
722.297	4510
722.413	4471
722.529	4901
722.645	4380
722.761	4767
722.877	5034
722.993	4547
723.108	5173
723.224	5767
723.340	4848
723.456	4620
723.571	4311
723.687	3996
723.803	4134
723.918	3915
724.034	3893
724.150	3723
724.265	3999
724.381	5597
724.497	9629
724.612	4600
724.728	4610
724.843	3674
724.959	3636
725.074	5459
725.190	9156
725.305	5466
725.421	3947
725.536	3755
725.651	3786
725.767	2951
725.882	3587
725.997	3889
726.113	3398
726.228	3308
726.343	3658
726.459	3336
726.574	3083
726.689	3881
726.804	3086
726.920	3326
727.035	3270
727.150	3281
727.265	3355
727.380	3561
727.495	3498
727.610	3361
727.725	3888
727.841	3868
727.956	5956
728.071	9857
728.186	3808
728.301	2914
728.416	3824
728.531	3525
728.645	3725
728.760	3653
728.875	4197
728.990	3720
729.105	3699
729.220	3621
729.335	3764
729.449	3929
729.564	4131
729.679	2781
729.794	2753
729.908	2787
730.023	3127
730.138	3026
730.253	2609
730.367	3980
730.482	3441
730.596	3785
730.711	3626
730.826	4740
730.940	6797
731.055	4427
731.169	3675
731.284	3419
731.398	4134
731.513	3673
731.627	3754
731.742	4602
731.856	6220
731.970	5096
732.085	5964
732.199	8459
732.313	13530
732.428	29208
732.542	103782
732.656	188923
732.771	31312
732.885	9021
732.999	7125
733.113	8466
733.227	7172
733.342	6757
733.456	6488
733.570	6863
733.684	6033
733.798	6354
733.912	5843
734.026	5382
734.140	6491
734.254	5798
734.368	5959
734.482	8806
734.596	6712
734.710	5527
734.824	5672
734.938	4844
735.052	5615
735.166	6227
735.280	5700
735.393	5999
735.507	4762
735.621	5626
735.735	7071
735.849	6632
735.962	5418
736.076	5017
736.190	6022
736.303	4868
736.417	6918
736.531	4921
736.644	4657
736.758	4097
736.872	5263
736.985	4291
737.099	5514
737.212	4158
737.326	5222
737.439	4426
737.553	5120
737.666	5135
737.780	3566
737.893	4396
738.007	3745
738.120	4266
738.233	4190
738.347	4568
738.460	3992
738.573	5032
738.687	4246
738.800	4860
738.913	4025
739.026	5047
739.140	4105
739.253	4589
739.366	3964
739.479	3696
739.592	3665
739.705	4745
739.818	4445
739.932	3848
740.045	3748
740.158	3681
740.271	4192
740.384	3866
740.497	3778
740.610	4810
740.723	4012
740.836	4187
740.949	4528
741.062	4738
741.174	5272
741.287	3144
741.400	4181
741.513	4113
741.626	4401
741.739	4170
741.851	3687
741.964	3071
742.077	4166
742.189	4767
742.302	6629
742.415	9093
742.527	4733
742.640	3268
742.753	3352
742.865	2792
742.978	3179
743.090	4056
743.203	2430
743.316	3377
743.428	2596
743.541	3676
743.653	2881
743.766	2936
743.878	3683
743.990	3947
744.103	5701
744.215	10755
744.327	9514
744.440	4406
744.552	4706
744.664	4202
744.777	3418
744.889	3073
745.001	3014
745.113	2541
745.226	3841
745.338	2407
745.450	2651
745.562	3426
745.674	1942
745.786	2922
745.898	3500
746.010	2658
746.122	2450
746.234	2840
746.347	2417
746.459	3744
746.570	3341
746.682	4548
746.794	12619
746.906	15999
747.018	4135
747.130	2752
747.242	2468
747.354	2235
747.466	2660
747.577	2989
747.689	2552
747.801	2989
747.913	2078
748.024	2819
748.136	1959
748.248	2275
748.359	2560
748.471	2512
748.583	1674
748.694	2608
748.806	3745
748.918	2994
749.029	2691
749.141	2323
749.252	2837
749.364	2184
749.475	3155
749.587	4469
749.698	2341
749.809	2082
749.921	1920
750.032	2181
750.144	1813
750.255	2261
750.366	1739
750.478	1971
750.589	1970
750.700	1079
750.811	1919
750.923	2163
751.034	2301
751.145	6314
751.256	3057
751.367	1426
751.479	2349
751.590	2246
751.701	2201
751.812	1605
751.923	1168
752.034	1832
752.145	2283
752.256	1919
752.367	1541
752.478	1956
752.589	1747
752.700	1425
752.811	1986
752.922	2326
753.032	2175
753.143	2994
753.254	1934
753.365	1789
753.476	2160
753.586	1371
753.697	1876
753.808	2601
753.919	1645
754.029	1389
754.140	2003
754.251	1688
754.361	1102
754.472	2911
754.582	2768
754.693	1211
754.804	1713
754.914	1665
755.025	1688
755.135	1134
755.246	2034
755.356	1267
755.466	1838
755.577	1742
755.687	1712
755.798	1926
755.908	1166
756.018	2455
756.129	2049
756.239	1331
756.349	2712
756.460	2283
756.570	3080
756.680	2559
756.790	1129
756.900	2254
757.011	1184
757.121	2045
757.231	1378
757.341	1843
757.451	1935
757.561	1437
757.671	1475
757.781	2465
757.891	2002
758.001	2142
758.111	1159
758.221	1874
758.331	2834
758.441	2349
758.551	2247
758.661	2733
758.771	2379
758.880	2116
758.990	2445
759.100	1837
759.210	2018
759.320	2116
759.429	2205
759.539	3008
759.649	2018
759.758	2829
759.868	3522
759.978	2737
760.087	3952
760.197	3606
760.307	3297
760.416	2447
760.526	2318
760.635	3004
760.745	3516
760.854	3310
760.964	4017
761.073	3489
761.182	3940
761.292	3651
761.401	2938
761.511	2696
761.620	2042
761.729	1621
761.839	1844
761.948	2352
762.057	2672
762.166	2858
762.276	2396
762.385	2787
762.494	2365
762.603	2188
762.712	2056
762.822	1739
762.931	2308
763.040	1961
763.149	2339
763.258	2826
763.367	3051
763.476	2627
763.585	3404
763.694	3196
763.803	2757
763.912	3132
764.021	2461
764.130	2711
764.238	2724
764.347	2652
764.456	3207
764.565	3812
764.674	2888
764.783	3863
764.891	4447
765.000	4576
765.109	4399
765.217	5120
765.326	5212
765.435	8047
765.543	9344
765.652	10570
765.761	13426
765.869	18738
765.978	29776
766.086	50647
766.195	101968
766.303	234330
766.412	629303
766.520	968674
766.629	449538
766.737	129413
766.846	59982
766.954	37578
767.062	26862
767.171	19736
767.279	15513
767.387	11138
767.496	9956
767.604	8297
767.712	6808
767.820	6312
767.928	6344
768.037	6354
768.145	5515
768.253	4726
768.361	5110
768.469	5067
768.577	4342
768.685	4952
768.793	5502
768.901	5340
769.009	7514
769.117	7512
769.225	9038
769.333	13012
769.441	20663
769.549	39368
769.657	85995
769.765	236568
769.873	663020
769.981	562100
770.088	130068
770.196	42248
770.304	24379
770.412	17240
770.519	12247
770.627	10124
770.735	7268
770.842	6024
770.950	5188
771.058	5646
771.165	5205
771.273	5026
771.380	5294
771.488	4834
771.595	4930
771.703	5202
771.810	4877
771.918	4690
772.025	4471
772.133	5585
772.240	5480
772.348	5281
772.455	5100
772.562	4372
772.670	4733
772.777	4730
772.884	4581
772.991	4701
773.099	4276
773.206	3569
773.313	4908
773.420	4908
773.528	4011
773.635	3830
773.742	4606
773.849	4389
773.956	4270
774.063	3472
774.170	3849
774.277	4048
774.384	3423
774.491	3700
774.598	4336
774.705	4140
774.812	4209
774.919	3944
775.026	2984
775.133	3000
775.239	4591
775.346	3076
775.453	4140
775.560	3710
775.667	3217
775.773	3778
775.880	2970
775.987	3940
776.093	2858
776.200	3264
776.307	2556
776.413	2942
776.520	2400
776.627	3854
776.733	3457
776.840	3031
776.946	4580
777.053	9131
777.159	20529
777.266	28484
777.372	17546
777.478	26747
777.585	17611
777.691	5770
777.798	3646
777.904	3123
778.010	3109
778.117	4056
778.223	2066
778.329	2265
778.435	2672
778.542	3180
778.648	2648
778.754	2186
778.860	2304
778.966	2342
779.072	2619
779.178	2463
779.284	2758
779.391	2240
779.497	2510
779.603	3062
779.708	3263
779.815	4954
779.920	10697
780.026	35008
780.132	18319
780.238	3298
780.344	1583
780.450	3058
780.556	2615
780.661	1572
780.767	2846
780.873	2464
780.979	1619
781.085	2014
781.190	2634
781.296	2064
781.402	1301
781.507	1835
781.613	1558
781.719	1447
781.824	2847
781.930	2300
782.035	1543
782.141	2172
782.246	2215
782.352	1737
782.457	1813
782.563	2443
782.668	1805
782.773	2575
782.879	1475
782.984	1771
783.090	2102
783.195	2225
783.300	2721
783.405	1614
783.511	1444
783.616	1505
783.721	2065
783.826	2047
783.932	1774
784.037	1488
784.142	1102
784.247	1678
784.352	2584
784.457	2181
784.562	1319
784.667	1856
784.772	1153
784.877	1294
784.982	2058
785.087	1722
785.192	1568
785.297	1488
785.402	1609
785.507	1650
785.611	1610
785.716	638
785.821	1537
785.926	1090
786.031	1495
786.135	1603
786.240	1621
786.345	389
786.450	1679
786.554	768
786.659	948
786.763	677
786.868	1327
786.973	1374
787.077	894
787.182	1767
787.286	942
787.391	1033
787.495	1224
787.600	1064
787.704	1125
787.809	572
787.913	312
788.017	1035
788.122	1139
788.226	1168
788.330	661
788.435	-238
788.539	1221
788.643	1226
788.747	1238
788.852	157
788.956	993
789.060	768
789.164	1107
789.268	698
789.372	947
789.476	660
789.580	70
789.684	383
789.788	923
789.892	884
789.996	884
790.100	48
790.204	816
790.308	630
790.412	845
790.516	860
790.620	466
790.724	1393
790.828	825
790.931	465
791.035	1170
791.139	184
791.242	849
791.346	1080
791.450	1492
791.554	521
791.657	127
791.761	981
791.864	1018
791.968	1548
792.072	1355
792.175	682
792.279	173
792.382	653
792.486	1116
792.589	602
792.693	1233
792.796	652
792.899	678
793.003	478
793.106	593
793.209	429
793.313	593
793.416	47
793.519	1048
793.623	1164
793.726	1978
793.829	886
793.932	449
794.035	191
794.138	339
794.242	991
794.345	750
794.448	2186
794.551	2009
794.654	5978
794.757	15436
794.860	9783
794.963	996
795.066	890
795.169	1304
795.272	285
795.375	971
795.477	331
795.580	655
795.683	502
795.786	197
795.889	33
795.991	1027
796.094	502
796.197	343
796.300	747
796.402	-237
796.505	106
796.608	-103
796.710	57
796.813	296
796.915	546
797.018	440
797.120	432
797.223	-78
797.326	330
797.428	845
797.530	7
797.633	703
797.735	777
797.838	238
797.940	1029
798.042	622
798.145	-284
798.247	561
798.349	-171
798.452	-94
798.554	262
798.656	-325
798.758	431
798.860	466
798.962	384
799.065	-90
799.167	-215
799.269	71
799.371	128
799.473	1148
799.575	1324
799.677	381
799.779	353
799.881	429
799.983	1100
800.085	165
800.187	508
800.289	-3
800.390	16
800.492	178
800.594	51
800.696	274
800.798	-303
800.899	-436
801.001	-3
801.103	140
801.205	413
801.306	-69
801.408	489
801.509	-279
801.611	-116
801.713	-347
801.814	425
801.916	-207
802.017	-469
802.119	191
802.220	-93
802.322	-684
802.423	703
802.525	-213
802.626	55
802.727	8
802.829	-474
802.930	-700
803.031	545
803.133	-545
803.234	41
803.335	-249
803.436	-349
803.538	384
803.639	95
803.740	134
803.841	-327
803.942	620
804.043	444
804.144	-309
804.245	288
804.346	-430
804.447	332
804.548	367
804.649	416
804.750	108
804.851	-137
804.952	-255
805.053	21
805.154	-895
805.255	-107
805.355	-507
805.456	-191
805.557	-40
805.658	-370
805.758	351
805.859	-1134
805.960	145
806.061	-3
806.161	-405
806.262	64
806.362	-242
806.463	-520
806.564	108
806.664	-293
806.765	-629
806.865	-294
806.966	-202
807.066	-226
807.166	81
807.267	-35
807.367	390
807.468	-748
807.568	-328
807.668	-510
807.769	219
807.869	-411
807.969	-566
808.069	-36
808.170	-1055
808.270	-520
808.370	-29
808.470	117
808.570	-127
808.670	-117
808.770	656
808.870	-1127
808.970	-267
809.070	352
809.170	109
809.271	139
809.370	107
809.470	-511
809.570	318
809.670	-389
809.770	-549
809.870	72
809.970	-201
810.070	-143
810.169	-390
810.269	-955
810.369	452
810.469	-886
810.568	-245
810.668	-754
810.768	-911
810.867	-472
810.967	-1049
811.066	-1132
811.166	-468
811.265	-302
811.365	-818
811.464	110
811.564	275
811.663	-720
811.763	-703
811.862	-134
811.962	-248
812.061	-436
812.160	-268
812.260	-444
812.359	-736
812.458	230
812.557	29
812.657	1070
812.756	802
812.855	-720
812.954	-67
813.053	-383
813.153	-401
813.252	-251
813.351	-834
813.450	3
813.549	-254
813.648	260
813.747	-339
813.846	-14
813.945	-55
814.044	181
814.143	-44
814.242	-705
814.341	-408
814.439	54
814.538	-638
814.637	-606
814.736	-339
814.835	528
814.933	300
815.032	25
815.131	207
815.229	583
815.328	2225
815.427	2296
815.525	1767
815.624	1388
815.722	1185
815.821	1216
815.919	1570
816.018	1890
816.116	1395
816.215	1892
816.313	1510
816.412	2238
816.510	2553
816.609	2320
816.707	3081
816.805	3378
816.904	2711
817.002	2954
817.100	2418
817.198	3830
817.296	3469
817.395	2839
817.493	4122
817.591	3899
817.689	5376
817.787	6919
817.885	9579
817.983	17755
818.081	36772
818.179	89179
818.277	219589
818.375	361252
818.473	124776
818.571	29923
818.669	15107
818.767	14140
818.865	15129
818.963	14641
819.061	18653
819.158	35365
819.256	71796
819.354	167809
819.452	410341
819.549	505053
819.647	146630
819.745	36518
819.842	18343
819.940	12907
820.038	10330
820.135	7721
820.233	6113
820.330	4688
820.428	4802
820.525	3854
820.623	3531
820.720	3226
820.818	3375
820.915	3504
821.012	3760
821.110	3742
821.207	3069
821.304	2872
821.402	2619
821.499	5498
821.596	7868
821.693	9899
821.791	3811
821.888	2383
821.985	2758
822.082	3697
822.179	2950
822.276	4184
822.373	5380
822.470	1926
822.567	1229
822.664	1631
822.761	1345
822.858	678
822.955	965
823.052	739
823.149	196
823.246	1343
823.343	1339
823.440	826
823.536	719
823.633	925
823.730	428
823.827	180
823.923	529
824.020	1093
824.117	1801
824.213	2930
824.310	3037
824.407	1104
824.503	443
824.600	1350
824.696	191
824.793	885
824.889	217
824.986	1077
825.082	402
825.179	476
825.275	774
825.371	842
825.468	656
825.564	44
825.660	228
825.757	1156
825.853	188
825.949	25
826.045	504
826.142	-29
826.238	583
826.334	307
826.430	-732
826.526	205
826.622	-107
826.718	45
826.814	-227
826.910	826
827.006	-371
827.102	-464
827.198	255
827.294	-207
827.390	-173
827.486	256
827.582	-180
827.678	82
827.774	854
827.869	-140
827.965	-8
828.061	455
828.157	456
828.252	281
828.348	-90
828.444	-153
828.539	-333
828.635	192
828.731	-108
828.826	-9
828.922	-162
829.017	71
829.113	656
829.208	17
829.304	-11
829.399	740
829.495	615
829.590	-61
829.685	-381
829.781	393
829.876	78
829.971	-118
830.066	-608
830.162	-221
830.257	228
830.352	-139
830.447	419
830.543	-525
830.638	-390
830.733	414
830.828	251
830.923	766
831.018	40
831.113	61
831.208	-91
831.303	-479
831.398	-594
831.493	-170
831.588	294
831.683	-350
831.778	-817
831.873	138
831.967	-351
832.062	633
832.157	-287
832.252	623
832.346	-248
832.441	155
832.536	-340
832.631	155
832.725	1441
832.820	21
832.914	-230
833.009	-698
833.104	-590
833.198	-2
833.293	-591
833.387	689
833.482	-411
833.576	-773
833.670	123
833.765	-610
833.859	333
833.954	772
834.048	-743
834.142	46
834.237	-1227
834.331	-514
834.425	-365
834.519	-594
834.613	39
834.708	-845
834.802	-100
834.896	-881
834.990	37
835.084	-105
835.178	-449
835.272	-886
835.366	-553
835.460	-101
835.554	-413
835.648	-604
835.742	-890
835.836	-499
835.930	-646
836.024	-607
836.117	-95
836.211	-315
836.305	-549
836.399	-397
836.493	-967
836.586	-1343
836.680	-285
836.774	-388
836.867	-194
836.961	-1000
837.055	-874
837.148	-1063
837.242	-1170
837.335	-49
837.429	-652
837.522	-602
837.616	-631
837.709	-433
837.803	-513
837.896	-338
837.989	-362
838.083	-577
838.176	-490
838.269	-45
838.363	228
838.456	-1090
838.549	-554
838.642	-66
838.735	430
838.829	379
838.922	-1047
839.015	-495
839.108	-1352
839.201	-939
839.294	-432
839.387	-507
839.480	-865
839.573	-304
839.666	-314
839.759	-463
839.852	-683
839.945	-223
840.038	-961
840.131	-770
840.223	-1310
840.316	-869
840.409	-683
840.502	-382
840.594	-33
840.687	-870
840.780	-346
840.873	-1019
840.965	-179
841.058	-673
841.150	-419
841.243	-142
841.336	-79
841.428	-405
841.521	-1124
841.613	-1062
841.706	-71
841.798	-734
841.890	-1293
841.983	-757
842.075	-486
842.167	-933
842.260	-1971
842.352	-1152
842.444	-151
842.537	24
842.629	576
842.721	-267
842.813	-464
842.905	-1104
842.997	-465
843.090	-361
843.182	-274
843.274	-765
843.366	450
843.458	2954
843.550	4096
843.642	979
843.734	-874
843.826	-756
843.918	-717
844.009	-828
844.101	-1402
844.193	184
844.285	-92
844.377	564
844.469	1704
844.560	3131
844.652	5984
844.744	2168
844.835	-670
844.927	-148
845.019	-412
845.110	-469
845.202	-956
845.293	-1516
845.385	-1359
845.476	-1260
845.568	-749
845.659	-949
845.751	-834
845.842	-1536
845.934	-1708
846.025	-582
846.116	-1486
846.208	-1073
846.299	-1742
846.390	-1776
846.482	-1252
846.573	-1827
846.664	-340
846.755	-832
846.846	115
846.937	-2064
847.029	-990
847.120	-701
847.211	-1042
847.302	-38
847.393	-1176
847.484	-372
847.575	-1199
847.666	-400
847.757	-1282
847.847	-1225
847.938	-599
848.029	-1376
848.120	-282
848.211	-977
848.302	-778
848.392	-1592
848.483	-679
848.574	-1293
848.664	-772
848.755	-928
848.846	-870
848.936	-826
849.027	-366
849.118	-698
849.208	-1126
849.299	142
849.389	2049
849.480	4062
849.570	11107
849.661	20528
849.751	44198
849.841	45416
849.932	8211
850.022	734
850.112	-247
850.203	-186
850.293	-436
850.383	-928
850.474	-1308
850.564	-515
850.654	-192
850.744	-913
850.834	-679
850.924	-714
851.014	-1022
851.104	-698
851.194	-922
851.284	-516
851.374	-117
851.464	-442
851.554	-315
851.644	-379
851.734	-476
851.824	-687
851.914	-793
852.004	-70
852.094	-133
852.183	-959
852.273	-120
852.363	-233
852.452	-470
852.542	-199
852.632	-994
852.721	1
852.811	-628
852.901	-540
852.990	-649
853.080	-97
853.169	-1102
853.259	-342
853.348	121
853.438	532
853.527	1999
853.617	2426
853.706	6876
853.795	13186
853.885	31046
853.974	68254
854.063	109644
854.152	217662
854.242	214460
854.331	45258
854.420	7287
854.509	3783
854.598	2641
854.687	1701
854.777	625
854.866	936
854.955	822
855.044	-521
855.133	-1000
855.222	-57
855.311	-806
855.400	-652
855.488	-29
855.577	-785
855.666	-818
855.755	-1089
855.844	-84
855.933	-458
856.021	-666
856.110	-320
856.199	-1340
856.288	-1090
856.376	-781
856.465	-677
856.554	-537
856.642	-720
856.731	-226
856.819	-501
856.908	-547
856.996	-122
857.085	-954
857.173	-901
857.262	-1027
857.350	-550
857.438	-664
857.527	-487
857.615	-1310
857.703	-790
857.792	-699
857.880	-1208
857.968	-1275
858.056	-1266
858.145	-922
858.233	-948
858.321	-1075
858.409	-769
858.497	-1379
858.585	-1403
858.673	-1421
858.761	-912
858.849	-1367
858.937	-36
859.025	-1239
859.113	-106
859.201	-975
859.289	-326
859.377	273
859.465	-352
859.552	-1154
859.640	-1404
859.728	-634
859.816	-374
859.903	-663
859.991	-765
860.079	-754
860.166	-1077
860.254	-1323
860.342	-1079
860.429	-1065
860.517	-1042
860.604	-1280
860.692	-583
860.779	-1544
860.867	-1755
860.954	-653
861.042	-1377
861.129	-1225
861.216	39
861.304	-1619
861.391	-899
861.478	-548
861.565	123
861.653	-634
861.740	-804
861.827	-789
861.914	-1209
862.001	-1364
862.089	-894
862.176	-1500
862.263	-1031
862.350	-1196
862.437	-1339
862.524	-679
862.611	-54
862.698	70
862.785	365
862.871	1462
862.958	1381
863.045	-256
863.132	-300
863.219	-1142
863.306	-536
863.392	-767
863.479	-792
863.566	-971
863.652	-974
863.739	-1040
863.826	-221
863.912	-1184
863.999	-1327
864.086	-245
864.172	-939
864.259	-564
864.345	139
864.432	-916
864.518	-614
864.604	-705
864.691	-1254
864.777	232
864.863	-209
864.950	201
865.036	-130
865.122	1711
865.209	3656
865.295	2607
865.381	2762
865.467	2145
865.553	3617
865.639	4742
865.726	7994
865.812	16588
865.898	34617
865.984	55780
866.070	78625
866.156	157457
866.242	101526
866.328	18425
866.414	4766
866.499	2424
866.585	3326
866.671	1916
866.757	1532
866.843	1571
866.928	1952
867.014	350
867.100	1183
867.186	457
867.271	887
867.357	557
867.442	1392
867.528	1260
867.614	1893
867.699	2171
867.785	3141
867.870	4236
867.956	7651
868.041	7646
868.127	4398
868.212	3226
868.297	5069
868.383	2654
868.468	2413
868.553	3262
868.639	2824
868.724	2331
868.809	2740
868.894	1140
868.979	550
869.065	591
869.150	511
869.235	24
869.320	35
869.405	363
869.490	822
869.575	553
869.660	281
869.745	791
869.830	436
869.915	1303
870.000	146
870.085	-215
870.169	1605
870.254	3174
870.339	1271
870.424	27
870.509	802
870.593	168
870.678	938
870.763	146
870.847	561
870.932	497
871.016	801
871.101	1676
871.186	944
871.270	1058
871.355	792
871.439	294
871.523	678
871.608	793
871.692	-171
871.777	978
871.861	1665
871.945	345
872.030	214
872.114	-430
872.198	-146
872.282	-370
872.367	4
872.451	225
872.535	719
872.619	664
872.703	147
872.787	159
872.871	285
872.955	-69
873.039	-837
873.123	-845
873.207	194
873.291	-188
873.375	-858
873.459	153
873.543	377
873.627	-626
873.711	148
873.794	-56
873.878	186
873.962	301
874.045	-61
874.129	-880
874.137	-811
874.213	-116
874.245	-107
874.296	-99
874.352	229
874.380	392
874.460	283
874.464	278
874.547	-4
874.568	-172
874.631	-671
874.676	-211
874.714	169
874.784	64
874.798	47
874.881	963
874.892	719
874.965	-984
874.999	-687
875.048	-286
875.107	6
875.131	115
875.215	46
875.215	46
875.298	-880
875.323	-792
875.381	-616
875.430	-68
875.465	330
875.538	423
875.548	421
875.631	-1
875.646	-126
875.714	-641
875.753	-798
875.798	-982
875.861	-297
875.881	-67
875.964	-133
875.968	-113
876.047	124
876.076	61
876.130	5
876.183	-3
876.213	-3
876.291	-142
876.296	-150
876.379	299
876.398	274
876.462	114
876.506	268
876.545	470
876.613	334
876.628	290
876.711	242
876.721	268
876.794	454
876.828	320
876.877	136
876.935	299
876.960	392
877.043	474
877.043	471
877.125	-68
877.150	219
877.208	1091
877.258	1129
877.291	1022
877.365	908
877.374	927
877.456	758
877.472	841
877.539	982
877.579	631
877.622	402
877.687	925
877.704	1028
877.787	1715
877.794	1689
877.869	1381
877.901	1225
877.952	983
878.008	639
878.034	474
878.115	8
878.117	2
878.199	132
878.222	170
878.282	441
878.329	569
878.364	586
878.437	1197
878.447	1282
878.529	511
878.544	396
878.611	-17
878.651	453
878.694	974
878.758	863
878.776	804
878.858	1119
878.865	1082
878.941	671
878.972	571
879.023	368
879.078	181
879.105	158
879.185	788
879.187	801
879.269	448
879.292	583
879.351	1118
879.399	835
879.433	502
879.506	509
879.516	497
879.598	128
879.613	138
879.680	681
879.720	1082
879.762	1336
879.827	757
879.844	610
879.926	512
879.933	529
880.007	764
880.040	786
880.089	754
880.147	702
880.171	830
880.253	1357
880.254	1355
880.335	1062
880.360	1036
880.417	1666
880.467	2279
880.499	2995
880.574	4574
880.580	4538
880.662	2927
880.680	2670
880.744	1714
880.787	555
880.825	85
880.893	570
880.907	661
880.989	1169
881.000	1137
881.070	1112
881.106	1156
881.152	924
881.213	429
881.233	329
881.315	408
881.319	424
881.396	1173
881.426	1024
881.478	560
881.532	1023
881.559	1311
881.639	1469
881.641	1470
881.722	1376
881.745	1234
881.803	1108
881.852	905
881.885	763
881.958	1312
881.966	1340
882.047	1048
882.064	906
882.129	775
882.171	833
882.210	874
882.277	1206
882.291	1328
882.372	1850
882.383	1889
882.454	1187
882.489	739
882.535	781
882.596	964
882.616	1039
882.697	1455
882.702	1424
882.778	777
882.808	850
882.859	874
882.914	749
882.940	757
883.020	1019
883.021	1026
883.102	865
883.127	711
883.183	965
883.233	1337
883.264	1378
883.339	1397
883.345	1360
883.426	565
883.445	333
883.507	531
883.551	1110
883.587	1485
883.657	1484
883.668	1468
883.749	1890
883.763	1881
883.830	1850
883.869	1678
883.910	976
883.975	593
883.991	773
884.072	1020
884.081	1042
884.152	1372
884.187	1621
884.233	1991
884.292	2393
884.314	2155
884.394	997
884.398	932
884.475	759
884.504	769
884.555	693
884.610	493
884.636	744
884.716	1513
884.716	1521
884.797	1214
884.821	1133
884.877	1822
884.927	2368
884.958	2213
885.033	1602
885.038	1582
885.118	1148
885.139	1082
885.199	953
885.244	779
885.279	846
885.350	847
885.359	919
885.439	1773
885.456	1904
885.520	1878
885.561	1865
885.600	1645
885.667	1292
885.680	1418
885.760	1937
885.773	2008
885.840	1590
885.878	1320
885.920	1190
885.984	1207
886.000	1267
886.080	1430
886.089	1435
886.160	1903
886.195	2131
886.240	2100
886.300	1771
886.320	1592
886.400	1303
886.406	1263
886.480	1379
886.511	1372
886.560	1557
886.616	1913
886.640	1981
886.720	2077
886.722	2068
886.800	1968
886.827	1923
886.879	2119
886.932	2153
886.959	2163
887.038	2530
887.039	2533
887.119	1765
887.143	1435
887.198	1819
887.248	2274
887.278	1976
887.354	1105
887.358	1148
887.437	1957
887.459	2164
887.517	2240
887.564	2254
887.596	2302
887.669	2394
887.676	2344
887.755	1557
887.774	1338
887.835	1231
887.880	1310
887.914	1446
887.985	1501
887.994	1586
888.073	2311
888.090	2453
888.153	2232
888.195	2028
888.232	2046
888.300	2099
888.311	2043
888.391	1603
888.405	1492
888.470	1408
888.510	1417
888.549	1634
888.615	1906
888.628	1968
888.708	2362
888.720	2397
888.787	2269
888.825	2182
888.866	1931
888.930	1563
888.945	1536
889.024	1295
889.035	1267
889.103	2341
889.140	2842
889.182	2648
889.245	2400
889.261	2420
889.340	2413
889.349	2407
889.419	1797
889.454	1464
889.498	1602
889.559	1782
889.577	1872
889.656	2239
889.664	2269
889.735	2550
889.768	2671
889.814	2726
889.873	2778
889.978	2132
890.083	2029
890.187	2250
890.292	2744
890.397	2416
890.501	1707
890.606	2705
890.710	2105
890.815	2834
890.919	1970
891.024	2425
891.128	2371
891.233	1501
891.337	1925
891.442	2399
891.546	2383
891.650	1449
891.755	2139
891.859	2457
891.963	2175
892.068	2308
892.172	2344
892.276	2083
892.380	1172
892.484	1274
892.589	2430
892.693	3463
892.797	1871
892.901	1771
893.005	1679
893.109	1673
893.213	2701
893.317	1494
893.421	985
893.525	1391
893.629	778
893.733	1932
893.837	1946
893.941	2024
894.045	1658
894.148	1212
894.252	2528
894.356	3303
894.460	3605
894.564	1946
894.667	2298
894.771	1390
894.875	451
894.978	2031
895.082	2381
895.186	1941
895.289	2190
895.393	1422
895.496	1972
895.600	1211
895.703	882
895.807	1756
895.910	1742
896.014	1941
896.117	1677
896.221	1104
896.324	2082
896.427	1864
896.531	1600
896.634	1999
896.737	1599
896.840	1894
896.944	1515
897.047	1989
897.150	755
897.253	1745
897.356	1179
897.460	1596
897.563	1567
897.666	1253
897.769	1867
897.872	2223
897.975	1162
898.078	1094
898.181	945
898.284	1091
898.387	1957
898.490	2092
898.593	1079
898.695	775
898.798	730
898.901	1169
899.004	1501
899.107	2340
899.209	1762
899.312	1814
899.415	1831
899.518	1430
899.620	972
899.723	1643
899.826	1106
899.928	2838
900.031	1779
900.133	2482
900.236	1447
900.338	1455
900.441	294
900.543	1355
900.646	1331
900.748	1245
900.851	1198
900.953	1358
901.055	1186
901.158	1336
901.260	710
901.362	924
901.465	847
901.567	1633
901.669	1959
901.771	1592
901.873	774
901.976	1454
902.078	634
902.180	2230
902.282	954
902.384	1342
902.486	1943
902.588	1734
902.690	1190
902.792	1116
902.894	860
902.996	2045
903.098	1139
903.200	1393
903.302	797
903.404	1554
903.505	1676
903.607	1126
903.709	1913
903.811	2325
903.913	1339
904.014	1379
904.116	1021
904.218	1439
904.319	1888
904.421	2590
904.523	2068
904.624	2682
904.726	1561
904.827	972
904.929	718
905.030	1771
905.132	2020
905.233	2457
905.335	767
905.436	1445
905.537	982
905.639	1033
905.740	1583
905.841	1581
905.943	635
906.044	1629
906.145	2103
906.247	652
906.348	794
906.449	1392
906.550	1439
906.651	947
906.752	1019
906.854	1134
906.955	1639
907.056	774
907.157	1778
907.258	2200
907.359	1472
907.460	901
907.561	582
907.662	1767
907.762	485
907.863	1382
907.964	826
908.065	1923
908.166	766
908.267	644
908.367	1072
908.468	2191
908.569	929
908.670	1789
908.770	1523
908.871	1543
908.971	1503
909.072	1717
909.173	714
909.273	1595
909.374	1150
909.474	1069
909.575	1596
909.675	1081
909.776	1868
909.876	1355
909.977	996
910.077	1142
910.177	1215
910.278	1672
910.378	1064
910.478	1044
910.579	1623
910.679	1075
910.779	1467
910.879	1413
910.980	1130
911.080	1176
911.180	1576
911.280	1198
911.380	417
911.480	982
911.580	329
911.680	1591
911.780	953
911.880	1459
911.980	701
912.080	1911
912.180	1119
912.280	846
912.380	1532
912.480	252
912.580	650
912.679	1417
912.779	1411
912.879	1793
912.979	1139
913.078	1184
913.178	787
913.278	1895
913.377	909
913.477	1560
913.577	539
913.676	1684
913.776	835
913.875	1876
913.975	929
914.074	1416
914.174	210
914.273	1436
914.373	758
914.472	1363
914.572	223
914.671	1095
914.770	304
914.870	1177
914.969	925
915.068	1365
915.167	1408
915.267	1523
915.366	-36
915.465	1176
915.564	1209
915.663	1039
915.763	436
915.862	1573
915.961	1065
916.060	1523
916.159	755
916.258	1073
916.357	528
916.456	1361
916.555	2032
916.654	1063
916.752	1777
916.851	1373
916.950	437
917.049	710
917.148	690
917.247	779
917.345	903
917.444	1280
917.543	1237
917.642	934
917.740	1186
917.839	1345
917.937	1384
918.036	2068
918.135	426
918.233	1113
918.332	446
918.430	1854
918.529	961
918.627	930
918.726	1167
918.824	1403
918.923	600
919.021	1665
919.119	764
919.218	1027
919.316	911
919.414	844
919.512	1259
919.611	1714
919.709	122
919.807	899
919.905	1060
920.003	1804
920.102	1266
920.200	558
920.298	951
920.396	1439
920.494	2276
920.592	1942
920.690	534
920.788	2224
920.886	951
920.984	1470
921.082	2170
921.180	1992
921.277	1011
921.375	1293
921.473	1894
921.571	2114
921.669	2140
921.766	2411
921.864	1938
921.962	3190
922.060	1924
922.157	2358
922.255	2131
922.352	1708
922.450	2089
922.548	3329
922.645	2708
922.743	3337
922.840	5207
922.938	6578
923.035	5773
923.133	5382
923.230	6094
923.327	7411
923.425	7791
923.522	7573
923.619	6664
923.717	6021
923.814	5473
923.911	5977
924.008	5412
924.106	5406
924.203	4757
924.300	5844
924.397	4905
924.494	6604
924.591	5603
924.688	5334
924.786	5742
924.883	5076
924.979	5374
925.077	6092
925.173	4868
925.270	5799
925.367	5630
925.464	5946
925.561	6105
925.658	6347
925.755	5453
925.852	6636
925.948	6548
926.045	5957
926.142	6791
926.239	7331
926.335	5516
926.432	6008
926.529	6241
926.625	7719
926.722	6181
926.818	5485
926.915	5420
927.011	5561
927.108	4644
927.204	5074
927.301	5100
927.397	4371
927.494	5866
927.590	4150
927.687	3390
927.783	5951
927.879	4927
927.976	5597
928.072	3523
928.168	4848
928.264	5207
928.361	4651
928.457	4609
928.553	5263
928.649	3940
928.745	5101
928.841	4223
928.937	4338
929.033	3735
929.129	4702
929.225	4331
929.321	4466
929.417	3833
929.513	4899
929.609	4160
929.705	3792
929.801	4395
929.897	4021
929.993	3913
930.089	4279
930.184	3502
930.280	3955
930.376	4768
930.471	4676
930.567	3783
930.663	3566
930.758	3439
930.854	4380
930.950	4094
931.045	3712
931.141	4228
931.236	4831
931.332	5051
931.427	3163
931.523	4103
931.618	5030
931.714	2450
931.809	3091
931.905	3878
932.000	3657
932.095	1875
932.191	3250
932.286	3781
932.381	4128
932.476	2731
932.572	3742
932.667	3028
932.762	2566
932.857	4561
932.952	3681
933.047	3500
933.142	4117
933.237	2990
933.332	3829
933.427	3827
933.522	3013
933.617	3106
933.712	3271
933.807	3207
933.902	3940
933.997	4094
934.092	3259
934.187	3106
934.282	3388
934.376	1992
934.471	5165
934.566	3305
934.661	3241
934.755	3280
934.850	3491
934.945	3593
935.039	3289
935.134	2264
935.228	2924
935.323	4545
935.417	3305
935.512	2154
935.606	1825
935.701	2337
935.795	3206
935.890	3456
935.984	2990
936.079	2525
936.173	2506
936.267	2194
936.362	2356
936.456	2575
936.550	4361
936.644	2791
936.738	3331
936.833	2161
936.927	2286
937.021	2536
937.115	3573
937.209	3223
937.303	2911
937.397	1888
937.491	3151
937.585	2962
937.679	3276
937.773	2514
937.867	2406
937.961	1825
938.055	2705
938.149	3343
938.243	1346
938.337	1898
938.430	2235
938.524	3241
938.618	4415
938.712	4801
938.805	3710
938.899	3030
938.993	4281
939.086	3411
939.180	3456
939.274	6069
939.367	4973
939.461	3471
939.554	2988
939.648	2029
939.741	2750
939.835	2797
939.928	3058
940.022	3515
940.115	2567
940.208	2469
940.302	3371
940.395	3119
940.488	2540
940.582	2391
940.675	2501
940.768	1590
940.861	2649
940.954	2641
941.048	2434
941.141	1721
941.234	1884
941.327	2870
941.420	4908
941.513	2331
941.606	2791
941.699	2300
941.792	2251
941.885	2491
941.978	2581
942.071	2219
942.164	1328
942.257	1741
942.349	2366
942.442	2794
942.535	1189
942.628	1828
942.721	2784
942.813	1758
942.906	2880
942.999	2028
943.091	1848
943.184	1882
943.277	1667
943.369	1340
943.462	1611
943.554	1571
943.647	1593
943.739	2362
943.832	3064
943.924	1122
944.017	1167
944.109	1120
944.201	1545
944.294	1526
944.386	2063
944.478	1396
944.571	564
944.663	1740
944.755	2140
944.847	1799
944.940	2524
945.032	1368
945.124	1856
945.216	1430
945.308	1485
945.400	1346
945.492	2151
945.584	1474
945.676	2069
945.768	2171
945.860	2071
945.952	2781
946.044	3257
946.136	2242
946.228	1601
946.320	1227
946.412	2467
946.503	2767
946.595	2792
946.687	1265
946.779	1848
946.870	689
946.962	1192
947.054	1734
947.145	2275
947.237	1382
947.329	1471
947.420	1620
947.512	1829
947.603	499
947.695	1195
947.786	1202
947.878	1139
947.969	1502
948.061	1984
948.152	1909
948.243	1680
948.335	736
948.426	1269
948.517	1094
948.609	1699
948.700	1760
948.791	1361
948.882	1657
948.973	1231
949.065	1140
949.156	1446
949.247	1192
949.338	1113
949.429	579
949.520	1141
949.611	1888
949.702	2003
949.793	1109
949.884	1134
949.975	709
950.066	736
950.157	1114
950.247	1172
950.338	918
950.429	1392
950.520	876
950.611	1493
950.701	1159
950.792	2627
950.883	1658
950.973	1327
951.064	1397
951.155	2357
951.245	2195
951.336	1199
951.427	1287
951.517	1987
951.608	2177
951.698	1536
951.788	1072
951.879	1216
951.969	956
952.060	1191
952.150	1264
952.240	1359
952.331	864
952.421	2110
952.511	334
952.602	1023
952.692	1075
952.782	1359
952.872	811
952.962	1344
953.052	968
953.143	687
953.233	1236
953.323	1868
953.413	606
953.503	1240
953.593	1188
953.683	1599
953.773	1411
953.863	1017
953.953	864
954.042	1507
954.132	678
954.222	1981
954.312	745
954.402	1158
954.492	951
954.581	1873
954.671	1631
954.761	223
954.850	1546
954.940	415
955.030	1003
955.119	1112
955.209	866
955.298	1448
955.388	927
955.477	1794
955.567	276
955.656	1031
955.746	597
955.835	469
955.925	807
956.014	1692
956.103	1219
956.193	1265
956.282	1606
956.371	1118
956.461	430
956.550	336
956.639	139
956.728	832
956.817	581
956.906	698
956.995	1754
957.085	1416
957.174	521
957.263	357
957.352	563
957.441	1156
957.530	800
957.619	868
957.708	687
957.796	1835
957.885	284
957.974	269
958.063	92
958.152	592
958.241	954
958.329	295
958.418	621
958.507	1486
958.596	1863
958.684	1442
958.773	993
958.861	1363
958.950	674
959.039	827
959.127	447
959.216	1373
959.304	951
959.393	375
959.481	1049
959.570	1271
959.658	903
959.746	975
959.835	652
959.923	1668
960.011	1573
960.100	334
960.188	923
960.276	535
960.365	-291
960.453	488
960.541	-50
960.629	511
960.717	483
960.805	888
960.893	692
960.981	666
961.069	722
961.158	1975
961.245	1618
961.333	488
961.421	1114
961.509	632
961.597	820
961.685	340
961.773	1589
961.861	481
961.949	472
962.036	468
962.124	205
962.212	500
962.299	149
962.387	-341
962.475	597
962.562	390
962.650	545
962.738	188
962.825	803
962.913	591
963.000	190
963.088	985
963.175	600
963.263	602
963.350	597
963.438	726
963.525	520
963.612	1418
963.700	1849
963.787	4093
963.874	3904
963.962	1805
964.049	44
964.136	-92
964.223	515
964.310	428
964.398	147
964.485	-111
964.572	456
964.659	187
964.746	597
964.833	614
964.920	110
965.007	914
965.094	-79
965.181	-156
965.268	966
965.355	1152
965.441	436
965.528	59
965.615	481
965.702	403
965.789	-88
965.875	48
965.962	631
966.049	148
966.136	274
966.222	1536
966.309	903
966.395	1080
966.482	-506
966.569	284
966.655	380
966.742	892
966.828	483
966.915	1247
967.001	-207
967.087	642
967.174	570
967.260	293
967.347	890
967.433	1583
967.519	2733
967.605	2837
967.692	837
967.778	105
967.864	-540
967.950	728
968.036	542
968.123	621
968.209	51
968.295	-874
968.381	166
968.467	763
968.553	-306
968.639	942
968.725	465
968.811	1631
968.897	1459
968.983	581
969.069	1
969.154	436
969.240	300
969.326	-107
969.412	68
969.497	37
969.583	26
969.669	106
969.755	-481
969.840	307
969.926	809
970.012	2057
970.097	1629
970.183	1782
970.268	997
970.354	1088
970.439	502
970.525	1448
970.610	700
970.696	497
970.781	-113
970.866	306
970.952	384
971.037	-407
971.122	487
971.208	164
971.293	398
971.378	85
971.463	-291
971.549	204
971.634	-898
971.719	1333
971.804	-123
971.889	1104
971.974	-726
972.059	303
972.144	-104
972.229	527
972.314	-516
972.399	391
972.484	-64
972.569	-651
972.654	21
972.739	226
972.824	459
972.908	546
972.993	-551
973.078	430
973.163	-173
973.247	214
973.332	-171
973.417	1338
973.501	-79
973.586	-304
973.671	-269
973.755	434
973.840	-635
973.924	916
974.009	-106
974.093	973
974.178	859
974.262	901
974.346	867
974.431	267
974.515	212
974.600	224
974.684	518
974.768	-585
974.852	829
974.937	-29
975.021	-225
975.105	131
975.189	-775
975.273	13
975.358	-1169
975.442	9
975.526	-227
975.610	-651
975.694	-619
975.778	3
975.862	-20
975.946	-1022
976.030	595
976.114	-99
976.198	-246
976.281	-568
976.365	243
976.449	169
976.533	-437
976.617	-825
976.700	-569
976.784	-187
976.868	-486
976.951	-218
977.035	512
977.119	-92
977.202	300
977.286	362
977.369	482
977.453	1178
977.536	1046
977.620	512
977.703	137
977.787	-953
977.870	396
977.953	1213
978.037	-112
978.120	45
978.203	292
978.287	703
978.370	311
978.453	-218
978.536	-196
978.620	770
978.703	873
978.786	207
978.869	-335
978.952	-718
979.035	190
979.118	-256
979.201	-360
979.284	506
979.367	242
979.450	-566
979.533	-575
979.616	189
979.699	-742
979.782	-56
979.865	-13
979.948	449
980.030	-387
980.113	-683
980.196	-856
980.279	-56
980.361	45
980.444	-187
980.526	-219
980.609	313
980.692	401
980.774	529
980.857	-55
980.939	185
981.022	-76
981.104	428
981.187	132
981.269	528
981.352	47
981.434	-983
981.516	-348
981.599	893
981.681	458
981.763	543
981.846	281
981.928	618
982.010	-1491
982.092	213
982.174	-572
982.256	817
982.339	273
982.421	86
982.503	-228
982.585	-818
982.667	356
982.749	-564
982.831	-317
982.913	-487
982.995	-389
983.077	-330
983.158	345
983.240	-117
983.322	340
983.404	902
983.486	665
983.568	467
983.649	748
983.731	782
983.813	-56
983.894	538
983.976	-96
984.058	438
984.139	-106
984.221	-114
984.302	623
984.384	453
984.465	-452
984.547	-194
984.628	-315
984.710	299
984.791	-187
984.872	435
984.954	52
985.035	364
985.116	480
985.198	429
985.279	230
985.360	5
985.441	-384
985.522	217
985.604	343
985.685	-830
985.766	26
985.847	156
985.928	1180
986.009	162
986.090	-197
986.171	207
986.252	422
986.333	189
986.414	-88
986.495	459
986.576	-243
986.656	770
986.737	549
986.818	155
986.899	-109
986.980	447
987.060	418
987.141	711
987.222	-623
987.302	1047
987.383	770
987.464	316
987.544	849
987.625	271
987.705	820
987.786	646
987.866	267
987.947	495
988.027	-74
988.108	50
988.188	651
988.268	329
988.349	752
988.429	296
988.509	-748
988.589	390
988.670	-571
988.750	1460
988.830	305
988.910	618
988.990	342
989.070	557
989.151	497
989.231	211
989.311	-128
989.391	-183
989.471	134
989.551	855
989.631	-136
989.711	1061
989.791	-108
989.870	159
989.950	208
990.030	-521
990.110	-336
990.190	69
990.269	-149
990.349	-234
990.429	-135
990.509	180
990.588	-415
990.668	385
990.747	70
990.827	-164
990.907	-649
990.986	513
991.066	169
991.145	-374
991.225	147
991.304	17
991.383	667
991.463	-73
991.542	-273
991.622	-381
991.701	-1169
991.780	239
991.859	-561
991.939	-195
992.018	-1040
992.097	362
992.176	-40
992.256	-101
992.335	59
992.414	-80
992.493	34
992.572	-237
992.651	0
992.730	149
992.809	-453
992.888	213
992.967	-282
993.046	448
993.125	-499
993.203	-620
993.282	4
993.361	-64
993.440	336
993.519	-760
993.597	-814
993.676	-328
993.755	-97
993.834	-997
993.912	-529
993.991	1155
994.069	-737
994.148	-254
994.226	-1209
994.305	-964
994.384	-70
994.462	-321
994.540	-1102
994.619	-153
994.697	-43
994.776	-239
994.854	-520
994.932	-824
995.011	-16
995.089	-1089
995.167	-1238
995.245	-728
995.324	-200
995.402	308
995.480	-199
995.558	-533
995.636	-1637
995.714	-786
995.792	12
995.870	-1661
995.948	-190
996.026	-175
996.104	-862
996.182	-592
996.260	-774
996.338	-613
996.416	-842
996.494	-601
996.572	59
996.649	-457
996.727	-1339
996.805	219
996.883	-796
996.960	-346
997.038	-317
997.116	-196
997.193	-1287
997.271	-491
997.348	-679
997.426	-635
997.504	-611
997.581	-150
997.658	-350
997.736	-1009
997.813	-1269
997.891	-120
997.968	-789
998.046	-539
998.123	-1132
998.200	-675
998.277	-1348
998.355	-607
998.432	-718
998.509	-746
998.586	-571
998.663	-121
998.741	-1230
998.818	-1196
998.895	-1357
998.972	-266
999.049	-733
999.126	-758
999.203	-818
999.280	-239
999.357	-993
999.434	-304
999.511	-419
999.587	-252
999.664	-1068
999.741	-584
999.818	-1752
999.895	-24
999.971	-1149
1000.048	-35
1000.125	-1597
1000.202	-892
1000.278	-1114
1000.355	-673
1000.431	-1080
1000.508	-757
1000.584	-1820
1000.661	-842
1000.738	-1237
1000.814	-1561
1000.890	-294
1000.967	-1244
1001.043	-1601
1001.120	-1362
1001.196	-1262
1001.272	-1571
1001.349	-1258
1001.425	-495
1001.501	-596
1001.577	-1602
1001.654	-663
1001.730	-803
1001.806	-659
1001.882	-1703
1001.958	-723
1002.034	-422
1002.110	-1406
1002.186	-863
1002.262	-1653
1002.338	-1084
1002.414	-1006
1002.490	-1049
1002.566	-652
1002.642	-1041
1002.718	-386
1002.794	-362
1002.870	-1478
1002.945	-1510
1003.021	-920
1003.097	-653
1003.173	-1095
1003.248	-414
1003.324	-1174
1003.400	-703
1003.475	-539
1003.551	-1588
1003.626	-1328
1003.702	-481
1003.777	-977
1003.853	-1286
1003.928	-2169
1004.004	-720
1004.079	-713
1004.155	-1466
1004.230	-1782
1004.305	-1101
1004.381	-1403
1004.456	-912
1004.531	-1023
1004.607	-688
1004.682	-830
1004.757	-1611
1004.832	-1199
1004.907	-646
1004.982	-1033
1005.057	-930
1005.133	-2259
1005.208	-1002
1005.283	-2145
1005.358	158
1005.433	-1167
1005.508	-750
1005.583	-2004
1005.657	-805
1005.732	-1255
1005.807	-1105
1005.882	-1654
1005.957	-314
1006.032	-1215
1006.106	-364
1006.181	-1624
1006.256	-1307
1006.331	-2142
1006.405	-1510
1006.480	-965
1006.554	-1484
1006.629	-1176
1006.704	-1369
1006.778	-1461
1006.853	-731
1006.927	-1685
1007.002	-1607
1007.076	-1367
1007.150	-1491
1007.225	-1190
1007.299	-664
1007.373	-2163
1007.448	-1321
1007.522	-1375
1007.596	-971
1007.671	-1832
1007.745	-1122
1007.819	-1380
1007.893	-1308
1007.967	-1666
1008.041	-2400
1008.115	-722
1008.190	-1034
1008.264	-1436
1008.338	-2206
1008.412	-1583
1008.486	-755
1008.560	-1512
1008.633	-1824
1008.707	-1254
1008.781	-1086
1008.855	-1281
1008.929	-1021
1009.003	-1860
1009.076	-1169
1009.150	-1205
1009.224	-470
1009.298	-1043
1009.371	-1323
1009.445	-1127
1009.519	-1362
1009.592	-1430
1009.666	-976
1009.739	-1542
1009.813	-1106
1009.886	-846
1009.960	-790
1010.033	-1545
1010.107	-903
1010.180	-2090
1010.253	-1047
1010.327	-1911
1010.400	-1644
1010.473	-1237
1010.547	-339
1010.620	-2368
1010.693	-1394
1010.766	-1622
1010.840	-1344
1010.913	-1710
1010.986	-1590
1011.059	-1763
1011.132	-851
1011.205	-969
1011.278	-995
1011.351	-1400
1011.424	-1318
1011.497	-1148
1011.570	-1410
1011.643	-1897
1011.716	-1415
1011.789	-438
1011.862	-930
1011.934	-1718
1012.007	-2228
1012.080	-686
1012.153	-1416
1012.225	-1192
1012.298	-1141
1012.371	-1759
1012.443	-1424
1012.516	-1966
1012.588	-716
1012.661	-2423
1012.733	-2407
1012.806	-1535
1012.879	-792
1012.951	-1633
1013.023	-983
1013.096	-1419
1013.168	-1058
1013.241	-803
1013.313	-1331
1013.385	-2194
1013.458	-1119
1013.530	-1109
1013.602	-2020
1013.674	-2016
1013.746	-1640
1013.819	-2146
1013.891	-1279
1013.963	-2211
1014.035	-1226
1014.107	-1499
1014.179	-1277
1014.251	-1599
1014.323	-465
1014.395	-1521
1014.467	-1125
1014.539	-1388
1014.611	-1224
1014.683	-1169
1014.754	-1583
1014.826	-1916
1014.898	-1214
1014.970	-1942
1015.042	-540
1015.113	-1418
1015.185	-1238
1015.257	-2147
1015.328	-1439
1015.400	-2458
1015.471	-1477
1015.543	-1863
1015.615	-1508
1015.686	-872
1015.757	-696
1015.829	-1627
1015.901	-1398
1015.972	-2264
1016.043	-1792
1016.115	-1421
1016.186	-1311
1016.257	-1768
1016.328	-827
1016.400	-1724
1016.471	-2197
1016.542	-1557
1016.613	-2114
1016.685	-1216
1016.756	-1040
1016.827	-1833
1016.898	-1421
1016.969	-1520
1017.040	-2272
1017.111	-2038
1017.182	-1424
1017.253	-1849
1017.324	-1661
1017.395	-1681
1017.466	-1008
1017.537	-1460
1017.608	-1409
1017.678	-1719
1017.749	-1075
1017.820	-1718
1017.891	-1622
1017.961	-1999
1018.032	-1561
1018.103	-1208
1018.173	-1004
1018.244	-1835
1018.315	-1325
1018.385	-1397
1018.456	-1273
1018.526	-2638
1018.597	-1589
1018.667	-1337
1018.738	-1512
1018.808	-1521
1018.878	-1655
1018.949	-1597
1019.019	-2019
1019.089	-1419
1019.160	-1724
1019.230	-2739
1019.300	-1281
1019.371	-2207
1019.441	-637
1019.511	-2024
1019.581	-1451
1019.651	-1162
1019.721	-1185
1019.791	-1864
1019.861	-1207
1019.931	-2185
1020.001	-1148
1020.071	-1721
1020.141	-990
1020.211	-1218
1020.281	-1610
1020.351	-1256
1020.421	-652
1020.491	-1491
1020.560	-2076
1020.630	-1624
1020.700	-1775
1020.770	-2372
1020.839	-1128
1020.909	-1897
1020.979	-1504
1021.048	-1759
1021.118	-1218
1021.187	-1393
1021.257	-1503
1021.326	-735
1021.396	-1227
1021.465	-1520
1021.535	-1720
1021.604	-2012
1021.674	-1225
1021.743	-1156
1021.812	-1769
1021.882	-1882
1021.951	-1782
1022.020	-1365
1022.089	-1040
1022.159	-1234
1022.228	-1680
1022.297	-1498
1022.366	-2388
1022.435	-1364
1022.504	-1834
1022.573	-1923
1022.642	-813
1022.711	-1945
1022.781	-1160
1022.849	-1885
1022.918	-1972
1022.987	-1437
1023.056	-2121
1023.125	-1405
1023.194	-2117
1023.263	-1946
1023.331	-1337
1023.400	-1829
1023.469	-1800
1023.538	-1614
1023.606	-2286
1023.675	-1558
1023.744	-2127
1023.812	-1386
1023.881	-1848
1023.949	-1754
1024.018	-1776
1024.086	-1725
1024.155	-1177
1024.223	-1877
1024.292	-1503
1024.360	-1676
1024.429	-1361
1024.497	-2011
1024.565	-1582
1024.634	-1205
1024.702	-1762
1024.770	-1945
1024.838	-1504
1024.907	-1624
1024.975	-1656
1025.043	-1569
1025.111	-1985
1025.179	-1894
1025.247	-1745
1025.315	-1806
1025.383	-1944
1025.451	-2235
1025.519	-1084
1025.587	-1711
1025.655	-1369
1025.723	-1731
1025.791	-1596
1025.859	-2283
1025.927	-1988
1025.995	-2270
1026.062	-1132
1026.130	-1648
1026.198	-2227
1026.266	-1145
1026.333	-2095
1026.401	-2062
1026.469	-1539
1026.536	-2345
1026.604	-1417
1026.671	-1692
1026.739	-2040
1026.806	-2955
1026.874	-1992
1026.941	-1570
1027.009	-1738
1027.076	-2287
1027.144	-1214
1027.211	-2283
1027.278	-2105
1027.345	-1988
1027.413	-1779
1027.480	-2288
1027.547	-2137
1027.614	-2378
1027.682	-1519
1027.749	-2021
1027.816	-1815
1027.883	-1825
1027.950	-2206
1028.017	-1844
1028.084	-1667
1028.151	-2365
1028.218	-2281
1028.285	-1720
1028.352	-1684
1028.419	-2576
1028.486	-1455
1028.553	-2367
1028.619	-1676
1028.686	-2101
1028.753	-1718
1028.820	-2060
1028.886	-1950
1028.953	-1091
1029.020	-1827
1029.086	-2231
1029.153	-1593
1029.220	-2238
1029.286	-1941
1029.353	-1804
1029.419	-1883
1029.486	-1867
1029.552	-1700
1029.619	-1867
1029.685	-1903
1029.751	-2191
1029.818	-1705
1029.884	-2267
1029.951	-1349
1030.017	-1701
1030.083	-2062
1030.149	-2238
1030.216	-1605
1030.282	-2024
1030.348	-1413
1030.414	-1795
1030.480	-2277
1030.546	-2191
1030.612	-1548
1030.678	-2515
1030.744	-1848
1030.810	-2055
1030.876	-2139
1030.942	-1910
1031.008	-1926
1031.074	-2644
1031.140	-2170
1031.206	-2115
1031.272	-2210
1031.337	-1948
1031.403	-1692
1031.469	-1804
1031.534	-1273
1031.600	-1277
1031.666	-1780
1031.731	-2732
1031.797	-2147
1031.863	-2006
1031.928	-1495
1031.994	-2286
1032.059	-1507
1032.125	-2152
1032.190	-2331
1032.256	-2049
1032.321	-958
1032.386	-2084
1032.452	-1297
1032.517	-1757
1032.582	-1940
1032.647	-2187
1032.713	-1094
1032.778	-1900
1032.843	-2053
1032.908	-1798
1032.974	-1695
1033.039	-2189
1033.104	-2194
1033.169	-2665
1033.234	-2228
1033.299	-1616
1033.364	-2077
1033.429	-2809
1033.494	-2261
1033.559	-1449
1033.624	-1697
1033.688	-1570
1033.753	-1814
1033.818	-2401
1033.883	-1828
1033.948	-2049
1034.013	-1300
1034.077	-1816
1034.142	-1343
1034.207	-1388
1034.271	-598
1034.336	850
1034.400	627
1034.465	-936
1034.530	-1094
1034.594	-1850
1034.658	-1139
1034.723	-2574
1034.787	-1818
1034.852	-1179
1034.916	-1973
1034.981	-1760
1035.045	-2246
1035.109	-1835
1035.173	-1259
1035.238	-2440
1035.302	-1754
1035.366	-1821
1035.430	-2025
1035.495	-1932
1035.559	-1450
1035.623	-1942
1035.687	-1144
1035.751	-1953
1035.815	-2321
1035.879	-2102
1035.943	-1608
1036.007	-2865
1036.071	-1681
1036.135	-1800
1036.198	-1122
1036.262	-2146
1036.326	-1757
1036.390	-2018
1036.454	-1713
1036.517	-1976
1036.581	-2163
1036.645	-2314
1036.709	-1543
1036.772	-2202
1036.836	-1693
1036.900	-1602
1036.963	-2299
1037.026	-1245
1037.090	-1768
1037.154	-1955
1037.217	-2087
1037.280	-3022
1037.344	-2219
1037.407	-2314
1037.471	-1787
1037.534	-2374
1037.597	-2587
1037.661	-1857
1037.724	-2561
1037.787	-2408
1037.850	-1499
1037.913	-1839
1037.977	-1373
1038.040	-2605
1038.103	-1903
1038.166	-2741
1038.229	-1675
1038.292	-2215
1038.355	-1439
1038.418	-2096
1038.481	-1848
1038.544	-2350
1038.607	-2066
1038.670	-1558
1038.732	-1660
1038.795	-2027
1038.858	-2717
1038.921	-1517
1038.984	-1845
1039.046	-1782
1039.109	-2677
1039.172	-2853
1039.234	-2298
1039.297	-1956
1039.360	-2513
1039.422	-2732
1039.485	-2028
1039.547	-2798
1039.610	-2330
1039.672	-2054
1039.734	-2372
1039.797	-3007
1039.859	-1949
1039.922	-2505
1039.984	-1666
1040.046	-2516
1040.109	-2030
1040.171	-2311
1040.233	-1231
1040.295	-2337
1040.358	-2512
1040.420	-2631
1040.482	-1872
1040.544	-2070
1040.606	-2078
1040.668	-2467
1040.730	-2068
1040.792	-2088
1040.854	-1874
1040.916	-2627
1040.978	-2152
1041.040	-1790
1041.102	-2032
1041.164	-1853
1041.225	-1933
1041.287	-2487
1041.349	-2255
1041.411	-1823
1041.472	-2089
1041.534	-2493
1041.596	-2125
1041.657	-2133
1041.719	-2085
1041.781	-2644
1041.842	-1977
1041.904	-2148
1041.965	-2691
1042.027	-2945
1042.088	-1592
1042.150	-1742
1042.211	-2289
1042.272	-1833
1042.334	-1652
1042.395	-2484
1042.456	-2657
1042.518	-1665
1042.579	-1491
1042.640	-2087
1042.701	-2802
1042.763	-1930
1042.824	-1738
1042.885	-2118
1042.946	-2418
1043.007	-1860
1043.068	-2428
1043.129	-1417
1043.190	-1558
1043.251	-1973
1043.312	-1515
1043.373	-1734
1043.434	-2298
1043.495	-2335
1043.556	-1194
1043.616	-2479
1043.677	-1750
1043.738	-2053
1043.799	-2142
1043.859	-1791
1043.920	-1757
1043.981	-2016
1044.041	-1929
1044.102	-2787
1044.162	-1785
1044.223	-2076
1044.284	-1792
1044.344	-1300
1044.405	-2182
1044.465	-1829
1044.525	-2432
1044.586	-2413
1044.646	-1800
1044.707	-1694
1044.767	-2033
1044.827	-1910
1044.887	-1696
1044.948	-2277
1045.008	-1437
1045.068	-2491
1045.128	-1487
1045.188	-1795
1045.249	-1746
1045.309	-2390
1045.369	-1422
1045.429	-1246
1045.489	-2107
1045.549	-2211
1045.609	-1255
1045.669	-2361
1045.729	-2452
1045.789	-2347
1045.848	-2406
1045.908	-1379
1045.968	-1565
1046.028	-1772
1046.088	-1614
1046.147	-2020
1046.207	-1138
1046.267	-2078
1046.326	-1563
1046.386	-1919
1046.446	-810
1046.505	-1132
1046.565	-537
1046.624	-1633
1046.684	-803
1046.743	-1528
1046.803	-475
1046.862	-1451
1046.922	0
