'Start Wavelength	183.907
'End Wavelength	1046.922
'Gate Delay	5.000
'Gate Width (ms)	1.050
'Laser Output Level	0.000
'X Position	0.000
'Y Position	0.000
'Z Position	0.000
'Grid Point Number	1.000
'Shot Number	100.000
183.907	573.000
183.977	297.000
184.047	66
184.116	16
184.186	92
184.256	24
184.325	697
184.395	-466
184.465	1069
184.534	-183
184.604	377
184.674	-58
184.743	409
184.813	18
184.883	248
184.952	513
185.022	860
185.092	217
185.161	226
185.231	446
185.301	-270
185.370	355
185.440	-14
185.509	240
185.579	-158
185.649	501
185.718	-98
185.788	-4
185.857	280
185.927	-414
185.996	662
186.066	156
186.136	16
186.205	79
186.275	-181
186.344	-59
186.414	55
186.483	-6
186.553	591
186.622	-307
186.692	256
186.761	646
186.831	-94
186.900	153
186.970	289
187.039	868
187.109	190
187.178	971
187.248	261
187.317	1012
187.387	56
187.456	148
187.526	-37
187.595	-48
187.664	259
187.734	399
187.803	784
187.873	577
187.942	227
188.012	-287
188.081	115
188.150	-68
188.220	989
188.289	889
188.358	494
188.428	823
188.497	144
188.567	-64
188.636	-190
188.705	-144
188.775	162
188.844	-580
188.913	562
188.983	253
189.052	-234
189.121	774
189.191	422
189.260	-12
189.329	685
189.399	-360
189.468	1261
189.537	215
189.606	145
189.676	135
189.745	449
189.814	10
189.883	491
189.953	282
190.022	958
190.091	-220
190.161	-26
190.230	-128
190.299	663
190.368	-532
190.437	-103
190.507	119
190.576	-17
190.645	198
190.714	402
190.783	-328
190.853	488
190.922	674
190.991	-170
191.060	328
191.129	-194
191.198	148
191.268	109
191.337	-379
191.406	149
191.475	511
191.544	-293
191.613	-389
191.682	937
191.752	16
191.821	674
191.890	338
191.959	-354
192.028	-216
192.097	490
192.166	303
192.235	394
192.304	-25
192.373	199
192.442	-380
192.511	413
192.580	-310
192.650	679
192.719	-154
192.788	-34
192.857	347
192.926	-32
192.995	570
193.064	3
193.133	-338
193.202	157
193.271	-159
193.340	548
193.409	475
193.478	649
193.547	-38
193.615	-87
193.684	105
193.753	233
193.822	7
193.891	387
193.960	-250
194.029	-263
194.098	-177
194.167	-202
194.236	-13
194.305	103
194.374	102
194.443	-141
194.512	-482
194.580	349
194.649	-418
194.718	560
194.787	106
194.856	249
194.925	-206
194.994	-255
195.062	340
195.131	-505
195.200	-106
195.269	362
195.338	376
195.407	253
195.475	-125
195.544	253
195.613	-500
195.682	17
195.751	334
195.819	-135
195.888	168
195.957	481
196.026	-907
196.094	722
196.163	-91
196.232	-11
196.301	223
196.369	-288
196.438	-448
196.507	648
196.576	177
196.644	-422
196.713	137
196.782	121
196.850	241
196.919	236
196.988	83
197.056	-864
197.125	-215
197.194	189
197.262	143
197.331	-174
197.400	85
197.468	0
197.537	-406
197.606	-675
197.674	496
197.743	175
197.812	-17
197.880	534
197.949	205
198.017	208
198.086	47
198.155	-449
198.223	-117
198.292	-347
198.360	-499
198.429	-354
198.497	-688
198.566	268
198.635	-35
198.703	585
198.772	79
198.840	-114
198.909	38
198.977	-94
199.046	6
199.114	623
199.183	-836
199.251	-446
199.320	252
199.388	415
199.457	614
199.525	300
199.594	59
199.662	441
199.731	191
199.799	181
199.867	340
199.936	336
200.004	743
200.073	266
200.141	303
200.210	-128
200.278	-435
200.346	318
200.415	-73
200.483	160
200.552	360
200.620	102
200.688	538
200.757	-79
200.825	321
200.893	-282
200.962	258
201.030	643
201.098	-286
201.167	674
201.235	-179
201.303	577
201.372	-387
201.440	300
201.508	188
201.577	-153
201.645	-487
201.713	-776
201.781	-317
201.850	312
201.918	5
201.986	-142
202.055	660
202.123	106
202.191	-228
202.259	308
202.327	-159
202.396	305
202.464	269
202.532	163
202.600	444
202.669	67
202.737	-826
202.805	-496
202.873	-17
202.941	934
203.009	35
203.078	-649
203.146	351
203.214	-551
203.282	-724
203.350	286
203.418	181
203.487	272
203.555	-178
203.623	202
203.691	-120
203.759	-175
203.827	-307
203.895	302
203.963	187
204.031	-373
204.099	-45
204.168	113
204.236	-405
204.304	143
204.372	524
204.440	-321
204.508	-179
204.576	-369
204.644	-315
204.712	543
204.780	-207
204.848	-6
204.916	-362
204.984	-247
205.052	204
205.120	-242
205.188	-268
205.256	436
205.324	-143
205.392	-449
205.460	230
205.528	-721
205.596	-5
205.664	619
205.732	588
205.799	-581
205.867	43
205.935	-77
206.003	2
206.071	-6
206.139	-532
206.207	353
206.275	-140
206.343	-134
206.411	-113
206.478	195
206.546	496
206.614	-447
206.682	-31
206.750	-455
206.818	591
206.885	312
206.953	22
207.021	447
207.089	-240
207.157	-650
207.225	107
207.292	523
207.360	-522
207.428	144
207.496	43
207.563	-550
207.631	-291
207.699	-174
207.767	-46
207.834	-241
207.902	-202
207.970	-646
208.038	836
208.105	41
208.173	-346
208.241	-262
208.309	14
208.376	162
208.444	159
208.512	-173
208.579	-164
208.647	53
208.715	-32
208.782	-22
208.850	-472
208.918	-442
208.985	56
209.053	31
209.120	-199
209.188	-670
209.256	-40
209.323	-87
209.391	-36
209.459	-245
209.526	-331
209.594	-166
209.661	-304
209.729	141
209.796	41
209.864	1
209.932	71
209.999	442
210.067	-120
210.134	-747
210.202	11
210.269	503
210.337	591
210.404	-219
210.472	-68
210.539	134
210.607	-145
210.674	-83
210.742	-347
210.809	-209
210.877	-88
210.944	396
211.012	-520
211.079	-387
211.146	147
211.214	-23
211.281	45
211.349	470
211.416	-172
211.484	438
211.551	293
211.618	-89
211.686	41
211.753	-284
211.821	106
211.888	13
211.955	73
212.023	-96
212.090	-534
212.157	170
212.225	-987
212.292	311
212.359	117
212.427	838
212.494	221
212.561	808
212.629	-67
212.696	-452
212.763	-254
212.831	-696
212.898	-313
212.965	180
213.032	319
213.100	146
213.167	-425
213.234	100
213.301	-225
213.369	-531
213.436	-503
213.503	15
213.570	-89
213.638	388
213.705	239
213.772	-236
213.839	-11
213.906	118
213.973	-360
214.041	244
214.108	-773
214.175	-592
214.242	-328
214.309	32
214.376	-541
214.444	-823
214.511	173
214.578	48
214.645	689
214.712	-256
214.779	583
214.846	-483
214.913	-561
214.980	191
215.048	502
215.115	506
215.182	-234
215.249	-382
215.316	-429
215.383	-86
215.450	-286
215.517	12
215.584	-447
215.651	-719
215.718	-68
215.785	162
215.852	-227
215.919	20
215.986	-237
216.053	228
216.120	-784
216.187	-732
216.254	-91
216.321	-515
216.388	-901
216.455	475
216.522	-111
216.589	-1064
216.656	113
216.722	-343
216.789	737
216.856	-719
216.923	-590
216.990	440
217.057	-447
217.124	356
217.191	-180
217.258	-232
217.324	-1050
217.391	-229
217.458	-371
217.525	-120
217.592	-488
217.659	-324
217.725	-675
217.792	130
217.859	313
217.926	151
217.993	-90
218.059	-570
218.126	250
218.193	-319
218.260	-375
218.327	-183
218.393	-807
218.460	-320
218.527	-808
218.594	-103
218.660	-816
218.727	232
218.794	-388
218.860	-202
218.927	-359
218.994	157
219.061	-801
219.127	-622
219.194	175
219.261	417
219.327	63
219.394	61
219.461	-760
219.527	-150
219.594	-227
219.661	-136
219.727	-519
219.794	68
219.860	-228
219.927	340
219.994	315
220.060	567
220.127	352
220.193	-77
220.260	-1275
220.326	701
220.393	-963
220.460	-124
220.526	-167
220.593	-702
220.659	572
220.726	-457
220.792	-445
220.859	-75
220.925	713
220.992	-266
221.058	238
221.125	233
221.191	-445
221.258	-304
221.324	-344
221.391	-96
221.457	-667
221.524	-76
221.590	-668
221.657	759
221.723	34
221.789	-254
221.856	-636
221.922	-50
221.989	108
222.055	-246
222.121	-804
222.188	-147
222.254	-47
222.321	-360
222.387	-306
222.453	-648
222.520	241
222.586	-133
222.652	-205
222.719	-191
222.785	101
222.851	-868
222.918	-685
222.984	-369
223.050	-1052
223.116	-1177
223.183	-100
223.249	-511
223.315	-473
223.382	-209
223.448	-654
223.514	-345
223.580	-538
223.647	-1110
223.713	-239
223.779	143
223.845	-481
223.911	154
223.978	-1115
224.044	68
224.110	-1225
224.176	-39
224.242	-724
224.309	-292
224.375	14
224.441	-317
224.507	-578
224.573	-671
224.639	-95
224.705	-624
224.772	-22
224.838	172
224.904	-343
224.970	-429
225.036	-229
225.102	-691
225.168	56
225.234	-70
225.300	-1247
225.366	280
225.432	-772
225.499	316
225.565	-135
225.631	-369
225.697	258
225.763	-18
225.829	-325
225.895	-918
225.961	-516
226.027	176
226.093	-260
226.159	-39
226.225	657
226.291	-90
226.357	-633
226.423	118
226.489	789
226.554	-881
226.620	-373
226.686	-610
226.752	-250
226.818	-173
226.884	182
226.950	-250
227.016	-1089
227.082	410
227.148	-428
227.214	364
227.279	-358
227.345	-329
227.411	-348
227.477	886
227.543	1154
227.609	2234
227.674	989
227.740	-37
227.806	-418
227.872	-376
227.938	147
228.003	559
228.069	-481
228.135	48
228.201	-455
228.267	-771
228.332	-526
228.398	-777
228.464	34
228.530	211
228.595	-920
228.661	-906
228.727	174
228.792	-318
228.858	-902
228.924	-937
228.990	283
229.055	-759
229.121	-231
229.187	-94
229.252	6
229.318	-224
229.384	-390
229.449	-656
229.515	-671
229.581	-1552
229.646	756
229.712	-497
229.777	18
229.843	-291
229.909	45
229.974	-194
230.040	-267
230.105	-643
230.171	-251
230.236	-349
230.302	-892
230.368	-472
230.433	-1019
230.499	-418
230.564	198
230.630	-1000
230.695	-223
230.761	590
230.826	-1712
230.892	-519
230.957	-255
231.023	-743
231.088	-510
231.154	-705
231.219	-560
231.284	-858
231.350	-640
231.415	-553
231.481	-390
231.546	-697
231.612	-617
231.677	-487
231.742	-1135
231.808	34
231.873	-586
231.939	-1369
232.004	510
232.069	-206
232.135	-303
232.200	-861
232.265	442
232.331	-373
232.396	-571
232.461	-350
232.527	-195
232.592	-295
232.657	97
232.723	-505
232.788	-337
232.853	-894
232.918	88
232.984	-426
233.049	-894
233.114	-176
233.179	-522
233.245	96
233.310	-215
233.375	-815
233.440	-290
233.506	-831
233.571	-590
233.636	-610
233.701	-272
233.766	-299
233.832	-256
233.897	-341
233.962	-778
234.027	443
234.092	213
234.157	-301
234.222	-910
234.288	-372
234.353	-357
234.418	-906
234.483	8
234.548	-485
234.613	-400
234.678	-1215
234.743	-269
234.808	-292
234.873	-1052
234.938	-141
235.004	23
235.069	-663
235.134	-1153
235.199	-642
235.264	-802
235.329	-1324
235.394	-631
235.459	324
235.524	-1068
235.589	812
235.654	-411
235.719	-1004
235.784	-736
235.849	-999
235.913	-1036
235.978	-739
236.043	-662
236.108	-644
236.173	-622
236.238	-409
236.303	-613
236.368	-797
236.433	115
236.498	-978
236.563	-260
236.627	-540
236.692	1751
236.757	734
236.822	-427
236.887	-643
236.952	-1046
237.017	-442
237.081	-363
237.146	-313
237.211	40
237.276	1307
237.341	2092
237.405	164
237.470	-59
237.535	-575
237.600	-73
237.664	-80
237.729	-481
237.794	-1254
237.859	-194
237.923	-372
237.988	-627
238.053	106
238.118	-863
238.182	-327
238.247	299
238.312	-831
238.376	-126
238.441	-1286
238.506	-166
238.570	-716
238.635	268
238.700	-533
238.764	-499
238.829	-469
238.893	-960
238.958	-456
239.023	-149
239.087	-276
239.152	-294
239.216	-498
239.281	-608
239.346	-492
239.410	-873
239.475	27
239.539	357
239.604	89
239.668	413
239.733	647
239.797	2341
239.862	4656
239.926	1909
239.991	1143
240.055	138
240.120	114
240.184	-685
240.249	-644
240.313	-113
240.378	-612
240.442	-186
240.507	-313
240.571	278
240.635	-428
240.700	-984
240.764	43
240.829	-823
240.893	-854
240.957	159
241.022	-207
241.086	-406
241.151	-209
241.215	-426
241.279	272
241.344	-256
241.408	-105
241.472	-1334
241.537	200
241.601	-448
241.665	-827
241.730	-639
241.794	-424
241.858	-1244
241.922	-15
241.987	-292
242.051	-807
242.115	-941
242.179	68
242.244	-529
242.308	-69
242.372	-80
242.436	-577
242.501	-58
242.565	-223
242.629	-723
242.693	37
242.757	-1055
242.822	-934
242.886	24
242.950	-455
243.014	-697
243.078	-844
243.142	37
243.206	-385
243.271	-429
243.335	-399
243.399	-696
243.463	516
243.527	508
243.591	-1221
243.655	-874
243.719	-695
243.783	440
243.847	271
243.911	-307
243.975	-356
244.040	-742
244.104	544
244.168	-8
244.232	-194
244.296	-447
244.360	-1103
244.424	-497
244.488	-15
244.552	-216
244.615	-1005
244.679	-653
244.743	-819
244.807	-1093
244.871	82
244.935	193
244.999	-1054
245.063	-374
245.127	184
245.191	-1015
245.255	-780
245.319	-550
245.383	-953
245.446	423
245.510	-408
245.574	-524
245.638	-455
245.702	-1457
245.766	-416
245.829	121
245.893	-591
245.957	-725
246.021	-361
246.085	-538
246.149	-948
246.212	-374
246.276	-456
246.340	-376
246.404	-48
246.467	-18
246.531	-1154
246.595	-191
246.659	105
246.722	-790
246.786	-79
246.850	143
246.913	-869
246.977	-977
247.041	-231
247.104	-961
247.168	17
247.232	-112
247.295	-165
247.359	-581
247.423	-165
247.486	-599
247.550	-300
247.614	-875
247.677	-291
247.741	-334
247.804	-981
247.868	972
247.932	599
247.995	673
248.059	-1354
248.122	-1254
248.186	421
248.249	-1070
248.313	1176
248.376	718
248.440	-669
248.503	-1388
248.567	541
248.630	-519
248.694	-507
248.757	340
248.821	38
248.884	530
248.948	-24
249.011	46
249.075	997
249.138	-32
249.202	-285
249.265	-891
249.328	76
249.392	-1332
249.455	543
249.519	-873
249.582	-583
249.645	-316
249.709	-535
249.772	-779
249.835	-162
249.899	-288
249.962	782
250.025	-1120
250.089	488
250.152	-283
250.215	74
250.279	-1439
250.342	943
250.405	-480
250.468	-274
250.532	-1000
250.595	478
250.658	2042
250.721	1863
250.785	-571
250.848	963
250.911	-401
250.974	-630
251.038	-175
251.101	819
251.164	-1036
251.227	239
251.290	161
251.354	112
251.417	3600
251.480	963
251.543	1935
251.606	7169
251.669	1833
251.732	245
251.795	792
251.859	1360
251.922	2303
251.985	1199
252.048	588
252.111	-66
252.174	-1067
252.237	820
252.300	1418
252.363	1646
252.426	3708
252.489	-761
252.552	-146
252.615	-445
252.678	628
252.741	633
252.804	1991
252.867	3389
252.930	1029
252.993	-390
253.056	-64
253.119	-215
253.182	-703
253.245	-582
253.308	224
253.371	-928
253.434	-606
253.497	374
253.559	292
253.622	-557
253.685	-664
253.748	-816
253.811	-378
253.874	-330
253.937	-1024
254.000	-364
254.062	-293
254.125	58
254.188	540
254.251	-538
254.314	-1392
254.376	-610
254.439	171
254.502	-373
254.565	-439
254.628	45
254.690	365
254.753	-816
254.816	-1126
254.878	-169
254.941	674
255.004	150
255.067	64
255.129	-559
255.192	-441
255.255	-761
255.317	-124
255.380	-447
255.443	319
255.505	169
255.568	-1204
255.631	-984
255.693	452
255.756	-853
255.819	441
255.881	-696
255.944	-331
256.006	-241
256.069	-816
256.132	-966
256.194	185
256.257	-481
256.319	218
256.382	-311
256.444	481
256.507	-482
256.569	-299
256.632	-242
256.694	-825
256.757	1663
256.819	2100
256.882	-220
256.944	-225
257.007	524
257.069	-1119
257.132	-614
257.194	413
257.257	-843
257.319	-916
257.381	-417
257.444	1394
257.506	3676
257.569	1482
257.631	102
257.693	300
257.756	-79
257.818	-758
257.880	-915
257.943	-862
258.005	-942
258.067	-433
258.130	-821
258.192	174
258.254	-386
258.317	-906
258.379	-691
258.441	-47
258.503	474
258.566	-391
258.628	-141
258.690	-794
258.753	469
258.815	-117
258.877	-815
258.939	-433
259.001	7
259.064	-392
259.126	-386
259.188	-240
259.250	234
259.312	-479
259.375	-313
259.437	-428
259.499	374
259.561	250
259.623	-202
259.685	-129
259.747	-250
259.809	91
259.872	-219
259.934	278
259.996	899
260.058	-388
260.120	-363
260.182	-1010
260.244	462
260.306	402
260.368	-735
260.430	-745
260.492	-230
260.554	987
260.616	-457
260.678	455
260.740	110
260.802	-648
260.864	-206
260.926	-625
260.988	-277
261.050	-667
261.112	-381
261.174	1217
261.236	219
261.298	-630
261.359	125
261.421	187
261.483	-1496
261.545	-233
261.607	-531
261.669	-85
261.731	-434
261.793	19
261.854	-1119
261.916	998
261.978	-249
262.040	-95
262.102	592
262.164	-127
262.225	252
262.287	191
262.349	-408
262.411	557
262.472	393
262.534	-238
262.596	-621
262.658	89
262.719	-641
262.781	298
262.843	-1029
262.904	222
262.966	201
263.028	-651
263.090	574
263.151	588
263.213	669
263.275	-698
263.336	-589
263.398	194
263.459	-555
263.521	-522
263.583	824
263.644	255
263.706	-330
263.767	23
263.829	119
263.891	-706
263.952	-631
264.014	-270
264.075	-686
264.137	-925
264.198	211
264.260	-713
264.321	70
264.383	-582
264.444	653
264.506	-445
264.567	-689
264.629	180
264.690	-494
264.752	43
264.813	-516
264.875	-895
264.936	227
264.998	-334
265.059	655
265.120	61
265.182	-67
265.243	898
265.305	71
265.366	-743
265.427	-109
265.489	218
265.550	-792
265.611	-611
265.673	-842
265.734	-145
265.795	179
265.857	-495
265.918	-826
265.979	969
266.040	1388
266.102	-310
266.163	197
266.224	-679
266.286	113
266.347	-1082
266.408	-629
266.469	-284
266.530	342
266.592	-151
266.653	-149
266.714	-490
266.775	-686
266.836	-619
266.898	-222
266.959	-1352
267.020	-1321
267.081	301
267.142	-313
267.203	-141
267.264	-768
267.326	310
267.387	-690
267.448	-1502
267.509	-3
267.570	-725
267.631	-188
267.692	-1099
267.753	-311
267.814	-473
267.875	377
267.936	-226
267.997	-398
268.058	-382
268.119	-664
268.180	-1348
268.241	-1031
268.302	44
268.363	-459
268.424	-939
268.485	-116
268.546	-1014
268.607	-776
268.668	47
268.729	-288
268.790	-850
268.851	-14
268.912	-909
268.972	147
269.033	-506
269.094	-273
269.155	-191
269.216	-31
269.277	-1071
269.338	-1074
269.398	-403
269.459	-875
269.520	-522
269.581	-750
269.642	-414
269.702	-732
269.763	538
269.824	-275
269.885	-127
269.945	70
270.006	-365
270.067	-1143
270.128	-1150
270.188	-188
270.249	-1177
270.310	-530
270.370	576
270.431	-653
270.492	-262
270.553	4
270.613	20
270.674	52
270.734	-370
270.795	-375
270.856	-176
270.916	-428
270.977	279
271.038	101
271.098	-414
271.159	-628
271.219	-235
271.280	-247
271.340	-288
271.401	-1005
271.462	-194
271.522	46
271.583	-678
271.643	-549
271.704	-436
271.764	-355
271.825	-578
271.885	1295
271.946	955
272.006	641
272.066	702
272.127	1606
272.187	2016
272.248	-433
272.308	226
272.369	-142
272.429	-686
272.489	-780
272.550	-782
272.610	382
272.671	-810
272.731	-35
272.791	-269
272.852	-931
272.912	-397
272.972	-310
273.033	-724
273.093	-766
273.153	-837
273.214	-362
273.274	-440
273.334	426
273.394	-233
273.455	-218
273.515	271
273.575	-212
273.635	790
273.696	777
273.756	-249
273.816	-797
273.876	158
273.936	643
273.997	-186
274.057	-244
274.117	-791
274.177	-650
274.237	1202
274.297	122
274.358	43
274.418	528
274.478	-537
274.538	-299
274.598	-758
274.658	602
274.718	127
274.778	-227
274.838	-781
274.898	-320
274.958	614
275.018	915
275.078	943
275.138	-488
275.198	31
275.258	-631
275.318	-407
275.378	51
275.438	-518
275.498	37
275.558	998
275.618	696
275.678	-559
275.738	287
275.798	-27
275.858	35
275.918	-640
275.978	-238
276.038	-346
276.098	-72
276.157	-527
276.217	126
276.277	149
276.337	-389
276.397	-609
276.457	61
276.517	260
276.576	603
276.636	-651
276.696	-317
276.756	27
276.815	-69
276.875	291
276.935	-525
276.995	-286
277.055	246
277.114	-141
277.174	39
277.234	-629
277.293	-406
277.353	303
277.413	-879
277.472	-923
277.532	-543
277.592	797
277.651	1741
277.711	1289
277.771	235
277.830	2497
277.890	1499
277.950	2232
278.009	3988
278.069	546
278.128	2647
278.188	1580
278.248	633
278.307	2383
278.367	1096
278.426	-288
278.486	-150
278.545	175
278.605	160
278.664	-154
278.724	779
278.783	839
278.843	655
278.902	312
278.962	-113
279.021	268
279.081	929
279.140	292
279.199	-483
279.259	643
279.318	282
279.378	1739
279.437	2156
279.496	5064
279.556	15182
279.615	6382
279.675	2607
279.734	1489
279.793	1702
279.853	1935
279.912	1251
279.971	528
280.031	811
280.090	1735
280.149	1948
280.208	2535
280.268	11661
280.327	5173
280.386	1248
280.445	849
280.505	-42
280.564	-242
280.623	-231
280.682	174
280.742	104
280.801	-300
280.860	-350
280.919	-54
280.978	-312
281.037	453
281.097	-421
281.156	558
281.215	-133
281.274	114
281.333	591
281.392	80
281.451	279
281.510	-786
281.569	-189
281.628	-157
281.688	558
281.747	750
281.806	-204
281.865	-132
281.924	-471
281.983	-94
282.042	-21
282.101	-345
282.160	405
282.219	140
282.278	-235
282.337	163
282.396	-126
282.454	420
282.513	-241
282.572	47
282.631	100
282.690	-525
282.749	-534
282.808	121
282.867	76
282.926	-160
282.985	-277
283.043	-739
283.102	-46
283.161	-424
283.220	852
283.279	396
283.338	-408
283.396	-854
283.455	-486
283.514	317
283.573	-85
283.631	184
283.690	-79
283.749	33
283.808	-85
283.866	195
283.925	283
283.984	476
284.043	-98
284.101	365
284.160	72
284.219	268
284.277	259
284.336	149
284.395	427
284.453	579
284.512	1198
284.570	348
284.629	191
284.688	-30
284.746	63
284.805	675
284.863	516
284.922	862
284.981	1619
285.039	2638
285.098	6128
285.156	13276
285.215	19355
285.273	16187
285.332	9282
285.390	5012
285.449	3209
285.507	1704
285.566	851
285.624	823
285.683	650
285.741	298
285.799	464
285.858	-197
285.916	645
285.975	758
286.033	24
286.091	298
286.150	-217
286.208	599
286.267	-625
286.325	-70
286.383	23
286.442	1
286.500	-284
286.558	-75
286.616	193
286.675	-263
286.733	223
286.791	-140
286.850	1360
286.908	-62
286.966	-565
287.024	105
287.083	394
287.141	-295
287.199	700
287.257	-504
287.315	270
287.374	629
287.432	398
287.490	389
287.548	52
287.606	-321
287.664	441
287.723	346
287.781	189
287.839	-492
287.897	195
287.955	-639
288.013	347
288.071	1317
288.129	6008
288.187	8593
288.245	2886
288.303	1039
288.361	445
288.419	256
288.477	864
288.535	-178
288.593	252
288.651	83
288.709	103
288.767	-317
288.825	920
288.883	589
288.941	615
288.999	50
289.057	257
289.115	51
289.173	466
289.231	160
289.289	478
289.346	280
289.404	2
289.462	-56
289.520	372
289.578	93
289.636	1001
289.694	926
289.751	134
289.809	-207
289.867	-15
289.925	1115
289.983	-264
290.040	313
290.098	514
290.156	288
290.214	-179
290.271	222
290.329	15
290.387	-70
290.444	211
290.502	501
290.560	170
290.617	-122
290.675	697
290.733	-136
290.790	793
290.848	411
290.906	252
290.963	-42
291.021	-74
291.078	-458
291.136	596
291.194	81
291.251	78
291.309	310
291.366	-162
291.424	-40
291.481	-301
291.539	-544
291.596	564
291.654	109
291.711	844
291.769	632
291.826	333
291.884	-353
291.941	-587
291.999	44
292.056	-120
292.114	248
292.171	649
292.228	581
292.286	-264
292.343	284
292.401	-165
292.458	-355
292.515	221
292.573	214
292.630	586
292.687	-448
292.745	524
292.802	-186
292.859	129
292.917	848
292.974	191
293.031	380
293.089	595
293.146	83
293.203	440
293.260	-119
293.318	-24
293.375	-279
293.432	-104
293.489	-153
293.546	-137
293.604	159
293.661	1321
293.718	1171
293.775	84
293.832	485
293.889	178
293.947	-209
294.004	-533
294.061	44
294.118	254
294.175	-56
294.232	330
294.289	-453
294.346	-408
294.403	50
294.460	223
294.517	-220
294.574	260
294.631	111
294.688	-120
294.745	687
294.802	1043
294.859	401
294.916	-163
294.973	-730
295.030	-460
295.087	-364
295.144	172
295.201	-117
295.258	-355
295.315	-174
295.372	962
295.429	41
295.486	299
295.542	419
295.599	985
295.656	252
295.713	261
295.770	86
295.827	-295
295.883	242
295.940	-43
295.997	363
296.054	-1187
296.111	-577
296.167	809
296.224	191
296.281	-534
296.338	177
296.394	-241
296.451	-199
296.508	476
296.564	-636
296.621	144
296.678	1196
296.734	596
296.791	273
296.848	447
296.904	11
296.961	449
297.018	875
297.074	172
297.131	755
297.187	-220
297.244	300
297.301	1096
297.357	2312
297.414	-21
297.470	-160
297.527	4
297.583	8
297.640	-31
297.696	-629
297.753	-168
297.809	405
297.866	-650
297.922	-494
297.979	107
298.035	-1017
298.092	-88
298.148	-77
298.204	-177
298.261	22
298.317	824
298.374	1230
298.430	212
298.486	8
298.543	-426
298.599	-364
298.656	138
298.712	-334
298.768	661
298.824	-495
298.881	-106
298.937	-127
298.993	45
299.050	-158
299.106	406
299.162	-102
299.218	55
299.275	-603
299.331	131
299.387	896
299.443	2859
299.500	5648
299.556	2478
299.612	2047
299.668	2347
299.724	5002
299.780	3155
299.837	1852
299.893	1653
299.949	4558
300.005	4212
300.061	4619
300.117	5705
300.173	1718
300.229	943
300.285	520
300.341	966
300.397	125
300.453	376
300.510	23
300.566	1168
300.622	2875
300.678	9201
300.734	6247
300.790	3755
300.845	3358
300.901	5592
300.957	5152
301.013	1913
301.069	675
301.125	816
301.181	1049
301.237	167
301.293	-584
301.349	202
301.405	102
301.461	-149
301.516	197
301.572	-401
301.628	-682
301.684	-35
301.740	235
301.796	592
301.851	-269
301.907	275
301.963	363
302.019	1327
302.074	3621
302.130	2322
302.186	793
302.242	-326
302.297	-427
302.353	-331
302.409	300
302.464	-611
302.520	-116
302.576	842
302.631	773
302.687	8
302.743	-193
302.798	-218
302.854	-7
302.910	401
302.965	-366
303.021	705
303.076	-218
303.132	289
303.187	-437
303.243	-297
303.299	-164
303.354	34
303.410	-604
303.465	-544
303.521	-663
303.576	-101
303.632	-66
303.687	887
303.743	963
303.798	371
303.853	-234
303.909	-315
303.964	-651
304.020	-304
304.075	13
304.130	-39
304.186	322
304.241	445
304.297	253
304.352	-406
304.358	-387
304.407	-235
304.449	460
304.463	693
304.518	-645
304.539	-519
304.573	-331
304.629	385
304.630	383
304.684	312
304.720	520
304.739	601
304.794	1574
304.811	1118
304.850	25
304.902	182
304.905	197
304.960	-235
304.992	-193
305.015	-168
305.071	-128
305.083	-54
305.126	157
305.173	85
305.181	87
305.236	-13
305.264	69
305.292	116
305.347	560
305.354	386
305.402	-665
305.445	-318
305.457	-227
305.512	-50
305.535	155
305.567	461
305.622	494
305.626	472
305.678	250
305.716	905
305.733	1110
305.788	535
305.807	637
305.843	1081
305.897	1263
305.898	1258
305.953	1387
305.988	876
306.008	695
306.063	549
306.078	384
306.118	-8
306.168	56
306.173	41
306.228	-66
306.259	-254
306.283	-221
306.338	10
306.349	71
306.393	206
306.440	769
306.448	837
306.503	140
306.530	197
306.558	517
306.613	1261
306.620	1256
306.668	1016
306.711	522
306.723	335
306.778	321
306.801	254
306.833	254
306.888	789
306.892	766
306.943	577
306.982	261
306.997	151
307.052	257
307.072	350
307.107	458
307.162	315
307.163	314
307.217	603
307.253	861
307.272	903
307.327	592
307.343	376
307.381	14
307.434	45
307.436	70
307.491	736
307.524	1412
307.546	1626
307.600	756
307.614	717
307.655	567
307.704	350
307.710	374
307.765	762
307.795	967
307.819	1067
307.874	775
307.885	846
307.929	1257
307.975	1552
307.984	1701
308.038	2528
308.065	2902
308.093	5576
308.148	13106
308.156	14323
308.202	18817
308.246	19900
308.257	18259
308.312	7876
308.336	4113
308.366	3426
308.421	1979
308.426	1862
308.475	1444
308.517	1240
308.530	1162
308.585	1112
308.607	1072
308.639	1159
308.694	867
308.697	889
308.748	1612
308.787	1749
308.803	1618
308.857	1195
308.877	1123
308.912	1392
308.967	1545
308.967	1539
309.021	2429
309.058	3690
309.076	4669
309.130	7215
309.148	8208
309.185	18577
309.238	35630
309.239	35706
309.293	32535
309.328	27708
309.348	22619
309.402	9935
309.418	6316
309.457	4611
309.508	2821
309.511	2842
309.566	3288
309.598	3664
309.620	4251
309.674	6238
309.688	6615
309.729	5846
309.778	4441
309.783	4339
309.837	3436
309.868	2641
309.892	2544
309.946	2924
309.959	2982
310.001	3318
310.049	3497
310.055	3410
310.109	2395
310.139	1884
310.163	1719
310.218	1567
310.229	1492
310.272	1575
310.319	1793
310.326	1806
310.381	1650
310.409	1670
310.435	1822
310.489	1862
310.499	1883
310.543	1369
310.589	952
310.598	1105
310.652	1799
310.679	2161
310.706	1941
310.760	1545
310.769	1485
310.814	1913
310.859	2153
310.868	2104
310.923	1884
310.948	1782
310.977	1918
311.031	2061
311.038	2083
311.085	1882
311.128	1620
311.139	1634
311.193	1644
311.218	1659
311.247	1605
311.301	1554
311.308	1535
311.356	2083
311.398	2521
311.410	2454
311.464	2137
311.488	1959
311.518	1848
311.572	1704
311.578	1672
311.626	1732
311.668	1811
311.680	1884
311.734	2114
311.758	2241
311.788	2146
311.842	1947
311.847	1916
311.896	1976
311.937	2017
311.950	2079
312.004	2334
312.027	2435
312.058	2128
312.112	1560
312.117	1498
312.165	1712
312.207	1885
312.297	2147
312.386	1873
312.476	1788
312.566	2310
312.656	2394
312.745	3242
312.835	2631
312.925	2279
313.015	2320
313.104	2252
313.194	2938
313.284	3299
313.374	2375
313.463	3134
313.553	3763
313.643	3331
313.732	3963
313.822	3594
313.912	4424
314.001	4480
314.091	4327
314.180	4479
314.270	4915
314.360	4223
314.449	4747
314.539	3659
314.628	4447
314.718	3902
314.808	4757
314.897	4515
314.987	5914
315.076	5955
315.166	6067
315.255	4691
315.345	4729
315.434	4160
315.524	4726
315.613	5636
315.703	5607
315.792	15187
315.881	40737
315.971	13563
316.060	6447
316.150	5481
316.239	5391
316.328	4804
316.418	4826
316.507	4796
316.597	5564
316.686	6567
316.775	5660
316.865	5746
316.954	4590
317.043	4544
317.133	4126
317.222	3217
317.311	3408
317.400	3389
317.490	4189
317.579	3041
317.668	4931
317.757	7227
317.847	22575
317.936	60152
318.025	19426
318.114	17266
318.203	8970
318.293	5233
318.382	8171
318.471	9095
318.560	8898
318.649	8053
318.738	4258
318.828	4172
318.917	2937
319.006	3892
319.095	3910
319.184	6523
319.273	4618
319.362	3641
319.451	2300
319.540	2553
319.629	3714
319.718	3376
319.807	3078
319.896	4087
319.985	7947
320.074	4113
320.163	3974
320.252	3533
320.341	4613
320.430	4221
320.519	4395
320.608	4684
320.697	4917
320.786	5792
320.875	6736
320.964	7244
321.053	8788
321.142	8158
321.230	9540
321.319	10397
321.408	11851
321.497	11181
321.586	10111
321.675	8366
321.764	7925
321.852	7093
321.941	8463
322.030	8707
322.119	8947
322.207	11682
322.296	12196
322.385	13231
322.474	15110
322.562	15963
322.651	12290
322.740	10355
322.829	9114
322.917	7787
323.006	6654
323.095	6546
323.183	5802
323.272	5221
323.361	6023
323.449	7077
323.538	5412
323.626	5361
323.715	4698
323.804	3536
323.892	4679
323.981	4590
324.069	4126
324.158	3383
324.246	4567
324.335	3582
324.424	4318
324.512	3661
324.601	3599
324.689	3953
324.778	3315
324.866	3353
324.954	3625
325.043	3538
325.131	2685
325.220	3985
325.308	3187
325.397	3189
325.485	3019
325.574	2060
325.662	2619
325.750	2656
325.839	3238
325.927	2628
326.015	2938
326.104	2800
326.192	2591
326.280	2654
326.369	2447
326.457	2806
326.545	3253
326.634	2961
326.722	3274
326.810	3018
326.898	3116
326.987	4455
327.075	3060
327.163	3462
327.251	3251
327.340	3650
327.428	5390
327.516	6197
327.604	4438
327.692	3881
327.781	3570
327.869	1867
327.957	2452
328.045	2106
328.133	2369
328.221	2186
328.309	2003
328.397	2525
328.485	3083
328.574	5268
328.662	8858
328.750	5081
328.838	4197
328.926	3125
329.014	2798
329.102	2588
329.190	3464
329.278	2680
329.366	2556
329.454	2370
329.542	2696
329.630	2643
329.718	2891
329.806	2741
329.893	3279
329.981	1774
330.069	2448
330.157	3762
330.245	7133
330.333	4408
330.421	2595
330.509	2455
330.597	4107
330.684	2502
330.772	3319
330.860	3099
330.948	3097
331.036	2093
331.123	2405
331.211	2318
331.299	2558
331.387	2638
331.475	2754
331.562	3093
331.650	2603
331.738	2621
331.825	2702
331.913	2627
332.001	2021
332.089	2085
332.176	2687
332.264	3298
332.352	3227
332.439	1978
332.527	3057
332.614	2809
332.702	2388
332.790	2220
332.877	3273
332.965	3708
333.052	2898
333.140	2823
333.228	5421
333.315	3141
333.403	3010
333.490	4479
333.578	4101
333.665	7287
333.753	5779
333.840	3646
333.928	5106
334.015	5895
334.103	9248
334.190	13053
334.278	13268
334.365	17687
334.452	16751
334.540	12336
334.627	11800
334.715	14729
334.802	21724
334.889	35944
334.977	45556
335.064	28366
335.151	14853
335.239	10313
335.326	8677
335.413	11244
335.501	11456
335.588	9417
335.675	11580
335.762	13741
335.850	18503
335.937	25870
336.024	40936
336.111	60893
336.199	53485
336.286	27047
336.373	15306
336.460	9770
336.547	8557
336.635	8114
336.722	5966
336.809	5936
336.896	4821
336.983	5940
337.070	8693
337.157	8767
337.245	6897
337.332	5797
337.419	4125
337.506	4328
337.593	4696
337.680	4247
337.767	6922
337.854	3762
337.941	4319
338.028	3410
338.115	3299
338.202	4485
338.289	4515
338.376	4693
338.463	4368
338.550	5358
338.637	4906
338.724	2907
338.811	3899
338.898	2972
338.984	2803
339.071	2454
339.158	2863
339.245	3750
339.332	3050
339.419	2679
339.506	3321
339.593	2798
339.679	2758
339.766	3624
339.853	2650
339.940	2516
340.027	3309
340.113	3052
340.200	3441
340.287	2838
340.374	3155
340.460	2645
340.547	2651
340.634	2609
340.720	3925
340.807	2732
340.894	2976
340.980	3453
341.067	2943
341.154	3535
341.240	3632
341.327	2690
341.414	3413
341.500	3582
341.587	3173
341.674	1965
341.760	3450
341.847	3118
341.933	3073
342.020	2848
342.106	3303
342.193	2697
342.279	3191
342.366	2968
342.452	2993
342.539	2760
342.625	3220
342.712	4279
342.798	3421
342.885	2458
342.971	2475
343.058	2273
343.144	2903
343.230	2809
343.317	2902
343.403	2896
343.490	2331
343.576	2374
343.662	2398
343.749	2917
343.835	2932
343.921	3390
344.008	8585
344.094	15586
344.180	4273
344.267	3335
344.353	4862
344.439	4387
344.525	2920
344.612	2238
344.698	3597
344.784	3266
344.870	2694
344.957	1952
345.043	3907
345.129	1866
345.215	2833
345.301	3225
345.387	3054
345.474	2152
345.560	2432
345.646	2912
345.732	2564
345.818	2838
345.904	2992
345.990	2442
346.076	1829
346.162	2216
346.249	3198
346.335	2460
346.421	2823
346.507	3364
346.593	6122
346.679	2586
346.765	3768
346.851	6469
346.937	5623
347.023	3104
347.108	3489
347.194	3852
347.280	2920
347.366	3857
347.452	13131
347.538	17376
347.624	9060
347.710	4822
347.796	3032
347.882	3244
347.967	3335
348.053	3028
348.139	3292
348.225	2841
348.311	2873
348.397	2922
348.482	3616
348.568	3515
348.654	6028
348.740	17189
348.825	19793
348.911	8160
348.997	6312
349.083	8113
349.168	3646
349.254	3318
349.340	3213
349.425	3076
349.511	3037
349.597	3191
349.682	3944
349.768	4630
349.854	3641
349.939	3052
350.025	2752
350.110	3876
350.196	2979
350.282	2518
350.367	2931
350.453	2766
350.538	3070
350.624	2417
350.709	3280
350.795	2704
350.880	2321
350.966	2622
351.051	3498
351.137	3002
351.222	2232
351.308	3950
351.393	4167
351.479	2722
351.564	2680
351.649	2567
351.735	3924
351.820	2834
351.906	2408
351.991	3115
352.076	3251
352.162	3930
352.247	3093
352.332	3287
352.418	3510
352.503	3466
352.588	3812
352.673	4610
352.759	3092
352.844	3112
352.929	2650
353.014	2881
353.100	2924
353.185	3054
353.270	2391
353.355	3124
353.441	2564
353.526	1942
353.611	2438
353.696	2156
353.781	3097
353.866	2127
353.952	3403
354.037	2294
354.122	3062
354.207	2002
354.292	2216
354.377	2685
354.462	2189
354.547	2568
354.632	2960
354.717	2536
354.802	2342
354.887	2825
354.972	3370
355.057	3172
355.142	2474
355.227	3448
355.312	2760
355.397	2249
355.482	3294
355.567	3050
355.652	3195
355.737	2985
355.822	5289
355.907	3123
355.991	2861
356.076	2647
356.161	3640
356.246	2513
356.331	3223
356.416	3278
356.501	8297
356.585	8205
356.670	3360
356.755	4699
356.840	4448
356.924	6168
357.009	15935
357.094	7216
357.179	3492
357.263	2827
357.348	3024
357.433	3060
357.517	3192
357.602	3265
357.687	3643
357.771	3766
357.856	4388
357.941	4184
358.025	6623
358.110	19396
358.195	10784
358.279	3280
358.364	3372
358.448	4636
358.533	7180
358.617	5710
358.702	5121
358.787	4286
358.871	3758
358.956	3066
359.040	3424
359.125	3098
359.209	3488
359.294	4264
359.378	7083
359.462	5909
359.547	4057
359.631	2318
359.716	3293
359.800	2483
359.885	3295
359.969	2792
360.053	3610
360.138	3271
360.222	3360
360.306	3106
360.391	4410
360.475	4194
360.559	5301
360.644	3464
360.728	4010
360.812	6681
360.896	11580
360.981	5518
361.065	3700
361.149	3810
361.233	3535
361.318	3551
361.402	4619
361.486	4503
361.570	4730
361.654	4278
361.739	5755
361.823	10741
361.907	14549
361.991	7552
362.075	7720
362.159	11434
362.243	22273
362.327	48592
362.411	66043
362.495	29286
362.580	14966
362.664	13420
362.748	15934
362.832	24456
362.916	50199
363.000	114464
363.084	146159
363.168	68487
363.252	23759
363.336	14530
363.420	11875
363.503	12223
363.587	12724
363.671	9399
363.755	8837
363.839	9997
363.923	11267
364.007	13507
364.091	19769
364.175	30638
364.258	64655
364.342	133383
364.426	198920
364.510	117681
364.594	42448
364.677	20834
364.761	18711
364.845	14412
364.929	8825
365.013	7166
365.096	5911
365.180	6185
365.264	6864
365.347	10550
365.431	7192
365.515	3894
365.598	3786
365.682	5465
365.766	4038
365.849	4492
365.933	4300
366.017	4965
366.100	4782
366.184	4464
366.267	4996
366.351	3988
366.435	3563
366.518	3816
366.602	4498
366.685	3824
366.769	4265
366.852	4489
366.936	4613
367.019	4232
367.103	4688
367.186	4395
367.270	4367
367.353	4710
367.436	5570
367.520	4917
367.603	5468
367.687	4600
367.770	5035
367.853	4413
367.937	6316
368.020	6494
368.104	4703
368.187	4598
368.270	4397
368.353	3672
368.437	3728
368.520	4339
368.603	4241
368.687	4439
368.770	6259
368.853	3881
368.936	3675
369.020	4288
369.103	3281
369.186	3096
369.269	2961
369.352	3700
369.436	3370
369.519	3662
369.602	2808
369.685	3891
369.768	3610
369.851	3251
369.934	3044
370.018	3104
370.101	3271
370.184	4387
370.267	3664
370.350	3760
370.433	4635
370.516	11215
370.599	24714
370.682	12446
370.765	5318
370.848	5795
370.931	7696
371.014	4509
371.097	3345
371.180	3805
371.263	3944
371.346	2995
371.429	3830
371.511	2837
371.594	3092
371.677	3969
371.760	4005
371.843	3888
371.926	9244
372.009	17231
372.091	9064
372.174	5067
372.257	8402
372.340	5141
372.423	4398
372.505	4847
372.588	4015
372.671	5329
372.754	6868
372.836	5099
372.919	4950
373.002	6777
373.085	3423
373.167	3882
373.250	4965
373.332	7603
373.415	12525
373.498	22513
373.580	15980
373.663	32842
373.746	39045
373.828	9746
373.911	5834
373.993	5439
374.076	8365
374.159	7361
374.241	5135
374.324	7429
374.406	7500
374.489	9825
374.571	17383
374.654	9614
374.736	8227
374.819	12313
374.901	16730
374.983	17538
375.066	7744
375.148	6040
375.231	8675
375.313	10410
375.395	7513
375.478	5847
375.560	7032
375.643	5936
375.725	7886
375.807	13676
375.890	12829
375.972	4613
376.054	5174
376.136	5708
376.219	4423
376.301	7318
376.383	9772
376.465	6704
376.548	4896
376.630	4850
376.712	9046
376.794	6123
376.877	4001
376.959	2980
377.041	3415
377.123	3504
377.205	4233
377.287	3274
377.369	3280
377.452	3235
377.534	4629
377.616	3914
377.698	3637
377.780	3181
377.862	4216
377.944	4639
378.026	3730
378.108	3148
378.190	3512
378.272	3075
378.354	3462
378.436	3378
378.518	3630
378.600	3559
378.682	4819
378.764	4372
378.846	5348
378.928	3525
379.010	3137
379.091	3969
379.173	4108
379.255	3294
379.337	3529
379.419	3948
379.501	6460
379.583	4164
379.664	3708
379.746	3076
379.828	5217
379.910	5420
379.991	5575
380.073	3563
380.155	3374
380.237	2638
380.318	2939
380.400	2275
380.482	3589
380.564	3524
380.645	3949
380.727	4080
380.809	4109
380.890	3591
380.972	2425
381.053	3849
381.135	3560
381.217	3654
381.298	5158
381.380	3709
381.461	4458
381.543	7960
381.624	9797
381.706	4276
381.787	3639
381.869	4096
381.951	7324
382.032	15539
382.113	12710
382.195	4617
382.276	4477
382.358	5393
382.439	8888
382.521	11695
382.602	16381
382.684	9310
382.765	11463
382.846	17434
382.928	30483
383.009	20455
383.090	17671
383.172	47729
383.253	66040
383.334	25314
383.416	15470
383.497	11616
383.578	9463
383.659	15857
383.741	47540
383.822	97300
383.903	56246
383.984	16803
384.066	15520
384.147	10279
384.228	8263
384.309	7246
384.390	7956
384.471	7418
384.553	6178
384.634	5847
384.715	5957
384.796	5708
384.877	5831
384.958	7360
385.039	7709
385.120	5207
385.201	5795
385.282	6256
385.363	5779
385.444	7047
385.525	7930
385.606	10491
385.687	10207
385.768	6829
385.849	7762
385.930	13455
386.011	18536
386.092	9266
386.173	8433
386.254	6723
386.335	7998
386.416	6713
386.496	7669
386.577	8164
386.658	7370
386.739	6435
386.820	7693
386.901	7462
386.981	8561
387.062	9723
387.143	10890
387.224	12024
387.304	13954
387.385	12930
387.466	11674
387.547	13351
387.627	12809
387.708	14338
387.789	16645
387.869	15980
387.950	12356
388.031	9787
388.111	7924
388.192	9338
388.273	10346
388.353	9000
388.434	7403
388.514	6756
388.595	11341
388.676	12786
388.756	8044
388.837	7394
388.917	6262
388.998	5135
389.078	5857
389.159	5546
389.239	5800
389.320	5881
389.400	5247
389.480	7030
389.561	6996
389.641	7259
389.722	6080
389.802	4388
389.883	6658
389.963	7610
390.043	7019
390.124	4612
390.204	6393
390.284	7244
390.365	5899
390.445	6929
390.525	8866
390.605	7741
390.686	5848
390.766	5743
390.846	6999
390.927	5578
391.007	4987
391.087	6318
391.167	6301
391.247	5372
391.328	6735
391.408	7072
391.488	7194
391.568	6364
391.648	7245
391.728	7900
391.808	8315
391.888	8690
391.969	9493
392.049	10507
392.129	10747
392.209	11072
392.289	14966
392.369	13592
392.449	13361
392.529	14085
392.609	17056
392.689	18800
392.769	23804
392.849	27963
392.929	35189
393.009	47589
393.089	67447
393.169	117743
393.248	221796
393.328	357001
393.408	360421
393.488	236178
393.568	118013
393.648	65837
393.728	42887
393.807	29326
393.887	24513
393.967	19563
394.047	16579
394.127	13423
394.206	15179
394.286	22541
394.366	59764
394.446	66713
394.525	21537
394.605	10039
394.685	9867
394.764	12055
394.844	20408
394.924	27036
395.003	14717
395.083	8468
395.163	8194
395.242	7034
395.322	8022
395.402	7176
395.481	9051
395.561	12337
395.640	31078
395.720	56074
395.799	36569
395.879	15078
395.958	12322
396.038	26368
396.117	76677
396.197	88628
396.276	33458
396.356	20351
396.435	23394
396.515	30784
396.594	45939
396.673	88455
396.753	196586
396.832	323216
396.912	279386
396.991	130359
397.070	59432
397.150	33468
397.229	30207
397.308	48811
397.388	84574
397.467	49177
397.546	17498
397.625	10336
397.705	11958
397.784	9035
397.863	8075
397.942	7616
398.022	7992
398.101	7692
398.180	9650
398.259	6996
398.338	6418
398.417	5697
398.497	5428
398.576	5953
398.655	5073
398.734	4747
398.813	4462
398.892	5898
398.971	7806
399.050	6377
399.129	3644
399.208	4620
399.287	5187
399.366	3710
399.445	3903
399.524	4161
399.603	2653
399.682	3970
399.761	4607
399.840	7973
399.919	7364
399.998	3544
400.077	2830
400.156	2771
400.235	4470
400.313	2495
400.392	3000
400.471	4537
400.550	4257
400.629	3211
400.708	4223
400.786	2433
400.865	3358
400.944	1492
401.023	4936
401.102	2738
401.180	2535
401.259	2292
401.338	2599
401.416	3131
401.495	2100
401.574	2940
401.652	2120
401.731	3093
401.810	2445
401.888	2061
401.967	2324
402.046	2091
402.124	3121
402.203	1585
402.281	2514
402.360	2761
402.438	3274
402.517	1764
402.596	2531
402.674	2341
402.753	2087
402.831	3434
402.910	3021
402.988	2806
403.066	4013
403.145	4244
403.223	3468
403.302	4687
403.380	4823
403.459	4379
403.537	3857
403.615	3079
403.694	2831
403.772	3184
403.850	3030
403.929	3595
404.007	2087
404.085	3864
404.164	2495
404.242	3284
404.320	5146
404.398	7301
404.477	6115
404.555	10387
404.633	9974
404.711	5767
404.789	3691
404.868	2821
404.946	922
405.024	2320
405.102	2249
405.180	2053
405.258	1048
405.336	2336
405.415	1642
405.493	3069
405.571	2915
405.649	1856
405.727	2389
405.805	3606
405.883	3148
405.961	3113
406.039	2218
406.117	1382
406.195	2481
406.273	2381
406.351	6739
406.429	4936
406.507	1460
406.585	1737
406.663	2265
406.740	1743
406.818	1550
406.896	1151
406.974	3088
407.052	1551
407.130	5169
407.208	6255
407.285	3599
407.363	2280
407.441	2394
407.519	2039
407.596	3140
407.674	7132
407.752	21498
407.830	19202
407.907	5590
407.985	1877
408.063	2321
408.141	1733
408.218	2115
408.296	1858
408.373	2743
408.451	3053
408.529	3165
408.606	2982
408.684	3567
408.762	3083
408.839	4074
408.917	3785
408.994	4114
409.072	4597
409.149	6955
409.227	10158
409.304	15408
409.382	18454
409.459	20987
409.537	25540
409.614	24392
409.692	20685
409.769	19159
409.846	25565
409.924	31006
410.001	24525
410.079	17766
410.156	12914
410.233	10007
410.311	8831
410.388	6876
410.465	6912
410.543	5940
410.620	6444
410.697	5637
410.775	4537
410.852	4340
410.929	6728
411.006	6103
411.083	5315
411.161	4869
411.238	5828
411.315	5194
411.392	3966
411.469	3605
411.547	4233
411.624	3399
411.701	2996
411.778	3955
411.855	2702
411.932	3720
412.009	3049
412.086	2950
412.163	2537
412.240	2387
412.317	3014
412.394	2965
412.471	2979
412.548	2440
412.625	2347
412.702	3064
412.779	2765
412.856	2711
412.933	1119
413.010	2397
413.087	2205
413.164	2177
413.241	3285
413.318	2133
413.395	3039
413.471	1266
413.548	2783
413.625	2096
413.702	1198
413.779	1458
413.855	2413
413.932	1604
414.009	1356
414.086	2178
414.162	1758
414.239	2350
414.316	2312
414.393	3531
414.469	1765
414.546	1674
414.623	2027
414.699	2200
414.776	614
414.853	1170
414.929	1952
415.006	1270
415.082	1950
415.159	1329
415.236	1994
415.312	1745
415.389	1584
415.465	1321
415.542	1501
415.618	654
415.695	1338
415.771	1449
415.848	1366
415.924	1692
416.000	2160
416.077	2099
416.153	681
416.230	1258
416.306	1618
416.383	577
416.459	1940
416.535	1017
416.612	1298
416.688	1044
416.764	994
416.841	533
416.917	1380
416.993	1789
417.069	2375
417.146	1043
417.222	690
417.298	1634
417.374	1169
417.451	1922
417.527	1474
417.603	1338
417.679	2147
417.755	1497
417.831	819
417.908	2406
417.984	1311
418.060	778
418.136	2424
418.212	1635
418.288	1943
418.364	2188
418.440	2245
418.516	2377
418.592	1620
418.668	1675
418.744	1420
418.820	2341
418.896	1277
418.972	1625
419.048	1926
419.124	2612
419.200	1872
419.276	2617
419.352	2143
419.428	2155
419.504	2195
419.579	2621
419.655	2520
419.731	2641
419.807	3014
419.883	3086
419.959	3257
420.034	3302
420.110	3020
420.186	4396
420.262	4638
420.337	3868
420.413	4511
420.489	4587
420.565	5226
420.640	5087
420.716	5809
420.792	5509
420.867	7347
420.943	5763
421.019	6327
421.094	7223
421.170	7940
421.245	7952
421.321	9423
421.397	9678
421.472	15003
421.548	24236
421.623	20912
421.699	17714
421.774	18730
421.850	21493
421.925	25270
422.001	29768
422.076	36781
422.152	44389
422.227	58498
422.302	78928
422.378	105518
422.453	145129
422.529	181014
422.604	162826
422.679	115368
422.755	146068
422.830	183121
422.905	156409
422.981	117798
423.056	87786
423.131	66981
423.207	51369
423.282	41192
423.357	32963
423.432	28850
423.508	23989
423.583	21064
423.658	18614
423.733	15958
423.808	15155
423.883	14368
423.959	15247
424.034	15731
424.109	16201
424.184	11196
424.259	9634
424.334	8831
424.409	7120
424.484	6833
424.559	6525
424.634	5382
424.709	6141
424.784	5860
424.859	4487
424.934	5056
425.009	4570
425.084	4963
425.159	4077
425.234	4897
425.309	3812
425.384	3889
425.459	4357
425.534	3926
425.609	2387
425.683	3132
425.758	2689
425.833	3367
425.908	3323
425.983	2784
426.058	3958
426.132	3387
426.207	3094
426.282	4322
426.357	1770
426.431	2577
426.506	1971
426.581	2395
426.655	2396
426.730	2358
426.805	1427
426.879	2451
426.954	1903
427.029	1790
427.103	3628
427.178	5094
427.253	3528
427.327	2061
427.402	1511
427.476	2280
427.551	1983
427.625	1703
427.700	2189
427.774	1638
427.849	2614
427.923	1558
427.998	3175
428.072	3893
428.147	8803
428.221	31017
428.296	80563
428.370	57725
428.444	11210
428.519	3851
428.593	3897
428.667	4561
428.742	4895
428.816	14615
428.890	50932
428.965	79479
429.039	28559
429.113	5730
429.188	2798
429.262	1924
429.336	2857
429.410	2213
429.485	2441
429.559	2967
429.633	2837
429.707	4125
429.781	12155
429.855	46630
429.930	72998
430.004	27862
430.078	16623
430.152	40674
430.226	105606
430.300	116177
430.374	37198
430.448	10148
430.522	6587
430.596	8368
430.670	21194
430.744	61266
430.818	74325
430.892	19607
430.966	3737
431.040	2329
431.114	1087
431.188	1322
431.262	1526
431.336	742
431.410	1880
431.484	1339
431.557	2169
431.631	2815
431.705	5831
431.779	25516
431.853	75508
431.927	63320
432.000	13564
432.074	3168
432.148	1618
432.222	306
432.295	1314
432.369	221
432.443	-163
432.516	2283
432.590	4557
432.664	1918
432.737	556
432.811	-681
432.885	89
432.958	59
433.032	18
433.106	-389
433.179	-75
433.253	49
433.326	42
433.400	-117
433.473	353
433.547	-227
433.620	620
433.694	596
433.767	538
433.841	486
433.914	638
433.988	677
434.061	537
434.134	-303
434.208	534
434.281	-535
434.355	55
434.428	688
434.501	633
434.575	-175
434.648	27
434.721	10
434.795	154
434.868	-669
434.941	145
435.014	612
435.088	900
435.161	2001
435.234	1587
435.307	1853
435.381	3607
435.454	6008
435.527	10484
435.600	11551
435.673	10435
435.746	8495
435.819	6153
435.892	4634
435.966	2888
436.039	1578
436.112	1624
436.185	1202
436.258	1003
436.331	549
436.404	1109
436.477	210
436.550	373
436.623	590
436.696	-195
436.769	-118
436.842	243
436.915	241
436.987	-28
437.060	-549
437.133	295
437.206	-290
437.279	533
437.352	-55
437.425	70
437.498	751
437.570	307
437.643	-503
437.716	392
437.789	-358
437.861	-157
437.934	251
438.007	183
438.080	-203
438.152	108
438.225	679
438.298	2367
438.370	6233
438.443	3923
438.516	578
438.588	182
438.661	-342
438.734	306
438.806	222
438.879	-316
438.951	-476
439.024	56
439.096	-358
439.169	86
439.241	-153
439.314	129
439.386	161
439.459	-188
439.531	-61
439.604	-181
439.676	24
439.749	155
439.821	-1476
439.893	78
439.966	-545
440.038	-670
440.110	-85
440.183	-393
440.255	-35
440.327	410
440.400	796
440.472	3156
440.544	2688
440.617	398
440.689	616
440.761	164
440.833	-135
440.905	129
440.978	227
441.050	403
441.122	936
441.194	-102
441.266	-78
441.338	578
441.411	-163
441.483	1376
441.555	1102
441.627	748
441.699	937
441.771	552
441.843	273
441.915	847
441.987	853
442.059	1311
442.131	1916
442.203	2260
442.275	3292
442.347	6502
442.419	18399
442.491	64485
442.563	124917
442.635	65702
442.706	14899
442.778	6529
442.850	4203
442.922	3244
442.994	3347
443.066	4092
443.137	5308
443.209	7385
443.281	12551
443.353	27864
443.425	77107
443.496	174012
443.568	191109
443.640	98942
443.711	27697
443.783	11467
443.855	6397
443.926	3908
443.998	3047
444.070	3055
444.141	3175
444.213	2141
444.285	1968
444.356	1068
444.428	1727
444.499	1147
444.571	2144
444.642	1923
444.714	1524
444.785	2148
444.857	3167
444.928	3868
445.000	4296
445.071	6083
445.143	8025
445.214	11985
445.285	22005
445.357	52080
445.428	125595
445.500	200783
445.571	183458
445.642	131952
445.714	53759
445.785	18034
445.856	8401
445.928	5025
445.999	3592
446.070	3137
446.141	2414
446.213	2034
446.284	915
446.355	1196
446.426	826
446.497	1292
446.569	306
446.640	924
446.711	-261
446.782	429
446.853	248
446.924	793
446.995	-492
447.066	-18
447.138	-628
447.209	-369
447.280	-862
447.351	-308
447.422	-229
447.493	-918
447.564	-482
447.635	-664
447.706	-739
447.777	-968
447.847	-646
447.918	-1142
447.989	-1046
448.060	-1075
448.131	-396
448.202	-352
448.273	-1397
448.344	-1349
448.414	-1090
448.485	-1482
448.556	139
448.627	-1352
448.698	-533
448.768	-1021
448.839	-1678
448.910	-1064
448.981	-594
449.051	-1014
449.122	-972
449.193	23
449.263	-637
449.334	-1236
449.405	-996
449.475	-45
449.546	-510
449.616	13
449.687	38
449.758	-814
449.828	-1202
449.899	-679
449.969	-1286
450.040	-903
450.110	-1168
450.181	-722
450.251	-1423
450.322	-946
450.392	-926
450.463	-1333
450.533	-613
450.604	-936
450.674	-950
450.744	161
450.815	-721
450.885	96
450.955	-287
451.026	-182
451.096	60
451.166	-599
451.237	31
451.307	1698
451.377	723
451.447	-699
451.518	-6
451.588	-841
451.658	-1343
451.728	-308
451.799	-384
451.869	-310
451.939	-1914
452.009	-1224
452.079	-1035
452.149	-856
452.219	-683
452.289	302
452.360	-23
452.430	-872
452.500	988
452.570	1423
452.640	7766
452.710	19608
452.780	24553
452.850	12916
452.920	4786
452.990	1730
453.060	1076
453.129	-332
453.199	-234
453.269	768
453.339	1127
453.409	1479
453.479	1638
453.549	2040
453.619	2747
453.688	-102
453.758	-1413
453.828	-1531
453.898	-1415
453.968	-979
454.037	-1316
454.087	-1311
454.107	-1327
454.168	-1320
454.177	-1339
454.247	-813
454.249	-784
454.316	-437
454.330	-560
454.386	-1107
454.411	-1041
454.456	-983
454.492	-648
454.525	-373
454.574	-447
454.595	-500
454.655	-831
454.665	-905
454.734	-249
454.736	-248
454.804	-893
454.817	-865
454.873	-842
454.898	-661
454.943	-353
454.979	-481
455.013	-588
455.060	-788
455.082	-923
455.141	1
455.152	165
455.221	-806
455.222	-772
455.291	-39
455.303	72
455.360	491
455.384	1041
455.430	1760
455.465	1113
455.499	678
455.546	395
455.569	215
455.627	-110
455.638	-196
455.707	-182
455.708	-167
455.777	-500
455.789	-377
455.846	247
455.869	-46
455.916	-788
455.950	-745
455.985	-619
456.031	-477
456.054	-463
456.112	-629
456.124	-679
456.193	-315
456.193	-332
456.262	-287
456.274	-145
456.332	481
456.355	214
456.401	-428
456.436	-366
456.470	-243
456.516	-265
456.540	-293
456.597	114
456.609	154
456.678	296
456.678	280
456.747	-92
456.759	-67
456.817	155
456.840	288
456.886	528
456.920	441
456.955	175
457.001	500
457.024	729
457.082	664
457.093	603
457.162	409
457.163	424
457.232	547
457.243	696
457.301	907
457.324	811
457.370	861
457.405	1267
457.439	1659
457.485	1756
457.508	1860
457.566	3088
457.577	3656
457.646	6396
457.647	6471
457.715	13312
457.727	14977
457.784	22784
457.808	29898
457.853	37366
457.889	43172
457.922	47702
457.969	35739
457.991	33590
458.050	35865
458.060	36243
458.129	59048
458.130	59781
458.198	62289
458.211	55232
458.267	33896
458.292	25467
458.336	17781
458.372	18341
458.405	23327
458.453	33507
458.474	38180
458.533	59241
458.543	59715
458.611	84010
458.614	84125
458.680	62331
458.694	50914
458.749	23012
458.775	16884
458.818	9191
458.855	6647
458.887	5057
458.936	4320
458.955	3981
459.016	3142
459.024	3081
459.093	2969
459.097	2953
459.162	2369
459.177	2298
459.230	2247
459.257	2361
459.299	2095
459.338	1988
459.368	2122
459.418	1837
459.437	1625
459.499	1687
459.505	1759
459.574	1965
459.579	2039
459.643	2124
459.659	1923
459.711	1859
459.740	2110
459.780	2011
459.820	1803
459.849	1843
459.900	2487
459.917	2585
459.981	1840
459.986	1765
460.054	1858
460.061	1814
460.123	1966
460.141	2089
460.191	2138
460.222	2135
460.260	2124
460.302	2110
460.328	2251
460.382	2551
460.397	2702
460.462	3616
460.465	3773
460.534	7301
460.543	7795
460.602	12867
460.623	14975
460.671	21941
460.703	29211
460.739	24560
460.783	15297
460.808	14211
460.864	5117
460.876	3748
460.944	1822
460.945	1806
461.013	2189
461.024	2225
461.081	2080
461.104	2051
461.150	2169
461.184	2545
461.218	2693
461.264	2453
461.286	2293
461.345	2022
461.355	2004
461.423	1741
461.425	1748
461.491	2604
461.505	2759
461.559	2657
461.585	2511
461.628	2711
461.665	3090
461.696	2821
461.745	2127
461.764	2261
461.825	2632
461.832	2611
461.901	2681
461.905	2683
461.969	2349
461.985	2216
462.037	2297
462.065	2472
462.105	2589
462.145	2798
462.173	3139
462.225	3545
462.241	3490
462.305	3306
462.310	3284
462.378	2756
462.385	2695
462.446	2748
462.465	2983
462.514	3296
462.545	2926
462.582	2526
462.625	2577
462.650	2607
462.705	2542
462.718	2593
462.785	2924
462.786	2925
462.854	2652
462.865	2597
462.922	2423
462.945	2515
462.990	2810
463.025	2820
463.058	2869
463.104	2971
463.126	2913
463.184	2913
463.194	2966
463.262	2879
463.264	2887
463.330	2791
463.344	2734
463.398	3400
463.424	3603
463.466	2902
463.504	2640
463.533	3348
463.583	4101
463.601	3886
463.663	3225
463.669	3242
463.737	3511
463.743	3523
463.805	3463
463.823	3435
463.873	3638
463.903	3823
463.940	3731
463.982	3535
464.008	3625
464.062	3779
464.076	3691
464.142	3070
464.144	3069
464.211	3045
464.221	3050
464.279	3072
464.301	2952
464.347	2999
464.381	3238
464.414	3432
464.461	3523
464.482	3497
464.540	3487
464.550	3508
464.617	3600
464.620	3591
464.685	3410
464.699	3394
464.753	3786
464.779	3940
464.820	3985
464.859	4038
464.888	3925
464.938	3743
464.956	3853
465.018	3954
465.023	3961
465.091	4277
465.098	4276
465.158	3739
465.177	3612
465.226	3336
465.257	3054
465.293	3518
465.336	4098
465.361	3927
465.416	3551
465.428	3632
465.495	3965
465.496	3976
465.563	4243
465.575	4270
465.631	4267
465.654	4310
465.698	4053
465.734	3811
465.765	4227
465.813	4680
465.833	4569
465.893	4383
465.900	4382
465.968	4158
465.972	4130
466.035	4157
466.052	4180
466.102	4418
466.131	4517
466.170	3821
466.210	3065
466.237	3560
466.290	4511
466.304	4448
466.369	4007
466.372	4024
466.439	4272
466.449	4296
466.506	4421
466.528	4444
466.573	4477
466.607	4471
466.641	4642
466.687	4867
466.708	4988
466.766	5273
466.775	5159
466.842	4243
466.845	4188
466.909	4662
466.925	4758
466.977	5050
467.004	5205
467.044	5401
467.083	5563
467.111	5497
467.163	5332
467.178	5378
467.242	5504
467.245	5513
467.312	5457
467.321	5437
467.379	5601
467.400	5642
467.446	5627
467.480	5594
467.559	6624
467.638	5371
467.717	5710
467.796	5123
467.875	6488
467.955	5792
468.034	7515
468.113	7620
468.192	10790
468.271	12145
468.350	16035
468.429	19931
468.508	18241
468.588	10700
468.667	8536
468.746	6871
468.825	6829
468.904	6397
468.983	6065
469.062	4722
469.141	5912
469.220	4721
469.299	5073
469.378	5339
469.456	5331
469.535	5224
469.614	6186
469.693	5091
469.772	5973
469.851	5915
469.930	6319
470.009	5655
470.088	5876
470.166	6684
470.245	6687
470.324	6660
470.403	5632
470.482	6237
470.560	5784
470.639	5918
470.718	5507
470.797	5824
470.875	5602
470.954	5259
471.033	5446
471.111	5438
471.190	4983
471.269	5736
471.347	6004
471.426	5471
471.505	5256
471.583	5462
471.662	5735
471.740	5609
471.819	5884
471.898	4740
471.976	5711
472.055	5227
472.133	6749
472.212	6425
472.290	5445
472.369	5435
472.447	6055
472.526	5423
472.604	6267
472.683	6147
472.761	6229
472.839	6213
472.918	5739
472.996	5315
473.075	5557
473.153	6003
473.231	6731
473.310	5597
473.388	6273
473.466	6222
473.545	6223
473.623	6206
473.701	5925
473.780	5368
473.858	5632
473.936	6527
474.014	5795
474.093	6591
474.171	7085
474.249	6503
474.327	6081
474.405	5747
474.484	6171
474.562	5801
474.640	5249
474.718	5241
474.796	6413
474.874	5617
474.952	5951
475.030	5801
475.108	6111
475.187	4976
475.265	6077
475.343	5506
475.421	6092
475.499	5720
475.577	5911
475.655	6485
475.733	6318
475.811	6326
475.889	6037
475.966	5815
476.044	5065
476.122	5445
476.200	5477
476.278	5691
476.356	5181
476.434	6081
476.512	5751
476.590	6451
476.667	5905
476.745	5367
476.823	6487
476.901	5014
476.979	6021
477.056	5642
477.134	6413
477.212	5250
477.290	5726
477.367	5624
477.445	6051
477.523	4776
477.601	6247
477.678	5392
477.756	5442
477.834	5793
477.911	5359
477.989	5499
478.066	5831
478.144	6117
478.222	6231
478.299	6467
478.377	6783
478.454	5981
478.532	6087
478.609	5284
478.687	5987
478.764	5370
478.842	6058
478.919	5502
478.997	5749
479.074	4568
479.152	5900
479.229	5781
479.307	5264
479.384	5546
479.461	6151
479.539	6039
479.616	5316
479.694	5210
479.771	5381
479.848	4947
479.926	5963
480.003	6367
480.080	5763
480.157	6185
480.235	5875
480.312	5018
480.389	5875
480.467	5780
480.544	6115
480.621	7226
480.698	6846
480.775	6757
480.853	6003
480.930	6141
481.007	6565
481.084	6203
481.161	7865
481.238	5996
481.315	6057
481.392	5036
481.470	6163
481.547	5824
481.624	6248
481.701	6433
481.778	6697
481.855	6475
481.932	7663
482.009	7384
482.086	7605
482.163	8368
482.240	9166
482.317	8730
482.393	8355
482.470	8153
482.547	8904
482.624	7254
482.701	7645
482.778	6495
482.855	7289
482.932	6850
483.009	7887
483.085	8862
483.162	10668
483.239	10580
483.316	9905
483.393	9675
483.469	8188
483.546	7972
483.623	8027
483.699	6778
483.776	6675
483.853	7062
483.930	6399
484.006	7592
484.083	9158
484.160	8016
484.236	9615
484.313	9514
484.389	7731
484.466	10458
484.543	11724
484.619	12674
484.696	14145
484.772	9730
484.849	8761
484.925	7700
485.002	7974
485.078	7552
485.155	6443
485.231	6750
485.308	8355
485.384	6969
485.461	7784
485.537	7068
485.614	7464
485.690	6458
485.766	7347
485.843	6078
485.919	7078
485.995	6395
486.072	6714
486.148	6732
486.224	6703
486.301	6416
486.377	7120
486.453	7321
486.530	7498
486.606	8240
486.682	7541
486.758	7706
486.835	7998
486.911	7893
486.987	9394
487.063	9163
487.139	11157
487.215	11448
487.292	11848
487.368	12901
487.444	16086
487.520	23347
487.596	45473
487.672	112711
487.748	244341
487.824	295639
487.900	92003
487.976	34039
488.052	19979
488.128	14199
488.204	12013
488.280	10625
488.356	9375
488.432	9051
488.508	8773
488.584	7031
488.660	7629
488.736	7800
488.812	7273
488.888	7319
488.964	7800
489.039	7299
489.115	8495
489.191	7866
489.267	7595
489.343	6702
489.418	5973
489.494	6103
489.570	6593
489.646	6385
489.722	6999
489.797	6029
489.873	7125
489.949	7569
490.024	7291
490.100	6579
490.176	7083
490.251	7413
490.327	6889
490.403	6000
490.478	6705
490.554	6009
490.629	6487
490.705	6597
490.781	6243
490.856	6281
490.932	6427
491.007	5910
491.083	5646
491.158	6003
491.234	6504
491.309	6491
491.385	6871
491.460	5081
491.536	7249
491.611	5511
491.686	6329
491.762	6211
491.837	7177
491.913	7103
491.988	7943
492.063	7282
492.139	5887
492.214	5583
492.289	5704
492.365	5617
492.440	6447
492.515	5603
492.590	5673
492.666	5018
492.741	5392
492.816	5815
492.891	6133
492.967	5694
493.042	6695
493.117	4994
493.192	6683
493.267	7183
493.342	10871
493.418	9751
493.493	5599
493.568	6117
493.643	5075
493.718	5956
493.793	6065
493.868	6049
493.943	5257
494.018	6023
494.093	6453
494.168	5518
494.243	4799
494.318	5250
494.393	5980
494.468	4867
494.543	5614
494.618	5889
494.693	5463
494.768	5772
494.842	4928
494.917	5251
494.992	5646
495.067	5985
495.142	5629
495.217	5391
495.292	5135
495.366	5188
495.441	5227
495.516	6393
495.591	6004
495.665	7117
495.740	8643
495.815	5476
495.890	5581
495.964	4794
496.039	6215
496.114	7045
496.188	8095
496.263	6272
496.338	5231
496.412	5295
496.487	5962
496.561	6095
496.636	4961
496.710	5808
496.785	6175
496.860	5778
496.934	5233
497.009	6012
497.083	5157
497.158	5369
497.232	5143
497.307	5395
497.381	5725
497.455	4193
497.530	6491
497.604	5294
497.679	4974
497.753	5365
497.827	5382
497.902	5242
497.976	6057
498.050	8669
498.125	15753
498.199	11641
498.273	6197
498.348	5819
498.422	4881
498.496	6002
498.570	6380
498.645	5126
498.719	4718
498.793	5359
498.867	5622
498.941	6059
499.016	10521
499.090	14183
499.164	7121
499.238	5058
499.312	5250
499.386	5747
499.460	6785
499.534	5579
499.609	6747
499.683	5164
499.757	7230
499.831	7179
499.905	12043
499.979	8061
500.053	5623
500.127	4972
500.201	5088
500.275	5920
500.349	6561
500.422	5768
500.496	6531
500.570	6734
500.644	10529
500.718	10720
500.792	7195
500.866	5594
500.940	6226
501.013	5481
501.087	6066
501.161	6286
501.235	6509
501.309	8540
501.382	10384
501.456	8369
501.530	6244
501.603	5742
501.677	4813
501.751	4422
501.825	6806
501.898	5324
501.972	7140
502.046	5893
502.119	4790
502.193	5842
502.266	6360
502.340	5926
502.413	6716
502.487	5670
502.561	5595
502.634	5407
502.708	5389
502.781	5771
502.855	5833
502.928	5097
503.002	5893
503.075	5645
503.149	5873
503.222	5995
503.295	6355
503.369	5437
503.442	6997
503.516	7840
503.589	10637
503.662	10906
503.736	10769
503.809	14067
503.882	19134
503.956	33223
504.029	72067
504.102	160195
504.175	179090
504.249	67666
504.322	28474
504.395	17389
504.468	12165
504.542	9383
504.615	7307
504.688	8035
504.761	7131
504.834	7109
504.907	6869
504.980	6359
505.053	5259
505.127	4388
505.200	6777
505.273	5428
505.346	4902
505.419	4293
505.492	5359
505.565	4987
505.638	5155
505.711	4374
505.784	4570
505.857	4064
505.930	4846
506.003	4414
506.076	6070
506.149	4602
506.221	4277
506.294	5165
506.367	5465
506.440	6099
506.513	6055
506.586	4377
506.659	4385
506.731	4914
506.804	3807
506.877	3552
506.950	4303
507.022	4987
507.095	4808
507.168	4618
507.241	4351
507.313	3720
507.386	3524
507.459	4868
507.531	4347
507.604	4189
507.677	5067
507.749	4101
507.822	4064
507.894	4800
507.967	5262
508.040	4907
508.112	5225
508.185	5341
508.257	4483
508.330	4320
508.402	4275
508.475	4380
508.547	4372
508.620	4999
508.692	5015
508.765	4480
508.837	4463
508.909	5415
508.982	4345
509.054	4270
509.127	4554
509.199	4374
509.271	4052
509.344	4739
509.416	4110
509.488	4384
509.560	4120
509.633	4472
509.705	4672
509.777	4180
509.849	4827
509.922	4088
509.994	4901
510.066	4790
510.138	4417
510.210	5785
510.283	4488
510.355	4529
510.427	5229
510.499	4405
510.571	4490
510.643	4310
510.715	5024
510.787	3608
510.859	5113
510.931	4220
511.003	4771
511.076	4319
511.148	4244
511.219	4143
511.291	4485
511.363	5169
511.435	4528
511.507	4193
511.579	4832
511.651	4002
511.723	4770
511.795	4281
511.867	3969
511.939	4847
512.010	4289
512.082	3940
512.154	4748
512.226	4426
512.298	4930
512.369	3917
512.441	5254
512.513	4185
512.585	4436
512.656	4211
512.728	4777
512.800	4271
512.871	4845
512.943	4182
513.015	4148
513.086	3855
513.158	4422
513.230	4729
513.301	3698
513.373	4450
513.444	4184
513.516	4372
513.588	3643
513.659	4052
513.731	4810
513.802	4636
513.874	5279
513.945	4428
514.016	3945
514.088	4334
514.159	4790
514.231	3688
514.302	4485
514.374	4940
514.445	4077
514.516	6218
514.588	5212
514.659	5323
514.730	4143
514.802	4236
514.873	3338
514.944	5687
515.016	4816
515.087	4107
515.158	4246
515.229	4999
515.301	4247
515.372	4850
515.443	3912
515.514	4439
515.585	3500
515.656	5212
515.728	4619
515.799	4268
515.870	5608
515.941	5567
516.012	5166
516.083	5640
516.154	4925
516.225	6233
516.296	5894
516.367	5923
516.438	5208
516.509	4963
516.580	9469
516.651	22260
516.722	39850
516.793	12578
516.864	6721
516.935	6907
517.006	7374
517.077	10239
517.148	24263
517.219	71537
517.289	67409
517.360	10239
517.431	8005
517.502	5883
517.573	6087
517.643	5915
517.714	7153
517.785	7134
517.856	7577
517.926	8849
517.997	9852
518.068	9210
518.138	13347
518.209	22259
518.280	67584
518.350	136884
518.421	40228
518.492	19504
518.562	23363
518.633	35261
518.703	63083
518.774	143512
518.845	274705
518.915	189759
518.986	59609
519.056	28615
519.127	19785
519.197	15405
519.268	13745
519.338	11100
519.408	8711
519.479	8307
519.549	6405
519.620	7146
519.690	6787
519.760	6242
519.831	5607
519.901	6390
519.971	6322
520.042	4937
520.112	5054
520.182	5950
520.253	6874
520.323	5228
520.393	5383
520.463	6349
520.534	4042
520.604	7189
520.674	5907
520.744	4669
520.814	5639
520.885	5814
520.955	6409
521.025	7867
521.095	5718
521.165	5860
521.235	5917
521.305	5350
521.375	5676
521.445	5602
521.515	4577
521.585	5953
521.655	4407
521.725	5885
521.795	5968
521.865	4043
521.935	6920
522.005	5368
522.075	5373
522.145	5965
522.215	5283
522.285	6254
522.355	5641
522.424	5740
522.494	5793
522.564	5553
522.634	6693
522.704	7502
522.774	4645
522.843	5933
522.913	5429
522.983	6034
523.053	5860
523.122	5586
523.192	5134
523.262	6313
523.331	4956
523.401	6079
523.471	5726
523.540	5953
523.610	5111
523.680	5814
523.749	5234
523.819	6596
523.888	7823
523.958	6576
524.027	7182
524.097	5851
524.166	6428
524.236	5288
524.305	7401
524.375	5241
524.444	5652
524.514	7550
524.583	5872
524.653	6078
524.722	6403
524.791	5860
524.861	7413
524.930	5598
524.999	6228
525.069	7216
525.138	7841
525.207	7095
525.277	8998
525.346	8268
525.415	8618
525.484	10033
525.554	10585
525.623	11879
525.692	14233
525.761	14809
525.830	19645
525.900	28230
525.969	50277
526.038	99732
526.107	224710
526.176	431159
526.245	250532
526.314	116219
526.383	261778
526.452	282334
526.522	399207
526.591	235592
526.660	52084
526.729	36500
526.797	45493
526.867	82034
526.935	239470
527.004	500564
527.073	224140
527.142	47126
527.211	24447
527.280	17619
527.349	14009
527.418	10514
527.487	10989
527.555	7912
527.624	8413
527.693	7557
527.762	8721
527.831	7280
527.899	7420
527.968	6649
528.037	6545
528.106	6989
528.174	7475
528.243	7410
528.312	7678
528.380	7125
528.449	6865
528.518	7294
528.586	6293
528.655	6945
528.723	6582
528.792	6424
528.861	6472
528.929	5524
528.998	8219
529.066	8204
529.135	8810
529.203	7957
529.272	9420
529.340	10808
529.409	11262
529.477	8665
529.545	9024
529.614	11364
529.682	10971
529.751	10696
529.819	14842
529.887	13319
529.956	12212
530.024	12389
530.092	11089
530.161	13633
530.229	12893
530.297	12586
530.365	13644
530.434	14369
530.502	14328
530.570	12635
530.638	10129
530.707	11631
530.775	12613
530.843	11775
530.911	12472
530.979	11994
531.047	13387
531.115	12731
531.183	11777
531.252	11865
531.320	11457
531.388	11223
531.456	12987
531.524	11924
531.592	14123
531.660	15172
531.728	13583
531.796	12784
531.864	12662
531.932	13243
532.000	13655
532.067	14240
532.135	15473
532.203	17120
532.271	16369
532.339	17011
532.407	16710
532.475	15500
532.542	15851
532.610	16416
532.678	15998
532.746	20311
532.814	20061
532.881	17381
532.949	16079
533.017	15910
533.084	15745
533.152	13984
533.220	14566
533.287	13510
533.355	15689
533.423	15385
533.490	16014
533.558	15967
533.625	14891
533.693	14638
533.761	15240
533.828	15319
533.896	14547
533.963	16754
534.031	17145
534.098	20323
534.166	20361
534.233	19545
534.300	21746
534.368	20736
534.435	19303
534.503	20128
534.570	20965
534.637	23046
534.705	26629
534.772	35376
534.840	77336
534.907	240714
534.974	168329
535.041	32171
535.109	21081
535.176	18681
535.243	19600
535.310	18439
535.378	17724
535.445	17197
535.512	18889
535.579	17707
535.646	17048
535.714	18077
535.781	19700
535.848	18518
535.915	18499
535.982	18411
536.049	18558
536.116	18866
536.183	16988
536.250	17008
536.317	18005
536.384	17996
536.451	18938
536.518	18288
536.585	17690
536.652	20331
536.719	18568
536.786	17667
536.853	18302
536.920	18404
536.987	18107
537.053	17054
537.120	21468
537.187	20619
537.254	20306
537.321	18435
537.388	20695
537.454	17832
537.521	19123
537.588	18116
537.654	19800
537.721	20847
537.788	20986
537.855	19611
537.921	19875
537.988	18722
538.055	18743
538.121	16378
538.188	16325
538.254	16484
538.321	17740
538.388	19187
538.454	21825
538.521	20323
538.587	21467
538.654	19681
538.720	19943
538.787	19950
538.853	20463
538.920	17881
538.986	17861
539.053	17058
539.119	18383
539.185	17619
539.252	20015
539.318	19376
539.385	21591
539.451	19627
539.517	19729
539.583	19764
539.650	19186
539.716	19364
539.782	17173
539.849	17367
539.915	19122
539.981	18308
540.047	18317
540.114	18291
540.180	19589
540.246	20528
540.312	20671
540.378	19469
540.444	20912
540.510	20452
540.576	20815
540.643	18821
540.709	17942
540.775	18856
540.841	18953
540.907	18493
540.973	18782
541.039	18934
541.105	19764
541.171	20368
541.237	20264
541.303	20254
541.369	20773
541.435	19882
541.500	19099
541.566	18050
541.632	18526
541.698	18922
541.764	20921
541.830	18873
541.896	18437
541.961	19502
542.027	19515
542.093	21658
542.159	20271
542.224	18612
542.290	20755
542.356	18708
542.421	19525
542.487	17398
542.553	18658
542.618	18477
542.684	19391
542.750	19769
542.815	19760
542.881	19827
542.947	21806
543.012	20722
543.078	19349
543.143	17296
543.209	20166
543.274	18052
543.340	19136
543.405	19842
543.471	20493
543.536	20576
543.602	20278
543.667	18984
543.732	20850
543.798	19826
543.863	21204
543.928	19686
543.994	20377
544.059	20187
544.124	22188
544.190	21060
544.255	22580
544.320	21933
544.386	21530
544.451	22499
544.516	22397
544.581	20995
544.646	23915
544.712	23876
544.777	21923
544.842	23163
544.907	22652
544.972	22225
545.037	23571
545.102	23870
545.168	25481
545.233	24061
545.298	26055
545.363	24877
545.428	26880
545.493	26920
545.558	26847
545.623	26354
545.688	25806
545.753	28150
545.818	29241
545.883	30458
545.947	31797
546.012	32496
546.077	33535
546.142	36090
546.207	35945
546.272	37641
546.337	38795
546.401	40977
546.466	41389
546.531	43365
546.596	46553
546.661	49523
546.725	51020
546.790	53933
546.855	58918
546.919	63846
546.984	71635
547.049	76537
547.113	87921
547.178	96854
547.243	109644
547.307	127165
547.372	135630
547.436	135192
547.501	145672
547.565	149336
547.630	135260
547.695	133763
547.759	133502
547.823	135237
547.888	139915
547.952	141815
548.017	149203
548.081	150425
548.146	147438
548.210	155145
548.274	166676
548.339	156155
548.403	145073
548.468	136708
548.532	138772
548.596	139924
548.660	142122
548.725	158069
548.789	163537
548.853	156659
548.917	153418
548.982	145965
549.046	132147
549.110	122062
549.174	132519
549.238	152644
549.303	163601
549.367	162760
549.431	152239
549.495	143679
549.559	149614
549.623	175485
549.687	180588
549.751	186686
549.815	214863
549.879	209419
549.943	207712
550.007	213468
550.071	205419
550.135	188692
550.199	183482
550.263	177784
550.327	168968
550.391	178841
550.455	196563
550.519	205283
550.582	218271
550.646	240492
550.710	237070
550.774	235324
550.838	239694
550.901	245675
550.965	255971
551.029	267641
551.093	284456
551.156	304363
551.220	322687
551.284	315676
551.347	267463
551.411	245852
551.475	246181
551.538	249639
551.602	231405
551.666	223156
551.729	211371
551.793	208438
551.856	204706
551.920	202730
551.983	202145
552.047	200438
552.110	204236
552.174	204830
552.237	207143
552.301	189688
552.364	185338
552.428	179566
552.491	188976
552.554	188295
552.618	188877
552.681	189763
552.745	182953
552.808	193190
552.871	198742
552.934	193475
552.998	189014
553.061	186446
553.124	176669
553.187	179780
553.251	183229
553.314	183146
553.377	185978
553.440	198719
553.503	206125
553.567	201484
553.630	196048
553.693	195229
553.756	195489
553.819	186338
553.882	182293
553.945	185060
554.008	186118
554.071	186750
554.134	185213
554.197	173328
554.260	172894
554.323	175639
554.386	179517
554.449	187921
554.512	184029
554.575	177095
554.638	174546
554.701	174726
554.764	171319
554.827	166353
554.889	158890
554.952	150257
555.015	150582
555.078	154439
555.141	155780
555.203	152425
555.266	151081
555.329	150514
555.391	143257
555.454	141236
555.517	137848
555.580	132829
555.642	128677
555.705	128037
555.768	127190
555.830	122150
555.893	115497
555.955	113815
556.018	114104
556.080	114704
556.143	117049
556.206	115586
556.268	111681
556.330	109433
556.393	106296
556.455	102332
556.518	101462
556.580	98802
556.643	95155
556.705	94411
556.767	91939
556.830	90642
556.892	90303
556.955	88065
557.017	84266
557.079	85480
557.142	83620
557.204	82186
557.266	79919
557.328	75268
557.391	70829
557.453	70996
557.515	70783
557.577	70523
557.639	70372
557.701	69213
557.764	69075
557.826	69258
557.888	70156
557.950	71933
558.012	77900
558.074	103784
558.136	217030
558.198	292892
558.260	101167
558.322	69111
558.384	69359
558.446	69618
558.508	72662
558.570	77789
558.632	89262
558.694	118155
558.756	206446
558.818	478462
558.880	579828
558.942	311337
559.003	324373
559.065	127287
559.127	79105
559.189	76741
559.251	87630
559.312	131989
559.374	301501
559.436	497131
559.498	202564
559.559	84817
559.621	74662
559.683	91938
559.744	155956
559.806	381610
559.868	321518
559.929	99411
559.991	90829
560.052	166652
560.114	311190
560.176	165029
560.237	237574
560.299	224000
560.360	57076
560.422	39582
560.483	35655
560.545	34055
560.606	34432
560.667	32273
560.729	30485
560.790	30012
560.852	29376
560.913	28367
560.974	28208
561.036	28949
561.097	28332
561.158	28957
561.220	27809
561.281	26166
561.342	25710
561.403	26475
561.465	25574
561.526	27005
561.587	26589
561.648	23279
561.709	24126
561.771	24257
561.832	23398
561.893	23048
561.954	23591
562.015	22559
562.076	23217
562.137	21657
562.198	21114
562.259	22291
562.320	21917
562.381	21186
562.442	22716
562.503	20794
562.564	20371
562.625	20465
562.686	20646
562.747	20467
562.808	20537
562.869	19650
562.930	20751
562.991	18834
563.051	19266
563.112	18267
563.173	18706
563.234	18791
563.294	19185
563.355	18224
563.416	18920
563.477	18611
563.537	17736
563.598	18751
563.659	18945
563.720	16149
563.780	17768
563.841	18048
563.901	17580
563.962	18066
564.023	16771
564.083	17795
564.144	18725
564.204	17989
564.265	17173
564.325	17224
564.386	17239
564.446	16917
564.507	16797
564.567	16728
564.628	16757
564.688	16117
564.749	16824
564.809	17473
564.869	17173
564.930	15930
564.990	17313
565.050	16076
565.111	17414
565.171	16456
565.231	16412
565.292	16939
565.352	16028
565.412	16194
565.472	16224
565.532	15771
565.593	15039
565.653	16378
565.713	16719
565.773	15885
565.833	17576
565.893	17414
565.953	16143
566.013	14885
566.074	15585
566.134	16003
566.194	15913
566.254	15619
566.314	14903
566.374	15212
566.434	15577
566.494	14928
566.554	14813
566.614	15822
566.673	16149
566.733	16179
566.793	16738
566.853	15800
566.913	16130
566.973	16619
567.033	16855
567.092	15657
567.152	16253
567.212	16158
567.272	16811
567.331	16602
567.391	16596
567.451	17751
567.511	17447
567.570	16801
567.630	16489
567.690	15884
567.749	15645
567.809	15796
567.868	15858
567.928	15338
567.988	16944
568.047	16587
568.107	16817
568.166	16112
568.226	17748
568.285	18040
568.345	16644
568.404	16360
568.464	15511
568.523	16576
568.582	16867
568.642	16276
568.701	15931
568.761	16585
568.820	18244
568.879	17154
568.939	17707
568.998	16656
569.057	16029
569.116	15240
569.176	15869
569.235	15450
569.294	14939
569.353	14842
569.413	15178
569.472	14715
569.531	14628
569.590	14056
569.649	15499
569.708	13921
569.767	14992
569.827	14661
569.886	14876
569.945	15338
570.004	15736
570.063	14121
570.122	15715
570.181	16100
570.240	15117
570.299	16129
570.358	15852
570.417	15954
570.475	16046
570.534	16090
570.593	15494
570.652	16286
570.711	16145
570.770	15139
570.829	15585
570.887	15347
570.946	16217
571.005	15888
571.064	15787
571.122	15231
571.181	15512
571.240	15995
571.299	14858
571.357	13560
571.416	14204
571.475	14225
571.533	16251
571.592	16319
571.650	15567
571.709	16242
571.768	18054
571.826	17429
571.885	16431
571.943	15111
572.002	15620
572.060	15088
572.119	15174
572.177	14903
572.236	14865
572.294	15144
572.352	15923
572.411	15089
572.469	14877
572.528	15219
572.586	14048
572.644	14925
572.703	14508
572.761	13078
572.819	13044
572.877	12858
572.936	13751
572.994	13080
573.052	13922
573.110	14079
573.169	15082
573.227	14930
573.285	14200
573.343	14032
573.401	13828
573.459	14304
573.517	13368
573.576	14187
573.634	14407
573.692	13755
573.750	14340
573.808	12895
573.866	13892
573.924	12571
573.982	12996
574.040	13179
574.098	13366
574.155	12563
574.213	12696
574.271	12767
574.329	13675
574.387	12731
574.445	11961
574.503	11777
574.560	11540
574.618	11877
574.676	12411
574.734	12429
574.792	13305
574.849	11134
574.907	10808
574.965	11088
575.022	10600
575.080	10397
575.138	11090
575.195	9492
575.253	9630
575.311	10028
575.368	11236
575.426	10420
575.483	10298
575.541	11086
575.598	10215
575.656	10894
575.713	11365
575.771	11343
575.828	9166
575.886	9197
575.943	10591
576.001	8950
576.058	9585
576.115	10368
576.173	10080
576.230	10274
576.287	10063
576.345	11406
576.402	10495
576.459	9671
576.517	9762
576.574	9477
576.631	10327
576.688	9851
576.746	9849
576.803	9577
576.860	9542
576.917	9151
576.974	10346
577.031	10063
577.089	10075
577.146	8999
577.203	9763
577.260	8861
577.317	8887
577.374	8840
577.431	8705
577.488	9172
577.545	8882
577.602	9471
577.659	9936
577.716	8761
577.773	9915
577.830	8791
577.886	9775
577.943	8760
578.000	9337
578.057	8897
578.114	9550
578.171	9875
578.227	9656
578.284	9788
578.341	9099
578.398	10030
578.454	9177
578.511	8891
578.568	9835
578.625	7982
578.681	9493
578.738	8976
578.794	9057
578.851	9159
578.908	8681
578.964	9192
579.021	9721
579.077	9148
579.134	8827
579.190	9052
579.247	9409
579.303	9163
579.360	9277
579.416	8979
579.473	9476
579.529	9043
579.586	9239
579.642	9161
579.698	10024
579.755	9915
579.811	10262
579.867	10152
579.924	8581
579.980	9120
580.036	9532
580.093	9807
580.149	11376
580.205	9966
580.261	10929
580.317	9478
580.374	11496
580.430	9806
580.486	10820
580.542	8671
580.598	9630
580.619	10132
580.654	11016
580.692	10300
580.710	9967
580.765	10148
580.767	10164
580.823	10620
580.838	10541
580.879	10385
580.911	10606
580.935	10783
580.984	10289
580.991	10235
581.047	10374
581.057	10196
581.103	9494
581.130	10329
581.159	11204
581.203	10046
581.215	9749
581.270	10067
581.276	10023
581.326	9739
581.349	9985
581.382	10366
581.422	10264
581.438	10216
581.494	10171
581.494	10161
581.550	10107
581.567	10103
581.606	10127
581.640	9888
581.661	9727
581.713	10230
581.717	10285
581.773	10254
581.786	10302
581.829	10416
581.859	10182
581.885	10060
581.932	10054
581.940	10040
581.996	10820
582.004	10657
582.052	9834
582.077	9851
582.107	9859
582.150	10100
582.163	10193
582.219	9161
582.223	9232
582.274	10097
582.296	9909
582.330	9674
582.368	10389
582.386	10693
582.441	9596
582.441	9598
582.497	9164
582.514	9461
582.552	10068
582.587	10428
582.608	10664
582.659	10427
582.663	10419
582.719	10174
582.732	10268
582.774	10536
582.805	10568
582.830	10583
582.877	10091
582.885	10013
582.941	11093
582.950	11058
582.996	10950
583.023	11498
583.052	12117
583.095	11313
583.107	11065
583.162	11722
583.168	11653
583.218	11167
583.240	10579
583.273	9634
583.313	9892
583.328	9997
583.384	10158
583.385	10142
583.439	9723
583.458	9641
583.494	9502
583.531	9416
583.549	9377
583.603	9083
583.605	9066
583.660	9394
583.676	9595
583.715	10264
583.748	9758
583.770	9370
583.820	9780
583.825	9832
583.881	10034
583.893	9957
583.936	9702
583.965	9814
583.991	9838
584.038	10386
584.046	10493
584.101	9772
584.110	9807
584.156	9903
584.183	9664
584.211	9468
584.255	9773
584.266	9816
584.321	10036
584.328	10102
584.376	10601
584.400	10644
584.431	10816
584.472	10989
584.486	11050
584.541	10805
584.545	10829
584.596	11007
584.617	11001
584.651	10981
584.689	11366
584.706	11653
584.761	11960
584.762	11966
584.816	12112
584.834	12322
584.871	12737
584.906	12803
584.926	12789
584.978	12996
584.980	13028
585.035	14266
585.051	14738
585.090	15736
585.123	16252
585.145	16659
585.195	17454
585.200	17569
585.254	19805
585.267	20482
585.309	22844
585.340	24796
585.364	26689
585.412	31287
585.419	32008
585.473	40319
585.484	42789
585.528	55510
585.556	69474
585.583	90471
585.628	143425
585.637	162405
585.692	325180
585.700	338610
585.747	406917
585.772	385882
585.801	263914
585.845	130111
585.856	111219
585.910	52672
585.917	46243
585.965	34123
585.989	29115
586.019	26073
586.061	22821
586.074	22193
586.128	20001
586.133	19866
586.183	19167
586.205	18751
586.237	18087
586.277	17579
586.292	17596
586.346	17425
586.349	17399
586.401	16561
586.421	16533
586.455	16698
586.493	16724
586.509	16730
586.564	16926
586.565	16940
586.618	17996
586.637	18528
586.672	20251
586.709	22596
586.727	23974
586.781	26772
586.781	26771
586.835	21516
586.853	20580
586.889	18884
586.925	17242
586.944	16796
586.996	17012
586.998	17021
587.052	16474
587.068	16467
587.106	16849
587.140	16730
587.161	16654
587.212	17374
587.215	17386
587.269	16510
587.284	16503
587.323	16756
587.356	17064
587.377	17304
587.427	18177
587.431	18210
587.485	17960
587.499	17990
587.539	18352
587.571	18878
587.593	19263
587.643	19915
587.648	20012
587.702	20454
587.715	20832
587.755	20925
587.786	20488
587.810	20524
587.858	20759
587.864	20778
587.917	21032
587.930	21177
587.971	21325
588.001	21159
588.025	21143
588.073	21604
588.079	21642
588.133	21601
588.145	21655
588.187	22193
588.217	22467
588.241	22504
588.288	22950
588.295	23089
588.348	24142
588.360	24390
588.402	24702
588.431	24690
588.456	25063
588.503	26517
588.510	26789
588.564	29101
588.575	29640
588.617	31600
588.646	33023
588.671	34668
588.718	39255
588.725	40117
588.778	48782
588.789	51440
588.832	70853
588.861	87839
588.886	117209
588.932	179031
588.939	188247
588.993	232893
589.004	237230
589.047	156325
589.075	108608
589.100	84656
589.147	47094
589.154	45718
589.207	37103
589.218	35610
589.261	35530
589.290	35912
589.314	36726
589.361	39694
589.368	40581
589.421	49363
589.433	52299
589.475	80428
589.504	104545
589.528	138464
589.576	193417
589.582	190335
589.635	136928
589.647	127602
589.689	74429
589.718	40446
589.742	36265
589.790	28515
589.795	28194
589.849	25526
589.861	25047
589.902	24826
589.932	24374
589.955	23860
590.004	23240
590.009	23234
590.062	22925
590.075	22893
590.115	22201
590.146	21586
590.168	21617
590.218	21853
590.222	21875
590.275	22298
590.289	22428
590.328	22988
590.360	23229
590.381	23218
590.431	23447
590.435	23430
590.488	22907
590.503	22797
590.541	22958
590.574	23255
590.594	23444
590.645	24100
590.647	24132
590.700	24698
590.716	24981
590.753	25301
590.787	25395
590.806	25692
590.859	27003
590.859	27010
590.912	27314
590.930	27437
590.965	27616
591.001	27735
591.018	27500
591.071	26939
591.072	26935
591.124	27049
591.143	27175
591.177	27151
591.214	27035
591.230	27066
591.283	27412
591.285	27413
591.336	27796
591.356	28018
591.389	27595
591.427	27134
591.442	26975
591.495	26336
591.498	26276
591.547	26602
591.569	26955
591.600	26873
591.640	26519
591.653	26776
591.706	27920
591.711	28053
591.759	28714
591.782	29089
591.811	29738
591.853	30582
591.864	30572
591.917	30497
591.924	30497
591.969	30496
591.995	30478
592.022	30197
592.066	29783
592.075	30048
592.127	31701
592.137	32024
592.180	32494
592.208	32781
592.233	33073
592.279	33624
592.285	33719
592.338	34584
592.350	34773
592.390	34428
592.421	34197
592.443	34385
592.491	34816
592.495	34843
592.548	35323
592.562	35463
592.600	35414
592.633	35395
592.653	35334
592.704	35003
592.705	35215
592.775	35871
592.846	37616
592.916	38001
592.987	37541
593.058	38535
593.128	38978
593.199	38518
593.270	39140
593.341	40089
593.411	41202
593.482	43198
593.553	43738
593.623	43302
593.694	44780
593.764	47251
593.835	46512
593.906	46675
593.976	47955
594.047	49400
594.117	52049
594.188	52269
594.258	53747
594.329	53585
594.399	54222
594.470	55961
594.540	57342
594.611	59065
594.681	58905
594.751	58245
594.822	58617
594.892	61983
594.963	65418
595.033	66408
595.103	68799
595.174	69366
595.244	70318
595.314	72633
595.384	73892
595.455	75541
595.525	78596
595.595	81182
595.665	82568
595.736	80044
595.806	81525
595.876	84438
595.946	84641
596.016	85840
596.087	89369
596.157	89659
596.227	90954
596.297	93673
596.367	98504
596.437	105734
596.507	107345
596.577	106543
596.647	109114
596.717	114170
596.787	118620
596.857	116370
596.927	116920
596.997	118695
597.067	118231
597.137	121158
597.207	121289
597.277	123094
597.347	120283
597.417	113836
597.487	113291
597.557	115525
597.626	119699
597.696	120158
597.766	120904
597.836	115592
597.906	109573
597.975	107828
598.045	108044
598.115	111557
598.185	119280
598.254	131853
598.324	144207
598.394	149106
598.464	145738
598.533	141549
598.603	135553
598.672	128114
598.742	130242
598.812	131607
598.881	133635
598.951	134143
599.020	134387
599.090	139756
599.159	143325
599.229	139549
599.299	136147
599.368	139481
599.437	139499
599.507	129410
599.576	121844
599.646	121794
599.715	118782
599.785	119895
599.854	115318
599.924	113480
599.993	112963
600.062	115190
600.132	117443
600.201	124146
600.270	138249
600.340	152462
600.409	149029
600.478	147717
600.547	149192
600.617	143913
600.686	114472
600.755	102118
600.824	96021
600.894	94148
600.963	92990
601.032	93941
601.101	91669
601.170	86485
601.239	83950
601.308	83207
601.378	84212
601.447	84360
601.516	84712
601.585	87192
601.654	86471
601.723	88613
601.792	89597
601.861	93951
601.930	95833
601.999	100020
602.068	97642
602.137	97908
602.206	98999
602.275	102020
602.343	102794
602.412	103554
602.481	105412
602.550	106926
602.619	109233
602.688	109479
602.756	110415
602.825	110740
602.894	114373
602.963	117760
603.032	118095
603.100	118866
603.169	117339
603.238	118905
603.307	119127
603.375	120048
603.444	122200
603.513	124087
603.581	123651
603.650	129507
603.719	124999
603.787	125188
603.856	130604
603.924	132219
603.993	135590
604.061	140646
604.130	148185
604.198	151139
604.267	153465
604.335	155785
604.404	157514
604.472	160991
604.541	161179
604.609	165687
604.678	166069
604.746	164664
604.815	171347
604.883	174297
604.951	172161
605.020	175132
605.088	176737
605.156	180007
605.225	182884
605.293	181901
605.361	182623
605.429	186082
605.498	186592
605.566	192754
605.634	199082
605.702	207275
605.771	211509
605.839	215308
605.907	210765
605.975	204914
606.043	201870
606.111	199991
606.180	198664
606.248	197383
606.316	194176
606.384	194408
606.452	195797
606.520	194631
606.588	202016
606.656	203874
606.724	202678
606.792	193268
606.860	178216
606.928	160544
606.996	152775
607.064	149133
607.132	149974
607.200	157975
607.267	167279
607.335	168866
607.403	174022
607.471	171243
607.539	161118
607.607	165784
607.674	148158
607.742	144073
607.810	142407
607.878	141764
607.946	145252
608.013	151499
608.081	156356
608.149	156047
608.216	160529
608.284	168666
608.352	166730
608.419	166326
608.487	163055
608.555	161377
608.622	165206
608.690	170606
608.757	187074
608.825	196342
608.893	191629
608.960	182344
609.028	172786
609.095	171978
609.163	171831
609.230	159501
609.298	141413
609.365	146844
609.432	159263
609.500	171432
609.567	193964
609.635	219477
609.702	234390
609.769	228554
609.837	192313
609.904	154881
609.971	157679
610.039	168191
610.106	197880
610.173	295177
610.241	575519
610.308	556732
610.375	229905
610.442	177552
610.509	163828
610.577	159537
610.644	158865
610.711	165827
610.778	169915
610.845	174821
610.912	185420
610.980	193241
611.047	193846
611.114	191644
611.181	185258
611.248	183832
611.315	191622
611.382	198335
611.449	203713
611.516	208964
611.583	205257
611.650	207082
611.717	210700
611.784	213552
611.851	219426
611.918	232609
611.984	251372
612.051	307382
612.118	444337
612.185	807750
612.252	844839
612.319	387324
612.386	287071
612.452	258406
612.519	239769
612.586	232236
612.653	235281
612.719	240158
612.786	236716
612.853	220953
612.919	211239
612.986	217516
613.053	206750
613.120	196827
613.186	185110
613.253	187437
613.319	186558
613.386	187999
613.453	189102
613.519	189976
613.586	186808
613.652	189119
613.719	188956
613.785	189721
613.852	193988
613.918	190860
613.985	191825
614.051	199259
614.118	199845
614.184	194069
614.250	189068
614.317	196268
614.383	192401
614.449	196980
614.516	194855
614.582	195542
614.648	192874
614.715	191293
614.781	190079
614.847	184885
614.914	186601
614.980	181788
615.046	179713
615.112	186503
615.179	188036
615.245	189639
615.311	186669
615.377	189786
615.443	192630
615.509	194755
615.575	199889
615.642	199842
615.708	202153
615.774	208743
615.840	221500
615.906	233250
615.972	259429
616.038	329069
616.104	520186
616.170	874838
616.236	1014794
616.302	522417
616.368	369406
616.434	292527
616.500	248104
616.565	255394
616.631	315630
616.697	296510
616.763	271592
616.829	338270
616.895	557253
616.961	658936
617.026	376955
617.092	235916
617.158	207316
617.224	202970
617.289	186188
617.355	174835
617.421	171220
617.487	170839
617.552	162660
617.618	160573
617.684	159552
617.749	161833
617.815	155274
617.880	152732
617.946	150841
618.012	151894
618.077	157595
618.143	152708
618.208	147754
618.274	158388
618.339	164975
618.405	141286
618.470	132859
618.536	136185
618.601	133548
618.667	127267
618.732	118210
618.798	117447
618.863	115054
618.928	113607
618.994	115061
619.059	115841
619.124	116029
619.190	116499
619.255	115359
619.320	114752
619.386	114938
619.451	115128
619.516	111957
619.581	110873
619.647	115160
619.712	116449
619.777	110273
619.842	109468
619.907	111139
619.972	113664
620.038	115148
620.103	109756
620.168	110817
620.233	112281
620.298	113343
620.363	113583
620.428	116624
620.493	118395
620.558	122332
620.623	122672
620.688	122738
620.753	121823
620.818	124089
620.883	125559
620.948	124253
621.013	123225
621.078	121672
621.143	121294
621.207	125258
621.272	121968
621.337	117728
621.402	116835
621.467	116388
621.532	115163
621.596	116039
621.661	113297
621.726	111185
621.791	113714
621.855	113683
621.920	112740
621.985	114813
622.049	114310
622.114	116931
622.179	118417
622.243	121109
622.308	123555
622.373	127940
622.437	128552
622.502	120781
622.566	119297
622.631	119303
622.695	121952
622.760	121436
622.824	121343
622.889	120528
622.953	119217
623.018	125846
623.082	129891
623.147	128752
623.211	126353
623.276	124988
623.340	122267
623.404	117299
623.469	117291
623.533	118855
623.597	116050
623.662	114951
623.726	108858
623.790	102699
623.854	97559
623.919	99838
623.983	101527
624.047	102339
624.111	103955
624.176	106347
624.240	106298
624.304	108190
624.368	107329
624.432	105557
624.496	107993
624.560	111991
624.625	116815
624.689	113821
624.753	117433
624.817	116842
624.881	112699
624.945	104312
625.009	98441
625.073	98960
625.137	101023
625.201	105861
625.265	107694
625.329	104050
625.393	102108
625.456	105270
625.520	106839
625.584	109310
625.648	111979
625.712	115229
625.776	114778
625.839	111681
625.903	96701
625.967	86164
626.031	89070
626.095	103044
626.158	108546
626.222	85657
626.286	76220
626.349	73363
626.413	68727
626.477	65357
626.540	67675
626.604	68742
626.668	66014
626.731	65537
626.795	64455
626.858	65738
626.922	64335
626.986	65290
627.049	63515
627.113	67024
627.176	65404
627.240	62316
627.303	62852
627.366	61302
627.430	63029
627.493	63047
627.557	61012
627.620	61171
627.684	63478
627.747	65201
627.810	61502
627.874	55935
627.937	50852
628.000	54169
628.064	52469
628.127	47734
628.190	46113
628.253	45096
628.317	44838
628.380	40865
628.443	39923
628.506	40007
628.569	38328
628.632	36399
628.696	35698
628.759	36620
628.822	35519
628.885	33377
628.948	33742
629.011	32216
629.074	32107
629.137	30571
629.200	29417
629.263	30647
629.326	28443
629.389	29583
629.452	29418
629.515	29058
629.578	27052
629.641	29045
629.704	29128
629.767	28890
629.830	27793
629.892	27589
629.955	26883
630.018	27534
630.081	27169
630.144	27332
630.207	26018
630.269	26745
630.332	26876
630.395	26043
630.458	24776
630.520	25025
630.583	24503
630.646	24268
630.708	25416
630.771	25616
630.834	27381
630.896	26259
630.959	26553
631.021	25825
631.084	25562
631.146	25632
631.209	27326
631.272	26217
631.334	26033
631.397	26721
631.459	27322
631.522	29255
631.584	29028
631.646	30616
631.709	32696
631.771	32737
631.834	30859
631.896	30925
631.958	27804
632.021	28670
632.083	26317
632.145	25393
632.208	24689
632.270	25221
632.332	24383
632.395	23660
632.457	24805
632.519	24099
632.581	23359
632.643	23469
632.706	23215
632.768	23343
632.830	24621
632.892	25060
632.954	25001
633.016	24998
633.078	24755
633.141	24149
633.203	25045
633.265	25233
633.327	24223
633.389	23793
633.451	24100
633.513	24493
633.575	25053
633.637	24590
633.698	25824
633.760	26419
633.822	27720
633.884	28218
633.946	29497
634.008	30784
634.070	31174
634.132	32992
634.193	34128
634.255	38659
634.317	39890
634.379	39939
634.441	36051
634.502	33828
634.564	29535
634.626	27330
634.687	26664
634.749	25590
634.811	24561
634.873	23474
634.934	25116
634.996	25106
635.057	24035
635.119	24158
635.181	24484
635.242	25456
635.304	24234
635.365	26714
635.427	24718
635.488	25295
635.550	24600
635.611	25021
635.673	24622
635.734	27543
635.796	27960
635.857	30968
635.918	33342
635.980	37339
636.041	38818
636.102	41497
636.164	43197
636.225	42586
636.286	37220
636.348	33809
636.409	29421
636.470	27380
636.531	26156
636.593	24953
636.654	24326
636.715	21760
636.776	21674
636.838	21067
636.899	21196
636.960	20721
637.021	20575
637.082	19961
637.143	20153
637.204	19450
637.265	18423
637.326	19611
637.387	19684
637.448	20723
637.509	19910
637.570	19908
637.631	20083
637.692	19070
637.753	19209
637.814	18330
637.875	18331
637.936	18114
637.997	18616
638.058	18142
638.119	17973
638.179	17227
638.240	17890
638.301	18191
638.362	17152
638.423	16909
638.483	16670
638.544	15865
638.605	16676
638.666	16970
638.726	17656
638.787	17156
638.848	16783
638.908	16078
638.969	15760
639.030	15706
639.090	15507
639.151	15899
639.211	16055
639.272	15973
639.332	16164
639.393	16071
639.453	16845
639.514	18935
639.574	16582
639.635	14996
639.695	15615
639.756	15103
639.816	15269
639.877	15015
639.937	15355
639.997	15320
640.058	14285
640.118	15184
640.178	15203
640.239	14624
640.299	15070
640.359	15201
640.420	16033
640.480	17789
640.540	20017
640.600	22774
640.661	19209
640.721	18004
640.781	20024
640.841	16951
640.901	15533
640.961	14797
641.021	15782
641.082	17003
641.142	15967
641.202	15100
641.262	13248
641.322	15007
641.382	13580
641.442	13529
641.502	14233
641.562	14315
641.622	13746
641.682	15906
641.742	16947
641.802	17183
641.861	15894
641.921	13361
641.981	14278
642.041	13601
642.101	12662
642.161	13114
642.221	13235
642.280	12493
642.340	13407
642.400	12628
642.460	13868
642.519	13490
642.579	13417
642.639	14144
642.698	12072
642.758	14789
642.818	14446
642.877	14621
642.937	13405
642.997	14349
643.056	14664
643.116	12491
643.175	14942
643.235	14288
643.294	15433
643.354	16367
643.414	17381
643.473	20020
643.532	23254
643.592	30063
643.651	43235
643.711	67101
643.770	114943
643.830	224747
643.889	504619
643.948	317746
644.008	72590
644.067	34258
644.126	25332
644.186	20387
644.245	18596
644.304	16029
644.363	16551
644.423	15320
644.482	15455
644.541	15716
644.600	15014
644.659	20697
644.719	23671
644.778	34253
644.837	52727
644.896	92626
644.955	224327
645.014	165629
645.073	32746
645.132	20032
645.191	18208
645.250	16647
645.309	18377
645.368	18291
645.427	22726
645.486	34389
645.545	76506
645.604	41445
645.663	15850
645.722	14314
645.781	16026
645.840	18097
645.898	20938
645.957	28178
646.016	38199
646.075	62661
646.134	108820
646.192	224365
646.251	458114
646.310	186852
646.369	46352
646.427	29489
646.486	24531
646.545	17665
646.603	16047
646.662	14355
646.721	13133
646.779	13570
646.838	13083
646.896	17025
646.955	21587
647.014	32800
647.072	55565
647.131	139775
647.189	152596
647.248	26958
647.306	14986
647.365	11981
647.423	10248
647.481	11376
647.540	9125
647.598	10184
647.657	9471
647.715	10807
647.773	9557
647.832	9563
647.890	7468
647.948	8218
648.007	9264
648.065	7885
648.123	8122
648.181	8268
648.240	7895
648.298	7619
648.356	8044
648.414	8198
648.472	7296
648.531	7611
648.589	7131
648.647	7141
648.705	7318
648.763	7574
648.821	7216
648.879	8956
648.937	9823
648.995	11968
649.053	14385
649.111	19264
649.169	31237
649.227	51795
649.285	92221
649.343	246875
649.401	263060
649.459	47744
649.516	20142
649.574	12977
649.632	13412
649.690	14887
649.748	17421
649.806	23913
649.863	40651
649.921	98059
649.979	140593
650.037	25141
650.094	9501
650.152	8492
650.210	7523
650.268	7766
650.325	6197
650.383	6835
650.440	5037
650.498	5962
650.556	5447
650.613	5388
650.671	6359
650.728	5969
650.786	6085
650.843	8091
650.901	7754
650.958	4823
651.016	5412
651.073	4519
651.131	4526
651.188	3446
651.246	4934
651.303	4296
651.360	5014
651.418	3771
651.475	4496
651.532	4673
651.590	5233
651.647	3374
651.704	4339
651.762	4303
651.819	3454
651.876	3173
651.933	3623
651.990	3550
652.048	3025
652.105	3346
652.162	4777
652.219	4314
652.276	3949
652.333	4115
652.390	2891
652.448	3138
652.505	2803
652.562	4038
652.619	3906
652.676	3669
652.733	3902
652.790	3319
652.847	2266
652.904	4194
652.961	2202
653.017	3234
653.074	4320
653.131	3372
653.188	2214
653.245	3114
653.302	3644
653.359	3035
653.415	3279
653.472	3639
653.529	4069
653.586	2930
653.642	3327
653.699	3777
653.756	2754
653.813	2829
653.869	3238
653.926	3218
653.983	3536
654.039	3847
654.096	3375
654.152	4180
654.209	2537
654.266	3706
654.322	2188
654.379	2566
654.435	2994
654.492	3506
654.548	3028
654.605	2585
654.661	3765
654.717	2303
654.774	3020
654.830	2825
654.887	2648
654.943	2954
655.000	3034
655.056	3786
655.112	2657
655.168	2824
655.225	2871
655.281	3865
655.337	2895
655.394	3236
655.450	3434
655.506	3061
655.562	1958
655.618	4029
655.675	2672
655.731	3342
655.787	2094
655.843	3087
655.899	3077
655.955	3635
656.011	3395
656.067	2682
656.123	2421
656.179	2404
656.235	2995
656.291	1788
656.347	3999
656.403	2770
656.459	2989
656.515	3470
656.571	2493
656.627	2981
656.683	2213
656.739	3046
656.795	2970
656.850	2701
656.906	2491
656.962	3716
657.018	2271
657.074	3743
657.129	5419
657.185	7539
657.241	17304
657.297	21555
657.352	5550
657.408	2887
657.464	3579
657.519	2431
657.575	1545
657.630	1519
657.686	2699
657.742	2347
657.797	2299
657.853	2004
657.908	3315
657.964	2457
658.019	2619
658.075	2938
658.130	2333
658.186	1306
658.241	2248
658.297	1492
658.352	1565
658.407	2052
658.463	2313
658.518	3236
658.573	2501
658.629	695
658.684	1850
658.739	2223
658.795	1364
658.850	2898
658.905	1898
658.960	2698
659.016	690
659.071	1551
659.126	1958
659.181	1430
659.236	1709
659.291	2621
659.346	1578
659.401	1535
659.457	2922
659.512	1643
659.567	2129
659.622	2004
659.677	1735
659.732	793
659.787	1679
659.842	2096
659.897	1528
659.952	2222
660.007	1947
660.061	1918
660.116	1509
660.171	956
660.226	2210
660.281	2773
660.336	1208
660.391	2262
660.445	1506
660.500	1649
660.555	2080
660.610	1076
660.664	1987
660.719	1115
660.774	2126
660.828	2578
660.883	1874
660.938	1420
660.992	1237
661.047	2247
661.101	1097
661.156	1673
661.211	1735
661.265	1086
661.320	1973
661.374	2157
661.429	1664
661.483	1036
661.538	1306
661.592	1236
661.647	1823
661.701	1889
661.755	2218
661.810	1598
661.864	1484
661.919	1787
661.973	1524
662.027	1781
662.081	915
662.136	642
662.190	1647
662.244	1545
662.299	1179
662.353	2176
662.407	776
662.461	1293
662.515	1694
662.569	1256
662.624	2212
662.678	1381
662.732	1501
662.786	1102
662.840	999
662.894	2019
662.948	1782
663.002	1327
663.056	1707
663.110	809
663.164	1456
663.218	1275
663.272	1222
663.326	1902
663.380	1586
663.434	1724
663.488	147
663.542	2155
663.595	1445
663.649	1134
663.703	2450
663.757	1478
663.811	813
663.864	1823
663.918	1665
663.972	1056
664.026	1600
664.079	1070
664.133	2138
664.187	2020
664.240	1592
664.294	1585
664.348	1077
664.401	1728
664.455	1583
664.508	500
664.562	985
664.615	1756
664.669	1075
664.722	1599
664.776	1327
664.829	1653
664.883	1209
664.936	861
664.990	1041
665.043	1663
665.097	525
665.150	2697
665.203	981
665.257	2133
665.310	2072
665.363	1534
665.417	1318
665.470	2083
665.523	1027
665.576	1978
665.630	1676
665.683	839
665.736	2237
665.789	2141
665.842	1167
665.895	1406
665.949	1555
666.002	1324
666.055	1728
666.108	1994
666.161	1506
666.214	2056
666.267	2134
666.320	2028
666.373	1348
666.426	1742
666.479	1315
666.532	1815
666.585	1443
666.638	2733
666.691	1959
666.744	1970
666.796	1049
666.849	2060
666.902	2215
666.955	1643
667.008	1636
667.060	2085
667.113	1476
667.166	1473
667.219	2440
667.271	1757
667.324	2562
667.377	1662
667.430	2320
667.482	1086
667.535	1564
667.587	1950
667.640	2327
667.693	1313
667.745	1557
667.798	2422
667.850	1750
667.903	1433
667.955	2040
668.008	2283
668.060	2619
668.113	1016
668.165	1422
668.218	1558
668.270	1529
668.322	1591
668.375	1301
668.427	2083
668.479	683
668.532	2234
668.584	1509
668.636	2138
668.689	2400
668.741	1134
668.793	2157
668.845	1983
668.898	1927
668.950	1989
669.002	2363
669.054	1544
669.106	748
669.158	2043
669.211	1286
669.263	2146
669.315	2377
669.367	1149
669.419	1163
669.471	1261
669.523	1897
669.575	1884
669.627	788
669.679	1617
669.731	2250
669.783	2119
669.835	1456
669.886	2015
669.938	1853
669.990	1265
670.042	1263
670.094	1804
670.146	1728
670.197	1997
670.249	2261
670.301	1622
670.353	2960
670.404	2970
670.456	3818
670.508	5087
670.560	6831
670.611	11696
670.663	17342
670.715	31697
670.766	73963
670.818	49956
670.869	9218
670.921	4027
670.972	3385
671.024	2359
671.075	2530
671.127	2679
671.178	1754
671.230	2493
671.281	3057
671.333	2636
671.384	4079
671.436	5232
671.487	8923
671.538	11459
671.590	17012
671.641	27003
671.692	45651
671.744	90690
671.795	105595
671.846	47638
671.897	21203
671.949	11662
672.000	7801
672.051	5788
672.102	4765
672.153	3463
672.204	3299
672.256	2830
672.307	2645
672.358	1669
672.409	1790
672.460	2152
672.511	1382
672.562	1599
672.613	1233
672.664	1864
672.715	1352
672.766	1414
672.817	826
672.868	684
672.919	1430
672.970	1299
673.021	1457
673.071	89
673.122	1213
673.173	619
673.224	581
673.275	1164
673.326	195
673.376	937
673.427	554
673.478	958
673.528	1388
673.579	1043
673.630	1273
673.680	1845
673.731	807
673.782	706
673.832	1229
673.883	1083
673.934	330
673.984	1482
674.035	122
674.085	625
674.136	1107
674.186	1297
674.237	1020
674.287	898
674.338	330
674.388	715
674.438	950
674.489	1662
674.539	1134
674.589	1779
674.640	1967
674.690	1075
674.740	883
674.791	1645
674.841	1014
674.891	1153
674.942	64
674.992	390
675.042	598
675.092	453
675.142	559
675.193	675
675.243	349
675.293	481
675.343	397
675.393	245
675.443	521
675.493	489
675.543	288
675.593	582
675.643	829
675.693	641
675.743	737
675.793	823
675.843	-104
675.893	404
675.943	-161
675.993	146
676.043	23
676.093	356
676.142	-401
676.192	523
676.242	341
676.292	265
676.341	-222
676.391	318
676.441	88
676.491	106
676.540	-732
676.590	1072
676.640	29
676.689	-563
676.739	-190
676.789	-301
676.838	-301
676.888	-172
676.937	-635
676.987	-1
677.037	466
677.086	-886
677.136	-431
677.185	495
677.235	29
677.284	-306
677.333	137
677.383	168
677.432	-329
677.482	379
677.531	323
677.580	-428
677.630	-318
677.679	-140
677.728	-375
677.778	-403
677.827	-276
677.876	640
677.925	-182
677.975	-30
678.024	1204
678.073	466
678.122	250
678.171	287
678.220	862
678.269	911
678.319	1073
678.368	827
678.417	1378
678.466	1123
678.515	579
678.564	30
678.613	-677
678.662	141
678.711	403
678.760	603
678.809	-251
678.857	411
678.906	160
678.955	-115
679.004	299
679.053	-476
679.102	-348
679.151	388
679.199	-230
679.248	-475
679.297	178
679.346	-553
679.394	-380
679.443	211
679.492	-83
679.540	-210
679.589	108
679.638	82
679.686	262
679.735	24
679.784	-67
679.832	1154
679.881	-100
679.929	286
679.978	19
680.026	-1042
680.075	116
680.123	158
680.172	-397
680.220	335
680.268	-488
680.317	-491
680.365	-822
680.414	-247
680.462	-795
680.510	647
680.559	-44
680.607	-608
680.655	-767
680.703	-671
680.752	-1078
680.800	-12
680.848	63
680.896	-308
680.945	-200
680.993	-699
681.041	-325
681.089	-574
681.137	-166
681.185	-225
681.233	-869
681.258	-577
681.281	-308
681.329	-32
681.377	-166
681.380	-151
681.425	46
681.473	-169
681.502	-176
681.521	-191
681.569	222
681.617	-105
681.624	-127
681.665	-292
681.713	137
681.745	339
681.761	430
681.809	-458
681.857	58
681.867	-52
681.904	-446
681.952	-332
681.989	-83
682.000	-24
682.048	-491
682.096	-771
682.111	-806
682.143	-887
682.191	-88
682.233	46
682.239	61
682.286	-424
682.334	-313
682.354	-587
682.382	-952
682.430	333
682.476	311
682.477	305
682.525	-695
682.572	-204
682.598	-103
682.620	-20
682.667	-418
682.715	-26
682.720	12
682.763	328
682.810	-311
682.841	-133
682.857	-46
682.905	-399
682.952	261
682.963	250
683.000	190
683.047	-73
683.085	247
683.095	338
683.142	-125
683.190	819
683.206	345
683.237	-573
683.284	-172
683.328	263
683.332	297
683.379	37
683.426	-377
683.449	-113
683.473	177
683.521	-25
683.568	-328
683.571	-267
683.615	446
683.662	461
683.693	240
683.709	92
683.757	164
683.804	252
683.814	208
683.851	147
683.898	473
683.936	332
683.945	281
683.992	31
684.039	-517
684.057	-163
684.086	388
684.133	204
684.179	-60
684.180	-72
684.227	-339
684.274	243
684.300	542
684.321	802
684.368	110
684.415	176
684.422	173
684.462	125
684.509	248
684.543	247
684.556	227
684.603	-198
684.649	321
684.665	275
684.696	229
684.743	184
684.786	333
684.790	338
684.837	-59
684.883	-32
684.908	-45
684.930	-85
684.977	111
685.023	-241
685.029	-205
685.070	122
685.117	244
685.150	152
685.164	62
685.210	366
685.257	71
685.272	-49
685.303	-131
685.350	505
685.393	385
685.396	361
685.443	336
685.490	209
685.514	238
685.536	253
685.583	99
685.629	-38
685.636	-66
685.675	-143
685.722	525
685.757	304
685.768	190
685.815	-267
685.861	-44
685.878	-57
685.908	63
685.954	-282
686.000	234
686.000	239
686.047	330
686.093	214
686.121	317
686.139	408
686.185	759
686.232	530
686.242	451
686.278	198
686.324	722
686.363	733
686.370	709
686.416	343
686.463	639
686.484	492
686.509	349
686.555	446
686.601	228
686.606	231
686.647	324
686.693	590
686.727	263
686.739	134
686.785	605
686.831	295
686.848	462
686.877	733
686.923	395
686.969	411
686.969	411
687.015	495
687.061	706
687.090	793
687.107	736
687.153	859
687.199	285
687.211	155
687.245	55
687.291	788
687.332	795
687.336	778
687.382	1260
687.428	1136
687.453	850
687.474	654
687.520	828
687.565	1021
687.574	951
687.611	666
687.657	597
687.695	1102
687.702	1212
687.748	1166
687.794	1439
687.816	1532
687.839	1527
687.885	1186
687.931	829
687.937	863
687.976	1070
688.022	849
688.058	698
688.067	666
688.113	897
688.158	393
688.179	663
688.204	1061
688.249	993
688.295	1123
688.300	1143
688.340	1093
688.386	1066
688.421	888
688.431	883
688.477	1086
688.522	1107
688.542	1169
688.567	1185
688.613	1303
688.658	1500
688.663	1427
688.703	923
688.749	799
688.784	810
688.794	763
688.839	870
688.884	794
688.905	624
688.930	642
688.975	1002
689.020	1221
689.026	1206
689.065	844
689.110	708
689.146	658
689.155	681
689.201	473
689.246	1011
689.267	1054
689.291	1015
689.336	764
689.381	729
689.388	685
689.426	719
689.471	1037
689.509	1253
689.516	1239
689.561	622
689.606	754
689.630	758
689.651	934
689.696	717
689.741	1437
689.750	1403
689.785	1144
689.830	1560
689.871	1024
689.875	982
689.920	1389
689.965	1514
689.992	1376
690.010	1196
690.054	1612
690.099	884
690.112	938
690.144	1291
690.189	1255
690.233	1491
690.233	1495
690.278	1209
690.323	1109
690.354	1329
690.367	1481
690.412	1050
690.457	1451
690.474	1413
690.501	1245
690.546	1377
690.590	1484
690.595	1445
690.635	1109
690.680	1244
690.716	1067
690.724	1054
690.769	1073
690.813	1101
690.836	980
690.857	968
690.902	1356
690.946	1529
690.957	1593
690.991	1770
691.035	1887
691.077	2107
691.080	2123
691.124	2272
691.168	2568
691.198	2598
691.213	2509
691.257	1893
691.301	1959
691.318	1814
691.346	1707
691.390	1464
691.434	1573
691.439	1547
691.478	1296
691.522	1413
691.559	1099
691.567	1089
691.611	1532
691.655	1531
691.680	1578
691.699	1556
691.743	1460
691.787	1606
691.800	1525
691.831	1428
691.875	1703
691.919	1718
691.921	1717
691.964	1598
692.008	1447
692.041	1521
692.052	1647
692.096	1813
692.139	2049
692.162	1985
692.183	1734
692.227	1788
692.271	1693
692.282	1689
692.315	1791
692.359	1802
692.402	1606
692.403	1610
692.447	1538
692.490	1745
692.523	1691
692.534	1650
692.578	1662
692.622	1651
692.643	1589
692.666	1540
692.709	1567
692.753	1710
692.763	1648
692.797	1593
692.840	1875
692.884	1880
692.884	1884
692.928	1628
692.971	1636
693.004	1514
693.015	1545
693.059	1609
693.102	1923
693.124	1891
693.146	1766
693.189	1619
693.233	1616
693.245	1572
693.276	1619
693.320	1821
693.363	1639
693.365	1638
693.407	1643
693.450	1663
693.485	1698
693.493	1763
693.537	1795
693.580	1769
693.605	2004
693.624	2147
693.667	2422
693.710	2296
693.725	2380
693.753	2683
693.797	2862
693.840	3279
693.845	3286
693.883	3154
693.926	3055
693.966	3184
693.970	3168
694.013	2744
694.056	2299
694.086	1934
694.099	1941
694.142	2059
694.185	2216
694.206	2181
694.229	2095
694.272	2480
694.315	2128
694.326	2126
694.358	2062
694.401	1937
694.444	1744
694.446	1733
694.487	1702
694.530	1392
694.566	1438
694.573	1503
694.616	1621
694.659	2019
694.686	2125
694.702	2118
694.745	2131
694.787	2144
694.806	2189
694.830	2274
694.873	2023
694.916	2225
694.926	2188
694.959	2176
695.002	2259
695.044	2441
695.046	2444
695.087	2713
695.130	2661
695.166	2800
695.172	2793
695.215	2412
695.258	2333
695.286	2157
695.301	2216
695.343	2514
695.386	2659
695.406	2871
695.428	3044
695.471	2988
695.514	3153
695.526	3139
695.556	3222
695.599	3700
695.641	3743
695.646	3746
695.684	3793
695.726	3940
695.766	3883
695.769	3858
695.811	3636
695.854	3141
695.886	2839
695.896	2921
695.938	3151
695.981	3443
696.005	3573
696.023	3615
696.065	3835
696.108	3913
696.125	3924
696.150	3914
696.192	3965
696.235	4028
696.245	4008
696.277	4099
696.319	4283
696.361	4447
696.365	4445
696.404	4589
696.446	4734
696.485	4968
696.488	4996
696.530	5046
696.572	5009
696.604	5135
696.614	5110
696.656	4828
696.698	4542
696.724	4372
696.740	4381
696.783	4327
696.825	4341
696.844	4327
696.867	4490
696.909	4659
696.951	4936
696.964	5003
696.992	4829
697.034	4489
697.076	4283
697.083	4211
697.118	4630
697.160	5212
697.202	5853
697.203	5852
697.244	5418
697.286	5018
697.323	4549
697.327	4603
697.369	4978
697.411	5464
697.442	5821
697.453	5781
697.494	5477
697.536	5212
697.562	5000
697.578	4988
697.620	4973
697.661	4896
697.682	4875
697.703	5011
697.744	5258
697.786	5471
697.801	5544
697.828	5629
697.869	5672
697.911	5768
697.921	5774
697.952	5803
697.994	5824
698.035	5861
698.040	5839
698.077	5846
698.118	5932
698.160	5996
698.160	5980
698.201	5909
698.243	5774
698.279	5731
698.284	5768
698.325	5893
698.367	6042
698.399	6141
698.408	6149
698.449	6088
698.491	6061
698.518	6005
698.532	6054
698.573	6194
698.614	6298
698.638	6346
698.656	6397
698.697	6475
698.738	6565
698.757	6597
698.779	6651
698.820	6688
698.862	6744
698.877	6744
698.903	6728
698.944	6679
698.985	6640
698.996	6611
699.026	6708
699.067	6820
699.116	6938
699.235	6512
699.354	7731
699.474	6053
699.593	5870
699.713	6068
699.832	6770
699.951	6513
700.070	7015
700.190	6128
700.309	6365
700.428	5689
700.547	5959
700.667	5258
700.786	5855
700.905	6122
701.024	4876
701.143	5042
701.262	5745
701.381	5883
701.500	5189
701.619	5754
701.738	6482
701.857	5573
701.976	5482
702.095	5614
702.214	6679
702.333	4760
702.452	5508
702.571	5458
702.690	6582
702.809	5797
702.928	5383
703.047	5821
703.165	5392
703.284	6054
703.403	5217
703.522	5270
703.640	5027
703.759	5108
703.878	5536
703.997	4316
704.115	5644
704.234	4814
704.353	5362
704.471	4929
704.590	5025
704.708	4721
704.827	4089
704.946	4905
705.064	4385
705.183	4276
705.301	4697
705.420	4614
705.538	3988
705.656	4050
705.775	3528
705.893	3890
706.012	4953
706.130	3911
706.249	4290
706.367	4000
706.485	4443
706.604	3614
706.722	3475
706.840	4017
706.958	5529
707.077	5192
707.195	3274
707.313	4042
707.431	3871
707.549	3875
707.668	3371
707.786	3630
707.904	3679
708.022	3920
708.140	3881
708.258	3360
708.376	3323
708.494	2891
708.612	3398
708.730	4286
708.848	3573
708.966	3298
709.084	4199
709.202	3945
709.320	4132
709.438	3059
709.556	4398
709.674	2478
709.791	3718
709.909	2372
710.027	3918
710.145	3218
710.263	3148
710.380	2930
710.498	3813
710.616	2520
710.733	1948
710.851	1842
710.969	3662
711.086	2645
711.204	3643
711.322	3144
711.439	3119
711.557	2459
711.674	3360
711.792	2349
711.909	2697
712.027	2675
712.144	2438
712.262	1843
712.379	3976
712.497	2589
712.614	2945
712.732	3537
712.849	3067
712.966	2979
713.084	3762
713.201	2481
713.318	2829
713.436	3002
713.553	3091
713.670	3114
713.787	4028
713.905	3101
714.022	3699
714.139	3229
714.256	4283
714.373	5745
714.490	11105
714.608	26916
714.725	106904
714.842	234815
714.959	36910
715.076	7400
715.193	5039
715.310	4850
715.427	3867
715.544	3069
715.661	3430
715.778	2675
715.895	3017
716.011	2925
716.128	3165
716.245	2106
716.362	2803
716.479	2267
716.596	2122
716.713	2706
716.829	2775
716.946	1571
717.063	1993
717.180	1958
717.296	2016
717.413	2913
717.530	2267
717.646	1741
717.763	2497
717.880	2119
717.996	1658
718.113	1455
718.229	1641
718.346	1977
718.462	1947
718.579	2118
718.695	2437
718.812	1848
718.928	1913
719.045	2081
719.161	1869
719.277	2024
719.394	3631
719.510	1864
719.626	3390
719.743	2848
719.859	5712
719.975	10873
720.092	35968
720.208	133728
720.324	47845
720.440	4163
720.557	3470
720.673	3437
720.789	2405
720.905	2174
721.021	2915
721.137	1546
721.253	1753
721.369	1498
721.486	2016
721.602	2637
721.718	1636
721.834	2032
721.950	1593
722.066	608
722.181	2003
722.297	1116
722.413	1441
722.529	2112
722.645	2233
722.761	1087
722.877	2037
722.993	1968
723.108	2499
723.224	2101
723.340	2255
723.456	1823
723.571	2353
723.687	1104
723.803	1376
723.918	1172
724.034	1321
724.150	1743
724.265	1729
724.381	1125
724.497	1427
724.612	797
724.728	1514
724.843	1526
724.959	1228
725.074	1608
725.190	2038
725.305	1851
725.421	1642
725.536	1768
725.651	1297
725.767	1317
725.882	1544
725.997	917
726.113	1491
726.228	1520
726.343	968
726.459	934
726.574	1414
726.689	1482
726.804	2068
726.920	1335
727.035	1563
727.150	855
727.265	1098
727.380	1054
727.495	1654
727.610	795
727.725	1827
727.841	1446
727.956	1485
728.071	1497
728.186	865
728.301	1154
728.416	1709
728.531	815
728.645	1487
728.760	997
728.875	2008
728.990	1064
729.105	1319
729.220	919
729.335	889
729.449	766
729.564	1620
729.679	870
729.794	1504
729.908	1288
730.023	1790
730.138	1322
730.253	1312
730.367	849
730.482	1771
730.596	1683
730.711	1748
730.826	2686
730.940	2731
731.055	1899
731.169	1808
731.284	2369
731.398	1632
731.513	2210
731.627	3145
731.742	3026
731.856	4940
731.970	4000
732.085	5630
732.199	7408
732.313	13621
732.428	30069
732.542	91043
732.656	109907
732.771	21217
732.885	8328
732.999	6948
733.113	6738
733.227	6784
733.342	6570
733.456	5833
733.570	5452
733.684	5641
733.798	4627
733.912	6018
734.026	5197
734.140	5397
734.254	5111
734.368	5653
734.482	4888
734.596	5311
734.710	4831
734.824	5010
734.938	4296
735.052	4546
735.166	3961
735.280	5021
735.393	3918
735.507	4186
735.621	4306
735.735	3631
735.849	3925
735.962	4148
736.076	3543
736.190	4386
736.303	3813
736.417	4355
736.531	3855
736.644	4825
736.758	3980
736.872	4221
736.985	3122
737.099	4239
737.212	3097
737.326	4391
737.439	3388
737.553	3358
737.666	3730
737.780	3360
737.893	3537
738.007	3430
738.120	3562
738.233	3602
738.347	3988
738.460	3757
738.573	3881
738.687	3194
738.800	3784
738.913	3611
739.026	3756
739.140	3939
739.253	2934
739.366	3317
739.479	2504
739.592	3512
739.705	2033
739.818	3122
739.932	3458
740.045	2838
740.158	3478
740.271	2947
740.384	2934
740.497	2343
740.610	3483
740.723	3688
740.836	2819
740.949	3432
741.062	2606
741.174	4161
741.287	2844
741.400	3279
741.513	1881
741.626	3152
741.739	3470
741.851	2104
741.964	2572
742.077	2719
742.189	2533
742.302	2421
742.415	2653
742.527	2470
742.640	2863
742.753	2424
742.865	1895
742.978	3060
743.090	2059
743.203	2601
743.316	2829
743.428	2370
743.541	3105
743.653	2353
743.766	2589
743.878	2930
743.990	1653
744.103	2923
744.215	2016
744.327	2276
744.440	2471
744.552	3012
744.664	1690
744.777	2270
744.889	2043
745.001	2146
745.113	1513
745.226	3016
745.338	1608
745.450	2166
745.562	2260
745.674	1961
745.786	2264
745.898	1900
746.010	2033
746.122	3101
746.234	1904
746.347	2042
746.459	1903
746.570	1959
746.682	1991
746.794	3290
746.906	1725
747.018	2167
747.130	1639
747.242	1480
747.354	1770
747.466	1923
747.577	1670
747.689	2238
747.801	1653
747.913	2360
748.024	1207
748.136	2216
748.248	1619
748.359	2527
748.471	2201
748.583	1368
748.694	633
748.806	1916
748.918	1459
749.029	1698
749.141	1334
749.252	2184
749.364	1423
749.475	1157
749.587	1080
749.698	1722
749.809	1400
749.921	1465
750.032	1213
750.144	1475
750.255	1531
750.366	1509
750.478	854
750.589	1882
750.700	690
750.811	1963
750.923	1754
751.034	1308
751.145	1717
751.256	206
751.367	402
751.479	1982
751.590	1607
751.701	1334
751.812	606
751.923	558
752.034	1627
752.145	928
752.256	1354
752.367	780
752.478	836
752.589	1668
752.700	1501
752.811	599
752.922	1040
753.032	1646
753.143	1242
753.254	1838
753.365	1865
753.476	1445
753.586	1425
753.697	1817
753.808	565
753.919	436
754.029	1336
754.140	1803
754.251	781
754.361	1316
754.472	616
754.582	1681
754.693	457
754.804	1958
754.914	1245
755.025	681
755.135	692
755.246	2094
755.356	969
755.466	1082
755.577	1448
755.687	1481
755.798	1180
755.908	1428
756.018	1370
756.129	1311
756.239	665
756.349	1660
756.460	398
756.570	1295
756.680	832
756.790	305
756.900	1924
757.011	877
757.121	896
757.231	1171
757.341	1049
757.451	715
757.561	593
757.671	1492
757.781	743
757.891	1437
758.001	195
758.111	847
758.221	847
758.331	2035
758.441	1284
758.551	882
758.661	1096
758.771	1125
758.880	1028
758.990	1583
759.100	619
759.210	1494
759.320	1012
759.429	1262
759.539	986
759.649	1676
759.758	1793
759.868	2544
759.978	1873
760.087	2368
760.197	1759
760.307	2561
760.416	1470
760.526	1915
760.635	1635
760.745	1619
760.854	1680
760.964	2662
761.073	2942
761.182	2276
761.292	2313
761.401	2374
761.511	1509
761.620	755
761.729	1662
761.839	1400
761.948	365
762.057	665
762.166	960
762.276	1577
762.385	726
762.494	916
762.603	518
762.712	1353
762.822	195
762.931	571
763.040	669
763.149	636
763.258	1232
763.367	1848
763.476	1154
763.585	1007
763.694	698
763.803	689
763.912	846
764.021	1085
764.130	525
764.238	1694
764.347	449
764.456	1452
764.565	949
764.674	2093
764.783	1646
764.891	1523
765.000	1676
765.109	1012
765.217	940
765.326	1846
765.435	1655
765.543	3228
765.652	2784
765.761	3424
765.869	4839
765.978	7778
766.086	12813
766.195	23922
766.303	50392
766.412	112680
766.520	140999
766.629	65267
766.737	24587
766.846	12716
766.954	7402
767.062	6267
767.171	4455
767.279	3501
767.387	2226
767.496	3201
767.604	1856
767.712	1873
767.820	1516
767.928	2075
768.037	1227
768.145	1602
768.253	1646
768.361	1163
768.469	1140
768.577	1610
768.685	1695
768.793	1852
768.901	1576
769.009	2128
769.117	1918
769.225	2670
769.333	3336
769.441	6435
769.549	9306
769.657	20944
769.765	51064
769.873	113395
769.981	77910
770.088	21430
770.196	8796
770.304	5484
770.412	3699
770.519	3107
770.627	2722
770.735	2453
770.842	2391
770.950	2031
771.058	1403
771.165	2875
771.273	2743
771.380	2974
771.488	3079
771.595	4253
771.703	3477
771.810	3422
771.918	2945
772.025	4121
772.133	4976
772.240	4720
772.348	4879
772.455	5283
772.562	3962
772.670	4187
772.777	4592
772.884	5296
772.991	3367
773.099	4121
773.206	3529
773.313	4772
773.420	4467
773.528	3541
773.635	2759
773.742	3588
773.849	2683
773.956	3117
774.063	3494
774.170	3438
774.277	3669
774.384	3019
774.491	3279
774.598	3512
774.705	4049
774.812	3198
774.919	3547
775.026	3581
775.133	3634
775.239	3995
775.346	3435
775.453	3108
775.560	2894
775.667	4052
775.773	3089
775.880	2937
775.987	3592
776.093	3432
776.200	3569
776.307	2629
776.413	2385
776.520	3492
776.627	3639
776.733	2108
776.840	1974
776.946	4218
777.053	2751
777.159	3586
777.266	2508
777.372	3623
777.478	3139
777.585	3161
777.691	1487
777.798	2445
777.904	2370
778.010	2854
778.117	2606
778.223	2548
778.329	2719
778.435	2630
778.542	2851
778.648	2872
778.754	2174
778.860	2468
778.966	2307
779.072	2194
779.178	2645
779.284	2014
779.391	1416
779.497	1589
779.603	3139
779.708	1531
779.815	2464
779.920	3976
780.026	7303
780.132	2797
780.238	2070
780.344	1548
780.450	2070
780.556	2715
780.661	660
780.767	3171
780.873	1812
780.979	1752
781.085	1773
781.190	2100
781.296	1658
781.402	1779
781.507	1242
781.613	1690
781.719	1547
781.824	2859
781.930	1810
782.035	1656
782.141	2414
782.246	1470
782.352	1391
782.457	1418
782.563	1533
782.668	2162
782.773	720
782.879	870
782.984	1295
783.090	1676
783.195	598
783.300	2081
783.405	1531
783.511	1317
783.616	1743
783.721	2051
783.826	1675
783.932	1123
784.037	1199
784.142	1178
784.247	823
784.352	1548
784.457	762
784.562	1441
784.667	878
784.772	1549
784.877	642
784.982	1370
785.087	1313
785.192	1426
785.297	706
785.402	973
785.507	1435
785.611	1169
785.716	558
785.821	944
785.926	641
786.031	809
786.135	875
786.240	1847
786.345	-45
786.450	1118
786.554	1023
786.659	1136
786.763	303
786.868	1513
786.973	725
787.077	1102
787.182	124
787.286	1277
787.391	1057
787.495	1119
787.600	-487
787.704	1041
787.809	1176
787.913	828
788.017	756
788.122	1692
788.226	357
788.330	48
788.435	-112
788.539	1225
788.643	-209
788.747	362
788.852	481
788.956	932
789.060	246
789.164	1385
789.268	364
789.372	1124
789.476	762
789.580	225
789.684	-716
789.788	388
789.892	1601
789.996	633
790.100	82
790.204	932
790.308	708
790.412	665
790.516	666
790.620	-257
790.724	953
790.828	1105
790.931	462
791.035	809
791.139	-5
791.242	736
791.346	331
791.450	963
791.554	499
791.657	-427
791.761	846
791.864	486
791.968	853
792.072	843
792.175	-411
792.279	-44
792.382	673
792.486	430
792.589	-614
792.693	1172
792.796	-243
792.899	1404
793.003	285
793.106	-72
793.209	-98
793.313	1499
793.416	-703
793.519	133
793.623	-69
793.726	1161
793.829	428
793.932	475
794.035	-610
794.138	402
794.242	279
794.345	-768
794.448	-802
794.551	446
794.654	1291
794.757	3570
794.860	733
794.963	826
795.066	438
795.169	589
795.272	-524
795.375	1348
795.477	-273
795.580	81
795.683	-918
795.786	632
795.889	-1043
795.991	1285
796.094	220
796.197	665
796.300	-564
796.402	775
796.505	-151
796.608	-477
796.710	-639
796.813	760
796.915	82
797.018	141
797.120	-96
797.223	98
797.326	773
797.428	125
797.530	-65
797.633	279
797.735	-209
797.838	-348
797.940	283
798.042	468
798.145	121
798.247	366
798.349	-1445
798.452	67
798.554	-668
798.656	4
798.758	435
798.860	494
798.962	39
799.065	-268
799.167	-680
799.269	415
799.371	81
799.473	753
799.575	-129
799.677	-186
799.779	-628
799.881	-711
799.983	155
800.085	214
800.187	-273
800.289	-368
800.390	-576
800.492	938
800.594	-336
800.696	-453
800.798	-207
800.899	-230
801.001	-139
801.103	641
801.205	-350
801.306	54
801.408	-47
801.509	331
801.611	-628
801.713	1162
801.814	-1149
801.916	298
802.017	-446
802.119	-175
802.220	-32
802.322	-1099
802.423	183
802.525	-874
802.626	-29
802.727	248
802.829	111
802.930	-1164
803.031	624
803.133	15
803.234	-737
803.335	59
803.436	-545
803.538	56
803.639	-991
803.740	24
803.841	-585
803.942	130
804.043	-603
804.144	-801
804.245	-943
804.346	-745
804.447	-221
804.548	-166
804.649	-337
804.750	253
804.851	-1421
804.952	506
805.053	-552
805.154	-338
805.255	-79
805.355	-973
805.456	-164
805.557	-208
805.658	-213
805.758	-826
805.859	321
805.960	-196
806.061	-782
806.161	-234
806.262	-486
806.362	-139
806.463	10
806.564	387
806.664	-1013
806.765	-882
806.865	-447
806.966	429
807.066	-1042
807.166	-538
807.267	-94
807.367	-652
807.468	156
807.568	-560
807.668	-681
807.769	-254
807.869	-1061
807.969	-787
808.069	-280
808.170	-1106
808.270	-1057
808.370	608
808.470	-225
808.570	-270
808.670	-91
808.770	600
808.870	-889
808.970	-23
809.070	-887
809.170	-961
809.271	-215
809.370	-664
809.470	-1134
809.570	-1219
809.670	-737
809.770	-191
809.870	-980
809.970	-583
810.070	-202
810.169	191
810.269	-1181
810.369	158
810.469	-677
810.568	-541
810.668	-848
810.768	-708
810.867	-646
810.967	-582
811.066	-370
811.166	-125
811.265	-718
811.365	-687
811.464	-1049
811.564	-134
811.663	-214
811.763	-1023
811.862	-180
811.962	-120
812.061	-804
812.160	-61
812.260	-848
812.359	-1104
812.458	-171
812.557	193
812.657	-423
812.756	-241
812.855	-515
812.954	-64
813.053	-644
813.153	71
813.252	-835
813.351	490
813.450	-433
813.549	-184
813.648	-507
813.747	-475
813.846	-550
813.945	-619
814.044	-533
814.143	-461
814.242	-282
814.341	-534
814.439	-35
814.538	477
814.637	-545
814.736	-540
814.835	-174
814.933	-299
815.032	63
815.131	298
815.229	1476
815.328	2491
815.427	1688
815.525	2019
815.624	1649
815.722	1278
815.821	1590
815.919	1163
816.018	1027
816.116	2087
816.215	1317
816.313	1880
816.412	2288
816.510	2346
816.609	2375
816.707	2676
816.805	2172
816.904	1590
817.002	2542
817.100	2399
817.198	2924
817.296	2467
817.395	2204
817.493	2451
817.591	1533
817.689	2126
817.787	1889
817.885	2277
817.983	1556
818.081	2161
818.179	2130
818.277	4408
818.375	5433
818.473	2690
818.571	2420
818.669	2322
818.767	2270
818.865	1657
818.963	1261
819.061	1722
819.158	2307
819.256	3268
819.354	3069
819.452	6238
819.549	5632
819.647	3308
819.745	1897
819.842	1215
819.940	1229
820.038	1653
820.135	879
820.233	2157
820.330	1100
820.428	601
820.525	1959
820.623	1393
820.720	-51
820.818	2148
820.915	1787
821.012	1864
821.110	580
821.207	1515
821.304	997
821.402	1266
821.499	1596
821.596	1674
821.693	1171
821.791	2076
821.888	664
821.985	1412
822.082	1488
822.179	1151
822.276	1629
822.373	1575
822.470	-30
822.567	1983
822.664	899
822.761	1326
822.858	549
822.955	912
823.052	801
823.149	508
823.246	589
823.343	827
823.440	586
823.536	801
823.633	574
823.730	1166
823.827	332
823.923	1055
824.020	1973
824.117	730
824.213	567
824.310	1366
824.407	784
824.503	734
824.600	1052
824.696	1113
824.793	985
824.889	1661
824.986	847
825.082	-26
825.179	-116
825.275	506
825.371	562
825.468	901
825.564	-839
825.660	379
825.757	1764
825.853	1853
825.949	106
826.045	648
826.142	-446
826.238	687
826.334	1033
826.430	316
826.526	149
826.622	-344
826.718	-269
826.814	856
826.910	1194
827.006	1066
827.102	-907
827.198	800
827.294	454
827.390	622
827.486	205
827.582	-34
827.678	-130
827.774	528
827.869	-174
827.965	147
828.061	-1018
828.157	1029
828.252	-134
828.348	-292
828.444	108
828.539	-281
828.635	191
828.731	1140
828.826	-356
828.922	404
829.017	-451
829.113	346
829.208	-520
829.304	167
829.399	1173
829.495	296
829.590	-156
829.685	-57
829.781	373
829.876	824
829.971	-319
830.066	-322
830.162	-791
830.257	874
830.352	636
830.447	239
830.543	-856
830.638	-820
830.733	722
830.828	-121
830.923	-540
831.018	336
831.113	88
831.208	375
831.303	-453
831.398	-307
831.493	-414
831.588	549
831.683	-344
831.778	-311
831.873	-696
831.967	963
832.062	369
832.157	416
832.252	642
832.346	-400
832.441	-257
832.536	-463
832.631	-121
832.725	-523
832.820	-740
832.914	-700
833.009	195
833.104	-41
833.198	-554
833.293	-110
833.387	-228
833.482	164
833.576	-674
833.670	439
833.765	-178
833.859	-214
833.954	-46
834.048	38
834.142	669
834.237	-447
834.331	-466
834.425	324
834.519	-696
834.613	-76
834.708	-860
834.802	-33
834.896	-202
834.990	-282
835.084	-707
835.178	-530
835.272	-371
835.366	-394
835.460	560
835.554	-657
835.648	-505
835.742	-284
835.836	-1043
835.930	-733
836.024	182
836.117	-451
836.211	-568
836.305	-380
836.399	-565
836.493	-242
836.586	188
836.680	-229
836.774	-405
836.867	284
836.961	-1081
837.055	-625
837.148	-631
837.242	-341
837.335	-778
837.429	-454
837.522	-861
837.616	-249
837.709	-1142
837.803	-235
837.896	-965
837.989	-87
838.083	11
838.176	-415
838.269	-698
838.363	-311
838.456	-1597
838.549	-307
838.642	-1561
838.735	-1161
838.829	-592
838.922	-793
839.015	-315
839.108	-1401
839.201	-628
839.294	-199
839.387	-568
839.480	-1182
839.573	-1281
839.666	82
839.759	-1061
839.852	-769
839.945	-1099
840.038	-186
840.131	-995
840.223	-981
840.316	-368
840.409	-627
840.502	-1491
840.594	-200
840.687	-1033
840.780	-179
840.873	-1242
840.965	-747
841.058	-249
841.150	174
841.243	-1646
841.336	-667
841.428	-430
841.521	-761
841.613	-1331
841.706	-641
841.798	-1116
841.890	-347
841.983	-1060
842.075	124
842.167	-1245
842.260	-611
842.352	-1115
842.444	3
842.537	-487
842.629	-1023
842.721	-989
842.813	-759
842.905	-1147
842.997	-207
843.090	-1225
843.182	57
843.274	-890
843.366	-533
843.458	-1099
843.550	-302
843.642	-1175
843.734	-528
843.826	-1270
843.918	-463
844.009	-1186
844.101	-237
844.193	-1113
844.285	-838
844.377	-1102
844.469	-609
844.560	-1725
844.652	-835
844.744	-1239
844.835	-827
844.927	-995
845.019	-385
845.110	-929
845.202	-739
845.293	-884
845.385	-1545
845.476	-937
845.568	53
845.659	-499
845.751	-1232
845.842	-1443
845.934	-945
846.025	47
846.116	458
846.208	-1305
846.299	-743
846.390	-744
846.482	-659
846.573	-714
846.664	126
846.755	-1755
846.846	-1013
846.937	-1735
847.029	-837
847.120	-1513
847.211	-1107
847.302	-626
847.393	-1535
847.484	-221
847.575	-1382
847.666	-1993
847.757	-1402
847.847	-1283
847.938	-369
848.029	-1042
848.120	-1018
848.211	-1073
848.302	-1109
848.392	-1127
848.483	-923
848.574	-960
848.664	-553
848.755	-245
848.846	-930
848.936	-1256
849.027	-1477
849.118	-943
849.208	-817
849.299	-818
849.389	309
849.480	329
849.570	4223
849.661	6473
849.751	13920
849.841	11128
849.932	1225
850.022	-757
850.112	-1230
850.203	-581
850.293	-1092
850.383	-1066
850.474	-771
850.564	-1310
850.654	-101
850.744	-1181
850.834	-903
850.924	-1104
851.014	-881
851.104	-1542
851.194	-1650
851.284	-1000
851.374	-1313
851.464	-1573
851.554	-840
851.644	-937
851.734	-564
851.824	-754
851.914	-561
852.004	-676
852.094	-899
852.183	-1071
852.273	-830
852.363	-477
852.452	-1009
852.542	-1933
852.632	-1186
852.721	-719
852.811	-650
852.901	-1230
852.990	-859
853.080	-1068
853.169	-609
853.259	-672
853.348	-674
853.438	106
853.527	231
853.617	-289
853.706	1890
853.795	3271
853.885	9005
853.974	18355
854.063	28766
854.152	53395
854.242	41979
854.331	9109
854.420	2459
854.509	1300
854.598	282
854.687	-591
854.777	-78
854.866	-635
854.955	569
855.044	-635
855.133	-500
855.222	-394
855.311	-989
855.400	-1880
855.488	-1392
855.577	-1562
855.666	-1265
855.755	-705
855.844	-117
855.933	-1390
856.021	-598
856.110	-1207
856.199	-765
856.288	-1128
856.376	-1371
856.465	-1276
856.554	-690
856.642	-1449
856.731	-1119
856.819	-628
856.908	-325
856.996	-1064
857.085	-1356
857.173	-1318
857.262	-1055
857.350	-1603
857.438	-1219
857.527	-738
857.615	-750
857.703	-1330
857.792	-852
857.880	-670
857.968	-1054
858.056	-1879
858.145	-686
858.233	-1471
858.321	-1317
858.409	-498
858.497	-1247
858.585	-1197
858.673	-450
858.761	-1103
858.849	-915
858.937	-1436
859.025	-493
859.113	-1176
859.201	-1334
859.289	-884
859.377	-1068
859.465	-1070
859.552	-94
859.640	-1218
859.728	-1005
859.816	-1279
859.903	-527
859.991	-1652
860.079	-843
860.166	-1050
860.254	-1497
860.342	-1719
860.429	-967
860.517	-1981
860.604	-839
860.692	-831
860.779	-645
860.867	-1553
860.954	-1011
861.042	-954
861.129	-841
861.216	-1336
861.304	-1637
861.391	-661
861.478	-497
861.565	-745
861.653	-740
861.740	-1860
861.827	-1412
861.914	-1052
862.001	-583
862.089	-928
862.176	-1046
862.263	-1725
862.350	-562
862.437	-715
862.524	-725
862.611	-1481
862.698	-987
862.785	-627
862.871	-587
862.958	-750
863.045	-325
863.132	-106
863.219	-242
863.306	-1775
863.392	-158
863.479	-1569
863.566	-1492
863.652	-1528
863.739	-298
863.826	-1349
863.912	-136
863.999	-1425
864.086	-931
864.172	-1223
864.259	-675
864.345	-980
864.432	-553
864.518	-692
864.604	-197
864.691	-1345
864.777	-293
864.863	-506
864.950	515
865.036	-192
865.122	1587
865.209	3529
865.295	2291
865.381	2340
865.467	1986
865.553	2163
865.639	2562
865.726	3636
865.812	6285
865.898	11146
865.984	17427
866.070	24180
866.156	40653
866.242	21890
866.328	6171
866.414	2378
866.499	1736
866.585	1911
866.671	2132
866.757	1296
866.843	2073
866.928	1112
867.014	692
867.100	1133
867.186	1318
867.271	542
867.357	1162
867.442	411
867.528	1603
867.614	1261
867.699	989
867.785	925
867.870	832
867.956	690
868.041	1426
868.127	834
868.212	1362
868.297	750
868.383	1433
868.468	1295
868.553	1047
868.639	519
868.724	1539
868.809	1135
868.894	849
868.979	619
869.065	1349
869.150	319
869.235	994
869.320	504
869.405	1094
869.490	580
869.575	517
869.660	1009
869.745	724
869.830	1638
869.915	806
870.000	703
870.085	279
870.169	453
870.254	1728
870.339	46
870.424	-48
870.509	559
870.593	639
870.678	1097
870.763	133
870.847	679
870.932	-153
871.016	281
871.101	502
871.186	98
871.270	706
871.355	391
871.439	654
871.523	950
871.608	609
871.692	-272
871.777	538
871.861	494
871.945	940
872.030	1250
872.114	1490
872.198	-22
872.282	-212
872.367	-154
872.451	458
872.535	204
872.619	207
872.703	487
872.787	425
872.871	603
872.955	410
873.039	220
873.123	260
873.207	900
873.291	135
873.375	-129
873.459	121
873.543	-439
873.627	533
873.711	-418
873.794	525
873.878	-443
873.962	-367
874.045	-233
874.129	47
874.137	4
874.213	-435
874.245	-227
874.296	108
874.352	-201
874.380	-359
874.460	-224
874.464	-219
874.547	-230
874.568	-130
874.631	155
874.676	512
874.714	803
874.784	627
874.798	588
874.881	1195
874.892	1062
874.965	207
874.999	299
875.048	356
875.107	661
875.131	780
875.215	-402
875.215	-401
875.298	-29
875.323	92
875.381	453
875.430	508
875.465	483
875.538	232
875.548	194
875.631	928
875.646	757
875.714	-116
875.753	-254
875.798	-270
875.861	814
875.881	1106
875.964	858
875.968	816
876.047	49
876.076	-13
876.130	6
876.183	458
876.213	671
876.291	1109
876.296	1128
876.379	179
876.398	232
876.462	396
876.506	230
876.545	208
876.613	326
876.628	363
876.711	778
876.721	798
876.794	947
876.828	952
876.877	725
876.935	652
876.960	732
877.043	424
877.043	425
877.125	1241
877.150	1420
877.208	1780
877.258	1499
877.291	1208
877.365	606
877.374	564
877.456	571
877.472	643
877.539	941
877.579	1083
877.622	1306
877.687	1477
877.704	1497
877.787	1154
877.794	1177
877.869	1639
877.901	1903
877.952	2064
878.008	1489
878.034	1163
878.115	542
878.117	548
878.199	832
878.222	988
878.282	1415
878.329	1838
878.364	2104
878.437	2506
878.447	2491
878.529	1242
878.544	1241
878.611	1384
878.651	977
878.694	1063
878.758	2247
878.776	2444
878.858	1919
878.865	1933
878.941	1810
878.972	1671
879.023	1529
879.078	887
879.105	870
879.185	1731
879.187	1750
879.269	2657
879.292	2657
879.351	2451
879.399	2700
879.433	2644
879.506	1790
879.516	1790
879.598	2130
879.613	2065
879.680	1489
879.720	1715
879.762	2223
879.827	2061
879.844	1896
879.926	1725
879.933	1722
880.007	2316
880.040	2381
880.089	2131
880.147	1728
880.171	1822
880.253	3048
880.254	3039
880.335	2105
880.360	2144
880.417	2851
880.467	2983
880.499	2915
880.574	2988
880.580	3012
880.662	3132
880.680	3101
880.744	2435
880.787	1931
880.825	1795
880.893	2004
880.907	2101
880.989	2521
881.000	2532
881.070	3099
881.106	3387
881.152	3156
881.213	2779
881.233	2622
881.315	1779
881.319	1770
881.396	2883
881.426	2980
881.478	2845
881.532	2991
881.559	3310
881.639	3736
881.641	3722
881.722	2838
881.745	2544
881.803	2731
881.852	2895
881.885	2943
881.958	3034
881.966	3023
882.047	2842
882.064	2786
882.129	2938
882.171	2778
882.210	2154
882.277	1367
882.291	1459
882.372	2109
882.383	2227
882.454	4236
882.489	4932
882.535	4386
882.596	4087
882.616	4355
882.697	4774
882.702	4765
882.778	3170
882.808	2825
882.859	2973
882.914	2839
882.940	2847
883.020	2658
883.021	2678
883.102	3558
883.127	4013
883.183	4781
883.233	4940
883.264	4367
883.339	3201
883.345	3169
883.426	2339
883.445	2232
883.507	2286
883.551	1910
883.587	2343
883.657	4036
883.668	4259
883.749	5350
883.763	5462
883.830	4082
883.869	3200
883.910	2728
883.975	2243
883.991	2410
884.072	2840
884.081	2940
884.152	4151
884.187	4574
884.233	5449
884.292	6517
884.314	5994
884.394	3480
884.398	3359
884.475	2297
884.504	1862
884.555	2068
884.610	2272
884.636	2477
884.716	3128
884.716	3155
884.797	5128
884.821	5761
884.877	5621
884.927	5367
884.958	4888
885.033	3445
885.038	3388
885.118	2403
885.139	2136
885.199	2416
885.244	2721
885.279	3206
885.350	3911
885.359	4128
885.439	6002
885.456	6370
885.520	6093
885.561	5893
885.600	4859
885.667	2680
885.680	2907
885.760	4744
885.773	4950
885.840	3718
885.878	3175
885.920	3152
885.984	2738
886.000	2967
886.080	4557
886.089	4662
886.160	4849
886.195	4990
886.240	5029
886.300	4931
886.320	4825
886.400	4551
886.406	4495
886.480	3998
886.511	3846
886.560	3982
886.616	4124
886.640	4179
886.720	4129
886.722	4113
886.800	3641
886.827	3420
886.879	3876
886.932	4313
886.959	4667
887.038	5609
887.039	5630
887.119	5391
887.143	5317
887.198	4844
887.248	4225
887.278	4168
887.354	4140
887.358	4191
887.437	4801
887.459	4948
887.517	5337
887.564	5627
887.596	5472
887.669	4969
887.676	4883
887.755	3618
887.774	3295
887.835	2923
887.880	2571
887.914	3037
887.985	4053
887.994	4235
888.073	5646
888.090	5932
888.153	7436
888.195	8313
888.232	7280
888.300	5428
888.311	5307
888.391	4145
888.405	3943
888.470	3489
888.510	3144
888.549	3481
888.615	4062
888.628	4283
888.708	5419
888.720	5596
888.787	6689
888.825	7224
888.866	5829
888.930	3604
888.945	3667
889.024	3918
889.035	3943
889.103	5346
889.140	6025
889.182	5527
889.245	4791
889.261	4937
889.340	5495
889.349	5541
889.419	5880
889.454	6010
889.498	5088
889.559	3764
889.577	4046
889.656	5220
889.664	5317
889.735	6124
889.768	6475
889.814	5905
889.873	5097
889.978	5999
890.083	4876
890.187	5427
890.292	7062
890.397	4668
890.501	5132
890.606	4171
890.710	4439
890.815	6815
890.919	5710
891.024	5454
891.128	4170
891.233	2700
891.337	5736
891.442	6419
891.546	6206
891.650	4380
891.755	4074
891.859	4344
891.963	6934
892.068	4587
892.172	4735
892.276	2448
892.380	4279
892.484	5415
892.589	7151
892.693	4619
892.797	3575
892.901	2374
893.005	3169
893.109	5856
893.213	7345
893.317	5096
893.421	3813
893.525	2641
893.629	3476
893.733	5594
893.837	5078
893.941	4951
894.045	3975
894.148	3259
894.252	3868
894.356	5244
894.460	8739
894.564	4831
894.667	5246
894.771	3219
894.875	2537
894.978	3393
895.082	5044
895.186	5602
895.289	4626
895.393	3594
895.496	5911
895.600	5434
895.703	2689
895.807	3549
895.910	4810
896.014	4782
896.117	4083
896.221	4132
896.324	5357
896.427	3072
896.531	2539
896.634	4126
896.737	4632
896.840	3870
896.944	5498
897.047	5655
897.150	5524
897.253	3546
897.356	2533
897.460	2368
897.563	3175
897.666	3997
897.769	5817
897.872	3591
897.975	3229
898.078	3361
898.181	3434
898.284	3526
898.387	5638
898.490	5483
898.593	3421
898.695	2920
898.798	3489
898.901	3390
899.004	3928
899.107	3080
899.209	2872
899.312	5740
899.415	4896
899.518	2601
899.620	2742
899.723	1941
899.826	4309
899.928	3619
900.031	3331
900.133	5265
900.236	4320
900.338	2867
900.441	2223
900.543	3392
900.646	4139
900.748	2992
900.851	5015
900.953	3415
901.055	2500
901.158	2592
901.260	3220
901.362	2642
901.465	2352
901.567	3781
901.669	5256
901.771	2796
901.873	3124
901.976	3006
902.078	3774
902.180	2402
902.282	2708
902.384	3261
902.486	5227
902.588	3771
902.690	2400
902.792	2139
902.894	3056
902.996	4316
903.098	4729
903.200	3131
903.302	2134
903.404	2800
903.505	2851
903.607	2663
903.709	5530
903.811	5102
903.913	4970
904.014	3339
904.116	2113
904.218	2337
904.319	3560
904.421	4909
904.523	3974
904.624	2828
904.726	2387
904.827	1700
904.929	2897
905.030	2021
905.132	3929
905.233	4663
905.335	1768
905.436	1980
905.537	2970
905.639	2730
905.740	2776
905.841	3794
905.943	3960
906.044	3068
906.145	2507
906.247	1468
906.348	3623
906.449	3906
906.550	4249
906.651	2805
906.752	3015
906.854	2853
906.955	3188
907.056	2595
907.157	4095
907.258	4879
907.359	2503
907.460	1855
907.561	1575
907.662	2424
907.762	3225
907.863	3139
907.964	4504
908.065	3069
908.166	2912
908.267	2731
908.367	2157
908.468	1647
908.569	3255
908.670	4686
908.770	3569
908.871	3209
908.971	3353
909.072	3187
909.173	1421
909.273	2403
909.374	4124
909.474	3486
909.575	2932
909.675	2267
909.776	3488
909.876	2690
909.977	3000
910.077	2693
910.177	3324
910.278	2865
910.378	1935
910.478	1828
910.579	3108
910.679	2406
910.779	3514
910.879	3938
910.980	3956
911.080	3995
911.180	2947
911.280	1423
911.380	2404
911.480	2395
911.580	2033
911.680	2866
911.780	3405
911.880	3598
911.980	2560
912.080	2129
912.180	2343
912.280	3096
912.380	3068
912.480	2506
912.580	2494
912.679	2693
912.779	3827
912.879	4220
912.979	3260
913.078	2151
913.178	2450
913.278	2304
913.377	2253
913.477	2526
913.577	2877
913.676	3521
913.776	4434
913.875	3413
913.975	3114
914.074	2778
914.174	3234
914.273	2163
914.373	2611
914.472	3169
914.572	2651
914.671	2502
914.770	2050
914.870	2526
914.969	2663
915.068	3087
915.167	3737
915.267	2617
915.366	3124
915.465	3121
915.564	2490
915.663	3361
915.763	4045
915.862	3617
915.961	4372
916.060	2647
916.159	1751
916.258	1599
916.357	2785
916.456	2932
916.555	3385
916.654	2638
916.752	3460
916.851	3612
916.950	2341
917.049	2148
917.148	3057
917.247	2716
917.345	1523
917.444	1915
917.543	2493
917.642	2881
917.740	3509
917.839	4340
917.937	5044
918.036	4226
918.135	3005
918.233	2079
918.332	2892
918.430	2780
918.529	2912
918.627	2804
918.726	4390
918.824	2862
918.923	2550
919.021	2406
919.119	2139
919.218	2631
919.316	2169
919.414	2666
919.512	3817
919.611	4011
919.709	3169
919.807	4217
919.905	5204
920.003	4310
920.102	4607
920.200	4678
920.298	3827
920.396	4658
920.494	4038
920.592	3554
920.690	4679
920.788	3595
920.886	4250
920.984	4741
921.082	5522
921.180	5087
921.277	5135
921.375	5994
921.473	8643
921.571	9204
921.669	8242
921.766	7203
921.864	7091
921.962	8071
922.060	7283
922.157	7034
922.255	7684
922.352	8173
922.450	9217
922.548	8812
922.645	10706
922.743	12676
922.840	19217
922.938	24470
923.035	21106
923.133	20209
923.230	23503
923.327	27428
923.425	27152
923.522	25163
923.619	24522
923.717	21146
923.814	21828
923.911	20283
924.008	21419
924.106	20068
924.203	19306
924.300	21720
924.397	20281
924.494	19779
924.591	20517
924.688	17919
924.786	20035
924.883	19974
924.979	20001
925.077	19871
925.173	18522
925.270	18713
925.367	19003
925.464	20275
925.561	19783
925.658	21045
925.755	16852
925.852	18955
925.948	19443
926.045	18536
926.142	18945
926.239	20301
926.335	15811
926.432	18650
926.529	19215
926.625	20780
926.722	18035
926.818	16875
926.915	19038
927.011	18644
927.108	17378
927.204	17781
927.301	15950
927.397	18123
927.494	21266
927.590	15146
927.687	13918
927.783	18605
927.879	20141
927.976	17343
928.072	14722
928.168	17229
928.264	18210
928.361	15193
928.457	18967
928.553	16264
928.649	14318
928.745	17412
928.841	14619
928.937	15717
929.033	16358
929.129	13886
929.225	18477
929.321	16550
929.417	12846
929.513	16790
929.609	15817
929.705	13473
929.801	16737
929.897	14462
929.993	13301
930.089	15414
930.184	13099
930.280	14095
930.376	17933
930.471	15024
930.567	12334
930.663	14251
930.758	12691
930.854	13084
930.950	14195
931.045	13128
931.141	13044
931.236	16236
931.332	15792
931.427	10265
931.523	14904
931.618	15270
931.714	10919
931.809	11090
931.905	16863
932.000	12226
932.095	9540
932.191	14750
932.286	17895
932.381	14731
932.476	10451
932.572	12964
932.667	10479
932.762	11085
932.857	12589
932.952	14649
933.047	13606
933.142	9452
933.237	11292
933.332	13460
933.427	14484
933.522	11820
933.617	9908
933.712	10223
933.807	13358
933.902	15333
933.997	15005
934.092	10838
934.187	10788
934.282	13106
934.376	12085
934.471	13888
934.566	11231
934.661	10000
934.755	11756
934.850	13429
934.945	11163
935.039	9535
935.134	8815
935.228	9440
935.323	16329
935.417	10793
935.512	8736
935.606	7897
935.701	10798
935.795	13284
935.890	11414
935.984	9948
936.079	7380
936.173	10697
936.267	9923
936.362	8568
936.456	10089
936.550	13487
936.644	12401
936.738	7508
936.833	8306
936.927	6809
937.021	8301
937.115	9896
937.209	11424
937.303	9642
937.397	7724
937.491	8209
937.585	10738
937.679	9889
937.773	8453
937.867	7567
937.961	6869
938.055	11463
938.149	11276
938.243	7062
938.337	5881
938.430	7941
938.524	11022
938.618	8817
938.712	7785
938.805	7238
938.899	9429
938.993	11545
939.086	8151
939.180	4039
939.274	6609
939.367	9514
939.461	10852
939.554	7372
939.648	6522
939.741	6836
939.835	9070
939.928	11544
940.022	10396
940.115	7643
940.208	9277
940.302	10548
940.395	12150
940.488	8204
940.582	7266
940.675	5879
940.768	5644
940.861	8441
940.954	11554
941.048	6499
941.141	4439
941.234	6399
941.327	8178
941.420	7944
941.513	8803
941.606	7268
941.699	5548
941.792	8609
941.885	7396
941.978	7461
942.071	7868
942.164	7016
942.257	5203
942.349	6713
942.442	8745
942.535	5512
942.628	6144
942.721	7278
942.813	6740
942.906	6648
942.999	7573
943.091	6016
943.184	6514
943.277	6792
943.369	5403
943.462	3656
943.554	6490
943.647	6515
943.739	7148
943.832	8993
943.924	5432
944.017	4292
944.109	4845
944.201	6515
944.294	5776
944.386	6544
944.478	6153
944.571	5932
944.663	5603
944.755	5746
944.847	7058
944.940	6397
945.032	5263
945.124	3853
945.216	6154
945.308	6612
945.400	5863
945.492	4807
945.584	6790
945.676	7847
945.768	6472
945.860	6708
945.952	8793
946.044	6427
946.136	5040
946.228	5570
946.320	4534
946.412	5946
946.503	7836
946.595	7625
946.687	5027
946.779	3832
946.870	3850
946.962	5335
947.054	5143
947.145	5492
947.237	6307
947.329	5444
947.420	6032
947.512	5436
947.603	4334
947.695	3681
947.786	4511
947.878	4249
947.969	5028
948.061	5638
948.152	5802
948.243	3194
948.335	3293
948.426	4017
948.517	5166
948.609	6024
948.700	5521
948.791	5125
948.882	3515
948.973	3887
949.065	4881
949.156	5757
949.247	3350
949.338	3974
949.429	3964
949.520	4570
949.611	5118
949.702	5970
949.793	4235
949.884	5126
949.975	3857
950.066	3324
950.157	3617
950.247	3805
950.338	4021
950.429	4162
950.520	4494
950.611	3268
950.701	4508
950.792	6138
950.883	6257
950.973	3271
951.064	5312
951.155	5693
951.245	6147
951.336	4730
951.427	5603
951.517	6707
951.608	5748
951.698	4193
951.788	3853
951.879	2975
951.969	3989
952.060	3420
952.150	4137
952.240	5657
952.331	5365
952.421	5038
952.511	3469
952.602	2276
952.692	2696
952.782	2189
952.872	3735
952.962	4598
953.052	3870
953.143	3767
953.233	3388
953.323	3971
953.413	4140
953.503	5305
953.593	4258
953.683	4165
953.773	2732
953.863	2726
953.953	1956
954.042	3086
954.132	5060
954.222	3823
954.312	3109
954.402	2672
954.492	3160
954.581	2744
954.671	3958
954.761	2891
954.850	4185
954.940	2147
955.030	2019
955.119	2387
955.209	3380
955.298	3608
955.388	4669
955.477	4542
955.567	3027
955.656	2168
955.746	3185
955.835	2335
955.925	2711
956.014	3715
956.103	4466
956.193	5204
956.282	4865
956.371	3691
956.461	3767
956.550	3676
956.639	2856
956.728	2488
956.817	3531
956.906	3428
956.995	4356
957.085	3165
957.174	3153
957.263	2672
957.352	2300
957.441	3797
957.530	2457
957.619	3280
957.708	3479
957.796	2949
957.885	2747
957.974	3341
958.063	3277
958.152	2422
958.241	2448
958.329	2346
958.418	2009
958.507	2838
958.596	4211
958.684	3356
958.773	3081
958.861	2415
958.950	1408
959.039	1535
959.127	2475
959.216	3197
959.304	3121
959.393	3223
959.481	3961
959.570	2129
959.658	2026
959.746	1729
959.835	3113
959.923	2473
960.011	2470
960.100	2538
960.188	3453
960.276	2550
960.365	2061
960.453	951
960.541	1707
960.629	1680
960.717	2317
960.805	1141
960.893	1590
960.981	2935
961.069	3478
961.158	4612
961.245	5364
961.333	4281
961.421	3808
961.509	2665
961.597	3093
961.685	2611
961.773	2124
961.861	3318
961.949	3737
962.036	2994
962.124	2428
962.212	2467
962.299	2485
962.387	1781
962.475	2247
962.562	1910
962.650	3310
962.738	2571
962.825	1756
962.913	2361
963.000	1991
963.088	3481
963.175	3131
963.263	2084
963.350	2158
963.438	2116
963.525	2124
963.612	1506
963.700	2225
963.787	2134
963.874	2592
963.962	1613
964.049	1502
964.136	1141
964.223	1375
964.310	1276
964.398	2538
964.485	1724
964.572	1947
964.659	2981
964.746	1870
964.833	1774
964.920	2168
965.007	1856
965.094	1950
965.181	1994
965.268	2927
965.355	1678
965.441	1966
965.528	1897
965.615	3089
965.702	1951
965.789	1980
965.875	2235
965.962	2758
966.049	2028
966.136	4208
966.222	2987
966.309	3103
966.395	2828
966.482	2619
966.569	1734
966.655	2544
966.742	2540
966.828	2131
966.915	1957
967.001	1782
967.087	1349
967.174	1503
967.260	1917
967.347	1932
967.433	2241
967.519	1947
967.605	1848
967.692	2073
967.778	2295
967.864	2413
967.950	1831
968.036	2171
968.123	3036
968.209	2611
968.295	851
968.381	2194
968.467	1850
968.553	750
968.639	2112
968.725	2197
968.811	1374
968.897	3034
968.983	1899
969.069	2076
969.154	1130
969.240	1595
969.326	1419
969.412	1494
969.497	913
969.583	2448
969.669	2045
969.755	2371
969.840	2069
969.926	4926
970.012	4962
970.097	5266
970.183	4939
970.268	3524
970.354	2536
970.439	1969
970.525	1985
970.610	2375
970.696	2397
970.781	1748
970.866	1171
970.952	1256
971.037	1463
971.122	2486
971.208	2162
971.293	1924
971.378	1233
971.463	1617
971.549	1636
971.634	1428
971.719	2068
971.804	2331
971.889	1602
971.974	1197
972.059	2160
972.144	2042
972.229	2065
972.314	1994
972.399	1866
972.484	1613
972.569	1035
972.654	2113
972.739	1899
972.824	1275
972.908	1516
972.993	1063
973.078	1305
973.163	1751
973.247	1114
973.332	1365
973.417	1425
973.501	1563
973.586	2976
973.671	1791
973.755	1797
973.840	1709
973.924	1598
974.009	2934
974.093	2573
974.178	4372
974.262	2181
974.346	2314
974.431	2412
974.515	1849
974.600	2779
974.684	2326
974.768	1766
974.852	2344
974.937	2539
975.021	3061
975.105	1596
975.189	1782
975.273	1763
975.358	1751
975.442	1116
975.526	1520
975.610	1515
975.694	1671
975.778	2582
975.862	1687
975.946	759
976.030	2546
976.114	1744
976.198	1355
976.281	1059
976.365	3336
976.449	1210
976.533	1780
976.617	1100
976.700	1447
976.784	1724
976.868	955
976.951	1423
977.035	2171
977.119	1639
977.202	1839
977.286	2901
977.369	2425
977.453	3923
977.536	4961
977.620	3907
977.703	3134
977.787	2227
977.870	2994
977.953	2856
978.037	1632
978.120	2032
978.203	1394
978.287	1352
978.370	2927
978.453	1239
978.536	2109
978.620	2337
978.703	2471
978.786	1965
978.869	1603
978.952	953
979.035	3122
979.118	1831
979.201	1800
979.284	2219
979.367	1314
979.450	1495
979.533	2015
979.616	1623
979.699	2225
979.782	1711
979.865	799
979.948	1747
980.030	1186
980.113	1629
980.196	1705
980.279	1906
980.361	1911
980.444	1645
980.526	3260
980.609	3357
980.692	5524
980.774	4625
980.857	3467
980.939	3251
981.022	2659
981.104	2550
981.187	1635
981.269	2912
981.352	2436
981.434	1766
981.516	1974
981.599	2991
981.681	1858
981.763	2387
981.846	2863
981.928	1797
982.010	2404
982.092	2559
982.174	2306
982.256	2375
982.339	2276
982.421	1751
982.503	2291
982.585	1198
982.667	2078
982.749	2412
982.831	2402
982.913	1870
982.995	2974
983.077	2362
983.158	3222
983.240	1950
983.322	3072
983.404	5378
983.486	4738
983.568	4414
983.649	3436
983.731	3652
983.813	3293
983.894	2867
983.976	3543
984.058	3392
984.139	3389
984.221	2834
984.302	3518
984.384	2693
984.465	2923
984.547	3156
984.628	3532
984.710	3585
984.791	3378
984.872	3323
984.954	3100
985.035	3575
985.116	2856
985.198	2315
985.279	4022
985.360	3439
985.441	2454
985.522	3319
985.604	3669
985.685	1388
985.766	3197
985.847	3600
985.928	2816
986.009	2344
986.090	3026
986.171	3653
986.252	2453
986.333	2993
986.414	3973
986.495	3099
986.576	4104
986.656	3650
986.737	4133
986.818	3872
986.899	3965
986.980	4002
987.060	3469
987.141	4128
987.222	4247
987.302	5146
987.383	5246
987.464	4579
987.544	5198
987.625	5124
987.705	4338
987.786	5342
987.866	5364
987.947	4916
988.027	4313
988.108	4482
988.188	4556
988.268	4225
988.349	4343
988.429	4908
988.509	4440
988.589	3739
988.670	3169
988.750	4698
988.830	3217
988.910	4162
988.990	3815
989.070	3740
989.151	4134
989.231	3439
989.311	3264
989.391	2997
989.471	3807
989.551	3155
989.631	4666
989.711	3717
989.791	3067
989.870	2443
989.950	3588
990.030	3599
990.110	3959
990.190	2775
990.269	2867
990.349	3125
990.429	3621
990.509	3427
990.588	2992
990.668	2954
990.747	4025
990.827	2724
990.907	3456
990.986	3737
991.066	4256
991.145	1780
991.225	2306
991.304	3070
991.383	3101
991.463	2979
991.542	3146
991.622	1940
991.701	1997
991.780	2343
991.859	2470
991.939	1876
992.018	2714
992.097	2597
992.176	2246
992.256	1927
992.335	2639
992.414	3166
992.493	2596
992.572	1307
992.651	1488
992.730	1965
992.809	2226
992.888	1993
992.967	1915
993.046	2605
993.125	1187
993.203	1480
993.282	1924
993.361	2010
993.440	1972
993.519	810
993.597	2354
993.676	1542
993.755	2349
993.834	1588
993.912	1818
993.991	1614
994.069	1448
994.148	2627
994.226	919
994.305	1291
994.384	1582
994.462	2024
994.540	1831
994.619	1214
994.697	1214
994.776	1922
994.854	1556
994.932	598
995.011	2399
995.089	630
995.167	1460
995.245	2409
995.324	1216
995.402	1841
995.480	1195
995.558	1063
995.636	852
995.714	1318
995.792	1978
995.870	1614
995.948	1667
996.026	1408
996.104	485
996.182	1294
996.260	1280
996.338	1139
996.416	1472
996.494	698
996.572	1562
996.649	357
996.727	265
996.805	669
996.883	450
996.960	399
997.038	1820
997.116	1552
997.193	840
997.271	84
997.348	-515
997.426	160
997.504	453
997.581	1061
997.658	1389
997.736	157
997.813	443
997.891	794
997.968	514
998.046	-331
998.123	762
998.200	1513
998.277	443
998.355	1134
998.432	-349
998.509	428
998.586	561
998.663	951
998.741	743
998.818	1
998.895	-529
998.972	345
999.049	631
999.126	-485
999.203	413
999.280	-119
999.357	1213
999.434	3
999.511	376
999.587	382
999.664	-201
999.741	123
999.818	1064
999.895	-328
999.971	-226
1000.048	277
1000.125	-694
1000.202	-560
1000.278	317
1000.355	1227
1000.431	-433
1000.508	-247
1000.584	170
1000.661	-243
1000.738	76
1000.814	-781
1000.890	412
1000.967	-383
1001.043	226
1001.120	-611
1001.196	-25
1001.272	-656
1001.349	410
1001.425	12
1001.501	276
1001.577	-468
1001.654	167
1001.730	250
1001.806	-1144
1001.882	-659
1001.958	-16
1002.034	746
1002.110	-41
1002.186	57
1002.262	-247
1002.338	-441
1002.414	963
1002.490	-508
1002.566	149
1002.642	-610
1002.718	427
1002.794	-440
1002.870	-434
1002.945	-647
1003.021	-673
1003.097	-1420
1003.173	574
1003.248	-809
1003.324	-387
1003.400	-41
1003.475	-68
1003.551	-663
1003.626	62
1003.702	-1095
1003.777	-592
1003.853	-474
1003.928	-1397
1004.004	-769
1004.079	42
1004.155	-438
1004.230	-272
1004.305	82
1004.381	-387
1004.456	-1078
1004.531	-688
1004.607	-855
1004.682	-995
1004.757	-751
1004.832	149
1004.907	-683
1004.982	117
1005.057	-620
1005.133	-47
1005.208	-525
1005.283	-817
1005.358	-376
1005.433	-525
1005.508	-191
1005.583	-1392
1005.657	-916
1005.732	-46
1005.807	-1338
1005.882	-651
1005.957	-267
1006.032	-855
1006.106	-737
1006.181	-436
1006.256	-351
1006.331	-655
1006.405	-1290
1006.480	-86
1006.554	-1943
1006.629	-444
1006.704	-1240
1006.778	-1038
1006.853	-213
1006.927	-507
1007.002	-734
1007.076	-496
1007.150	-903
1007.225	-1364
1007.299	-622
1007.373	-863
1007.448	-1065
1007.522	-293
1007.596	-1356
1007.671	-1409
1007.745	-925
1007.819	-521
1007.893	-581
1007.967	-654
1008.041	-1301
1008.115	-723
1008.190	-1465
1008.264	-704
1008.338	-1993
1008.412	-573
1008.486	-920
1008.560	-1225
1008.633	-761
1008.707	-205
1008.781	-427
1008.855	-666
1008.929	-1027
1009.003	-1072
1009.076	-1270
1009.150	-1013
1009.224	-1136
1009.298	-808
1009.371	-617
1009.445	-577
1009.519	-277
1009.592	-1025
1009.666	-1111
1009.739	-1512
1009.813	-1376
1009.886	-825
1009.960	-1735
1010.033	-796
1010.107	-369
1010.180	-1366
1010.253	-1003
1010.327	-1609
1010.400	-1159
1010.473	-1315
1010.547	-457
1010.620	-1163
1010.693	-1529
1010.766	-1134
1010.840	-625
1010.913	-942
1010.986	-1691
1011.059	-1277
1011.132	-1342
1011.205	-766
1011.278	-1337
1011.351	-1465
1011.424	-882
1011.497	-1390
1011.570	-982
1011.643	-1844
1011.716	-1429
1011.789	-1445
1011.862	-1522
1011.934	-928
1012.007	-2088
1012.080	-870
1012.153	-1453
1012.225	-1148
1012.298	-1663
1012.371	-1135
1012.443	-1497
1012.516	-389
1012.588	-1438
1012.661	-1426
1012.733	-2161
1012.806	-1067
1012.879	-1867
1012.951	-617
1013.023	-1133
1013.096	-1921
1013.168	-906
1013.241	-1036
1013.313	-1530
1013.385	-1301
1013.458	-1249
1013.530	-1129
1013.602	-1830
1013.674	-836
1013.746	-1400
1013.819	-1080
1013.891	-1298
1013.963	-1542
1014.035	-1296
1014.107	-386
1014.179	-1010
1014.251	-1045
1014.323	-797
1014.395	-1167
1014.467	-1330
1014.539	-1494
1014.611	-1225
1014.683	-1460
1014.754	-1454
1014.826	-1651
1014.898	-1170
1014.970	-1239
1015.042	-146
1015.113	-1311
1015.185	-970
1015.257	-859
1015.328	-820
1015.400	-1272
1015.471	-1487
1015.543	-1838
1015.615	-1679
1015.686	-1000
1015.757	-2061
1015.829	-1541
1015.901	-1338
1015.972	-1167
1016.043	-2290
1016.115	-1745
1016.186	-1131
1016.257	-1114
1016.328	-975
1016.400	-1568
1016.471	-2267
1016.542	-2147
1016.613	-1296
1016.685	-1027
1016.756	-1160
1016.827	-945
1016.898	-1678
1016.969	-696
1017.040	-1825
1017.111	-1852
1017.182	-2138
1017.253	-1423
1017.324	-1874
1017.395	-1522
1017.466	-799
1017.537	-1162
1017.608	-1236
1017.678	-1325
1017.749	-1533
1017.820	-1022
1017.891	-1297
1017.961	-1627
1018.032	-2434
1018.103	-1674
1018.173	-2209
1018.244	-1510
1018.315	-1340
1018.385	-513
1018.456	-1978
1018.526	-1800
1018.597	-1703
1018.667	-954
1018.738	-1819
1018.808	-1082
1018.878	-1779
1018.949	-1596
1019.019	-2011
1019.089	-2252
1019.160	-1529
1019.230	-2200
1019.300	-1170
1019.371	-1488
1019.441	-1225
1019.511	-1152
1019.581	-2155
1019.651	-1403
1019.721	-1749
1019.791	-1612
1019.861	-1649
1019.931	-1460
1020.001	-1719
1020.071	-1010
1020.141	-1695
1020.211	-1116
1020.281	-1948
1020.351	-1795
1020.421	-1084
1020.491	-1195
1020.560	-2194
1020.630	-1667
1020.700	-990
1020.770	-1925
1020.839	-1609
1020.909	-1463
1020.979	-1642
1021.048	-1892
1021.118	-2008
1021.187	-1610
1021.257	-1988
1021.326	-921
1021.396	-1521
1021.465	-879
1021.535	-1384
1021.604	-1471
1021.674	-1914
1021.743	-913
1021.812	-1781
1021.882	-2036
1021.951	-1645
1022.020	-1215
1022.089	-1472
1022.159	-2029
1022.228	-2222
1022.297	-1955
1022.366	-1871
1022.435	-2039
1022.504	-1630
1022.573	-1255
1022.642	-1500
1022.711	-846
1022.781	-1383
1022.849	-1859
1022.918	-1450
1022.987	-1483
1023.056	-1788
1023.125	-2250
1023.194	-1758
1023.263	-1445
1023.331	-1389
1023.400	-1586
1023.469	-1983
1023.538	-1044
1023.606	-2297
1023.675	-1532
1023.744	-1888
1023.812	-1913
1023.881	-1749
1023.949	-2107
1024.018	-1834
1024.086	-1704
1024.155	-2150
1024.223	-2056
1024.292	-1691
1024.360	-1775
1024.429	-1993
1024.497	-1884
1024.565	-1600
1024.634	-1986
1024.702	-1970
1024.770	-1487
1024.838	-2088
1024.907	-1468
1024.975	-2119
1025.043	-1515
1025.111	-1642
1025.179	-1321
1025.247	-1359
1025.315	-1946
1025.383	-2350
1025.451	-1705
1025.519	-1890
1025.587	-943
1025.655	-1070
1025.723	-1842
1025.791	-2202
1025.859	-1549
1025.927	-1998
1025.995	-2181
1026.062	-824
1026.130	-1679
1026.198	-2335
1026.266	-1917
1026.333	-1805
1026.401	-1112
1026.469	-1673
1026.536	-1321
1026.604	-1171
1026.671	-1750
1026.739	-1597
1026.806	-1640
1026.874	-1922
1026.941	-1622
1027.009	-1619
1027.076	-1777
1027.144	-1972
1027.211	-1314
1027.278	-1482
1027.345	-1699
1027.413	-1907
1027.480	-2555
1027.547	-1478
1027.614	-2533
1027.682	-1689
1027.749	-1653
1027.816	-1545
1027.883	-1853
1027.950	-1861
1028.017	-2860
1028.084	-1788
1028.151	-1801
1028.218	-2279
1028.285	-1881
1028.352	-2717
1028.419	-2367
1028.486	-2024
1028.553	-1311
1028.619	-1869
1028.686	-1219
1028.753	-2462
1028.820	-1699
1028.886	-1850
1028.953	-1795
1029.020	-1672
1029.086	-1100
1029.153	-2111
1029.220	-1921
1029.286	-1929
1029.353	-1410
1029.419	-1791
1029.486	-1989
1029.552	-1992
1029.619	-2082
1029.685	-1666
1029.751	-1667
1029.818	-1411
1029.884	-2102
1029.951	-1236
1030.017	-2078
1030.083	-1607
1030.149	-2045
1030.216	-2114
1030.282	-1238
1030.348	-2218
1030.414	-1683
1030.480	-2298
1030.546	-1882
1030.612	-1707
1030.678	-2121
1030.744	-2204
1030.810	-1865
1030.876	-2415
1030.942	-2262
1031.008	-1987
1031.074	-1909
1031.140	-1792
1031.206	-2231
1031.272	-2278
1031.337	-1362
1031.403	-2530
1031.469	-1767
1031.534	-1638
1031.600	-2039
1031.666	-2623
1031.731	-2357
1031.797	-2400
1031.863	-1489
1031.928	-2265
1031.994	-2104
1032.059	-2323
1032.125	-1717
1032.190	-1959
1032.256	-2552
1032.321	-2049
1032.386	-1888
1032.452	-1613
1032.517	-1618
1032.582	-2181
1032.647	-2028
1032.713	-2338
1032.778	-1714
1032.843	-2670
1032.908	-2367
1032.974	-1813
1033.039	-2141
1033.104	-1735
1033.169	-2189
1033.234	-1864
1033.299	-1470
1033.364	-1931
1033.429	-2002
1033.494	-2099
1033.559	-1858
1033.624	-2030
1033.688	-1905
1033.753	-1807
1033.818	-1263
1033.883	-2154
1033.948	-1203
1034.013	-1756
1034.077	-1725
1034.142	-1001
1034.207	-1125
1034.271	-495
1034.336	-903
1034.400	402
1034.465	-791
1034.530	-1713
1034.594	-1162
1034.658	-1934
1034.723	-2323
1034.787	-2967
1034.852	-1980
1034.916	-3044
1034.981	-1811
1035.045	-1089
1035.109	-2360
1035.173	-1872
1035.238	-1881
1035.302	-1996
1035.366	-2196
1035.430	-1954
1035.495	-2457
1035.559	-1429
1035.623	-1753
1035.687	-1877
1035.751	-1634
1035.815	-2680
1035.879	-1862
1035.943	-2051
1036.007	-2252
1036.071	-1786
1036.135	-2052
1036.198	-2010
1036.262	-2144
1036.326	-1698
1036.390	-1778
1036.454	-1714
1036.517	-1872
1036.581	-2494
1036.645	-1812
1036.709	-1291
1036.772	-1564
1036.836	-1738
1036.900	-1357
1036.963	-2198
1037.026	-1439
1037.090	-2507
1037.154	-1703
1037.217	-1996
1037.280	-1745
1037.344	-2580
1037.407	-1474
1037.471	-1719
1037.534	-1901
1037.597	-2471
1037.661	-1320
1037.724	-2451
1037.787	-2754
1037.850	-2025
1037.913	-2534
1037.977	-1473
1038.040	-1992
1038.103	-1848
1038.166	-2188
1038.229	-2669
1038.292	-2092
1038.355	-2171
1038.418	-2455
1038.481	-2269
1038.544	-1587
1038.607	-2096
1038.670	-1522
1038.732	-1762
1038.795	-1708
1038.858	-2701
1038.921	-2007
1038.984	-1904
1039.046	-1949
1039.109	-2199
1039.172	-2259
1039.234	-2172
1039.297	-2667
1039.360	-2246
1039.422	-1919
1039.485	-2235
1039.547	-1599
1039.610	-2016
1039.672	-2372
1039.734	-2280
1039.797	-1796
1039.859	-2208
1039.922	-2428
1039.984	-1994
1040.046	-2511
1040.109	-1678
1040.171	-3322
1040.233	-1908
1040.295	-2475
1040.358	-2849
1040.420	-2178
1040.482	-2485
1040.544	-2609
1040.606	-2404
1040.668	-1822
1040.730	-2164
1040.792	-2079
1040.854	-2459
1040.916	-1971
1040.978	-2968
1041.040	-1991
1041.102	-1824
1041.164	-2250
1041.225	-2213
1041.287	-1402
1041.349	-1727
1041.411	-2641
1041.472	-2175
1041.534	-1544
1041.596	-2672
1041.657	-1695
1041.719	-2180
1041.781	-2166
1041.842	-2653
1041.904	-1728
1041.965	-2893
1042.027	-2147
1042.088	-2400
1042.150	-2659
1042.211	-2202
1042.272	-1651
1042.334	-2042
1042.395	-2024
1042.456	-1486
1042.518	-1562
1042.579	-1981
1042.640	-2048
1042.701	-1806
1042.763	-1454
1042.824	-1608
1042.885	-1577
1042.946	-1926
1043.007	-2070
1043.068	-2563
1043.129	-2328
1043.190	-1885
1043.251	-2422
1043.312	-2048
1043.373	-1650
1043.434	-1995
1043.495	-1860
1043.556	-2246
1043.616	-1617
1043.677	-2070
1043.738	-2066
1043.799	-2264
1043.859	-2000
1043.920	-3080
1043.981	-1426
1044.041	-2783
1044.102	-2319
1044.162	-2045
1044.223	-1123
1044.284	-2831
1044.344	-1356
1044.405	-1875
1044.465	-1134
1044.525	-2394
1044.586	-2583
1044.646	-2405
1044.707	-2099
1044.767	-1866
1044.827	-1850
1044.887	-1917
1044.948	-1734
1045.008	-2033
1045.068	-1770
1045.128	-1658
1045.188	-1960
1045.249	-2583
1045.309	-1930
1045.369	-2036
1045.429	-2111
1045.489	-2274
1045.549	-2030
1045.609	-1735
1045.669	-2015
1045.729	-1949
1045.789	-1829
1045.848	-2449
1045.908	-1542
1045.968	-1344
1046.028	-2055
1046.088	-1332
1046.147	-927
1046.207	-1999
1046.267	-1934
1046.326	-1662
1046.386	-1455
1046.446	-1297
1046.505	-877
1046.565	-1394
1046.624	-1752
1046.684	-1401
1046.743	-1260
1046.803	-1261
1046.862	-290
1046.922	0
