'Start Wavelength	183.907
'End Wavelength	1046.922
'Gate Delay	5.000
'Gate Width (ms)	1.050
'Laser Output Level	0.000
'X Position	0.000
'Y Position	0.000
'Z Position	0.000
'Grid Point Number	1.000
'Shot Number	100.000
183.907	684.000
183.977	329.000
184.047	729
184.116	417
184.186	-234
184.256	444
184.325	479
184.395	492
184.465	232
184.534	-86
184.604	528
184.674	-378
184.743	234
184.813	-274
184.883	-206
184.952	360
185.022	483
185.092	367
185.161	1014
185.231	325
185.301	894
185.370	-278
185.440	566
185.509	-30
185.579	306
185.649	976
185.718	604
185.788	780
185.857	233
185.927	673
185.996	551
186.066	796
186.136	-139
186.205	445
186.275	33
186.344	563
186.414	647
186.483	871
186.553	1544
186.622	2090
186.692	1263
186.761	531
186.831	1154
186.900	355
186.970	220
187.039	937
187.109	2197
187.178	1011
187.248	1409
187.317	597
187.387	726
187.456	1728
187.526	2020
187.595	1132
187.664	1691
187.734	1375
187.803	1590
187.873	1333
187.942	2233
188.012	591
188.081	1652
188.150	1502
188.220	2715
188.289	1376
188.358	1233
188.428	835
188.497	1238
188.567	1162
188.636	1101
188.705	352
188.775	1293
188.844	825
188.913	1300
188.983	1420
189.052	1888
189.121	1227
189.191	2148
189.260	2938
189.329	2625
189.399	1487
189.468	1955
189.537	1022
189.606	1810
189.676	1604
189.745	1657
189.814	1643
189.883	1554
189.953	2583
190.022	4833
190.091	11706
190.161	8709
190.230	3131
190.299	2436
190.368	1657
190.437	2323
190.507	1218
190.576	2224
190.645	1254
190.714	897
190.783	1411
190.853	1531
190.922	2016
190.991	1988
191.060	2276
191.129	1818
191.198	1290
191.268	1288
191.337	896
191.406	2701
191.475	1577
191.544	1469
191.613	1829
191.682	1599
191.752	1617
191.821	2223
191.890	1507
191.959	1869
192.028	1339
192.097	2664
192.166	1170
192.235	1908
192.304	2116
192.373	1336
192.442	1212
192.511	1628
192.580	1852
192.650	1531
192.719	2205
192.788	1821
192.857	2267
192.926	2398
192.995	4842
193.064	6384
193.133	6297
193.202	8507
193.271	6289
193.340	5557
193.409	6349
193.478	7125
193.547	10291
193.615	12234
193.684	9740
193.753	6052
193.822	5131
193.891	2717
193.960	3081
194.029	3851
194.098	3045
194.167	2420
194.236	2890
194.305	2550
194.374	1705
194.443	2768
194.512	2478
194.580	2612
194.649	3834
194.718	2970
194.787	2468
194.856	2063
194.925	3057
194.994	3875
195.062	2509
195.131	4002
195.200	3944
195.269	5098
195.338	2792
195.407	2856
195.475	2994
195.544	3599
195.613	3203
195.682	3304
195.751	4574
195.819	4518
195.888	2718
195.957	4971
196.026	3977
196.094	4646
196.163	4717
196.232	3509
196.301	3401
196.369	4544
196.438	3092
196.507	3664
196.576	2717
196.644	2694
196.713	3118
196.782	2652
196.850	3015
196.919	3777
196.988	3411
197.056	2432
197.125	3660
197.194	3861
197.262	2824
197.331	3644
197.400	2989
197.468	3266
197.537	3696
197.606	4705
197.674	8541
197.743	9321
197.812	5862
197.880	11448
197.949	7002
198.017	10544
198.086	5168
198.155	4239
198.223	7351
198.292	11330
198.360	4784
198.429	5150
198.497	3994
198.566	12402
198.635	8162
198.703	5461
198.772	7713
198.840	17185
198.909	8681
198.977	5603
199.046	3925
199.114	4551
199.183	4358
199.251	3716
199.320	3706
199.388	2950
199.457	3412
199.525	4245
199.594	3305
199.662	3710
199.731	3864
199.799	4475
199.867	4752
199.936	4414
200.004	3239
200.073	4427
200.141	3493
200.210	4290
200.278	3110
200.346	4426
200.415	5699
200.483	5351
200.552	4887
200.620	4209
200.688	3852
200.757	4616
200.825	4168
200.893	4325
200.962	4237
201.030	3810
201.098	4092
201.167	4741
201.235	4728
201.303	5017
201.372	4251
201.440	4503
201.508	4397
201.577	4688
201.645	4622
201.713	4412
201.781	4818
201.850	5462
201.918	5122
201.986	5108
202.055	4230
202.123	4569
202.191	4434
202.259	4046
202.327	4566
202.396	4700
202.464	5356
202.532	7771
202.600	13244
202.669	6695
202.737	5197
202.805	4880
202.873	4903
202.941	4482
203.009	4749
203.078	4848
203.146	5122
203.214	4894
203.282	4483
203.350	4947
203.418	4695
203.487	4625
203.555	4995
203.623	5116
203.691	5677
203.759	4833
203.827	4982
203.895	6645
203.963	5503
204.031	5532
204.099	5371
204.168	5498
204.236	5811
204.304	5711
204.372	5851
204.440	6190
204.508	5322
204.576	5006
204.644	5239
204.712	4652
204.780	5356
204.848	5374
204.916	4952
204.984	5231
205.052	5281
205.120	5740
205.188	5349
205.256	5159
205.324	5855
205.392	5479
205.460	7111
205.528	6409
205.596	6381
205.664	6814
205.732	8910
205.799	25727
205.867	18040
205.935	7388
206.003	7114
206.071	7282
206.139	7588
206.207	7269
206.275	6045
206.343	5692
206.411	6583
206.478	5568
206.546	7344
206.614	6133
206.682	6417
206.750	6753
206.818	9306
206.885	7029
206.953	6041
207.021	6129
207.089	5931
207.157	6648
207.225	6600
207.292	6129
207.360	7689
207.428	7007
207.496	6004
207.563	6707
207.631	6567
207.699	6194
207.767	6372
207.834	6715
207.902	7209
207.970	7258
208.038	7557
208.105	7007
208.173	9556
208.241	10336
208.309	9832
208.376	10231
208.444	15103
208.512	8622
208.579	7299
208.647	9338
208.715	7804
208.782	7515
208.850	7216
208.918	7788
208.985	7270
209.053	8163
209.120	6983
209.188	7435
209.256	6614
209.323	9413
209.391	9282
209.459	8245
209.526	6575
209.594	7589
209.661	7351
209.729	8376
209.796	8014
209.864	8754
209.932	8184
209.999	8077
210.067	9413
210.134	8004
210.202	9277
210.269	10521
210.337	9105
210.404	7611
210.472	8076
210.539	8026
210.607	9858
210.674	9152
210.742	7924
210.809	8375
210.877	10070
210.944	9680
211.012	8759
211.079	8570
211.146	8277
211.214	9486
211.281	11902
211.349	9734
211.416	9785
211.484	10942
211.551	9186
211.618	8561
211.686	8813
211.753	8493
211.821	8894
211.888	9065
211.955	9488
212.023	8740
212.090	10114
212.157	9885
212.225	13183
212.292	22836
212.359	43091
212.427	55439
212.494	23431
212.561	14603
212.629	12132
212.696	11606
212.763	10129
212.831	10712
212.898	9854
212.965	9635
213.032	9465
213.100	11347
213.167	11376
213.234	11538
213.301	10286
213.369	9697
213.436	9456
213.503	9913
213.570	11128
213.638	11248
213.705	9242
213.772	9437
213.839	13899
213.906	10981
213.973	11144
214.041	9705
214.108	10270
214.175	9666
214.242	9447
214.309	10419
214.376	11883
214.444	11563
214.511	12098
214.578	10568
214.645	11632
214.712	12556
214.779	11294
214.846	12410
214.913	12603
214.980	13808
215.048	13710
215.115	13991
215.182	12422
215.249	11302
215.316	10474
215.383	10120
215.450	10068
215.517	9993
215.584	9614
215.651	9699
215.718	9169
215.785	10866
215.852	10724
215.919	10527
215.986	10414
216.053	9512
216.120	8962
216.187	10195
216.254	10169
216.321	11217
216.388	11170
216.455	12295
216.522	12079
216.589	14953
216.656	21267
216.722	16913
216.789	16652
216.856	16093
216.923	15451
216.990	14758
217.057	14483
217.124	17296
217.191	18193
217.258	20501
217.324	22896
217.391	20513
217.458	17633
217.525	14479
217.592	14006
217.659	14286
217.725	13106
217.792	18064
217.859	12330
217.926	10405
217.993	9697
218.059	9612
218.126	8731
218.193	8471
218.260	8476
218.327	7915
218.393	8853
218.460	7809
218.527	8281
218.594	10924
218.660	15764
218.727	13141
218.794	8117
218.860	8267
218.927	7387
218.994	7404
219.061	8164
219.127	11044
219.194	11752
219.261	7619
219.327	7525
219.394	7616
219.461	7118
219.527	7301
219.594	11491
219.661	7519
219.727	6153
219.794	8793
219.860	7997
219.927	8896
219.994	16827
220.060	18840
220.127	13766
220.193	13845
220.260	17188
220.326	25050
220.393	35457
220.460	33880
220.526	23732
220.593	19820
220.659	19579
220.726	25778
220.792	41740
220.859	40391
220.925	54806
220.992	54649
221.058	54716
221.125	44450
221.191	31795
221.258	18565
221.324	14507
221.391	13156
221.457	11077
221.524	11862
221.590	20323
221.657	43727
221.723	22279
221.789	29767
221.856	20601
221.922	12957
221.989	9801
222.055	9486
222.121	10590
222.188	10369
222.254	9069
222.321	7727
222.387	6939
222.453	6794
222.520	7076
222.586	7369
222.652	7241
222.719	7090
222.785	7632
222.851	5942
222.918	6707
222.984	7964
223.050	7752
223.116	7333
223.183	6560
223.249	6321
223.315	5485
223.382	6047
223.448	6287
223.514	5780
223.580	5196
223.647	6287
223.713	5854
223.779	5362
223.845	6117
223.911	6252
223.978	5424
224.044	6611
224.110	5450
224.176	5731
224.242	5842
224.309	5392
224.375	5240
224.441	5309
224.507	4781
224.573	5843
224.639	5371
224.705	5126
224.772	4419
224.838	6196
224.904	6135
224.970	5754
225.036	6392
225.102	6857
225.168	6387
225.234	6321
225.300	6825
225.366	5705
225.432	5493
225.499	6271
225.565	8609
225.631	8234
225.697	8624
225.763	10909
225.829	12338
225.895	15256
225.961	18072
226.027	16116
226.093	16099
226.159	21684
226.225	39295
226.291	82096
226.357	78490
226.423	42740
226.489	27033
226.554	20625
226.620	20532
226.686	28778
226.752	43947
226.818	81951
226.884	112619
226.950	77423
227.016	38341
227.082	25888
227.148	20530
227.214	17747
227.279	14755
227.345	12623
227.411	11522
227.477	15665
227.543	25856
227.609	19771
227.674	13166
227.740	10924
227.806	10525
227.872	9414
227.938	11278
228.003	14002
228.069	8399
228.135	8396
228.201	8069
228.267	8448
228.332	10694
228.398	13197
228.464	7491
228.530	7026
228.595	6474
228.661	8771
228.727	13010
228.792	8668
228.858	8534
228.924	10647
228.990	10588
229.055	11958
229.121	9142
229.187	7763
229.252	8287
229.318	6413
229.384	8067
229.449	8548
229.515	5902
229.581	4629
229.646	7084
229.712	9656
229.777	21501
229.843	14131
229.909	14270
229.974	14263
230.040	12056
230.105	11047
230.171	13591
230.236	20011
230.302	24458
230.368	16090
230.433	12393
230.499	11353
230.564	10900
230.630	8686
230.695	8390
230.761	8142
230.826	8005
230.892	12610
230.957	7916
231.023	7915
231.088	7863
231.154	7307
231.219	9407
231.284	14292
231.350	10579
231.415	7775
231.481	7406
231.546	7068
231.612	6647
231.677	6488
231.742	7050
231.808	7402
231.873	7097
231.939	8116
232.004	15077
232.069	9146
232.135	10930
232.200	6041
232.265	6444
232.331	6435
232.396	6057
232.461	5839
232.527	5742
232.592	6024
232.657	7131
232.723	15142
232.788	6873
232.853	6063
232.918	5509
232.984	6714
233.049	7149
233.114	13865
233.179	10055
233.245	23390
233.310	13208
233.375	7227
233.440	7012
233.506	8282
233.571	6717
233.636	6487
233.701	8035
233.766	18136
233.832	12025
233.897	9014
233.962	8356
234.027	8962
234.092	7901
234.157	8231
234.222	9184
234.288	22263
234.353	40102
234.418	29266
234.483	17205
234.548	14235
234.613	11100
234.678	11808
234.743	19634
234.808	45271
234.873	19055
234.938	11907
235.004	10121
235.069	9922
235.134	9322
235.199	8604
235.264	8371
235.329	8216
235.394	8863
235.459	13262
235.524	10286
235.589	8572
235.654	7871
235.719	8245
235.784	8284
235.849	14857
235.913	22621
235.978	30640
236.043	20585
236.108	12434
236.173	14302
236.238	12148
236.303	10410
236.368	12180
236.433	23387
236.498	28280
236.563	26982
236.627	77064
236.692	152162
236.757	88165
236.822	47596
236.887	36880
236.952	27905
237.017	26450
237.081	27468
237.146	46844
237.211	94319
237.276	166717
237.341	171049
237.405	81135
237.470	44195
237.535	29742
237.600	20563
237.664	17208
237.729	16233
237.794	34013
237.859	42784
237.923	26145
237.988	15623
238.053	24912
238.118	24879
238.182	63088
238.247	29115
238.312	24225
238.376	15959
238.441	15547
238.506	11965
238.570	8860
238.635	9378
238.700	9164
238.764	10394
238.829	33831
238.893	20395
238.958	16364
239.023	12579
239.087	10304
239.152	10974
239.216	8725
239.281	8851
239.346	8793
239.410	8503
239.475	17655
239.539	57339
239.604	22212
239.668	10958
239.733	10813
239.797	22018
239.862	41923
239.926	37663
239.991	13474
240.055	9912
240.120	9778
240.184	9215
240.249	8346
240.313	7874
240.378	12673
240.442	42679
240.507	31848
240.571	14039
240.635	33735
240.700	20360
240.764	10440
240.829	9127
240.893	7183
240.957	9787
241.022	40680
241.086	41300
241.151	16093
241.215	9163
241.279	21130
241.344	21879
241.408	13483
241.472	12150
241.537	12184
241.601	11288
241.665	10319
241.730	10975
241.794	10777
241.858	10204
241.922	10827
241.987	10061
242.051	9987
242.115	9591
242.179	9030
242.244	8373
242.308	10786
242.372	12652
242.436	12594
242.501	10328
242.565	10011
242.629	8946
242.693	9487
242.757	9307
242.822	10267
242.886	11145
242.950	11256
243.014	10934
243.078	12632
243.142	11818
243.206	13368
243.271	13396
243.335	15693
243.399	31349
243.463	147968
243.527	146941
243.591	41294
243.655	22977
243.719	16118
243.783	18731
243.847	36366
243.911	34393
243.975	38182
244.040	18889
244.104	12374
244.168	11829
244.232	24032
244.296	28757
244.360	27728
244.424	15416
244.488	12928
244.552	11579
244.615	10639
244.679	10227
244.743	16872
244.807	10810
244.871	8779
244.935	7937
244.999	9790
245.063	9624
245.127	13486
245.191	29204
245.255	16104
245.319	17172
245.383	11338
245.446	11052
245.510	9898
245.574	10014
245.638	9982
245.702	17714
245.766	24500
245.829	14091
245.893	12636
245.957	12084
246.021	12992
246.085	13296
246.149	19426
246.212	46296
246.276	40519
246.340	20752
246.404	15689
246.467	24384
246.531	24918
246.595	15401
246.659	16477
246.722	15345
246.786	16801
246.850	24711
246.913	19857
246.977	11877
247.041	14325
247.104	12905
247.168	17541
247.232	46634
247.295	60633
247.359	21533
247.423	21708
247.486	27849
247.550	15733
247.614	16837
247.677	17022
247.741	12347
247.804	12720
247.868	16674
247.932	48843
247.995	48137
248.059	18300
248.122	13186
248.186	20445
248.249	45635
248.313	121483
248.376	84287
248.440	49517
248.503	21831
248.567	23855
248.630	36826
248.694	41765
248.757	71921
248.821	98513
248.884	49303
248.948	74685
249.011	90432
249.075	132344
249.138	73755
249.202	34852
249.265	32207
249.328	35953
249.392	24908
249.455	20291
249.519	18974
249.582	26995
249.645	40210
249.709	25858
249.772	26439
249.835	21931
249.899	22121
249.962	18713
250.025	20322
250.089	58131
250.152	41627
250.215	26938
250.279	23095
250.342	23989
250.405	22452
250.468	23244
250.532	32179
250.595	69513
250.658	248158
250.721	187107
250.785	75077
250.848	43695
250.911	31164
250.974	28004
251.038	53438
251.101	58681
251.164	39273
251.227	41092
251.290	41466
251.354	102659
251.417	277872
251.480	172279
251.543	245285
251.606	395189
251.669	216471
251.732	115623
251.795	116607
251.859	159470
251.922	253529
251.985	96918
252.048	53583
252.111	42771
252.174	43423
252.237	94916
252.300	128350
252.363	236930
252.426	255194
252.489	101516
252.552	63506
252.615	48749
252.678	62266
252.741	118421
252.804	230063
252.867	287128
252.930	148443
252.993	81010
253.056	55461
253.119	42767
253.182	47735
253.245	76536
253.308	41751
253.371	43960
253.434	35770
253.497	42859
253.559	62654
253.622	42700
253.685	63910
253.748	40340
253.811	27779
253.874	42385
253.937	28821
254.000	26110
254.062	61083
254.125	53004
254.188	69087
254.251	36079
254.314	30835
254.376	58788
254.439	42576
254.502	37273
254.565	62978
254.628	63518
254.690	36515
254.753	23678
254.816	23477
254.878	28607
254.941	60697
255.004	32677
255.067	23702
255.129	19799
255.192	13774
255.255	14988
255.317	15506
255.380	11744
255.443	11259
255.505	12048
255.568	12174
255.631	12735
255.693	12938
255.756	11270
255.819	11058
255.881	9719
255.944	10877
256.006	11799
256.069	10363
256.132	11767
256.194	24120
256.257	42753
256.319	34148
256.382	24215
256.444	15972
256.507	15135
256.569	13906
256.632	19651
256.694	37898
256.757	144665
256.819	188110
256.882	64613
256.944	32807
257.007	28823
257.069	26861
257.132	19415
257.194	16220
257.257	18074
257.319	18084
257.381	30002
257.444	107983
257.506	305647
257.569	192764
257.631	92315
257.693	49776
257.756	34412
257.818	26428
257.880	18102
257.943	15882
258.005	14236
258.067	13350
258.130	13448
258.192	23282
258.254	34202
258.317	16083
258.379	19398
258.441	48799
258.503	27305
258.566	75550
258.628	38340
258.690	15882
258.753	22635
258.815	28660
258.877	16156
258.939	12425
259.001	13627
259.064	13462
259.126	23241
259.188	18940
259.250	16771
259.312	26351
259.375	46411
259.437	19505
259.499	13683
259.561	13385
259.623	14973
259.685	13460
259.747	17879
259.809	77582
259.872	75385
259.934	152159
259.996	64130
260.058	22686
260.120	16444
260.182	13313
260.244	12329
260.306	10809
260.368	11442
260.430	12793
260.492	33525
260.554	43230
260.616	30672
260.678	98323
260.740	55252
260.802	19625
260.864	17685
260.926	14943
260.988	14147
261.050	18982
261.112	53311
261.174	104770
261.236	37592
261.298	22411
261.359	61997
261.421	36602
261.483	16150
261.545	14370
261.607	11084
261.669	12934
261.731	45914
261.793	50153
261.854	19359
261.916	15565
261.978	17158
262.040	16447
262.102	15459
262.164	29676
262.225	14747
262.287	17904
262.349	37645
262.411	16630
262.472	13791
262.534	49604
262.596	41045
262.658	15717
262.719	13430
262.781	32087
262.843	50374
262.904	17694
262.966	19475
263.028	35283
263.090	234011
263.151	214072
263.213	65770
263.275	35502
263.336	19816
263.398	15333
263.459	12615
263.521	16955
263.583	31307
263.644	14840
263.706	9748
263.767	8186
263.829	8076
263.891	8194
263.952	7606
264.014	8685
264.075	28433
264.137	29661
264.198	13504
264.260	7765
264.321	11151
264.383	44930
264.444	42620
264.506	14338
264.567	14650
264.629	40438
264.690	36591
264.752	15944
264.813	12254
264.875	10708
264.936	10763
264.998	10198
265.059	10374
265.120	12574
265.182	43335
265.243	166949
265.305	69173
265.366	24196
265.427	17580
265.489	13302
265.550	11140
265.611	14843
265.673	11723
265.734	10297
265.795	9308
265.857	11338
265.918	16245
265.979	71249
266.040	234864
266.102	90815
266.163	37915
266.224	26686
266.286	16132
266.347	12735
266.408	12421
266.469	12870
266.530	9764
266.592	10270
266.653	30076
266.714	22830
266.775	10504
266.836	9046
266.898	12027
266.959	16814
267.020	9256
267.081	8574
267.142	8528
267.203	8288
267.264	7841
267.326	9794
267.387	8761
267.448	7899
267.509	7991
267.570	7775
267.631	8310
267.692	7567
267.753	9272
267.814	8977
267.875	33490
267.936	32494
267.997	22819
268.058	15743
268.119	11759
268.180	11097
268.241	8904
268.302	8143
268.363	8789
268.424	10016
268.485	10781
268.546	6915
268.607	6858
268.668	7083
268.729	7080
268.790	8445
268.851	12408
268.912	34701
268.972	22056
269.033	12313
269.094	8538
269.155	7990
269.216	8826
269.277	9517
269.338	8093
269.398	9062
269.459	11284
269.520	15831
269.581	20552
269.642	19201
269.702	13299
269.763	10827
269.824	10101
269.885	18207
269.945	15885
270.006	9373
270.067	8128
270.128	7408
270.188	8702
270.249	8014
270.310	7118
270.370	9888
270.431	8964
270.492	7661
270.553	13054
270.613	28052
270.674	33740
270.734	12527
270.795	11028
270.856	17271
270.916	11171
270.977	9764
271.038	13175
271.098	11896
271.159	24469
271.219	12967
271.280	9027
271.340	9979
271.401	21470
271.462	28614
271.522	13620
271.583	11095
271.643	11905
271.704	9737
271.764	15307
271.825	44698
271.885	125651
271.946	75877
272.006	34562
272.066	84454
272.127	63919
272.187	22258
272.248	17133
272.308	33949
272.369	65717
272.429	23438
272.489	34930
272.550	23967
272.610	31420
272.671	17845
272.731	36298
272.791	32170
272.852	17914
272.912	14476
272.972	10786
273.033	14626
273.093	19821
273.153	15162
273.214	12493
273.274	18945
273.334	88551
273.394	68930
273.455	29847
273.515	62075
273.575	67208
273.635	28069
273.696	74778
273.756	69848
273.816	24570
273.876	24125
273.936	90321
273.997	57260
274.057	19652
274.117	19461
274.177	48724
274.237	133369
274.297	79459
274.358	68883
274.418	78952
274.478	38521
274.538	19924
274.598	36045
274.658	101768
274.718	72546
274.778	24871
274.838	22637
274.898	93551
274.958	121457
275.018	95454
275.078	39559
275.138	22622
275.198	14178
275.258	13422
275.318	23771
275.378	31396
275.438	23535
275.498	24675
275.558	102460
275.618	105329
275.678	47080
275.738	42608
275.798	26095
275.858	15214
275.918	11570
275.978	15846
276.038	11045
276.098	12271
276.157	43276
276.217	53598
276.277	23139
276.337	17880
276.397	14397
276.457	15252
276.517	10549
276.576	9508
276.636	12214
276.696	23753
276.756	44544
276.815	18477
276.875	16019
276.935	18319
276.995	12220
277.055	10633
277.114	10973
277.174	31285
277.234	44249
277.293	16630
277.353	11944
277.413	11416
277.472	12783
277.532	11294
277.592	17011
277.651	69887
277.711	44264
277.771	39864
277.830	103252
277.890	44352
277.950	99697
278.009	115967
278.069	36795
278.128	71558
278.188	47085
278.248	44132
278.307	83272
278.367	29021
278.426	16663
278.486	13596
278.545	11343
278.605	10542
278.664	10882
278.724	16030
278.783	70308
278.843	66473
278.902	20068
278.962	19091
279.021	18575
279.081	27532
279.140	20310
279.199	18223
279.259	18792
279.318	18170
279.378	25906
279.437	70986
279.496	230481
279.556	464806
279.615	176489
279.675	65967
279.734	54288
279.793	107499
279.853	87051
279.912	30656
279.971	23091
280.031	23926
280.090	68081
280.149	59106
280.208	111507
280.268	371814
280.327	151829
280.386	53959
280.445	60654
280.505	34793
280.564	22945
280.623	18843
280.682	45058
280.742	29547
280.801	13336
280.860	13035
280.919	12268
280.978	11507
281.037	11465
281.097	9489
281.156	9083
281.215	10903
281.274	25633
281.333	74666
281.392	24726
281.451	12382
281.510	10702
281.569	10250
281.628	9292
281.688	9703
281.747	11799
281.806	10229
281.865	8249
281.924	8642
281.983	8146
282.042	7435
282.101	7178
282.160	7612
282.219	7882
282.278	16904
282.337	37057
282.396	13508
282.454	10405
282.513	25707
282.572	48567
282.631	16452
282.690	9734
282.749	10084
282.808	11839
282.867	13133
282.926	8727
282.985	7306
283.043	6590
283.102	9016
283.161	14401
283.220	49302
283.279	41112
283.338	13977
283.396	11911
283.455	11037
283.514	14594
283.573	18211
283.631	11984
283.690	9561
283.749	13090
283.808	29747
283.866	15658
283.925	9844
283.984	10930
284.043	17114
284.101	12392
284.160	12384
284.219	14796
284.277	14006
284.336	34638
284.395	77420
284.453	31512
284.512	20447
284.570	26617
284.629	18203
284.688	18170
284.746	17688
284.805	20902
284.863	27315
284.922	28916
284.981	36952
285.039	56146
285.098	122140
285.156	342116
285.215	510719
285.273	375036
285.332	176177
285.390	99807
285.449	65573
285.507	46097
285.566	34289
285.624	25477
285.683	20157
285.741	16513
285.799	16782
285.858	16704
285.916	14046
285.975	11746
286.033	10766
286.091	10128
286.150	10190
286.208	12183
286.267	13187
286.325	15178
286.383	20175
286.442	12019
286.500	10194
286.558	9205
286.616	10380
286.675	13757
286.733	11796
286.791	11061
286.850	14335
286.908	22073
286.966	20895
287.024	10765
287.083	8760
287.141	9928
287.199	12624
287.257	14183
287.315	12099
287.374	19569
287.432	31231
287.490	15670
287.548	13346
287.606	11779
287.664	14009
287.723	22099
287.781	18821
287.839	16535
287.897	20446
287.955	27482
288.013	52372
288.071	152892
288.129	551967
288.187	636598
288.245	243795
288.303	107303
288.361	71734
288.419	53390
288.477	35314
288.535	24498
288.593	19892
288.651	15088
288.709	13445
288.767	12854
288.825	11506
288.883	10979
288.941	11096
288.999	9958
289.057	10101
289.115	10025
289.173	9892
289.231	9656
289.289	11380
289.346	10165
289.404	13820
289.462	20573
289.520	15772
289.578	8681
289.636	7441
289.694	8128
289.751	7950
289.809	8687
289.867	9127
289.925	13067
289.983	9728
290.040	8217
290.098	8597
290.156	11101
290.214	11079
290.271	8051
290.329	6769
290.387	6786
290.444	7183
290.502	6376
290.560	7374
290.617	7242
290.675	7773
290.733	7898
290.790	8398
290.848	7388
290.906	9593
290.963	7431
291.021	8508
291.078	7677
291.136	14002
291.194	50614
291.251	40774
291.309	12745
291.366	9395
291.424	8680
291.481	8783
291.539	8501
291.596	6789
291.654	4832
291.711	6659
291.769	13048
291.826	17735
291.884	9172
291.941	6394
291.999	8521
292.056	10243
292.114	8570
292.171	7958
292.228	9768
292.286	13367
292.343	21821
292.401	19898
292.458	11863
292.515	10370
292.573	12502
292.630	12234
292.687	12251
292.745	11189
292.802	23153
292.859	47936
292.917	55866
292.974	21821
293.031	11200
293.089	9806
293.146	8098
293.203	7529
293.260	8695
293.318	14268
293.375	12879
293.432	8600
293.489	7046
293.546	9328
293.604	20120
293.661	68315
293.718	77301
293.775	31180
293.832	20229
293.889	18126
293.947	17464
294.004	12332
294.061	16704
294.118	41136
294.175	66590
294.232	49711
294.289	18453
294.346	17119
294.403	15806
294.460	14556
294.517	10654
294.574	9265
294.631	9895
294.688	16670
294.745	60597
294.802	128142
294.859	76727
294.916	35444
294.973	24002
295.030	21287
295.087	15863
295.144	12832
295.201	11001
295.258	11052
295.315	20693
295.372	69153
295.429	58661
295.486	24798
295.542	27490
295.599	76430
295.656	65750
295.713	68836
295.770	54106
295.827	21216
295.883	16240
295.940	19357
295.997	26731
296.054	18130
296.111	11114
296.167	10360
296.224	8769
296.281	8413
296.338	8786
296.394	10907
296.451	18241
296.508	53546
296.564	49660
296.621	50023
296.678	114308
296.734	78560
296.791	30012
296.848	22366
296.904	34963
296.961	65107
297.018	87747
297.074	40503
297.131	20341
297.187	20668
297.244	42782
297.301	134867
297.357	101430
297.414	34026
297.470	19150
297.527	17008
297.583	15351
297.640	13881
297.696	10607
297.753	10343
297.809	8168
297.866	8017
297.922	8191
297.979	8537
298.035	13008
298.092	28721
298.148	57378
298.204	31984
298.261	25924
298.317	68433
298.374	89573
298.430	39674
298.486	28044
298.543	21991
298.599	20965
298.656	27329
298.712	68370
298.768	118767
298.824	51590
298.881	22928
298.937	17298
298.993	17435
299.050	18702
299.106	14115
299.162	13025
299.218	12318
299.275	11060
299.331	16279
299.387	46202
299.443	104457
299.500	61944
299.556	27198
299.612	20046
299.668	21709
299.724	29012
299.780	20675
299.837	18608
299.893	41240
299.949	98380
300.005	74147
300.061	101296
300.117	101611
300.173	41126
300.229	30374
300.285	37975
300.341	30040
300.397	16335
300.453	13421
300.510	12954
300.566	14519
300.622	27065
300.678	70598
300.734	79498
300.790	85327
300.845	72386
300.901	66576
300.957	79377
301.013	41080
301.069	21732
301.125	21225
301.181	19682
301.237	14814
301.293	10163
301.349	10070
301.405	10346
301.461	11637
301.516	13629
301.572	17975
301.628	22452
301.684	24793
301.740	46269
301.796	43049
301.851	38911
301.907	57773
301.963	59448
302.019	156821
302.074	254051
302.130	164209
302.186	69037
302.242	36235
302.297	29599
302.353	39413
302.409	54777
302.464	38293
302.520	55721
302.576	108311
302.631	79431
302.687	40811
302.743	21580
302.798	16932
302.854	14812
302.910	17965
302.965	24563
303.021	32372
303.076	31049
303.132	42147
303.187	33238
303.243	18679
303.299	14251
303.354	13312
303.410	12059
303.465	11839
303.521	10741
303.576	12571
303.632	18611
303.687	48215
303.743	83059
303.798	44599
303.853	22141
303.909	16651
303.964	17266
304.020	28670
304.075	29286
304.130	35636
304.186	51958
304.241	45623
304.297	32789
304.352	19379
304.358	18884
304.407	14873
304.449	15790
304.463	16111
304.518	14532
304.539	13883
304.573	12852
304.629	16100
304.630	16510
304.684	35345
304.720	65146
304.739	80259
304.794	66313
304.811	55854
304.850	30584
304.902	19194
304.905	18509
304.960	19301
304.992	21398
305.015	22865
305.071	18333
305.083	17252
305.126	13258
305.173	10093
305.181	9600
305.236	10160
305.264	11239
305.292	12377
305.347	13789
305.354	14042
305.402	15856
305.445	21055
305.457	22471
305.512	21191
305.535	20309
305.567	18966
305.622	24693
305.626	26589
305.678	61632
305.716	97869
305.733	111112
305.788	80800
305.807	74962
305.843	65037
305.897	85380
305.898	85624
305.953	59205
305.988	42788
306.008	33556
306.063	21822
306.078	19826
306.118	15791
306.168	12651
306.173	12396
306.228	11236
306.259	10523
306.283	10134
306.338	11398
306.349	12257
306.393	16155
306.440	18764
306.448	19026
306.503	16877
306.530	21226
306.558	28642
306.613	56977
306.620	59219
306.668	71810
306.711	81866
306.723	82215
306.778	49964
306.801	39781
306.833	28194
306.888	16925
306.892	16526
306.943	14635
306.982	13332
306.997	12869
307.052	12750
307.072	13135
307.107	14906
307.162	21258
307.163	21367
307.217	31994
307.253	38371
307.272	40060
307.327	34354
307.343	31923
307.381	25910
307.434	27285
307.436	27983
307.491	59159
307.524	76833
307.546	81516
307.600	61870
307.614	56099
307.655	36441
307.704	23216
307.710	23011
307.765	30568
307.795	41619
307.819	52382
307.874	68729
307.885	67742
307.929	50911
307.975	43381
307.984	44916
308.038	69109
308.065	95341
308.093	151652
308.148	323946
308.156	351062
308.202	493633
308.246	516333
308.257	487901
308.312	276030
308.336	200912
308.366	154848
308.421	90880
308.426	86157
308.475	60407
308.517	44947
308.530	42012
308.585	34849
308.607	32877
308.639	32269
308.694	35619
308.697	36491
308.748	64412
308.787	85324
308.803	85534
308.857	61097
308.877	54704
308.912	48465
308.967	45825
308.967	45898
309.021	62351
309.058	80336
309.076	100826
309.130	186246
309.148	225058
309.185	371923
309.238	603643
309.239	605258
309.293	615938
309.328	568205
309.348	487964
309.402	257896
309.418	200959
309.457	142732
309.508	85599
309.511	83916
309.566	68486
309.598	61769
309.620	62979
309.674	71098
309.688	72929
309.729	68018
309.778	57540
309.783	56142
309.837	42975
309.868	37916
309.892	44742
309.946	69526
309.959	76116
310.001	97953
310.049	109559
310.055	105422
310.109	61672
310.139	39927
310.163	32257
310.218	20602
310.229	18599
310.272	15975
310.319	14157
310.326	13970
310.381	12979
310.409	12459
310.435	12071
310.489	12080
310.499	12066
310.543	12755
310.589	13889
310.598	13829
310.652	13299
310.679	12854
310.706	11517
310.760	8707
310.769	8379
310.814	7929
310.859	7547
310.868	7579
310.923	7887
310.948	8086
310.977	8830
311.031	10459
311.038	10663
311.085	10098
311.128	9457
311.139	9403
311.193	9317
311.218	9359
311.247	8669
311.301	7138
311.308	7000
311.356	7148
311.398	7203
311.410	7220
311.464	7298
311.488	7355
311.518	7072
311.572	6816
311.578	6806
311.626	9737
311.668	12322
311.680	12377
311.734	12521
311.758	12612
311.788	12119
311.842	11229
311.847	11164
311.896	14545
311.937	17594
311.950	17565
312.004	17327
312.027	17211
312.058	14453
312.112	9620
312.117	9147
312.165	8686
312.207	8326
312.297	13065
312.386	10176
312.476	9157
312.566	17927
312.656	9603
312.745	7256
312.835	8524
312.925	9944
313.015	9563
313.104	10732
313.194	8267
313.284	8438
313.374	10670
313.463	9797
313.553	7050
313.643	7524
313.732	6764
313.822	7006
313.912	8304
314.001	9997
314.091	11210
314.180	14344
314.270	12291
314.360	13824
314.449	12904
314.539	8666
314.628	8266
314.718	9759
314.808	12830
314.897	7911
314.987	8398
315.076	10330
315.166	13740
315.255	14145
315.345	12577
315.434	14042
315.524	11589
315.613	14158
315.703	15638
315.792	26258
315.881	75769
315.971	32699
316.060	23643
316.150	39192
316.239	40687
316.328	17076
316.418	7597
316.507	8501
316.597	11261
316.686	10493
316.775	19401
316.865	43397
316.954	11192
317.043	6006
317.133	7508
317.222	7247
317.311	7310
317.400	6996
317.490	10701
317.579	12719
317.668	10045
317.757	16891
317.847	41662
317.936	131993
318.025	55920
318.114	29091
318.203	18983
318.293	18039
318.382	32132
318.471	29304
318.560	43590
318.649	92046
318.738	22697
318.828	12406
318.917	13580
319.006	18765
319.095	52922
319.184	114727
319.273	64859
319.362	29392
319.451	11045
319.540	10805
319.629	22404
319.718	37496
319.807	17994
319.896	43508
319.985	143186
320.074	55007
320.163	15601
320.252	25561
320.341	19908
320.430	17829
320.519	20332
320.608	13942
320.697	10440
320.786	10330
320.875	13477
320.964	17446
321.053	26679
321.142	37409
321.230	38913
321.319	32110
321.408	67975
321.497	33604
321.586	28137
321.675	40355
321.764	36918
321.852	23594
321.941	38681
322.030	27357
322.119	29924
322.207	73723
322.296	62366
322.385	30018
322.474	31100
322.562	83570
322.651	49082
322.740	31618
322.829	47704
322.917	55158
323.006	31330
323.095	23750
323.183	20204
323.272	26811
323.361	57111
323.449	169189
323.538	64296
323.626	117328
323.715	78567
323.804	30379
323.892	105953
323.981	60323
324.069	18079
324.158	59850
324.246	60076
324.335	16882
324.424	25660
324.512	10496
324.601	12493
324.689	26002
324.778	44025
324.866	40388
324.954	13481
325.043	11060
325.131	24745
325.220	46813
325.308	52152
325.397	35511
325.485	23616
325.574	7919
325.662	7825
325.750	8357
325.839	7614
325.927	6706
326.015	10301
326.104	19105
326.192	28812
326.280	7827
326.369	7635
326.457	11332
326.545	19932
326.634	11032
326.722	5708
326.810	6335
326.898	6778
326.987	8633
327.075	19794
327.163	23390
327.251	13607
327.340	17302
327.428	20554
327.516	8263
327.604	7741
327.692	8549
327.781	11482
327.869	21041
327.957	13911
328.045	11241
328.133	6749
328.221	10368
328.309	8509
328.397	6908
328.485	9940
328.574	13505
328.662	44493
328.750	31403
328.838	12499
328.926	8061
329.014	6650
329.102	11484
329.190	27313
329.278	19212
329.366	6197
329.454	6386
329.542	6200
329.630	6535
329.718	6618
329.806	9624
329.893	10033
329.981	11017
330.069	16273
330.157	68859
330.245	205727
330.333	117791
330.421	19871
330.509	16810
330.597	52454
330.684	38645
330.772	14421
330.860	19932
330.948	25238
331.036	12497
331.123	5913
331.211	6308
331.299	8932
331.387	21629
331.475	39149
331.562	13302
331.650	7191
331.738	9152
331.825	13801
331.913	6627
332.001	5436
332.089	9230
332.176	22141
332.264	56878
332.352	45827
332.439	12653
332.527	9562
332.614	8068
332.702	12486
332.790	8162
332.877	24480
332.965	51878
333.052	13424
333.140	11872
333.228	27290
333.315	9106
333.403	8962
333.490	32402
333.578	27737
333.665	24525
333.753	15138
333.840	7498
333.928	11213
334.015	32099
334.103	53887
334.190	161306
334.278	47426
334.365	18810
334.452	14821
334.540	10415
334.627	13542
334.715	18744
334.802	36245
334.889	208686
334.977	223769
335.064	29084
335.151	13113
335.239	13102
335.326	16363
335.413	76278
335.501	107450
335.588	16425
335.675	11201
335.762	14691
335.850	23957
335.937	19031
336.024	52778
336.111	215729
336.199	101452
336.286	20391
336.373	11466
336.460	8851
336.547	8359
336.635	10325
336.722	10401
336.809	8428
336.896	13360
336.983	42461
337.070	109214
337.157	162397
337.245	136176
337.332	103507
337.419	13447
337.506	9224
337.593	10166
337.680	35583
337.767	103669
337.854	31762
337.941	32750
338.028	46286
338.115	17856
338.202	15713
338.289	37030
338.376	132689
338.463	46283
338.550	60351
338.637	69909
338.724	25789
338.811	42654
338.898	9884
338.984	7079
339.071	9173
339.158	12416
339.245	28427
339.332	18311
339.419	26512
339.506	27444
339.593	5530
339.679	6332
339.766	5960
339.853	8918
339.940	18999
340.027	7881
340.113	7539
340.200	10893
340.287	7891
340.374	9839
340.460	18019
340.547	8793
340.634	13154
340.720	48910
340.807	34099
340.894	6465
340.980	7105
341.067	6901
341.154	7046
341.240	12197
341.327	25798
341.414	11076
341.500	11247
341.587	6559
341.674	6248
341.760	15561
341.847	20347
341.933	7776
342.020	4253
342.106	3347
342.193	6450
342.279	13863
342.366	9932
342.452	17173
342.539	10313
342.625	20814
342.712	56170
342.798	25018
342.885	10229
342.971	5123
343.058	4493
343.144	4467
343.230	5587
343.317	5777
343.403	6014
343.490	4840
343.576	5216
343.662	5843
343.749	8102
343.835	11655
343.921	15836
344.008	100997
344.094	243524
344.180	59967
344.267	18545
344.353	65696
344.439	80246
344.525	29367
344.612	14957
344.698	12922
344.784	9621
344.870	5156
344.957	6499
345.043	10043
345.129	7804
345.215	15811
345.301	10951
345.387	7332
345.474	5185
345.560	5208
345.646	8404
345.732	6932
345.818	7667
345.904	7032
345.990	7431
346.076	9398
346.162	20004
346.249	9101
346.335	4803
346.421	7865
346.507	27815
346.593	97933
346.679	27644
346.765	7484
346.851	7281
346.937	7545
347.023	5356
347.108	7193
347.194	6444
347.280	6707
347.366	8254
347.452	28112
347.538	117692
347.624	86160
347.710	71743
347.796	14139
347.882	7619
347.967	7668
348.053	10236
348.139	7521
348.225	5659
348.311	5924
348.397	5458
348.482	6979
348.568	9027
348.654	5082
348.740	8772
348.825	10866
348.911	11786
348.997	51803
349.083	111143
349.168	21924
349.254	7507
349.340	7685
349.425	4947
349.511	8501
349.597	11447
349.682	19404
349.768	62977
349.854	33498
349.939	6953
350.025	5509
350.110	7179
350.196	5679
350.282	4635
350.367	4341
350.453	11709
350.538	14985
350.624	8449
350.709	8574
350.795	4830
350.880	6348
350.966	7409
351.051	12499
351.137	10096
351.222	6173
351.308	18523
351.393	53323
351.479	17412
351.564	6350
351.649	5892
351.735	4992
351.820	4793
351.906	5707
351.991	9725
352.076	33201
352.162	55484
352.247	12545
352.332	7592
352.418	15747
352.503	18992
352.588	70212
352.673	66697
352.759	14990
352.844	7567
352.929	8372
353.014	12460
353.100	7909
353.185	11624
353.270	20028
353.355	20293
353.441	7782
353.526	8947
353.611	18057
353.696	22733
353.781	11600
353.866	6061
353.952	6575
354.037	16825
354.122	38717
354.207	35973
354.292	15824
354.377	6039
354.462	5313
354.547	8952
354.632	7995
354.717	11697
354.802	15088
354.887	6806
354.972	6003
355.057	4642
355.142	4665
355.227	6708
355.312	11399
355.397	26105
355.482	60939
355.567	35265
355.652	20676
355.737	25468
355.822	71547
355.907	69613
355.991	9763
356.076	6202
356.161	5906
356.246	5970
356.331	7211
356.416	18576
356.501	119569
356.585	148096
356.670	22229
356.755	11013
356.840	15621
356.924	76764
357.009	295052
357.094	129321
357.179	24148
357.263	17368
357.348	15764
357.433	16060
357.517	15064
357.602	13693
357.687	10477
357.771	14911
357.856	41974
357.941	30109
358.025	60200
358.110	271741
358.195	150404
358.279	20486
358.364	14266
358.448	46139
358.533	133968
358.617	105806
358.702	99296
358.787	42431
358.871	19290
358.956	16566
359.040	7303
359.125	4902
359.209	6558
359.294	18684
359.378	36747
359.462	18647
359.547	11186
359.631	8557
359.716	6158
359.800	6110
359.885	11152
359.969	8323
360.053	7876
360.138	8934
360.222	10578
360.306	19285
360.391	15323
360.475	24366
360.559	58414
360.644	51989
360.728	42969
360.812	65320
360.896	195769
360.981	86466
361.065	43179
361.149	11883
361.233	11312
361.318	10055
361.402	10737
361.486	9184
361.570	7686
361.654	10040
361.739	25806
361.823	115389
361.907	199593
361.991	40642
362.075	18370
362.159	39649
362.243	30558
362.327	31350
362.411	39742
362.495	23230
362.580	12668
362.664	8008
362.748	9505
362.832	10979
362.916	19178
363.000	60636
363.084	169641
363.168	243530
363.252	66877
363.336	19724
363.420	27548
363.503	100633
363.587	134221
363.671	25023
363.755	14916
363.839	20154
363.923	12108
364.007	20982
364.091	28169
364.175	43878
364.258	167104
364.342	136880
364.426	133963
364.510	80618
364.594	32724
364.677	37839
364.761	159897
364.845	134937
364.929	35571
365.013	30656
365.096	23454
365.180	30035
365.264	43031
365.347	168168
365.431	84644
365.515	19051
365.598	10266
365.682	8051
365.766	16064
365.849	21614
365.933	11664
366.017	14166
366.100	12671
366.184	6333
366.267	7102
366.351	6152
366.435	5711
366.518	5280
366.602	4546
366.685	5707
366.769	7685
366.852	14375
366.936	25242
367.019	15892
367.103	12464
367.186	22908
367.270	8684
367.353	4748
367.436	6019
367.520	5423
367.603	7840
367.687	13354
367.770	23474
367.853	15412
367.937	42224
368.020	82269
368.104	22753
368.187	15731
368.270	24249
368.353	21800
368.437	34127
368.520	87570
368.603	55594
368.687	53229
368.770	106078
368.853	30067
368.936	22878
369.020	23836
369.103	10119
369.186	6334
369.269	6516
369.352	14083
369.436	22949
369.519	14431
369.602	7382
369.685	7758
369.768	10479
369.851	8385
369.934	6004
370.018	8547
370.101	18701
370.184	15715
370.267	10641
370.350	16171
370.433	29119
370.516	79810
370.599	119929
370.682	41911
370.765	46688
370.848	65130
370.931	129685
371.014	58868
371.097	12235
371.180	7284
371.263	5502
371.346	5015
371.429	5960
371.511	6627
371.594	12411
371.677	20981
371.760	23905
371.843	19922
371.926	85255
372.009	222341
372.091	80899
372.174	47326
372.257	118601
372.340	56511
372.423	32007
372.505	39748
372.588	18045
372.671	35537
372.754	122521
372.836	74668
372.919	45354
373.002	97775
373.085	34323
373.167	18806
373.250	48781
373.332	115101
373.415	148681
373.498	314887
373.580	134147
373.663	142347
373.746	221413
373.828	56304
373.911	20956
373.993	25175
374.076	89289
374.159	98340
374.241	38210
374.324	98133
374.406	79453
374.489	83260
374.571	254040
374.654	127253
374.736	50234
374.819	156352
374.901	226372
374.983	252356
375.066	53477
375.148	18286
375.231	71638
375.313	152124
375.395	61361
375.478	14796
375.560	10031
375.643	13695
375.725	47490
375.807	200090
375.890	193028
375.972	88258
376.054	43974
376.136	71792
376.219	37430
376.301	55846
376.383	179276
376.465	84534
376.548	38159
376.630	51520
376.712	146034
376.794	85094
376.877	10774
376.959	6148
377.041	8431
377.123	18307
377.205	23178
377.287	7556
377.369	5706
377.452	7028
377.534	6609
377.616	6609
377.698	5688
377.780	5068
377.862	6305
377.944	5574
378.026	4939
378.108	4644
378.190	5073
378.272	4868
378.354	3826
378.436	4244
378.518	10895
378.600	35823
378.682	34617
378.764	66478
378.846	63246
378.928	17243
379.010	20819
379.091	13165
379.173	6796
379.255	5654
379.337	9914
379.419	31757
379.501	99691
379.583	52127
379.664	11083
379.746	24072
379.828	62224
379.910	94673
379.991	90196
380.073	19363
380.155	10069
380.237	7883
380.318	5562
380.400	6787
380.482	14148
380.564	25117
380.645	22286
380.727	22296
380.809	12892
380.890	9101
380.972	7956
381.053	7349
381.135	8664
381.217	22547
381.298	68960
381.380	41311
381.461	30033
381.543	137397
381.624	201042
381.706	44222
381.787	16193
381.869	17023
381.951	57271
382.032	230621
382.113	171258
382.195	36128
382.276	19544
382.358	42229
382.439	126412
382.521	148740
382.602	234590
382.684	114857
382.765	169729
382.846	183217
382.928	181102
383.009	117407
383.090	70456
383.172	249085
383.253	436339
383.334	184329
383.416	197402
383.497	122249
383.578	40215
383.659	64753
383.741	226696
383.822	629432
383.903	391546
383.984	134369
384.066	237020
384.147	173891
384.228	37555
384.309	22290
384.390	17654
384.471	13125
384.553	14698
384.634	20133
384.715	21818
384.796	11726
384.877	15162
384.958	55961
385.039	84595
385.120	30557
385.201	13592
385.282	16376
385.363	18137
385.444	14847
385.525	24742
385.606	93981
385.687	100778
385.768	25727
385.849	25579
385.930	94691
386.011	189391
386.092	64154
386.173	14070
386.254	11324
386.335	12481
386.416	14301
386.496	37450
386.577	71730
386.658	32618
386.739	17431
386.820	17046
386.901	15001
386.981	12708
387.062	10309
387.143	17945
387.224	62823
387.304	71885
387.385	26512
387.466	17788
387.547	19549
387.627	15219
387.708	27161
387.789	112897
387.869	166567
387.950	53722
388.031	10797
388.111	10602
388.192	24801
388.273	38351
388.353	25349
388.434	13794
388.514	24667
388.595	110423
388.676	159875
388.756	78126
388.837	60805
388.917	47453
388.998	12415
389.078	10349
389.159	9873
389.239	9640
389.320	12672
389.400	14218
389.480	26387
389.561	73153
389.641	45604
389.722	13834
389.802	20774
389.883	31004
389.963	85835
390.043	69901
390.124	23637
390.204	24192
390.284	74494
390.365	62735
390.445	72363
390.525	223476
390.605	234132
390.686	62767
390.766	18587
390.846	10961
390.927	8524
391.007	9828
391.087	11469
391.167	12922
391.247	11171
391.328	17762
391.408	24660
391.488	19184
391.568	9837
391.648	11527
391.728	15827
391.808	15626
391.888	18767
391.969	37882
392.049	69823
392.129	36175
392.209	34611
392.289	84443
392.369	60019
392.449	43297
392.529	32959
392.609	23156
392.689	30553
392.769	83712
392.849	88718
392.929	56997
393.009	127507
393.089	119688
393.169	100060
393.248	300250
393.328	1073783
393.408	1336476
393.488	444041
393.568	114114
393.648	57972
393.728	39206
393.807	30919
393.887	27343
393.967	26431
394.047	29967
394.127	36474
394.206	58735
394.286	189764
394.366	728210
394.446	923708
394.525	301426
394.605	73564
394.685	45703
394.764	65879
394.844	109005
394.924	89733
395.003	33340
395.083	22493
395.163	21289
395.242	18741
395.322	21074
395.402	18724
395.481	21702
395.561	46819
395.640	118028
395.720	110589
395.799	137239
395.879	134329
395.958	97003
396.038	288069
396.117	959063
396.197	1200355
396.276	476723
396.356	149178
396.435	88932
396.515	62325
396.594	59658
396.673	93752
396.753	316898
396.832	1007400
396.912	897553
396.991	238715
397.070	62392
397.150	35465
397.229	26594
397.308	30645
397.388	49825
397.467	31789
397.546	15217
397.625	12799
397.705	15563
397.784	15348
397.863	11353
397.942	8374
398.022	10255
398.101	34599
398.180	102964
398.259	66320
398.338	17205
398.417	11308
398.497	9046
398.576	9136
398.655	7146
398.734	6637
398.813	8397
398.892	32132
398.971	113626
399.050	73313
399.129	10247
399.208	5071
399.287	6609
399.366	5762
399.445	6021
399.524	6253
399.603	6729
399.682	11181
399.761	33696
399.840	115968
399.919	111999
399.998	19155
400.077	5025
400.156	4286
400.235	7243
400.313	6085
400.392	8267
400.471	31011
400.550	61280
400.629	21856
400.708	8482
400.786	8344
400.865	21902
400.944	27293
401.023	12877
401.102	4105
401.180	3545
401.259	4988
401.338	6424
401.416	8274
401.495	8762
401.574	7085
401.652	5477
401.731	7267
401.810	8192
401.888	4793
401.967	3149
402.046	4602
402.124	7090
402.203	11028
402.281	7402
402.360	9077
402.438	28134
402.517	25730
402.596	8601
402.674	7371
402.753	5438
402.831	3899
402.910	5209
402.988	20153
403.066	69838
403.145	51347
403.223	21967
403.302	54565
403.380	46140
403.459	39179
403.537	21220
403.615	8308
403.694	3597
403.772	2886
403.850	3318
403.929	3533
404.007	4895
404.085	8675
404.164	11547
404.242	6462
404.320	12833
404.398	43641
404.477	66455
404.555	176580
404.633	199367
404.711	55975
404.789	23758
404.868	8110
404.946	5363
405.024	3503
405.102	3842
405.180	3336
405.258	3586
405.336	3960
405.415	4669
405.493	10984
405.571	10403
405.649	3340
405.727	4134
405.805	7131
405.883	7435
405.961	7483
406.039	10341
406.117	5930
406.195	7738
406.273	37409
406.351	152207
406.429	119472
406.507	21083
406.585	6931
406.663	6275
406.740	7661
406.818	8003
406.896	5581
406.974	5596
407.052	12202
407.130	79076
407.208	142624
407.285	38540
407.363	6193
407.441	5345
407.519	5860
407.596	6674
407.674	24475
407.752	97745
407.830	106661
407.907	30000
407.985	8364
408.063	5748
408.141	4774
408.218	8145
408.296	9498
408.373	5912
408.451	5716
408.529	6133
408.606	3838
408.684	2894
408.762	2011
408.839	3370
408.917	2240
408.994	2741
409.072	3047
409.149	3540
409.227	5126
409.304	8486
409.382	8416
409.459	8822
409.537	11365
409.614	10968
409.692	8323
409.769	7564
409.846	12164
409.924	16402
410.001	13638
410.079	8819
410.156	7029
410.233	6922
410.311	6736
410.388	4667
410.465	5218
410.543	4699
410.620	4326
410.697	4341
410.775	6915
410.852	4171
410.929	5631
411.006	7514
411.083	5232
411.161	8895
411.238	11887
411.315	8593
411.392	3439
411.469	5390
411.547	5768
411.624	4068
411.701	3976
411.778	5052
411.855	11773
411.932	8219
412.009	3649
412.086	3635
412.163	5322
412.240	6148
412.317	7129
412.394	7126
412.471	2936
412.548	1750
412.625	3106
412.702	4644
412.779	9065
412.856	7215
412.933	3133
413.010	3578
413.087	6920
413.164	27760
413.241	49585
413.318	15804
413.395	7038
413.471	10129
413.548	5941
413.625	3888
413.702	4741
413.779	5745
413.855	2459
413.932	1478
414.009	1770
414.086	2345
414.162	2948
414.239	4734
414.316	26978
414.393	72579
414.469	37311
414.546	4326
414.623	2363
414.699	2800
414.776	4183
414.853	3108
414.929	3489
415.006	3347
415.082	4668
415.159	4435
415.236	3457
415.312	3309
415.389	6758
415.465	10723
415.542	6555
415.618	4064
415.695	6945
415.771	5395
415.848	5382
415.924	3969
416.000	4279
416.077	2834
416.153	1021
416.230	1107
416.306	1720
416.383	3004
416.459	2455
416.535	1994
416.612	2085
416.688	2359
416.764	1594
416.841	2001
416.917	2632
416.993	2476
417.069	3635
417.146	5711
417.222	9724
417.298	6437
417.374	3218
417.451	4041
417.527	4540
417.603	4663
417.679	4396
417.755	3465
417.831	1500
417.908	1579
417.984	1896
418.060	1988
418.136	7192
418.212	12311
418.288	5975
418.364	2655
418.440	2376
418.516	5763
418.592	8431
418.668	14801
418.744	22060
418.820	18686
418.896	5500
418.972	2409
419.048	2999
419.124	8890
419.200	8835
419.276	3082
419.352	1887
419.428	2552
419.504	3921
419.579	4794
419.655	4425
419.731	4011
419.807	12285
419.883	26254
419.959	22663
420.034	7236
420.110	10185
420.186	40149
420.262	43404
420.337	9334
420.413	5185
420.489	3886
420.565	3673
420.640	3038
420.716	3961
420.792	2963
420.867	3446
420.943	4270
421.019	6279
421.094	6644
421.170	4297
421.245	3286
421.321	4033
421.397	5863
421.472	15693
421.548	54158
421.623	46898
421.699	12140
421.774	8401
421.850	8121
421.925	11518
422.001	12882
422.076	10312
422.152	11871
422.227	18615
422.302	23220
422.378	30867
422.453	55305
422.529	128888
422.604	383116
422.679	692328
422.755	541499
422.830	212333
422.905	75210
422.981	40065
423.056	26385
423.131	19259
423.207	14752
423.282	13407
423.357	18672
423.432	15523
423.508	12854
423.583	22874
423.658	23978
423.733	10017
423.808	9352
423.883	9887
423.959	11133
424.034	8262
424.109	7421
424.184	5374
424.259	4236
424.334	3169
424.409	2738
424.484	2937
424.559	3843
424.634	3142
424.709	5681
424.784	7105
424.859	5542
424.934	7186
425.009	25566
425.084	52175
425.159	28374
425.234	4762
425.309	2498
425.384	7847
425.459	16751
425.534	8313
425.609	4341
425.683	4052
425.758	2231
425.833	2953
425.908	4723
425.983	14204
426.058	51275
426.132	33173
426.207	6255
426.282	7754
426.357	9355
426.431	4178
426.506	3287
426.581	3723
426.655	3790
426.730	2803
426.805	3155
426.879	2786
426.954	3974
427.029	7617
427.103	42026
427.178	129571
427.253	84477
427.327	11049
427.402	8001
427.476	21722
427.551	14904
427.625	4979
427.700	4847
427.774	3518
427.849	5018
427.923	4063
427.998	3683
428.072	4199
428.147	9272
428.221	39160
428.296	140957
428.370	109758
428.444	16847
428.519	11538
428.593	21422
428.667	22322
428.742	22229
428.816	26945
428.890	77471
428.965	161115
429.039	66691
429.113	30057
429.188	15022
429.262	4462
429.336	6864
429.410	23808
429.485	21392
429.559	19006
429.633	19592
429.707	7779
429.781	14794
429.855	84733
429.930	163745
430.004	92240
430.078	106582
430.152	112677
430.226	174313
430.300	239257
430.374	56346
430.448	11453
430.522	30422
430.596	101372
430.670	83373
430.744	130354
430.818	252780
430.892	79653
430.966	10720
431.040	5318
431.114	3371
431.188	3500
431.262	3531
431.336	4369
431.410	9147
431.484	27215
431.557	23415
431.631	4968
431.705	4456
431.779	22154
431.853	113126
431.927	122969
432.000	20528
432.074	4436
432.148	4764
432.222	6350
432.295	2589
432.369	2804
432.443	6437
432.516	39696
432.590	132755
432.664	76920
432.737	9733
432.811	2686
432.885	1464
432.958	1800
433.032	1294
433.106	1420
433.179	545
433.253	857
433.326	1360
433.400	1399
433.473	1851
433.547	561
433.620	1689
433.694	4564
433.767	6968
433.841	3698
433.914	1848
433.988	1248
434.061	1826
434.134	1583
434.208	496
434.281	503
434.355	1224
434.428	1297
434.501	941
434.575	1543
434.648	2263
434.721	1508
434.795	1550
434.868	979
434.941	243
435.014	1008
435.088	1047
435.161	2703
435.234	5219
435.307	6881
435.381	4402
435.454	3403
435.527	5545
435.600	6520
435.673	5345
435.746	2951
435.819	3141
435.892	3115
435.966	2244
436.039	2055
436.112	2855
436.185	1791
436.258	911
436.331	391
436.404	1118
436.477	458
436.550	670
436.623	874
436.696	1569
436.769	2006
436.842	1978
436.915	2350
436.987	3918
437.060	2182
437.133	1813
437.206	888
437.279	1891
437.352	1560
437.425	1506
437.498	1926
437.570	5674
437.643	6998
437.716	2511
437.789	1333
437.861	3075
437.934	9708
438.007	8792
438.080	2199
438.152	2506
438.225	6530
438.298	49404
438.370	186930
438.443	117811
438.516	19835
438.588	5271
438.661	2458
438.734	2248
438.806	2968
438.879	3832
438.951	2975
439.024	6599
439.096	3743
439.169	1809
439.241	954
439.314	1234
439.386	3841
439.459	7042
439.531	10881
439.604	6036
439.676	2284
439.749	1149
439.821	1012
439.893	2384
439.966	2150
440.038	3194
440.110	3287
440.183	2636
440.255	2041
440.327	3876
440.400	19175
440.472	100299
440.544	105951
440.617	17878
440.689	5187
440.761	5605
440.833	10855
440.905	9010
440.978	2604
441.050	953
441.122	1577
441.194	1172
441.266	1940
441.338	2083
441.411	3692
441.483	24473
441.555	54703
441.627	19787
441.699	6919
441.771	7717
441.843	4463
441.915	2376
441.987	2123
442.059	1919
442.131	4183
442.203	6406
442.275	7166
442.347	8083
442.419	8581
442.491	42690
442.563	144785
442.635	95819
442.706	34617
442.778	28845
442.850	8267
442.922	3583
442.994	4956
443.066	7522
443.137	7444
443.209	6042
443.281	7232
443.353	14683
443.425	55590
443.496	240002
443.568	308490
443.640	139103
443.711	28703
443.783	9556
443.855	6075
443.926	4593
443.998	3931
444.070	5589
444.141	4988
444.213	6295
444.285	8431
444.356	8991
444.428	8864
444.499	3933
444.571	2939
444.642	3326
444.714	2697
444.785	6475
444.857	8550
444.928	19782
445.000	17260
445.071	14051
445.143	18157
445.214	12490
445.285	16123
445.357	46485
445.428	139616
445.500	414327
445.571	331557
445.642	167443
445.714	64409
445.785	43421
445.856	18910
445.928	10950
445.999	8325
446.070	6701
446.141	5642
446.213	7949
446.284	6004
446.355	5959
446.426	4828
446.497	3546
446.569	5583
446.640	10600
446.711	8959
446.782	4029
446.853	5332
446.924	6387
446.995	4050
447.066	3777
447.138	7268
447.209	6396
447.280	1710
447.351	1215
447.422	1107
447.493	3012
447.564	4282
447.635	7382
447.706	4506
447.777	1661
447.847	1973
447.918	1352
447.989	3707
448.060	5243
448.131	11560
448.202	14145
448.273	8709
448.344	4603
448.414	1936
448.485	2105
448.556	2071
448.627	1612
448.698	1273
448.768	1505
448.839	2783
448.910	5304
448.981	7551
449.051	3783
449.122	1983
449.193	1276
449.263	1530
449.334	2178
449.405	3807
449.475	9417
449.546	8594
449.616	8429
449.687	8856
449.758	4105
449.828	2664
449.899	2332
449.969	2359
450.040	2267
450.110	3270
450.181	5189
450.251	2652
450.322	3031
450.392	1939
450.463	2518
450.533	2152
450.604	2865
450.674	2477
450.744	2642
450.815	2539
450.885	2896
450.955	2717
451.026	2302
451.096	1944
451.166	2937
451.237	6755
451.307	20946
451.377	13053
451.447	3811
451.518	2074
451.588	2020
451.658	2750
451.728	4467
451.799	18435
451.869	30588
451.939	11238
452.009	2711
452.079	2175
452.149	3105
452.219	5281
452.289	22543
452.360	25968
452.430	8622
452.500	4323
452.570	5444
452.640	7358
452.710	18321
452.780	35181
452.850	24323
452.920	20116
452.990	10257
453.060	4728
453.129	6102
453.199	7187
453.269	19446
453.339	72814
453.409	126229
453.479	90585
453.549	137851
453.619	159131
453.688	89128
453.758	17330
453.828	5845
453.898	4349
453.968	3590
454.037	3058
454.087	3069
454.107	3041
454.168	2900
454.177	2842
454.247	2818
454.249	2860
454.316	2716
454.330	3085
454.386	3774
454.411	6433
454.456	10097
454.492	16041
454.525	21417
454.574	14625
454.595	11794
454.655	5224
454.665	4188
454.734	5772
454.736	6045
454.804	9384
454.817	12005
454.873	19746
454.898	24256
454.943	32428
454.979	24681
455.013	18471
455.060	11746
455.082	9172
455.141	10691
455.152	11076
455.221	23537
455.222	24285
455.291	49650
455.303	52115
455.360	56101
455.384	77575
455.430	106510
455.465	93608
455.499	86546
455.546	50973
455.569	33621
455.627	22253
455.638	20537
455.707	7207
455.708	7234
455.777	4888
455.789	5059
455.846	5510
455.869	5361
455.916	5126
455.950	5292
455.985	5309
456.031	5323
456.054	5267
456.112	4533
456.124	4464
456.193	4615
456.193	4572
456.262	5265
456.274	5626
456.332	6710
456.355	7211
456.401	7172
456.436	6493
456.470	6294
456.516	5187
456.540	4618
456.597	4007
456.609	3862
456.678	3652
456.678	3622
456.747	3616
456.759	3541
456.817	3271
456.840	3449
456.886	3694
456.920	4073
456.955	4629
457.001	5147
457.024	5653
457.082	7258
457.093	7470
457.162	10085
457.163	10158
457.232	9905
457.243	9465
457.301	8341
457.324	7144
457.370	5636
457.405	5470
457.439	5301
457.485	5646
457.508	5883
457.566	6851
457.577	7162
457.646	9343
457.647	9416
457.715	15784
457.727	17149
457.784	25236
457.808	30134
457.853	31395
457.889	34689
457.922	36987
457.969	32065
457.991	34305
458.050	39367
458.060	40077
458.129	55264
458.130	55973
458.198	46381
458.211	41053
458.267	30486
458.292	23610
458.336	18540
458.372	18729
458.405	24377
458.453	34773
458.474	41748
458.533	66272
458.543	65690
458.611	75713
458.614	76056
458.680	52780
458.694	42376
458.749	24905
458.775	19174
458.818	11990
458.855	10225
458.887	9307
458.936	8483
458.955	8132
459.016	8407
459.024	8381
459.093	8562
459.097	8512
459.162	8346
459.177	8560
459.230	8964
459.257	9413
459.299	9972
459.338	10492
459.368	10598
459.418	10452
459.437	9961
459.499	8194
459.505	8156
459.574	7526
459.579	7568
459.643	8000
459.659	8023
459.711	8120
459.740	8217
459.780	8643
459.820	9162
459.849	9413
459.900	10518
459.917	10512
459.981	9800
459.986	9765
460.054	9578
460.061	9570
460.123	10440
460.141	10719
460.191	12096
460.222	13182
460.260	13652
460.302	14202
460.328	13612
460.382	12151
460.397	12788
460.462	14882
460.465	15711
460.534	36023
460.543	38769
460.602	83863
460.623	100327
460.671	147224
460.703	186582
460.739	135274
460.783	74434
460.808	72675
460.864	29979
460.876	25279
460.944	11580
460.945	11406
461.013	10201
461.024	10134
461.081	11049
461.104	11403
461.150	10432
461.184	9710
461.218	9960
461.264	10216
461.286	10069
461.345	9731
461.355	9804
461.423	10567
461.425	10583
461.491	13284
461.505	13894
461.559	26911
461.585	32926
461.628	46677
461.665	59706
461.696	54345
461.745	49648
461.764	43692
461.825	18022
461.832	18104
461.901	13364
461.905	13372
461.969	10755
461.985	10404
462.037	10975
462.065	11102
462.105	14495
462.145	18099
462.173	23163
462.225	32825
462.241	34450
462.305	42089
462.310	40616
462.378	19263
462.385	16253
462.446	14023
462.465	13450
462.514	11543
462.545	11308
462.582	11291
462.625	11104
462.650	10865
462.705	10520
462.718	11322
462.785	15291
462.786	15385
462.854	20739
462.865	21650
462.922	21017
462.945	20988
462.990	15812
463.025	11036
463.058	10836
463.104	10161
463.126	9989
463.184	9988
463.194	10127
463.262	11671
463.264	11714
463.330	12832
463.344	13041
463.398	13841
463.424	14185
463.466	13464
463.504	12919
463.533	13051
463.583	13114
463.601	13938
463.663	16592
463.669	17247
463.737	25002
463.743	25688
463.805	38495
463.823	42273
463.873	61203
463.903	72651
463.940	63479
463.982	54760
464.008	44192
464.062	19268
464.076	18772
464.142	13343
464.144	13274
464.211	12285
464.221	12314
464.279	13335
464.301	13712
464.347	15581
464.381	17042
464.414	19251
464.461	22193
464.482	21580
464.540	20040
464.550	19873
464.617	18454
464.620	18362
464.685	22126
464.699	22973
464.753	27165
464.779	29351
464.820	30683
464.859	32008
464.888	31385
464.938	29785
464.956	28971
465.018	25703
465.023	25597
465.091	23990
465.098	23761
465.158	23930
465.177	23965
465.226	23732
465.257	23684
465.293	24842
465.336	25862
465.361	28348
465.416	34124
465.428	36623
465.495	49722
465.496	49953
465.563	73352
465.575	77334
465.631	72180
465.654	70251
465.698	46724
465.734	26277
465.765	25498
465.813	23405
465.833	23347
465.893	24204
465.900	24250
465.968	24593
465.972	24570
466.035	24593
466.052	24543
466.102	25092
466.131	25348
466.170	26004
466.210	26608
466.237	27159
466.290	28147
466.304	28542
466.369	29976
466.372	30079
466.439	31581
466.449	31730
466.506	37224
466.528	39263
466.573	55936
466.607	68283
466.641	88320
466.687	115918
466.708	114257
466.766	109056
466.775	101598
466.842	44293
466.845	41480
466.909	38142
466.925	37341
466.977	36826
467.004	36606
467.044	39131
467.083	41519
467.111	44921
467.163	51104
467.178	51351
467.242	51859
467.245	51680
467.312	45858
467.321	44994
467.379	45085
467.400	44989
467.446	47340
467.480	48874
467.559	38788
467.638	37508
467.717	38365
467.796	40479
467.875	43114
467.955	45242
468.034	73665
468.113	133770
468.192	136534
468.271	39983
468.350	41466
468.429	45082
468.508	40457
468.588	37228
468.667	39931
468.746	43698
468.825	36016
468.904	30981
468.983	39437
469.062	55845
469.141	51322
469.220	28338
469.299	30784
469.378	35166
469.456	41162
469.535	35875
469.614	34663
469.693	37571
469.772	46511
469.851	58420
469.930	34181
470.009	33054
470.088	31013
470.166	35274
470.245	41805
470.324	44098
470.403	35682
470.482	31965
470.560	31887
470.639	32430
470.718	36724
470.797	32197
470.875	41610
470.954	54943
471.033	45286
471.111	24962
471.190	25101
471.269	25429
471.347	25042
471.426	28803
471.505	33115
471.583	35181
471.662	30435
471.740	29471
471.819	28704
471.898	28247
471.976	26940
472.055	28147
472.133	35863
472.212	41810
472.290	38166
472.369	25578
472.447	26898
472.526	25654
472.604	27895
472.683	28091
472.761	28184
472.839	26534
472.918	24889
472.996	28195
473.075	30625
473.153	28290
473.231	28559
473.310	31141
473.388	27813
473.466	29480
473.545	34610
473.623	41324
473.701	34468
473.780	27611
473.858	30921
473.936	31646
474.014	28124
474.093	35197
474.171	49109
474.249	59324
474.327	29692
474.405	24667
474.484	24259
474.562	25615
474.640	26157
474.718	27143
474.796	27706
474.874	26503
474.952	25035
475.030	25978
475.108	27940
475.187	32345
475.265	33222
475.343	39267
475.421	37081
475.499	26103
475.577	28058
475.655	42270
475.733	79862
475.811	113162
475.889	105080
475.966	43842
476.044	27070
476.122	31078
476.200	34862
476.278	26197
476.356	22917
476.434	26334
476.512	28772
476.590	34140
476.667	26071
476.745	21872
476.823	23698
476.901	22894
476.979	23903
477.056	23621
477.134	27047
477.212	27599
477.290	22694
477.367	20549
477.445	20502
477.523	21546
477.601	20879
477.678	23414
477.756	28425
477.834	25850
477.911	20477
477.989	21237
478.066	20740
478.144	26588
478.222	27914
478.299	38601
478.377	29780
478.454	21378
478.532	19145
478.609	21667
478.687	21716
478.764	20475
478.842	22226
478.919	23866
478.997	19798
479.074	20192
479.152	25174
479.229	30678
479.307	17399
479.384	16960
479.461	18508
479.539	21011
479.616	23516
479.694	19808
479.771	23229
479.848	26153
479.926	36354
480.003	28263
480.080	19113
480.157	17988
480.235	18611
480.312	20125
480.389	25663
480.467	40786
480.544	41384
480.621	21800
480.698	21548
480.775	25436
480.853	23445
480.930	21950
481.007	22996
481.084	30800
481.161	35151
481.238	22976
481.315	17423
481.392	19058
481.470	21649
481.547	23005
481.624	18583
481.701	18924
481.778	20481
481.855	25660
481.932	39963
482.009	62742
482.086	29486
482.163	22293
482.240	32276
482.317	46043
482.393	28039
482.470	21332
482.547	20512
482.624	19228
482.701	19549
482.778	19549
482.855	16746
482.932	16922
483.009	18780
483.085	22245
483.162	29310
483.239	24226
483.316	19896
483.393	19529
483.469	19537
483.546	23801
483.623	21488
483.699	17781
483.776	20539
483.853	26488
483.930	47769
484.006	110455
484.083	143599
484.160	92740
484.236	130502
484.313	89117
484.389	72126
484.466	63909
484.543	64999
484.619	64735
484.696	65966
484.772	70523
484.849	67767
484.925	59140
485.002	58576
485.078	62583
485.155	60432
485.231	54885
485.308	55466
485.384	58690
485.461	77433
485.537	120070
485.614	101929
485.690	54052
485.766	52906
485.843	59573
485.919	74068
485.995	64426
486.072	47849
486.148	47393
486.224	47623
486.301	51631
486.377	57606
486.453	55738
486.530	60841
486.606	82380
486.682	86834
486.758	104012
486.835	102129
486.911	98481
486.987	145982
487.063	134870
487.139	149427
487.215	104312
487.292	59686
487.368	57053
487.444	65753
487.520	79568
487.596	88169
487.672	145038
487.748	310767
487.824	346733
487.900	111160
487.976	69466
488.052	65804
488.128	66137
488.204	58531
488.280	53664
488.356	76239
488.432	143325
488.508	153600
488.584	53527
488.660	47203
488.736	47111
488.812	53483
488.888	66106
488.964	93231
489.039	173658
489.115	211678
489.191	94140
489.267	49499
489.343	46655
489.418	40064
489.494	41206
489.570	40189
489.646	40869
489.722	43220
489.797	48059
489.873	82670
489.949	150014
490.024	79807
490.100	39776
490.176	42147
490.251	49686
490.327	55781
490.403	37041
490.478	36527
490.554	33279
490.629	34201
490.705	33877
490.781	37877
490.856	37141
490.932	42676
491.007	41179
491.083	40363
491.158	38513
491.234	62521
491.309	113803
491.385	78069
491.460	36210
491.536	38916
491.611	33608
491.686	40973
491.762	58280
491.837	113696
491.913	164889
491.988	239296
492.063	211036
492.139	70732
492.214	43570
492.289	28219
492.365	31802
492.440	35959
492.515	35274
492.590	33906
492.666	28744
492.741	46915
492.816	56189
492.891	31501
492.967	30226
493.042	29881
493.117	37199
493.192	49312
493.267	133775
493.342	381656
493.418	317914
493.493	38677
493.568	25116
493.643	29159
493.718	36202
493.793	53396
493.868	47926
493.943	28740
494.018	26728
494.093	25270
494.168	25135
494.243	23351
494.318	20673
494.393	22512
494.468	22003
494.543	23326
494.618	27531
494.693	22397
494.768	24764
494.842	23095
494.917	20916
494.992	24008
495.067	20418
495.142	21999
495.217	22558
495.292	22196
495.366	28855
495.441	32855
495.516	42087
495.591	82283
495.665	252596
495.740	420119
495.815	96171
495.890	32526
495.964	28125
496.039	31184
496.114	31322
496.188	41402
496.263	33773
496.338	27541
496.412	35446
496.487	37655
496.561	41375
496.636	38805
496.710	34793
496.785	41438
496.860	41886
496.934	34135
497.009	35276
497.083	35222
497.158	38419
497.232	46301
497.307	51891
497.381	48169
497.455	61988
497.530	70073
497.604	53544
497.679	63582
497.753	96734
497.827	109744
497.902	109277
497.976	148552
498.050	376960
498.125	1033557
498.199	576592
498.273	136792
498.348	120482
498.422	103638
498.496	96377
498.570	80805
498.645	69082
498.719	67381
498.793	77310
498.867	111664
498.941	168069
499.016	494313
499.090	881789
499.164	147647
499.238	38555
499.312	38749
499.386	45081
499.460	38229
499.534	36197
499.609	49265
499.683	70534
499.757	77601
499.831	240448
499.905	705187
499.979	340917
500.053	77853
500.127	71249
500.201	47864
500.275	31622
500.349	33813
500.422	42495
500.496	72273
500.570	167174
500.644	414962
500.718	514219
500.792	61827
500.866	34380
500.940	42847
501.013	32380
501.087	39649
501.161	68380
501.235	100363
501.309	259369
501.382	603639
501.456	283057
501.530	107206
501.603	153790
501.677	38984
501.751	26742
501.825	40582
501.898	96749
501.972	222173
502.046	73131
502.119	45884
502.193	121299
502.266	220548
502.340	73380
502.413	126874
502.487	175798
502.561	85987
502.634	28759
502.708	27622
502.781	24755
502.855	18632
502.928	16746
503.002	17806
503.075	18540
503.149	18534
503.222	21107
503.295	24398
503.369	31850
503.442	64709
503.516	221475
503.589	398428
503.662	172111
503.736	88240
503.809	197610
503.882	130626
503.956	238686
504.029	155902
504.102	166114
504.175	164048
504.249	60057
504.322	40909
504.395	29972
504.468	22670
504.542	21806
504.615	18126
504.688	16746
504.761	17399
504.834	23433
504.907	31523
504.980	38860
505.053	20895
505.127	30243
505.200	30015
505.273	33188
505.346	17778
505.419	16658
505.492	14036
505.565	11782
505.638	12801
505.711	13630
505.784	13689
505.857	12425
505.930	14310
506.003	13636
506.076	17266
506.149	26407
506.221	29117
506.294	35844
506.367	120120
506.440	281451
506.513	76520
506.586	29205
506.659	16267
506.731	15900
506.804	23106
506.877	28611
506.950	18490
507.022	15563
507.095	25625
507.168	23564
507.241	14774
507.313	14130
507.386	19322
507.459	22386
507.531	14423
507.604	13149
507.677	13442
507.749	14521
507.822	26084
507.894	51570
507.967	48036
508.040	29670
508.112	25405
508.185	23493
508.257	25225
508.330	31464
508.402	23542
508.475	25838
508.547	24057
508.620	29149
508.692	38715
508.765	22368
508.837	18600
508.909	18781
508.982	20755
509.054	22036
509.127	19180
509.199	17541
509.271	16979
509.344	16382
509.416	18152
509.488	18372
509.560	19018
509.633	21026
509.705	23980
509.777	24533
509.849	30080
509.922	22713
509.994	19390
510.066	21327
510.138	30838
510.210	52229
510.283	40850
510.355	33549
510.427	29338
510.499	28146
510.571	27102
510.643	30190
510.715	40592
510.787	31336
510.859	28044
510.931	33902
511.003	39488
511.076	30127
511.148	25591
511.219	30174
511.291	47523
511.363	39395
511.435	24237
511.507	23067
511.579	22284
511.651	22531
511.723	21622
511.795	22215
511.867	22700
511.939	35499
512.010	64566
512.082	34116
512.154	24782
512.226	26546
512.298	44837
512.369	52826
512.441	41333
512.513	38832
512.585	31573
512.656	33007
512.728	32354
512.800	27444
512.871	27461
512.943	26510
513.015	25138
513.086	26704
513.158	28432
513.230	32994
513.301	45514
513.373	39585
513.444	26510
513.516	24661
513.588	24926
513.659	29124
513.731	33938
513.802	33522
513.874	67202
513.945	82204
514.016	29098
514.088	24979
514.159	30826
514.231	39846
514.302	47963
514.374	36643
514.445	41067
514.516	69476
514.588	40131
514.659	39179
514.730	61323
514.802	42606
514.873	46383
514.944	41825
515.016	37465
515.087	39041
515.158	53580
515.229	55776
515.301	53196
515.372	61626
515.443	40819
515.514	32688
515.585	26915
515.656	26065
515.728	24117
515.799	24868
515.870	25151
515.941	26415
516.012	30798
516.083	38009
516.154	41441
516.225	44510
516.296	38048
516.367	34749
516.438	39167
516.509	49678
516.580	81968
516.651	247818
516.722	579024
516.793	149437
516.864	55746
516.935	53642
517.006	68162
517.077	108128
517.148	262974
517.219	813516
517.289	769840
517.360	286127
517.431	65841
517.502	35576
517.573	31637
517.643	35818
517.714	39233
517.785	36652
517.856	37618
517.926	41806
517.997	49308
518.068	63744
518.138	89094
518.209	177729
518.280	663611
518.350	1488815
518.421	314379
518.492	61100
518.562	51944
518.633	57370
518.703	70317
518.774	132708
518.845	259723
518.915	173605
518.986	70310
519.056	63516
519.127	101171
519.197	162249
519.268	315002
519.338	110723
519.408	47761
519.479	52419
519.549	35209
519.620	25952
519.690	22997
519.760	24155
519.831	25782
519.901	23293
519.971	21447
520.042	25777
520.112	29452
520.182	31651
520.253	31584
520.323	26600
520.393	38676
520.463	43262
520.534	44339
520.604	61283
520.674	29945
520.744	44043
520.814	86971
520.885	66904
520.955	148273
521.025	335715
521.095	67111
521.165	25431
521.235	23869
521.305	21682
521.375	20447
521.445	25084
521.515	31249
521.585	35843
521.655	28482
521.725	28376
521.795	24426
521.865	22118
521.935	35228
522.005	24558
522.075	19284
522.145	22743
522.215	29186
522.285	38516
522.355	59211
522.424	101021
522.494	67175
522.564	41944
522.634	99036
522.704	184160
522.774	43109
522.843	22485
522.913	23981
522.983	29125
523.053	22588
523.122	24218
523.192	43573
523.262	128947
523.331	73110
523.401	20190
523.471	16557
523.540	19112
523.610	14597
523.680	15823
523.749	17359
523.819	26552
523.888	20159
523.958	16551
524.027	17578
524.097	17453
524.166	18176
524.236	20339
524.305	17338
524.375	16427
524.444	16556
524.514	18042
524.583	21522
524.653	26519
524.722	25395
524.791	18105
524.861	16797
524.930	16557
524.999	19347
525.069	25538
525.138	21752
525.207	25192
525.277	17336
525.346	18513
525.415	17357
525.484	20164
525.554	25503
525.623	23146
525.692	24256
525.761	24479
525.830	25570
525.900	35899
525.969	59434
526.038	98528
526.107	242376
526.176	507311
526.245	288878
526.314	136485
526.383	312275
526.452	335030
526.522	671881
526.591	390385
526.660	120716
526.729	72621
526.797	103001
526.867	262749
526.935	828338
527.004	1296476
527.073	399875
527.142	49811
527.211	28601
527.280	30422
527.349	24541
527.418	17053
527.487	16480
527.555	15492
527.624	13830
527.693	14421
527.762	14595
527.831	13681
527.899	13143
527.968	13648
528.037	14201
528.106	21950
528.174	35087
528.243	27704
528.312	50955
528.380	43339
528.449	15408
528.518	12931
528.586	10511
528.655	10435
528.723	11186
528.792	11295
528.861	13497
528.929	11470
528.998	11243
529.066	10717
529.135	10846
529.203	10877
529.272	11662
529.340	14213
529.409	13229
529.477	14443
529.545	21029
529.614	19823
529.682	26652
529.751	23751
529.819	25092
529.887	16626
529.956	13763
530.024	13604
530.092	14171
530.161	19573
530.229	26386
530.297	13934
530.365	12859
530.434	12152
530.502	12019
530.570	11574
530.638	10975
530.707	14022
530.775	13390
530.843	12355
530.911	11999
530.979	11463
531.047	13315
531.115	13138
531.183	11998
531.252	12784
531.320	13106
531.388	12688
531.456	12263
531.524	12316
531.592	13814
531.660	14764
531.728	13387
531.796	12589
531.864	12609
531.932	13596
532.000	14130
532.067	15103
532.135	16372
532.203	19789
532.271	23767
532.339	45048
532.407	91158
532.475	37147
532.542	25475
532.610	30513
532.678	54210
532.746	212959
532.814	294169
532.881	50520
532.949	19086
533.017	16880
533.084	13581
533.152	14229
533.220	15760
533.287	16373
533.355	13600
533.423	14251
533.490	14150
533.558	14764
533.625	16933
533.693	18423
533.761	16889
533.828	18060
533.896	20490
533.963	41044
534.031	42650
534.098	50469
534.166	22402
534.233	17654
534.300	19707
534.368	20214
534.435	18458
534.503	19617
534.570	21566
534.637	21787
534.705	25421
534.772	35346
534.840	76300
534.907	286847
534.974	193326
535.041	29638
535.109	23987
535.176	15203
535.243	14944
535.310	16851
535.378	14116
535.445	13587
535.512	13961
535.579	14807
535.646	14703
535.714	18464
535.781	20593
535.848	20244
535.915	20721
535.982	21734
536.049	20241
536.116	19847
536.183	18711
536.250	18506
536.317	20040
536.384	24316
536.451	31907
536.518	29516
536.585	22743
536.652	30661
536.719	39019
536.786	28450
536.853	25906
536.920	43283
536.987	56929
537.053	65223
537.120	208077
537.187	91041
537.254	18599
537.321	17431
537.388	16102
537.454	14093
537.521	13726
537.588	15414
537.654	20260
537.721	22551
537.788	19516
537.855	17871
537.921	19394
537.988	17482
538.055	18156
538.121	18906
538.188	21142
538.254	37121
538.321	56766
538.388	27750
538.454	18456
538.521	17023
538.587	16309
538.654	15660
538.720	15129
538.787	16074
538.853	18484
538.920	22870
538.986	22640
539.053	17188
539.119	19348
539.185	18273
539.252	24973
539.318	32917
539.385	24322
539.451	24668
539.517	25046
539.583	31572
539.650	77215
539.716	115869
539.782	26291
539.849	18254
539.915	19832
539.981	20713
540.047	23920
540.114	20536
540.180	20953
540.246	23265
540.312	35105
540.378	62781
540.444	51113
540.510	78512
540.576	131647
540.643	30605
540.709	18484
540.775	17889
540.841	20264
540.907	30751
540.973	41160
541.039	36008
541.105	32798
541.171	22453
541.237	19704
541.303	21253
541.369	24668
541.435	35932
541.500	49309
541.566	26040
541.632	16953
541.698	15451
541.764	16606
541.830	16702
541.896	16733
541.961	17913
542.027	17865
542.093	19378
542.159	21603
542.224	26408
542.290	37214
542.356	57717
542.421	48318
542.487	24964
542.553	22114
542.618	23529
542.684	18997
542.750	20233
542.815	26358
542.881	54132
542.947	142665
543.012	58300
543.078	17592
543.143	17672
543.209	19801
543.274	21593
543.340	27275
543.405	64441
543.471	61236
543.536	19281
543.602	18365
543.667	17681
543.732	17535
543.798	17864
543.863	18275
543.928	16306
543.994	16614
544.059	17177
544.124	17326
544.190	17859
544.255	18204
544.320	18979
544.386	21967
544.451	30028
544.516	29831
544.581	38665
544.646	105306
544.712	96143
544.777	25122
544.842	22748
544.907	24492
544.972	20502
545.037	22227
545.102	22871
545.168	22193
545.233	24619
545.298	26561
545.363	32975
545.428	35585
545.493	66666
545.558	98517
545.623	33341
545.688	22924
545.753	23297
545.818	23467
545.883	24110
545.947	24367
546.012	25686
546.077	25435
546.142	27266
546.207	27344
546.272	35482
546.337	32784
546.401	28966
546.466	27314
546.531	26973
546.596	30000
546.661	28510
546.725	26751
546.790	26462
546.855	27161
546.919	30463
546.984	31991
547.049	35894
547.113	40567
547.178	37956
547.243	45035
547.307	50506
547.372	58033
547.436	57475
547.501	51352
547.565	55481
547.630	58495
547.695	56673
547.759	63195
547.823	53534
547.888	50395
547.952	50721
548.017	56513
548.081	68574
548.146	70085
548.210	59676
548.274	56960
548.339	53040
548.403	49730
548.468	47313
548.532	47541
548.596	49735
548.660	50244
548.725	57047
548.789	64820
548.853	60858
548.917	57317
548.982	67928
549.046	55651
549.110	43827
549.174	46149
549.238	50913
549.303	53055
549.367	56240
549.431	51874
549.495	50159
549.559	49961
549.623	60251
549.687	66639
549.751	73805
549.815	73623
549.879	71563
549.943	67828
550.007	73653
550.071	70808
550.135	72110
550.199	63186
550.263	60644
550.327	66095
550.391	77906
550.455	68156
550.519	69940
550.582	75856
550.646	92862
550.710	85829
550.774	80951
550.838	81712
550.901	85756
550.965	93528
551.029	99903
551.093	113523
551.156	139446
551.220	206955
551.284	184368
551.347	129082
551.411	180180
551.475	140512
551.538	88666
551.602	77936
551.666	74024
551.729	69112
551.793	69490
551.856	70493
551.920	69953
551.983	67581
552.047	67238
552.110	67116
552.174	70031
552.237	67991
552.301	62071
552.364	61270
552.428	59489
552.491	61908
552.554	63196
552.618	64575
552.681	66617
552.745	69279
552.808	84573
552.871	92637
552.934	72546
552.998	67327
553.061	67002
553.124	64009
553.187	64688
553.251	70240
553.314	73677
553.377	83488
553.440	120299
553.503	299024
553.567	285124
553.630	78340
553.693	66497
553.756	64410
553.819	62130
553.882	60452
553.945	60488
554.008	61139
554.071	61265
554.134	59680
554.197	56718
554.260	57081
554.323	60523
554.386	60725
554.449	61029
554.512	61112
554.575	57501
554.638	59043
554.701	58448
554.764	55321
554.827	54395
554.889	50338
554.952	48926
555.015	47574
555.078	50309
555.141	50713
555.203	49146
555.266	49428
555.329	50042
555.391	47870
555.454	49235
555.517	48125
555.580	44455
555.642	43963
555.705	44549
555.768	45168
555.830	43538
555.893	39374
555.955	39642
556.018	39279
556.080	38564
556.143	40661
556.206	39310
556.268	40707
556.330	41797
556.393	40370
556.455	41199
556.518	55084
556.580	46238
556.643	34718
556.705	35655
556.767	34419
556.830	36869
556.892	41434
556.955	50413
557.017	37521
557.079	34392
557.142	33608
557.204	42171
557.266	64958
557.328	43998
557.391	29898
557.453	29378
557.515	30548
557.577	36553
557.639	34022
557.701	29732
557.764	29705
557.826	32214
557.888	36662
557.950	38342
558.012	45788
558.074	69389
558.136	180642
558.198	297633
558.260	70030
558.322	38798
558.384	41203
558.446	49634
558.508	60832
558.570	84304
558.632	133447
558.694	182006
558.756	283110
558.818	908918
558.880	1395631
558.942	331159
559.003	330179
559.065	108950
559.127	62445
559.189	68274
559.251	89373
559.312	151465
559.374	424249
559.436	999393
559.498	271743
559.559	69647
559.621	68208
559.683	91650
559.744	176769
559.806	577028
559.868	520007
559.929	85251
559.991	76920
560.052	147924
560.114	331203
560.176	150027
560.237	223488
560.299	238157
560.360	41914
560.422	27453
560.483	23501
560.545	23165
560.606	21708
560.667	21850
560.729	20860
560.790	19400
560.852	19015
560.913	19806
560.974	18712
561.036	19741
561.097	19509
561.158	19492
561.220	19856
561.281	20256
561.342	22123
561.403	26673
561.465	35215
561.526	80195
561.587	71003
561.648	23106
561.709	18222
561.771	19497
561.832	18787
561.893	18085
561.954	19324
562.015	18643
562.076	18116
562.137	18052
562.198	17698
562.259	18888
562.320	19667
562.381	23108
562.442	28988
562.503	21566
562.564	17736
562.625	16547
562.686	16796
562.747	19389
562.808	17254
562.869	18938
562.930	21927
562.991	20981
563.051	18656
563.112	18358
563.173	17438
563.234	16953
563.294	17470
563.355	17410
563.416	17810
563.477	18248
563.537	18634
563.598	19874
563.659	18466
563.720	19700
563.780	19415
563.841	20023
563.901	18039
563.962	18859
564.023	17861
564.083	18793
564.144	19380
564.204	19292
564.265	20051
564.325	26757
564.386	50625
564.446	32381
564.507	18614
564.567	18673
564.628	18561
564.688	17786
564.749	17558
564.809	23852
564.869	24429
564.930	18282
564.990	17783
565.050	16696
565.111	17694
565.171	17543
565.231	17508
565.292	18118
565.352	18085
565.412	18760
565.472	19686
565.532	20293
565.593	18553
565.653	18709
565.713	19546
565.773	22518
565.833	27498
565.893	29384
565.953	20575
566.013	21524
566.074	23698
566.134	30197
566.194	47088
566.254	40896
566.314	28676
566.374	22611
566.434	23887
566.494	24978
566.554	25523
566.614	26856
566.673	27147
566.733	29572
566.793	30579
566.853	30948
566.913	31592
566.973	33691
567.033	33424
567.092	32493
567.152	32450
567.212	33216
567.272	35196
567.331	37360
567.391	38641
567.451	43712
567.511	52213
567.570	45442
567.630	34398
567.690	32683
567.749	34790
567.809	38762
567.868	42993
567.928	51147
567.988	61236
568.047	72925
568.107	93642
568.166	129941
568.226	198425
568.285	250436
568.345	221177
568.404	179759
568.464	152766
568.523	140868
568.582	146408
568.642	167692
568.701	218164
568.761	312248
568.820	438848
568.879	418925
568.939	320377
568.998	231760
569.057	174079
569.116	132820
569.176	107875
569.235	86433
569.294	73297
569.353	64264
569.413	56636
569.472	50487
569.531	43671
569.590	40172
569.649	38115
569.708	34728
569.767	33787
569.827	34401
569.886	31130
569.945	27598
570.004	27249
570.063	27278
570.122	27527
570.181	26105
570.240	27790
570.299	27828
570.358	25857
570.417	22101
570.475	20940
570.534	22106
570.593	22138
570.652	22639
570.711	21206
570.770	22018
570.829	24510
570.887	23352
570.946	22445
571.005	18631
571.064	19166
571.122	20560
571.181	22341
571.240	18605
571.299	17231
571.357	19968
571.416	20024
571.475	22750
571.533	20509
571.592	18271
571.650	18405
571.709	17219
571.768	18619
571.826	17831
571.885	15890
571.943	16977
572.002	15623
572.060	16010
572.119	13944
572.177	14374
572.236	14550
572.294	15007
572.352	14805
572.411	13807
572.469	13701
572.528	14409
572.586	14784
572.644	17441
572.703	17752
572.761	14527
572.819	14388
572.877	13049
572.936	13424
572.994	13602
573.052	13831
573.110	15312
573.169	14240
573.227	12976
573.285	13679
573.343	13682
573.401	14058
573.459	13497
573.517	14301
573.576	13305
573.634	13962
573.692	14851
573.750	14143
573.808	14472
573.866	16760
573.924	20570
573.982	17154
574.040	14295
574.098	14326
574.155	13425
574.213	13204
574.271	13560
574.329	13627
574.387	13422
574.445	12945
574.503	12181
574.560	11258
574.618	11216
574.676	12289
574.734	11900
574.792	11932
574.849	11475
574.907	10988
574.965	12198
575.022	11313
575.080	11536
575.138	11920
575.195	12933
575.253	12459
575.311	14241
575.368	11569
575.426	12113
575.483	12348
575.541	11060
575.598	12867
575.656	12264
575.713	12248
575.771	12576
575.828	12085
575.886	11787
575.943	11889
576.001	12802
576.058	13449
576.115	14780
576.173	16213
576.230	19444
576.287	20043
576.345	14536
576.402	13661
576.459	14090
576.517	14636
576.574	15273
576.631	14691
576.688	13794
576.746	11924
576.803	12547
576.860	12859
576.917	12500
576.974	12317
577.031	12401
577.089	12170
577.146	13043
577.203	14016
577.260	14729
577.317	15677
577.374	16903
577.431	15364
577.488	14123
577.545	13046
577.602	13629
577.659	14644
577.716	16673
577.773	18285
577.830	14564
577.886	12694
577.943	13172
578.000	13442
578.057	14954
578.114	15096
578.171	16854
578.227	20447
578.284	18918
578.341	15573
578.398	15530
578.454	15384
578.511	16415
578.568	18059
578.625	14501
578.681	13708
578.738	12268
578.794	13876
578.851	12531
578.908	12964
578.964	14179
579.021	13361
579.077	14050
579.134	14702
579.190	12399
579.247	11881
579.303	12246
579.360	12101
579.416	12710
579.473	12420
579.529	12624
579.586	12750
579.642	14309
579.698	13521
579.755	14554
579.811	13086
579.867	14121
579.924	13924
579.980	15527
580.036	18274
580.093	21505
580.149	26615
580.205	27333
580.261	21347
580.317	19016
580.374	19158
580.430	20002
580.486	17806
580.542	16608
580.598	15583
580.619	15581
580.654	15597
580.692	14925
580.710	14617
580.765	14676
580.767	14694
580.823	13992
580.838	14176
580.879	14715
580.911	14274
580.935	13978
580.984	15152
580.991	15329
581.047	14853
581.057	14897
581.103	15189
581.130	15724
581.159	16319
581.203	16744
581.215	16865
581.270	16292
581.276	16165
581.326	15099
581.349	15222
581.382	15410
581.422	15207
581.438	15158
581.494	14835
581.494	14825
581.550	14754
581.567	15028
581.606	15743
581.640	15375
581.661	15129
581.713	15561
581.717	15609
581.773	14212
581.786	14196
581.829	14112
581.859	14689
581.885	15267
581.932	14284
581.940	14098
581.996	14902
582.004	14904
582.052	14960
582.077	14487
582.107	13909
582.150	14196
582.163	14327
582.219	15277
582.223	15227
582.274	14656
582.296	15253
582.330	16167
582.368	16042
582.386	16005
582.441	15886
582.441	15890
582.497	15542
582.514	16037
582.552	17288
582.587	18043
582.608	18427
582.659	16430
582.663	16269
582.719	15626
582.732	15625
582.774	15712
582.805	15833
582.830	15990
582.877	16216
582.885	16229
582.941	16405
582.950	16518
582.996	17251
583.023	17763
583.052	18423
583.095	19100
583.107	19296
583.162	22449
583.168	22525
583.218	23160
583.240	22114
583.273	20229
583.313	19215
583.328	18881
583.384	17080
583.385	17107
583.439	18056
583.458	17800
583.494	17378
583.531	17461
583.549	17444
583.603	17994
583.605	18010
583.660	16714
583.676	16801
583.715	17159
583.748	17599
583.770	17917
583.820	18130
583.825	18131
583.881	17519
583.893	17501
583.936	17551
583.965	17391
583.991	17144
584.038	17646
584.046	17776
584.101	18264
584.110	18190
584.156	17702
584.183	17927
584.211	18218
584.255	18345
584.266	18374
584.321	18580
584.328	18640
584.376	18983
584.400	18605
584.431	18134
584.472	18862
584.486	19109
584.541	19210
584.545	19218
584.596	19043
584.617	19309
584.651	20016
584.689	20125
584.706	20185
584.761	20791
584.762	20800
584.816	21191
584.834	21369
584.871	21860
584.906	21963
584.926	21948
584.978	23119
584.980	23165
585.035	23529
585.051	24088
585.090	25687
585.123	26345
585.145	26735
585.195	28049
585.200	28234
585.254	31691
585.267	33495
585.309	40246
585.340	44357
585.364	47148
585.412	46397
585.419	45965
585.473	49346
585.484	51136
585.528	60489
585.556	69755
585.583	81702
585.628	118516
585.637	130030
585.692	263206
585.700	278804
585.747	384302
585.772	335286
585.801	211188
585.845	110163
585.856	92062
585.910	48997
585.917	44320
585.965	38598
585.989	36559
586.019	35299
586.061	34153
586.074	34010
586.128	33701
586.133	33787
586.183	34887
586.205	34520
586.237	34195
586.277	35277
586.292	35613
586.346	35988
586.349	36042
586.401	36626
586.421	37083
586.455	38245
586.493	40444
586.509	41767
586.564	47556
586.565	47876
586.618	64451
586.637	63001
586.672	56081
586.709	52817
586.727	49861
586.781	45206
586.781	45200
586.835	44635
586.853	44550
586.889	43900
586.925	43745
586.944	44163
586.996	46063
586.998	46097
587.052	46895
587.068	47170
587.106	48219
587.140	49403
587.161	50032
587.212	52313
587.215	52472
587.269	54887
587.284	55870
587.323	57573
587.356	58744
587.377	59984
587.427	63262
587.431	63462
587.485	66316
587.499	67028
587.539	69292
587.571	71996
587.593	74063
587.643	78097
587.648	78527
587.702	83908
587.715	85305
587.755	89833
587.786	93662
587.810	96801
587.858	103185
587.864	104026
587.917	113801
587.930	116325
587.971	125784
588.001	132628
588.025	138147
588.073	150085
588.079	151832
588.133	168641
588.145	173032
588.187	190654
588.217	204017
588.241	216659
588.288	244815
588.295	249022
588.348	288689
588.360	298267
588.402	337706
588.431	368169
588.456	397172
588.503	460621
588.510	470938
588.564	568209
588.575	591990
588.617	698280
588.646	782209
588.671	874617
588.718	1077980
588.725	1117840
588.778	1471067
588.789	1548902
588.832	1949867
588.861	2192839
588.886	2365698
588.932	2457976
588.939	2406576
588.993	2088566
589.004	2087433
589.047	2428520
589.075	2495846
589.100	2365978
589.147	2024058
589.154	1954546
589.207	1469092
589.218	1380059
589.261	1219413
589.290	1132959
589.314	1130015
589.361	1160182
589.368	1183578
589.421	1432082
589.433	1492520
589.475	1862716
589.504	2063828
589.528	2159739
589.576	2236404
589.582	2215048
589.635	2214924
589.647	2165900
589.689	1880865
589.718	1661222
589.742	1394516
589.790	909821
589.795	880469
589.849	631974
589.861	577773
589.902	484917
589.932	418494
589.955	383892
590.004	314943
590.009	310087
590.062	261449
590.075	249833
590.115	226021
590.146	208272
590.168	197951
590.218	176080
590.222	174824
590.275	158161
590.289	154111
590.328	145110
590.360	137771
590.381	132789
590.431	120803
590.435	120270
590.488	111750
590.503	109360
590.541	104998
590.574	101272
590.594	99188
590.645	94191
590.647	94023
590.700	88514
590.716	87001
590.753	83982
590.787	81082
590.806	79856
590.859	76477
590.859	76438
590.912	72431
590.930	71300
590.965	69472
591.001	67569
591.018	66993
591.071	64810
591.072	64762
591.124	62574
591.143	61616
591.177	60414
591.214	59337
591.230	58851
591.283	57088
591.285	56996
591.336	56631
591.356	56492
591.389	55876
591.427	54839
591.442	54229
591.495	52085
591.498	51902
591.547	50569
591.569	49982
591.600	49431
591.640	48378
591.653	48374
591.706	48678
591.711	48661
591.759	47920
591.782	47597
591.811	48283
591.853	49098
591.864	48741
591.917	46660
591.924	46346
591.969	45035
591.995	44268
592.022	43668
592.066	42557
592.075	42788
592.127	44225
592.137	44494
592.180	46553
592.208	47692
592.233	46537
592.279	44309
592.285	43965
592.338	40857
592.350	40124
592.390	39745
592.421	39437
592.443	39267
592.491	38834
592.495	38868
592.548	39052
592.562	39091
592.600	38770
592.633	38437
592.653	38094
592.704	36957
592.705	37192
592.775	38440
592.846	37944
592.916	38534
592.987	38135
593.058	38625
593.128	37439
593.199	35915
593.270	35358
593.341	34136
593.411	34866
593.482	36296
593.553	36148
593.623	35060
593.694	34397
593.764	35578
593.835	35270
593.906	34589
593.976	34556
594.047	35491
594.117	36799
594.188	39231
594.258	35941
594.329	34083
594.399	34172
594.470	34534
594.540	34817
594.611	34273
594.681	34143
594.751	34202
594.822	36953
594.892	38075
594.963	37885
595.033	38726
595.103	38658
595.174	37876
595.244	42743
595.314	52976
595.384	45684
595.455	38438
595.525	40052
595.595	40035
595.665	41802
595.736	39477
595.806	39466
595.876	40216
595.946	39347
596.016	39647
596.087	41956
596.157	40949
596.227	41075
596.297	41281
596.367	44718
596.437	46308
596.507	50527
596.577	58921
596.647	52573
596.717	47749
596.787	48535
596.857	47838
596.927	48612
596.997	49137
597.067	49476
597.137	53145
597.207	53102
597.277	51541
597.347	50133
597.417	47978
597.487	47062
597.557	48903
597.626	49824
597.696	50212
597.766	53070
597.836	57221
597.906	53025
597.975	45369
598.045	45084
598.115	45671
598.185	47163
598.254	50794
598.324	55288
598.394	58365
598.464	57529
598.533	55664
598.603	52668
598.672	51347
598.742	52259
598.812	51593
598.881	52558
598.951	52020
599.020	53313
599.090	53256
599.159	55266
599.229	53780
599.299	51019
599.368	51397
599.437	53227
599.507	50181
599.576	49483
599.646	50752
599.715	53308
599.785	49486
599.854	47287
599.924	48488
599.993	48921
600.062	46348
600.132	47337
600.201	48542
600.270	53175
600.340	57883
600.409	56391
600.478	55837
600.547	55628
600.617	56520
600.686	47098
600.755	43433
600.824	41977
600.894	41465
600.963	41173
601.032	40086
601.101	39768
601.170	38809
601.239	38687
601.308	38627
601.378	39269
601.447	38344
601.516	38265
601.585	37713
601.654	38937
601.723	39901
601.792	39385
601.861	42490
601.930	46937
601.999	48096
602.068	43549
602.137	42335
602.206	45007
602.275	43485
602.343	46075
602.412	47107
602.481	44748
602.550	43753
602.619	44391
602.688	45536
602.756	46509
602.825	45719
602.894	45610
602.963	46655
603.032	47658
603.100	47824
603.169	47395
603.238	47524
603.307	48484
603.375	47513
603.444	48524
603.513	48437
603.581	48735
603.650	49670
603.719	49785
603.787	47736
603.856	49840
603.924	51010
603.993	52589
604.061	51812
604.130	54628
604.198	56848
604.267	56212
604.335	58392
604.404	58204
604.472	59548
604.541	58879
604.609	59916
604.678	60208
604.746	60268
604.815	62764
604.883	63018
604.951	63172
605.020	63481
605.088	63738
605.156	63150
605.225	65722
605.293	64141
605.361	65714
605.429	66449
605.498	67117
605.566	69386
605.634	71574
605.702	72957
605.771	74654
605.839	74606
605.907	73998
605.975	71564
606.043	70491
606.111	70552
606.180	71878
606.248	73517
606.316	79286
606.384	72170
606.452	71230
606.520	71905
606.588	71610
606.656	69342
606.724	69609
606.792	64801
606.860	61068
606.928	55749
606.996	52646
607.064	51416
607.132	52235
607.200	53536
607.267	56218
607.335	56896
607.403	58787
607.471	57520
607.539	54721
607.607	55298
607.674	52074
607.742	50496
607.810	51960
607.878	50786
607.946	49749
608.013	51651
608.081	54408
608.149	54634
608.216	53276
608.284	57645
608.352	57538
608.419	58122
608.487	59271
608.555	59822
608.622	54522
608.690	57426
608.757	61206
608.825	66697
608.893	65465
608.960	63858
609.028	63671
609.095	64267
609.163	63994
609.230	56647
609.298	50476
609.365	49938
609.432	53597
609.500	56265
609.567	63636
609.635	71179
609.702	79661
609.769	79193
609.837	70776
609.904	58494
609.971	58836
610.039	63970
610.106	81486
610.173	135253
610.241	324034
610.308	453805
610.375	161345
610.442	79922
610.509	60930
610.577	56608
610.644	56400
610.711	56974
610.778	58729
610.845	61022
610.912	63892
610.980	68941
611.047	78370
611.114	80664
611.181	66086
611.248	62813
611.315	63945
611.382	67409
611.449	69185
611.516	69876
611.583	71610
611.650	71107
611.717	72934
611.784	73337
611.851	80292
611.918	86320
611.984	105211
612.051	144431
612.118	255562
612.185	639920
612.252	989841
612.319	237348
612.386	107700
612.452	94094
612.519	86314
612.586	85294
612.653	84903
612.719	81253
612.786	80937
612.853	76131
612.919	70688
612.986	71211
613.053	69697
613.120	66044
613.186	62484
613.253	63587
613.319	63247
613.386	63014
613.453	64376
613.519	66285
613.586	66954
613.652	72693
613.719	71600
613.785	71572
613.852	67814
613.918	67737
613.985	69566
614.051	81104
614.118	114271
614.184	174109
614.250	89751
614.317	68768
614.383	64883
614.449	65436
614.516	65854
614.582	65742
614.648	67461
614.715	64236
614.781	63745
614.847	62158
614.914	64073
614.980	62912
615.046	62846
615.112	63101
615.179	65801
615.245	68276
615.311	73007
615.377	88247
615.443	118700
615.509	92782
615.575	76810
615.642	73411
615.708	75055
615.774	80473
615.840	88402
615.906	105049
615.972	137032
616.038	223229
616.104	411799
616.170	793886
616.236	1450085
616.302	442053
616.368	158969
616.434	120761
616.500	94076
616.565	93030
616.631	115223
616.697	117490
616.763	99324
616.829	123892
616.895	219536
616.961	314485
617.026	183173
617.092	87061
617.158	71255
617.224	66477
617.289	64017
617.355	59712
617.421	59325
617.487	59387
617.552	56490
617.618	53082
617.684	54968
617.749	55156
617.815	53881
617.880	51508
617.946	51129
618.012	51307
618.077	53960
618.143	52300
618.208	50758
618.274	54253
618.339	55036
618.405	51291
618.470	45843
618.536	46431
618.601	48174
618.667	46824
618.732	43228
618.798	41317
618.863	41642
618.928	40964
618.994	42034
619.059	43159
619.124	46757
619.190	48712
619.255	41705
619.320	41292
619.386	41847
619.451	40254
619.516	40064
619.581	39605
619.647	41231
619.712	41481
619.777	39598
619.842	39219
619.907	40228
619.972	40283
620.038	40715
620.103	40235
620.168	39443
620.233	39523
620.298	40204
620.363	39720
620.428	40579
620.493	41017
620.558	41001
620.623	41956
620.688	42812
620.753	42907
620.818	42907
620.883	43901
620.948	44244
621.013	43654
621.078	42843
621.143	42081
621.207	43513
621.272	43346
621.337	43751
621.402	43291
621.467	45684
621.532	49447
621.596	45790
621.661	43328
621.726	41281
621.791	40295
621.855	41778
621.920	42353
621.985	43231
622.049	44921
622.114	47151
622.179	44162
622.243	44655
622.308	45981
622.373	46155
622.437	47039
622.502	45050
622.566	43597
622.631	43875
622.695	43413
622.760	43846
622.824	43848
622.889	45110
622.953	45006
623.018	48967
623.082	57542
623.147	48210
623.211	45301
623.276	46022
623.340	44098
623.404	41578
623.469	40821
623.533	41472
623.597	41711
623.662	41368
623.726	39352
623.790	38285
623.854	35624
623.919	36549
623.983	36732
624.047	37986
624.111	36665
624.176	37897
624.240	38235
624.304	40197
624.368	39224
624.432	38483
624.496	38294
624.560	40468
624.625	43574
624.689	41960
624.753	40066
624.817	42159
624.881	39221
624.945	37650
625.009	35131
625.073	35451
625.137	35392
625.201	40368
625.265	43508
625.329	38269
625.393	36565
625.456	39418
625.520	38204
625.584	40949
625.648	43717
625.712	48940
625.776	72553
625.839	103230
625.903	78967
625.967	37966
626.031	39847
626.095	60454
626.158	55362
626.222	33093
626.286	28255
626.349	26426
626.413	26002
626.477	26120
626.540	26198
626.604	25469
626.668	24839
626.731	24855
626.795	23905
626.858	25840
626.922	25017
626.986	24462
627.049	24153
627.113	23850
627.176	24534
627.240	24269
627.303	23745
627.366	23749
627.430	23717
627.493	24347
627.557	23292
627.620	23774
627.684	23955
627.747	25850
627.810	23817
627.874	22763
627.937	20990
628.000	21729
628.064	23097
628.127	21709
628.190	19216
628.253	19579
628.317	18884
628.380	18079
628.443	17131
628.506	17789
628.569	17774
628.632	16494
628.696	16237
628.759	16751
628.822	15628
628.885	15524
628.948	15651
629.011	15169
629.074	15308
629.137	15442
629.200	14889
629.263	15790
629.326	14778
629.389	15052
629.452	14266
629.515	14997
629.578	14993
629.641	14626
629.704	15445
629.767	15419
629.830	14642
629.892	13361
629.955	13729
630.018	14865
630.081	14678
630.144	17077
630.207	15660
630.269	15915
630.332	15054
630.395	15731
630.458	12626
630.520	13277
630.583	13708
630.646	12608
630.708	12562
630.771	13621
630.834	13856
630.896	13111
630.959	12823
631.021	12908
631.084	13106
631.146	14240
631.209	14370
631.272	15760
631.334	13522
631.397	13249
631.459	12369
631.522	14168
631.584	14319
631.646	16039
631.709	16285
631.771	17809
631.834	18155
631.896	14289
631.958	14019
632.021	14070
632.083	12827
632.145	12941
632.208	13316
632.270	12089
632.332	13186
632.395	11726
632.457	13425
632.519	12473
632.581	11660
632.643	11616
632.706	12716
632.768	12091
632.830	10975
632.892	13130
632.954	12020
633.016	13036
633.078	12637
633.141	12044
633.203	12242
633.265	11954
633.327	11604
633.389	11955
633.451	11888
633.513	13664
633.575	14300
633.637	15154
633.698	14589
633.760	13964
633.822	12834
633.884	13399
633.946	13622
634.008	13731
634.070	14409
634.132	18429
634.193	19821
634.255	17366
634.317	17763
634.379	18171
634.441	16771
634.502	15996
634.564	14692
634.626	13067
634.687	12730
634.749	12747
634.811	12036
634.873	11780
634.934	12169
634.996	11512
635.057	11385
635.119	11300
635.181	11566
635.242	12836
635.304	10768
635.365	11443
635.427	12162
635.488	12471
635.550	11670
635.611	11619
635.673	11576
635.734	12674
635.796	12681
635.857	14273
635.918	15341
635.980	15660
636.041	17686
636.102	18379
636.164	18531
636.225	19116
636.286	17230
636.348	15782
636.409	14153
636.470	12477
636.531	11870
636.593	12339
636.654	12106
636.715	11775
636.776	10050
636.838	10367
636.899	10737
636.960	10009
637.021	10453
637.082	10678
637.143	10070
637.204	9141
637.265	8547
637.326	9609
637.387	8685
637.448	9710
637.509	9259
637.570	9992
637.631	9659
637.692	9055
637.753	8605
637.814	9535
637.875	9094
637.936	9026
637.997	8737
638.058	9849
638.119	10669
638.179	9397
638.240	9266
638.301	8667
638.362	8828
638.423	9427
638.483	9075
638.544	9352
638.605	8463
638.666	8975
638.726	8724
638.787	8707
638.848	8032
638.908	8463
638.969	7935
639.030	8540
639.090	7645
639.151	8150
639.211	8347
639.272	9861
639.332	12008
639.393	14531
639.453	9515
639.514	9234
639.574	9211
639.635	7348
639.695	7793
639.756	7997
639.816	8036
639.877	9320
639.937	10360
639.997	15138
640.058	12014
640.118	8154
640.178	7429
640.239	7691
640.299	6708
640.359	7924
640.420	7532
640.480	8119
640.540	8719
640.600	10524
640.661	9718
640.721	9168
640.781	11310
640.841	13242
640.901	10138
640.961	7121
641.021	8231
641.082	9450
641.142	11282
641.202	11383
641.262	6833
641.322	7886
641.382	6344
641.442	8036
641.502	7213
641.562	7805
641.622	7104
641.682	7287
641.742	7617
641.802	9003
641.861	8493
641.921	7666
641.981	7441
642.041	8381
642.101	8896
642.161	8874
642.221	6586
642.280	7035
642.340	6835
642.400	7016
642.460	6773
642.519	7462
642.579	6833
642.639	7462
642.698	6001
642.758	7847
642.818	7005
642.877	7181
642.937	7704
642.997	8204
643.056	9434
643.116	10307
643.175	8336
643.235	7291
643.294	7702
643.354	9102
643.414	9848
643.473	12775
643.532	16521
643.592	22777
643.651	34197
643.711	55436
643.770	97792
643.830	191457
643.889	558671
643.948	556881
644.008	66303
644.067	22968
644.126	15731
644.186	12896
644.245	10555
644.304	8587
644.363	8817
644.423	8235
644.482	8570
644.541	9153
644.600	8305
644.659	11064
644.719	12531
644.778	17903
644.837	26525
644.896	47035
644.955	111348
645.014	144485
645.073	27229
645.132	13478
645.191	9975
645.250	9245
645.309	9074
645.368	9227
645.427	9978
645.486	12993
645.545	27789
645.604	25764
645.663	9373
645.722	8700
645.781	9957
645.840	11528
645.898	14294
645.957	18560
646.016	28696
646.075	50322
646.134	87183
646.192	175806
646.251	509879
646.310	310042
646.369	34150
646.427	17482
646.486	14228
646.545	10326
646.603	8828
646.662	8034
646.721	7337
646.779	7785
646.838	7238
646.896	9436
646.955	12544
647.014	16763
647.072	27075
647.131	59381
647.189	108308
647.248	22351
647.306	8872
647.365	6826
647.423	5315
647.481	6552
647.540	5293
647.598	6087
647.657	5608
647.715	5997
647.773	5130
647.832	5908
647.890	4552
647.948	5348
648.007	5807
648.065	5163
648.123	5400
648.181	7401
648.240	7137
648.298	9347
648.356	7273
648.414	5447
648.472	5727
648.531	5486
648.589	5589
648.647	5442
648.705	4874
648.763	5874
648.821	5547
648.879	6306
648.937	7328
648.995	8904
649.053	10143
649.111	15312
649.169	22749
649.227	37830
649.285	67671
649.343	166891
649.401	310400
649.459	66052
649.516	27602
649.574	19825
649.632	26236
649.690	57692
649.748	36486
649.806	20437
649.863	35840
649.921	49839
649.979	83878
650.037	25909
650.094	6919
650.152	5002
650.210	5832
650.268	6409
650.325	5485
650.383	6726
650.440	5335
650.498	4381
650.556	4423
650.613	4478
650.671	3312
650.728	4201
650.786	4257
650.843	4923
650.901	4172
650.958	4370
651.016	3939
651.073	4089
651.131	3604
651.188	3323
651.246	4623
651.303	2861
651.360	2856
651.418	2940
651.475	3683
651.532	3000
651.590	3349
651.647	2922
651.704	3344
651.762	3614
651.819	3477
651.876	3453
651.933	2775
651.990	2704
652.048	2585
652.105	2801
652.162	3111
652.219	3315
652.276	3492
652.333	3633
652.390	2280
652.448	3354
652.505	2876
652.562	3477
652.619	5431
652.676	5719
652.733	12278
652.790	5880
652.847	2731
652.904	3499
652.961	2922
653.017	2377
653.074	3055
653.131	2877
653.188	2927
653.245	3369
653.302	2594
653.359	2736
653.415	3315
653.472	2950
653.529	2859
653.586	2228
653.642	2945
653.699	3318
653.756	2209
653.813	3791
653.869	2915
653.926	3035
653.983	2185
654.039	2719
654.096	2564
654.152	3511
654.209	2252
654.266	3304
654.322	3124
654.379	4237
654.435	3102
654.492	3616
654.548	4101
654.605	6627
654.661	7028
654.717	3346
654.774	3413
654.830	3120
654.887	2855
654.943	3807
655.000	4391
655.056	4638
655.112	2603
655.168	3340
655.225	3354
655.281	3830
655.337	3551
655.394	6196
655.450	7035
655.506	4564
655.562	5293
655.618	8919
655.675	4018
655.731	3826
655.787	3328
655.843	3663
655.899	2554
655.955	4221
656.011	4208
656.067	3635
656.123	4065
656.179	3976
656.235	5220
656.291	4239
656.347	4822
656.403	4279
656.459	4094
656.515	4033
656.571	3475
656.627	3992
656.683	3219
656.739	4087
656.795	2965
656.850	3712
656.906	3320
656.962	4161
657.018	2787
657.074	3341
657.129	3800
657.185	4619
657.241	6133
657.297	9969
657.352	4186
657.408	2492
657.464	3033
657.519	2778
657.575	2080
657.630	2939
657.686	3025
657.742	2473
657.797	2882
657.853	2288
657.908	2704
657.964	2450
658.019	2247
658.075	3047
658.130	2765
658.186	2056
658.241	2529
658.297	2505
658.352	2421
658.407	3012
658.463	2498
658.518	2809
658.573	1755
658.629	2845
658.684	2348
658.739	2500
658.795	1934
658.850	2888
658.905	1459
658.960	1791
659.016	2331
659.071	2879
659.126	3095
659.181	2512
659.236	4183
659.291	6193
659.346	4777
659.401	3935
659.457	4648
659.512	6454
659.567	7495
659.622	3521
659.677	2355
659.732	2624
659.787	2753
659.842	2465
659.897	2655
659.952	3503
660.007	2567
660.061	2626
660.116	2575
660.171	1797
660.226	2323
660.281	3538
660.336	1856
660.391	2897
660.445	2436
660.500	2242
660.555	2715
660.610	1528
660.664	2943
660.719	2161
660.774	1898
660.828	2085
660.883	2767
660.938	2409
660.992	2200
661.047	2544
661.101	2043
661.156	1980
661.211	1794
661.265	2311
661.320	2192
661.374	2542
661.429	2011
661.483	2533
661.538	2311
661.592	1524
661.647	2532
661.701	3326
661.755	3716
661.810	2148
661.864	1565
661.919	2208
661.973	2070
662.027	2526
662.081	2054
662.136	1713
662.190	2533
662.244	3211
662.299	2080
662.353	2934
662.407	2410
662.461	1970
662.515	2116
662.569	2598
662.624	2742
662.678	1915
662.732	2253
662.786	2577
662.840	2217
662.894	2925
662.948	1772
663.002	1878
663.056	1559
663.110	2400
663.164	1426
663.218	2673
663.272	1352
663.326	2735
663.380	2029
663.434	2403
663.488	2151
663.542	3043
663.595	2653
663.649	2066
663.703	3010
663.757	2154
663.811	1756
663.864	2969
663.918	2655
663.972	1865
664.026	2716
664.079	2526
664.133	2511
664.187	2323
664.240	2094
664.294	2214
664.348	2480
664.401	2752
664.455	2264
664.508	1815
664.562	2166
664.615	2577
664.669	1926
664.722	2454
664.776	2262
664.829	2727
664.883	3201
664.936	2279
664.990	2264
665.043	2225
665.097	2359
665.150	3575
665.203	2169
665.257	2623
665.310	2904
665.363	2495
665.417	2684
665.470	2709
665.523	2967
665.576	3554
665.630	2614
665.683	2387
665.736	2528
665.789	3151
665.842	2191
665.895	2798
665.949	2971
666.002	2717
666.055	2553
666.108	2957
666.161	2449
666.214	2472
666.267	3098
666.320	3323
666.373	3498
666.426	3386
666.479	2267
666.532	2800
666.585	3107
666.638	3387
666.691	3288
666.744	4012
666.796	2639
666.849	3282
666.902	2866
666.955	2121
667.008	2128
667.060	2660
667.113	2608
667.166	2966
667.219	2673
667.271	2836
667.324	2904
667.377	2445
667.430	3487
667.482	3270
667.535	6210
667.587	2790
667.640	3096
667.693	3042
667.745	3669
667.798	6312
667.850	4422
667.903	3063
667.955	3314
668.008	3580
668.060	2776
668.113	2880
668.165	3534
668.218	3566
668.270	2389
668.322	2350
668.375	2737
668.427	3902
668.479	2484
668.532	2948
668.584	3077
668.636	3484
668.689	2421
668.741	2727
668.793	3580
668.845	2830
668.898	3207
668.950	3014
669.002	2778
669.054	3414
669.106	2378
669.158	4290
669.211	3199
669.263	3778
669.315	3836
669.367	4884
669.419	5579
669.471	5510
669.523	5573
669.575	7193
669.627	8138
669.679	6365
669.731	3743
669.783	4190
669.835	6035
669.886	6372
669.938	4728
669.990	4153
670.042	3354
670.094	3772
670.146	4430
670.197	5489
670.249	5098
670.301	7098
670.353	9369
670.404	13032
670.456	19018
670.508	26909
670.560	41413
670.611	64558
670.663	102003
670.715	178104
670.766	444778
670.818	527052
670.869	127514
670.921	26112
670.972	15016
671.024	11385
671.075	8868
671.127	6632
671.178	5508
671.230	5004
671.281	5819
671.333	5137
671.384	4210
671.436	5252
671.487	6802
671.538	8028
671.590	10296
671.641	12718
671.692	19219
671.744	32786
671.795	53374
671.846	31795
671.897	11244
671.949	7049
672.000	5754
672.051	4390
672.102	3504
672.153	3613
672.204	3882
672.256	3662
672.307	3675
672.358	3534
672.409	2691
672.460	3017
672.511	3032
672.562	2573
672.613	2837
672.664	2398
672.715	2646
672.766	3262
672.817	2279
672.868	2802
672.919	2996
672.970	2994
673.021	2128
673.071	2469
673.122	2593
673.173	2156
673.224	2401
673.275	2731
673.326	1720
673.376	3768
673.427	2238
673.478	2948
673.528	3301
673.579	2662
673.630	2568
673.680	3066
673.731	2290
673.782	2112
673.832	2065
673.883	2351
673.934	2381
673.984	2616
674.035	2070
674.085	2741
674.136	3024
674.186	2415
674.237	3061
674.287	4264
674.338	5002
674.388	2402
674.438	1860
674.489	2431
674.539	2783
674.589	3070
674.640	2149
674.690	2614
674.740	2220
674.791	2451
674.841	2136
674.891	2968
674.942	2707
674.992	3139
675.042	1963
675.092	1851
675.142	2011
675.193	2438
675.243	2346
675.293	2223
675.343	2002
675.393	2336
675.443	2527
675.493	2727
675.543	1718
675.593	2371
675.643	1955
675.693	2300
675.743	2192
675.793	2317
675.843	972
675.893	2206
675.943	1710
675.993	2072
676.043	2498
676.093	2627
676.142	1371
676.192	2622
676.242	1236
676.292	2247
676.341	1647
676.391	2276
676.441	2262
676.491	2252
676.540	1896
676.590	2009
676.640	1254
676.689	2430
676.739	1938
676.789	2358
676.838	1923
676.888	1774
676.937	1070
676.987	1964
677.037	1867
677.086	1908
677.136	1534
677.185	2355
677.235	1623
677.284	940
677.333	1185
677.383	1524
677.432	1253
677.482	2034
677.531	1199
677.580	941
677.630	1476
677.679	1447
677.728	1152
677.778	1582
677.827	1321
677.876	1658
677.925	1087
677.975	1622
678.024	1390
678.073	2359
678.122	1377
678.171	1626
678.220	2308
678.269	2346
678.319	1637
678.368	2134
678.417	1910
678.466	2597
678.515	2033
678.564	1567
678.613	2285
678.662	2150
678.711	1836
678.760	2152
678.809	1907
678.857	1820
678.906	2050
678.955	1656
679.004	2207
679.053	2501
679.102	1896
679.151	2460
679.199	2001
679.248	1754
679.297	2161
679.346	2381
679.394	1855
679.443	2458
679.492	1508
679.540	1210
679.589	1149
679.638	1839
679.686	1434
679.735	1983
679.784	1535
679.832	2451
679.881	1703
679.929	1426
679.978	1074
680.026	1589
680.075	1191
680.123	1767
680.172	1272
680.220	1323
680.268	1268
680.317	2382
680.365	827
680.414	1018
680.462	787
680.510	1597
680.559	1045
680.607	1919
680.655	545
680.703	1219
680.752	1428
680.800	1896
680.848	708
680.896	1325
680.945	2124
680.993	821
681.041	501
681.089	1350
681.137	1871
681.185	477
681.233	1065
681.258	1438
681.281	1774
681.329	962
681.377	1312
681.380	1311
681.425	935
681.473	1992
681.502	1658
681.521	1396
681.569	1955
681.617	1465
681.624	1517
681.665	1706
681.713	1512
681.745	1706
681.761	1768
681.809	1399
681.857	3070
681.867	2698
681.904	1356
681.952	2252
681.989	1509
682.000	1264
682.048	1845
682.096	2116
682.111	1971
682.143	1598
682.191	1876
682.233	2784
682.239	2899
682.286	2561
682.334	1994
682.354	1970
682.382	1923
682.430	1694
682.476	2139
682.477	2132
682.525	1789
682.572	2081
682.598	2288
682.620	2457
682.667	2008
682.715	2648
682.720	2645
682.763	2451
682.810	2911
682.841	2232
682.857	1853
682.905	2556
682.952	2524
682.963	2571
683.000	2661
683.047	2312
683.085	3032
683.095	3221
683.142	2306
683.190	2822
683.206	2806
683.237	2691
683.284	2293
683.328	2131
683.332	2108
683.379	2968
683.426	2785
683.449	2980
683.473	3140
683.521	2485
683.568	2424
683.571	2450
683.615	2688
683.662	3773
683.693	3330
683.709	3035
683.757	3456
683.804	2976
683.814	3127
683.851	3619
683.898	3065
683.936	3803
683.945	3967
683.992	3237
684.039	3130
684.057	3300
684.086	3565
684.133	2807
684.179	3048
684.180	3042
684.227	3595
684.274	3006
684.300	3260
684.321	3432
684.368	3201
684.415	4499
684.422	4392
684.462	3659
684.509	3303
684.543	3284
684.556	3265
684.603	3486
684.649	2983
684.665	3124
684.696	3457
684.743	3589
684.786	3544
684.790	3528
684.837	3905
684.883	4330
684.908	4178
684.930	4098
684.977	4507
685.023	4314
685.029	4323
685.070	4098
685.117	3984
685.150	4273
685.164	4372
685.210	4509
685.257	4804
685.272	4641
685.303	4321
685.350	4278
685.393	3988
685.396	3961
685.443	4731
685.490	4486
685.514	4659
685.536	4780
685.583	4673
685.629	4568
685.636	4620
685.675	4804
685.722	5231
685.757	4799
685.768	4680
685.815	4973
685.861	4524
685.878	4763
685.908	5138
685.954	4932
686.000	5016
686.000	5015
686.047	5136
686.093	5909
686.121	6013
686.139	6103
686.185	6311
686.232	5804
686.242	5896
686.278	5734
686.324	5518
686.363	4945
686.370	4896
686.416	4486
686.463	4472
686.484	4582
686.509	4790
686.555	5188
686.601	5665
686.606	5674
686.647	5589
686.693	5531
686.727	5315
686.739	5193
686.785	5491
686.831	4751
686.848	4687
686.877	4625
686.923	5331
686.969	4343
686.969	4338
687.015	4936
687.061	4765
687.090	5269
687.107	5500
687.153	5715
687.199	5536
687.211	5448
687.245	5125
687.291	4813
687.332	4539
687.336	4539
687.382	5482
687.428	5048
687.453	5381
687.474	5550
687.520	5512
687.565	5941
687.574	5867
687.611	5617
687.657	6332
687.695	5572
687.702	5489
687.748	6542
687.794	6460
687.816	7194
687.839	7934
687.885	7246
687.931	7526
687.937	7569
687.976	6939
688.022	6224
688.058	5735
688.067	5765
688.113	5979
688.158	5727
688.179	5798
688.204	5912
688.249	5561
688.295	5856
688.300	5926
688.340	6411
688.386	6603
688.421	6279
688.431	6203
688.477	6526
688.522	6338
688.542	6436
688.567	6531
688.613	6506
688.658	6494
688.663	6468
688.703	6301
688.749	6220
688.784	6083
688.794	6072
688.839	6076
688.884	6496
688.905	6587
688.930	6631
688.975	6514
689.020	6561
689.026	6563
689.065	6738
689.110	6250
689.146	6394
689.155	6400
689.201	6798
689.246	6526
689.267	6368
689.291	6290
689.336	6470
689.381	6520
689.388	6476
689.426	6433
689.471	6829
689.509	6818
689.516	6780
689.561	6615
689.606	7080
689.630	6918
689.651	6826
689.696	6493
689.741	6754
689.750	6741
689.785	6685
689.830	6674
689.871	6126
689.875	6104
689.920	6790
689.965	6555
689.992	6709
690.010	6716
690.054	6884
690.099	7050
690.112	6890
690.144	6737
690.189	6937
690.233	6987
690.233	6996
690.278	7207
690.323	6826
690.354	6822
690.367	6925
690.412	7250
690.457	7319
690.474	7460
690.501	7579
690.546	7643
690.590	7242
690.595	7245
690.635	7487
690.680	7551
690.716	7566
690.724	7674
690.769	8689
690.813	9471
690.836	9599
690.857	9907
690.902	10917
690.946	12182
690.957	12485
690.991	15231
691.035	18920
691.077	23874
691.080	24377
691.124	32546
691.168	37720
691.198	41464
691.213	39138
691.257	32866
691.301	27011
691.318	24565
691.346	21671
691.390	17101
691.434	12902
691.439	12379
691.478	11287
691.522	10191
691.559	9043
691.567	9028
691.611	9202
691.655	9035
691.680	9030
691.699	8978
691.743	8860
691.787	8408
691.800	8348
691.831	8308
691.875	8379
691.919	7997
691.921	7980
691.964	8084
692.008	8124
692.041	8072
692.052	8095
692.096	8170
692.139	8462
692.162	8348
692.183	8152
692.227	8438
692.271	8179
692.282	8136
692.315	8264
692.359	8446
692.402	8476
692.403	8491
692.447	8410
692.490	8475
692.523	8062
692.534	8005
692.578	8242
692.622	8727
692.643	8656
692.666	8562
692.709	8590
692.753	8624
692.763	8634
692.797	8449
692.840	8266
692.884	7822
692.884	7840
692.928	8166
692.971	8392
693.004	8795
693.015	8851
693.059	8692
693.102	8923
693.124	8543
693.146	8345
693.189	8872
693.233	8957
693.245	9056
693.276	9589
693.320	10217
693.363	10576
693.365	10557
693.407	10517
693.450	11107
693.485	11374
693.493	11612
693.537	12682
693.580	13812
693.605	14627
693.624	15847
693.667	18261
693.710	20818
693.725	21734
693.753	27301
693.797	36322
693.840	46178
693.845	47383
693.883	63766
693.926	79181
693.966	92556
693.970	91079
694.013	74844
694.056	59138
694.086	48138
694.099	44959
694.142	34759
694.185	24418
694.206	19494
694.229	18546
694.272	16691
694.315	14918
694.326	14353
694.358	13614
694.401	13110
694.444	12048
694.446	11982
694.487	11753
694.530	11479
694.566	11069
694.573	11003
694.616	10452
694.659	9941
694.686	9640
694.702	9669
694.745	9646
694.787	9597
694.806	9595
694.830	9533
694.873	9148
694.916	9190
694.926	9130
694.959	9243
695.002	9143
695.044	9329
695.046	9311
695.087	9410
695.130	9487
695.166	9585
695.172	9619
695.215	9461
695.258	9392
695.286	9393
695.301	9441
695.343	9459
695.386	9678
695.406	9563
695.428	9472
695.471	9613
695.514	9590
695.526	9562
695.556	9666
695.599	9926
695.641	10046
695.646	10026
695.684	9961
695.726	9833
695.766	9985
695.769	10030
695.811	10044
695.854	10199
695.886	10280
695.896	10216
695.938	9734
695.981	9227
696.005	9066
696.023	9243
696.065	9406
696.108	9588
696.125	9640
696.150	9683
696.192	9826
696.235	9817
696.245	9826
696.277	10006
696.319	9993
696.361	10240
696.365	10215
696.404	10338
696.446	10632
696.485	10808
696.488	10824
696.530	10694
696.572	10515
696.604	10366
696.614	10426
696.656	10578
696.698	10734
696.724	10789
696.740	10614
696.783	10017
696.825	9550
696.844	9287
696.867	9481
696.909	9750
696.951	10149
696.964	10228
696.992	10349
697.034	10446
697.076	10495
697.083	10492
697.118	10480
697.160	10402
697.202	10302
697.203	10273
697.244	10327
697.286	10279
697.323	10234
697.327	10259
697.369	10325
697.411	10211
697.442	10185
697.453	10264
697.494	10364
697.536	10599
697.562	10694
697.578	10815
697.620	11038
697.661	11263
697.682	11379
697.703	11305
697.744	10972
697.786	10721
697.801	10593
697.828	10920
697.869	11403
697.911	11919
697.921	11989
697.952	11544
697.994	10912
698.035	10398
698.040	10306
698.077	10522
698.118	10611
698.160	10856
698.160	10827
698.201	10751
698.243	10626
698.279	10525
698.284	10558
698.325	10576
698.367	10613
698.399	10597
698.408	10653
698.449	10775
698.491	10908
698.518	10961
698.532	11083
698.573	11385
698.614	11693
698.638	11818
698.656	11719
698.697	11446
698.738	11145
698.757	10983
698.779	11032
698.820	11061
698.862	11091
698.877	11075
698.903	11388
698.944	11830
698.985	12277
698.996	12369
699.026	12154
699.067	11803
699.116	11356
699.235	11273
699.354	11293
699.474	11256
699.593	10741
699.713	13181
699.832	11347
699.951	11426
700.070	12027
700.190	11557
700.309	10992
700.428	11849
700.547	11663
700.667	11419
700.786	10816
700.905	11480
701.024	10128
701.143	11681
701.262	10369
701.381	9469
701.500	10526
701.619	10949
701.738	10690
701.857	10082
701.976	9215
702.095	9748
702.214	9900
702.333	10996
702.452	10815
702.571	10105
702.690	10402
702.809	10290
702.928	10084
703.047	9412
703.165	9934
703.284	8883
703.403	9241
703.522	9315
703.640	11077
703.759	10933
703.878	12839
703.997	12671
704.115	10081
704.234	9784
704.353	9391
704.471	9310
704.590	9080
704.708	8888
704.827	9204
704.946	9379
705.064	8685
705.183	9649
705.301	9320
705.420	11549
705.538	13997
705.656	12562
705.775	11384
705.893	17195
706.012	43209
706.130	27941
706.249	12772
706.367	11588
706.485	11848
706.604	11906
706.722	11828
706.840	12221
706.958	15636
707.077	18731
707.195	11814
707.313	10213
707.431	8942
707.549	10877
707.668	10587
707.786	10547
707.904	10357
708.022	9454
708.140	10424
708.258	9320
708.376	9331
708.494	10078
708.612	9287
708.730	11903
708.848	15157
708.966	13949
709.084	13689
709.202	12292
709.320	11756
709.438	11465
709.556	13064
709.674	11807
709.791	12367
709.909	12157
710.027	11769
710.145	11881
710.263	10978
710.380	11013
710.498	11606
710.616	10937
710.733	11203
710.851	11677
710.969	11753
711.086	11218
711.204	11885
711.322	10888
711.439	10731
711.557	11150
711.674	11240
711.792	10751
711.909	11791
712.027	14236
712.144	13614
712.262	11007
712.379	10962
712.497	12661
712.614	16034
712.732	14226
712.849	12605
712.966	13302
713.084	14813
713.201	15003
713.318	13598
713.436	12889
713.553	12834
713.670	13373
713.787	13958
713.905	15267
714.022	13387
714.139	12671
714.256	15056
714.373	16672
714.490	22851
714.608	40222
714.725	128585
714.842	500566
714.959	191236
715.076	22039
715.193	16145
715.310	13872
715.427	13114
715.544	12652
715.661	12303
715.778	11984
715.895	11568
716.011	12464
716.128	12933
716.245	11259
716.362	12313
716.479	12853
716.596	12238
716.713	11047
716.829	10793
716.946	11725
717.063	11278
717.180	10148
717.296	9931
717.413	10213
717.530	10034
717.646	9392
717.763	10279
717.880	9982
717.996	9359
718.113	9385
718.229	9917
718.346	9888
718.462	9094
718.579	10315
718.695	11631
718.812	17079
718.928	12159
719.045	12742
719.161	9277
719.277	9768
719.394	9092
719.510	10665
719.626	10647
719.743	10533
719.859	12950
719.975	18319
720.092	38332
720.208	158889
720.324	165182
720.440	16726
720.557	11275
720.673	12626
720.789	15799
720.905	23927
721.021	36163
721.137	10950
721.253	8747
721.369	8645
721.486	9094
721.602	12197
721.718	12974
721.834	7869
721.950	8180
722.066	8920
722.181	8353
722.297	8209
722.413	8389
722.529	7568
722.645	8201
722.761	7909
722.877	7571
722.993	8192
723.108	7858
723.224	8924
723.340	8217
723.456	8990
723.571	7363
723.687	7663
723.803	7206
723.918	7290
724.034	7670
724.150	7648
724.265	6873
724.381	9119
724.497	20079
724.612	13694
724.728	7242
724.843	6517
724.959	7711
725.074	9989
725.190	19272
725.305	12290
725.421	8461
725.536	6471
725.651	5855
725.767	6515
725.882	6765
725.997	6914
726.113	6395
726.228	7108
726.343	6022
726.459	6347
726.574	5685
726.689	7028
726.804	6019
726.920	6489
727.035	6271
727.150	6041
727.265	6591
727.380	6828
727.495	6749
727.610	7341
727.725	6621
727.841	7421
727.956	11162
728.071	25177
728.186	9961
728.301	6604
728.416	5026
728.531	6295
728.645	5516
728.760	5887
728.875	7206
728.990	7410
729.105	7521
729.220	6518
729.335	6496
729.449	6700
729.564	5681
729.679	5698
729.794	5608
729.908	6279
730.023	6838
730.138	6282
730.253	5439
730.367	5312
730.482	5495
730.596	5274
730.711	6056
730.826	6306
730.940	6947
731.055	7530
731.169	5766
731.284	5501
731.398	5297
731.513	5526
731.627	5462
731.742	5878
731.856	7232
731.970	7243
732.085	7109
732.199	8002
732.313	12208
732.428	19676
732.542	56684
732.656	131368
732.771	38932
732.885	10462
732.999	8707
733.113	8555
733.227	7646
733.342	7527
733.456	7017
733.570	6068
733.684	5360
733.798	6088
733.912	6391
734.026	5666
734.140	5501
734.254	6139
734.368	7608
734.482	11853
734.596	8863
734.710	5564
734.824	5469
734.938	6085
735.052	6480
735.166	6412
735.280	7230
735.393	6396
735.507	5461
735.621	6183
735.735	8772
735.849	10268
735.962	5966
736.076	5854
736.190	5705
736.303	6691
736.417	9561
736.531	7906
736.644	6007
736.758	5594
736.872	5410
736.985	6126
737.099	5846
737.212	5796
737.326	5694
737.439	4966
737.553	5742
737.666	4967
737.780	5211
737.893	5300
738.007	4399
738.120	5037
738.233	5204
738.347	4603
738.460	5143
738.573	4960
738.687	5131
738.800	5215
738.913	5501
739.026	5957
739.140	4906
739.253	6293
739.366	5840
739.479	5091
739.592	4418
739.705	4106
739.818	4756
739.932	5154
740.045	4962
740.158	4995
740.271	5387
740.384	5202
740.497	5228
740.610	5662
740.723	5452
740.836	5572
740.949	5616
741.062	5496
741.174	6536
741.287	5242
741.400	4849
741.513	5068
741.626	5533
741.739	6664
741.851	5487
741.964	4241
742.077	4965
742.189	5470
742.302	5711
742.415	7028
742.527	5226
742.640	4857
742.753	4699
742.865	4446
742.978	5189
743.090	4077
743.203	4694
743.316	3786
743.428	4806
743.541	4044
743.653	3436
743.766	4552
743.878	4519
743.990	4524
744.103	6485
744.215	7571
744.327	6333
744.440	5148
744.552	5801
744.664	5911
744.777	3864
744.889	3551
745.001	3808
745.113	3406
745.226	3647
745.338	3574
745.450	3450
745.562	4616
745.674	4308
745.786	4231
745.898	4157
746.010	3736
746.122	3970
746.234	4394
746.347	3945
746.459	4704
746.570	3057
746.682	4508
746.794	6353
746.906	7639
747.018	4852
747.130	3944
747.242	4102
747.354	4420
747.466	4769
747.577	4500
747.689	3976
747.801	4026
747.913	3730
748.024	3563
748.136	3368
748.248	3871
748.359	4139
748.471	3658
748.583	3399
748.694	3771
748.806	4955
748.918	6148
749.029	4899
749.141	4459
749.252	4877
749.364	3490
749.475	4602
749.587	7283
749.698	5065
749.809	3664
749.921	3433
750.032	3144
750.144	3602
750.255	3067
750.366	2358
750.478	3163
750.589	3976
750.700	3881
750.811	4054
750.923	3380
751.034	5372
751.145	9508
751.256	6569
751.367	3231
751.479	2514
751.590	3882
751.701	3931
751.812	4307
751.923	3493
752.034	3674
752.145	3773
752.256	3658
752.367	3390
752.478	3859
752.589	4024
752.700	2986
752.811	3110
752.922	3489
753.032	4035
753.143	4239
753.254	3961
753.365	3706
753.476	3737
753.586	3514
753.697	3153
753.808	3355
753.919	3146
754.029	2935
754.140	2768
754.251	3253
754.361	3167
754.472	3703
754.582	3864
754.693	3891
754.804	3772
754.914	3468
755.025	3056
755.135	3370
755.246	3097
755.356	2725
755.466	3127
755.577	4327
755.687	3820
755.798	3719
755.908	4140
756.018	3513
756.129	3225
756.239	2712
756.349	3734
756.460	3770
756.570	4119
756.680	3843
756.790	3290
756.900	4465
757.011	3507
757.121	3374
757.231	3615
757.341	3372
757.451	3685
757.561	2712
757.671	3463
757.781	3451
757.891	3863
758.001	3750
758.111	4427
758.221	3944
758.331	4103
758.441	4265
758.551	4716
758.661	6002
758.771	5221
758.880	3241
758.990	5081
759.100	3747
759.210	4756
759.320	4628
759.429	4468
759.539	4972
759.649	5226
759.758	5249
759.868	6025
759.978	5947
760.087	5661
760.197	5214
760.307	5645
760.416	5289
760.526	5220
760.635	5111
760.745	4907
760.854	5792
760.964	6386
761.073	6331
761.182	6138
761.292	6385
761.401	6681
761.511	5854
761.620	6071
761.729	5599
761.839	5365
761.948	6172
762.057	6730
762.166	6443
762.276	6249
762.385	6363
762.494	6560
762.603	6561
762.712	6750
762.822	7238
762.931	7906
763.040	7356
763.149	7268
763.258	7614
763.367	8585
763.476	9000
763.585	9314
763.694	9539
763.803	9518
763.912	10262
764.021	10826
764.130	10484
764.238	11517
764.347	12315
764.456	13533
764.565	14574
764.674	15789
764.783	16765
764.891	17215
765.000	19098
765.109	21401
765.217	24944
765.326	28523
765.435	33114
765.543	39050
765.652	48308
765.761	61329
765.869	81704
765.978	115798
766.086	174660
766.195	285648
766.303	510712
766.412	890667
766.520	927478
766.629	836005
766.737	541485
766.846	298739
766.954	185497
767.062	127770
767.171	93822
767.279	75597
767.387	54775
767.496	44392
767.604	37585
767.712	32809
767.820	27955
767.928	26218
768.037	24425
768.145	22481
768.253	21472
768.361	20414
768.469	20035
768.577	19240
768.685	20258
768.793	21179
768.901	22850
769.009	26509
769.117	29582
769.225	37079
769.333	48724
769.441	72035
769.549	115673
769.657	207576
769.765	431529
769.873	815780
769.981	768276
770.088	491874
770.196	224695
770.304	124389
770.412	81880
770.519	59116
770.627	44416
770.735	35123
770.842	28958
770.950	24492
771.058	22032
771.165	19294
771.273	17404
771.380	15851
771.488	14539
771.595	13943
771.703	12951
771.810	11995
771.918	11110
772.025	10970
772.133	10444
772.240	10177
772.348	10134
772.455	9309
772.562	9323
772.670	8523
772.777	8350
772.884	7393
772.991	7721
773.099	7221
773.206	7592
773.313	7670
773.420	6085
773.528	6694
773.635	6426
773.742	6617
773.849	6059
773.956	4959
774.063	5422
774.170	5692
774.277	6189
774.384	5247
774.491	5827
774.598	5799
774.705	6144
774.812	5505
774.919	6302
775.026	5147
775.133	4711
775.239	5050
775.346	5150
775.453	5275
775.560	5373
775.667	4755
775.773	4460
775.880	5382
775.987	4566
776.093	4730
776.200	4473
776.307	5197
776.413	4581
776.520	4209
776.627	4594
776.733	4159
776.840	3887
776.946	5458
777.053	6101
777.159	10448
777.266	14207
777.372	9311
777.478	13088
777.585	10828
777.691	5733
777.798	5036
777.904	5147
778.010	5443
778.117	7927
778.223	4339
778.329	3597
778.435	4068
778.542	4097
778.648	3607
778.754	3373
778.860	3584
778.966	3447
779.072	4476
779.178	3790
779.284	3962
779.391	3712
779.497	3783
779.603	5211
779.708	5876
779.815	10174
779.920	23615
780.026	86528
780.132	88988
780.238	10291
780.344	4376
780.450	4281
780.556	3768
780.661	3506
780.767	4435
780.873	3812
780.979	3038
781.085	3457
781.190	3197
781.296	2738
781.402	3311
781.507	3414
781.613	2785
781.719	3174
781.824	3193
781.930	3177
782.035	2584
782.141	3147
782.246	3302
782.352	2940
782.457	3052
782.563	3024
782.668	2878
782.773	2473
782.879	2705
782.984	3210
783.090	3166
783.195	3032
783.300	4686
783.405	3410
783.511	3793
783.616	3130
783.721	3090
783.826	2987
783.932	3059
784.037	3007
784.142	3279
784.247	3546
784.352	3350
784.457	2492
784.562	3439
784.667	3636
784.772	2845
784.877	3148
784.982	2708
785.087	2507
785.192	3085
785.297	3006
785.402	2745
785.507	2705
785.611	2234
785.716	2580
785.821	2771
785.926	2388
786.031	2276
786.135	1898
786.240	3507
786.345	1605
786.450	1784
786.554	1911
786.659	3171
786.763	1949
786.868	2085
786.973	2780
787.077	2237
787.182	1883
787.286	2166
787.391	1820
787.495	1367
787.600	2520
787.704	1862
787.809	2242
787.913	2264
788.017	1863
788.122	1702
788.226	2574
788.330	2096
788.435	1331
788.539	2223
788.643	2375
788.747	2140
788.852	1676
788.956	1648
789.060	1753
789.164	1550
789.268	1899
789.372	2138
789.476	1238
789.580	2052
789.684	1445
789.788	1104
789.892	2194
789.996	2032
790.100	1275
790.204	1890
790.308	1655
790.412	2570
790.516	2874
790.620	2553
790.724	2655
790.828	1969
790.931	1647
791.035	2215
791.139	2835
791.242	2027
791.346	2151
791.450	2424
791.554	1593
791.657	845
791.761	2338
791.864	1781
791.968	1721
792.072	2146
792.175	1280
792.279	1933
792.382	2007
792.486	2066
792.589	2119
792.693	2049
792.796	1946
792.899	1906
793.003	1237
793.106	1379
793.209	1882
793.313	2136
793.416	942
793.519	1302
793.623	2224
793.726	4123
793.829	3786
793.932	2270
794.035	1574
794.138	2202
794.242	2132
794.345	2454
794.448	4105
794.551	5326
794.654	14633
794.757	41784
794.860	49728
794.963	6704
795.066	2458
795.169	2933
795.272	2162
795.375	1923
795.477	1342
795.580	1413
795.683	1387
795.786	1890
795.889	552
795.991	1991
796.094	1788
796.197	1626
796.300	2141
796.402	1302
796.505	794
796.608	1956
796.710	405
796.813	1940
796.915	1511
797.018	2379
797.120	702
797.223	1015
797.326	1714
797.428	1403
797.530	1204
797.633	2605
797.735	1781
797.838	1879
797.940	3336
798.042	1358
798.145	1003
798.247	1402
798.349	232
798.452	462
798.554	384
798.656	688
798.758	1090
798.860	1251
798.962	895
799.065	1040
799.167	541
799.269	1318
799.371	1036
799.473	1542
799.575	1813
799.677	2017
799.779	1615
799.881	2251
799.983	2986
800.085	1531
800.187	281
800.289	1613
800.390	776
800.492	2102
800.594	1232
800.696	1327
800.798	904
800.899	794
801.001	1080
801.103	901
801.205	771
801.306	1312
801.408	636
801.509	1409
801.611	442
801.713	1039
801.814	1225
801.916	717
802.017	765
802.119	414
802.220	591
802.322	272
802.423	1438
802.525	1711
802.626	947
802.727	945
802.829	1855
802.930	537
803.031	1318
803.133	250
803.234	821
803.335	1255
803.436	563
803.538	364
803.639	-117
803.740	1124
803.841	800
803.942	1001
804.043	930
804.144	1361
804.245	706
804.346	507
804.447	394
804.548	939
804.649	1858
804.750	1282
804.851	141
804.952	1577
805.053	726
805.154	812
805.255	1127
805.355	283
805.456	562
805.557	1173
805.658	921
805.758	1153
805.859	1336
805.960	743
806.061	748
806.161	566
806.262	600
806.362	543
806.463	1101
806.564	755
806.664	753
806.765	159
806.865	877
806.966	776
807.066	894
807.166	911
807.267	506
807.367	901
807.468	854
807.568	885
807.668	764
807.769	406
807.869	570
807.969	865
808.069	1081
808.170	1164
808.270	811
808.370	1190
808.470	805
808.570	1615
808.670	585
808.770	1003
808.870	680
808.970	574
809.070	72
809.170	181
809.271	1125
809.370	656
809.470	1186
809.570	383
809.670	817
809.770	965
809.870	757
809.970	1268
810.070	259
810.169	1561
810.269	-147
810.369	1056
810.469	292
810.568	567
810.668	293
810.768	172
810.867	19
810.967	560
811.066	1009
811.166	449
811.265	893
811.365	1237
811.464	961
811.564	1096
811.663	433
811.763	776
811.862	763
811.962	1195
812.061	176
812.160	541
812.260	606
812.359	1018
812.458	493
812.557	1647
812.657	3717
812.756	3356
812.855	2127
812.954	636
813.053	1218
813.153	775
813.252	349
813.351	1248
813.450	517
813.549	570
813.648	1006
813.747	241
813.846	668
813.945	497
814.044	907
814.143	1012
814.242	776
814.341	372
814.439	663
814.538	660
814.637	1060
814.736	1227
814.835	1657
814.933	1867
815.032	2032
815.131	1697
815.229	1838
815.328	2122
815.427	2163
815.525	2778
815.624	2078
815.722	2095
815.821	1370
815.919	854
816.018	1384
816.116	1677
816.215	2430
816.313	3064
816.412	2691
816.510	2559
816.609	3623
816.707	3472
816.805	3360
816.904	3268
817.002	3513
817.100	4709
817.198	4369
817.296	5062
817.395	5551
817.493	7470
817.591	7706
817.689	9612
817.787	12194
817.885	18538
817.983	31754
818.081	58550
818.179	128353
818.277	288845
818.375	564234
818.473	357456
818.571	113518
818.669	52339
818.767	35815
818.865	32525
818.963	33097
819.061	40555
819.158	62387
819.256	111791
819.354	230883
819.452	499585
819.549	752082
819.647	414051
819.745	150654
819.842	70785
819.940	43622
820.038	29818
820.135	22328
820.233	16990
820.330	13527
820.428	11299
820.525	9360
820.623	7961
820.720	7071
820.818	6309
820.915	6849
821.012	5571
821.110	5310
821.207	5096
821.304	4262
821.402	4162
821.499	4616
821.596	5658
821.693	6697
821.791	4716
821.888	3049
821.985	4101
822.082	5379
822.179	4394
822.276	3797
822.373	3784
822.470	2039
822.567	2575
822.664	2016
822.761	2368
822.858	2338
822.955	2299
823.052	1468
823.149	1568
823.246	2457
823.343	1543
823.440	1777
823.536	2356
823.633	1820
823.730	1396
823.827	1721
823.923	1402
824.020	2379
824.117	826
824.213	2553
824.310	3185
824.407	1168
824.503	1807
824.600	2017
824.696	1194
824.793	884
824.889	1673
824.986	803
825.082	1275
825.179	1342
825.275	222
825.371	670
825.468	1407
825.564	907
825.660	1277
825.757	1281
825.853	1553
825.949	691
826.045	698
826.142	137
826.238	953
826.334	911
826.430	296
826.526	480
826.622	392
826.718	180
826.814	790
826.910	915
827.006	822
827.102	-909
827.198	1017
827.294	867
827.390	1155
827.486	-31
827.582	-65
827.678	-267
827.774	247
827.869	-102
827.965	266
828.061	598
828.157	-77
828.252	356
828.348	810
828.444	1439
828.539	319
828.635	201
828.731	1097
828.826	548
828.922	98
829.017	1147
829.113	724
829.208	1047
829.304	360
829.399	589
829.495	496
829.590	592
829.685	268
829.781	854
829.876	616
829.971	251
830.066	759
830.162	117
830.257	187
830.352	150
830.447	620
830.543	1264
830.638	1001
830.733	921
830.828	1040
830.923	745
831.018	361
831.113	152
831.208	626
831.303	607
831.398	243
831.493	265
831.588	939
831.683	-338
831.778	451
831.873	224
831.967	676
832.062	-19
832.157	861
832.252	-45
832.346	118
832.441	447
832.536	1109
832.631	1291
832.725	2637
832.820	1465
832.914	354
833.009	98
833.104	-26
833.198	1254
833.293	355
833.387	162
833.482	673
833.576	45
833.670	540
833.765	573
833.859	604
833.954	1311
834.048	840
834.142	252
834.237	131
834.331	507
834.425	723
834.519	-646
834.613	540
834.708	739
834.802	-262
834.896	-282
834.990	129
835.084	1207
835.178	227
835.272	78
835.366	207
835.460	734
835.554	-525
835.648	-124
835.742	376
835.836	334
835.930	-295
836.024	-147
836.117	757
836.211	450
836.305	670
836.399	1417
836.493	1201
836.586	1103
836.680	181
836.774	-6
836.867	946
836.961	346
837.055	-550
837.148	723
837.242	83
837.335	509
837.429	46
837.522	-241
837.616	537
837.709	293
837.803	1204
837.896	863
837.989	339
838.083	1417
838.176	721
838.269	2383
838.363	1931
838.456	784
838.549	453
838.642	797
838.735	2194
838.829	2803
838.922	1055
839.015	177
839.108	322
839.201	-359
839.294	-145
839.387	-163
839.480	-319
839.573	400
839.666	1242
839.759	1249
839.852	263
839.945	550
840.038	-500
840.131	-119
840.223	136
840.316	320
840.409	414
840.502	27
840.594	200
840.687	-700
840.780	-318
840.873	-210
840.965	216
841.058	-185
841.150	1155
841.243	1792
841.336	1560
841.428	99
841.521	22
841.613	-273
841.706	91
841.798	312
841.890	-133
841.983	-304
842.075	-379
842.167	436
842.260	158
842.352	764
842.444	933
842.537	1299
842.629	4572
842.721	2396
842.813	317
842.905	-324
842.997	118
843.090	329
843.182	847
843.274	1254
843.366	4223
843.458	7226
843.550	13072
843.642	5955
843.734	1174
843.826	-212
843.918	1142
844.009	889
844.101	-5
844.193	181
844.285	-338
844.377	865
844.469	411
844.560	1259
844.652	2142
844.744	1993
844.835	948
844.927	-940
845.019	-310
845.110	772
845.202	821
845.293	-138
845.385	-130
845.476	-293
845.568	-142
845.659	0
845.751	-196
845.842	12
845.934	-643
846.025	5
846.116	75
846.208	-137
846.299	-413
846.390	156
846.482	-416
846.573	-117
846.664	617
846.755	640
846.846	1593
846.937	200
847.029	33
847.120	170
847.211	-425
847.302	616
847.393	-320
847.484	396
847.575	-162
847.666	-78
847.757	-107
847.847	-178
847.938	525
848.029	-97
848.120	-89
848.211	-92
848.302	72
848.392	-375
848.483	-605
848.574	4
848.664	-365
848.755	46
848.846	82
848.936	-45
849.027	37
849.118	851
849.208	543
849.299	643
849.389	1174
849.480	2999
849.570	6318
849.661	11910
849.751	21781
849.841	29298
849.932	8009
850.022	936
850.112	1307
850.203	401
850.293	-275
850.383	-42
850.474	325
850.564	52
850.654	420
850.744	-103
850.834	300
850.924	-304
851.014	-29
851.104	-591
851.194	-590
851.284	354
851.374	131
851.464	862
851.554	219
851.644	650
851.734	492
851.824	518
851.914	573
852.004	1249
852.094	1961
852.183	2040
852.273	151
852.363	57
852.452	146
852.542	93
852.632	16
852.721	-164
852.811	-210
852.901	282
852.990	-190
853.080	361
853.169	570
853.259	1101
853.348	362
853.438	124
853.527	1785
853.617	1957
853.706	3732
853.795	8375
853.885	18617
853.974	41441
854.063	70825
854.152	132547
854.242	170032
854.331	47936
854.420	7504
854.509	3966
854.598	2351
854.687	1732
854.777	1457
854.866	786
854.955	1240
855.044	447
855.133	580
855.222	129
855.311	409
855.400	1350
855.488	502
855.577	-419
855.666	1188
855.755	1162
855.844	1052
855.933	1739
856.021	2028
856.110	212
856.199	179
856.288	-447
856.376	-579
856.465	-464
856.554	-283
856.642	-250
856.731	211
856.819	637
856.908	470
856.996	-102
857.085	-352
857.173	-413
857.262	-220
857.350	-54
857.438	31
857.527	-142
857.615	90
857.703	90
857.792	113
857.880	-829
857.968	-240
858.056	-1150
858.145	104
858.233	303
858.321	-1333
858.409	-209
858.497	-180
858.585	-675
858.673	-365
858.761	-360
858.849	-642
858.937	-283
859.025	-181
859.113	-265
859.201	-72
859.289	-228
859.377	-342
859.465	360
859.552	108
859.640	-1015
859.728	-83
859.816	-201
859.903	-500
859.991	-881
860.079	107
860.166	-329
860.254	167
860.342	381
860.429	-541
860.517	-228
860.604	-158
860.692	-888
860.779	-803
860.867	-244
860.954	-289
861.042	-15
861.129	287
861.216	-341
861.304	-465
861.391	-128
861.478	-692
861.565	-145
861.653	-249
861.740	-399
861.827	321
861.914	-314
862.001	-828
862.089	93
862.176	282
862.263	-634
862.350	-370
862.437	-1167
862.524	-279
862.611	153
862.698	397
862.785	594
862.871	1207
862.958	1006
863.045	393
863.132	676
863.219	-210
863.306	-235
863.392	-569
863.479	-638
863.566	-133
863.652	31
863.739	-262
863.826	-359
863.912	159
863.999	-228
864.086	-78
864.172	154
864.259	165
864.345	61
864.432	-385
864.518	-315
864.604	68
864.691	-307
864.777	-392
864.863	385
864.950	531
865.036	771
865.122	1014
865.209	1946
865.295	1495
865.381	1108
865.467	2086
865.553	2798
865.639	2594
865.726	4662
865.812	9900
865.898	19106
865.984	35047
866.070	47789
866.156	97251
866.242	85435
866.328	18745
866.414	4258
866.499	2261
866.585	2152
866.671	1717
866.757	329
866.843	1152
866.928	439
867.014	789
867.100	1603
867.186	970
867.271	750
867.357	1076
867.442	1353
867.528	2174
867.614	716
867.699	718
867.785	1462
867.870	1841
867.956	1755
868.041	3627
868.127	1134
868.212	1366
868.297	2223
868.383	1574
868.468	1679
868.553	1639
868.639	2694
868.724	2084
868.809	4938
868.894	3842
868.979	267
869.065	711
869.150	695
869.235	639
869.320	853
869.405	154
869.490	-98
869.575	643
869.660	52
869.745	791
869.830	489
869.915	557
870.000	-65
870.085	875
870.169	420
870.254	1046
870.339	669
870.424	-516
870.509	-70
870.593	-37
870.678	481
870.763	1362
870.847	469
870.932	-401
871.016	483
871.101	288
871.186	218
871.270	709
871.355	223
871.439	282
871.523	220
871.608	295
871.692	338
871.777	1421
871.861	954
871.945	536
872.030	405
872.114	733
872.198	-278
872.282	466
872.367	304
872.451	380
872.535	-167
872.619	126
872.703	-48
872.787	440
872.871	795
872.955	-91
873.039	169
873.123	702
873.207	207
873.291	288
873.375	-383
873.459	886
873.543	96
873.627	553
873.711	513
873.794	382
873.878	-106
873.962	597
874.045	244
874.129	627
874.137	598
874.213	308
874.245	203
874.296	37
874.352	-197
874.380	-316
874.460	304
874.464	328
874.547	374
874.568	379
874.631	402
874.676	-58
874.714	-446
874.784	-293
874.798	-268
874.881	436
874.892	307
874.965	-519
874.999	-478
875.048	-445
875.107	445
875.131	792
875.215	10
875.215	11
875.298	690
875.323	484
875.381	2
875.430	97
875.465	143
875.538	-20
875.548	-26
875.631	-194
875.646	-177
875.714	-284
875.753	-274
875.798	-131
875.861	114
875.881	146
875.964	590
875.968	573
876.047	393
876.076	346
876.130	156
876.183	346
876.213	534
876.291	627
876.296	621
876.379	373
876.398	339
876.462	318
876.506	383
876.545	400
876.613	14
876.628	-62
876.711	903
876.721	936
876.794	1216
876.828	1119
876.877	954
876.935	1003
876.960	1048
877.043	1003
877.043	1004
877.125	1278
877.150	1327
877.208	1534
877.258	1541
877.291	1625
877.365	2197
877.374	2217
877.456	1941
877.472	1837
877.539	1758
877.579	2112
877.622	2317
877.687	2010
877.704	1954
877.787	1737
877.794	1750
877.869	1809
877.901	1591
877.952	1326
878.008	1240
878.034	1195
878.115	1187
878.117	1189
878.199	1257
878.222	1370
878.282	1608
878.329	1362
878.364	1225
878.437	1220
878.447	1186
878.529	951
878.544	959
878.611	1313
878.651	1153
878.694	969
878.758	794
878.776	751
878.858	643
878.865	706
878.941	1126
878.972	882
879.023	713
879.078	836
879.105	912
879.185	1062
879.187	1067
879.269	1500
879.292	1422
879.351	934
879.399	847
879.433	939
879.506	424
879.516	349
879.598	629
879.613	585
879.680	563
879.720	902
879.762	1079
879.827	565
879.844	513
879.926	507
879.933	522
880.007	472
880.040	553
880.089	732
880.147	531
880.171	476
880.253	1684
880.254	1684
880.335	2126
880.360	2392
880.417	3066
880.467	3375
880.499	4190
880.574	7518
880.580	7593
880.662	7041
880.680	6477
880.744	3375
880.787	1632
880.825	1144
880.893	1381
880.907	1332
880.989	67
881.000	36
881.070	463
881.106	547
881.152	710
881.213	1093
881.233	1149
881.315	566
881.319	558
881.396	700
881.426	691
881.478	536
881.532	658
881.559	794
881.639	894
881.641	891
881.722	870
881.745	717
881.803	541
881.852	718
881.885	862
881.958	860
881.966	862
882.047	802
882.064	843
882.129	1013
882.171	962
882.210	1161
882.277	1931
882.291	2077
882.372	2754
882.383	2736
882.454	1521
882.489	1061
882.535	791
882.596	577
882.616	681
882.697	1333
882.702	1327
882.778	847
882.808	732
882.859	694
882.914	789
882.940	756
883.020	697
883.021	704
883.102	994
883.127	1050
883.183	997
883.233	900
883.264	1038
883.339	1119
883.345	1066
883.426	924
883.445	709
883.507	473
883.551	501
883.587	545
883.657	923
883.668	961
883.749	834
883.763	786
883.830	552
883.869	468
883.910	637
883.975	767
883.991	652
884.072	416
884.081	352
884.152	773
884.187	1093
884.233	1074
884.292	942
884.314	1002
884.394	586
884.398	613
884.475	1227
884.504	1149
884.555	839
884.610	792
884.636	741
884.716	379
884.716	386
884.797	1088
884.821	1235
884.877	1158
884.927	1115
884.958	1042
885.033	841
885.038	844
885.118	748
885.139	717
885.199	804
885.244	1073
885.279	1118
885.350	899
885.359	946
885.439	1339
885.456	1481
885.520	1500
885.561	1202
885.600	958
885.667	629
885.680	651
885.760	1018
885.773	1054
885.840	1146
885.878	1207
885.920	1056
885.984	680
886.000	871
886.080	1978
886.089	2084
886.160	1491
886.195	1216
886.240	1353
886.300	1493
886.320	1469
886.400	1358
886.406	1341
886.480	1577
886.511	1616
886.560	1310
886.616	1109
886.640	1422
886.720	2410
886.722	2424
886.800	1337
886.827	1010
886.879	1358
886.932	1463
886.959	1435
887.038	1558
887.039	1566
887.119	1556
887.143	1588
887.198	1445
887.248	1247
887.278	1325
887.354	1423
887.358	1411
887.437	1186
887.459	1088
887.517	1553
887.564	1928
887.596	1645
887.669	1018
887.676	1007
887.755	765
887.774	705
887.835	827
887.880	901
887.914	1031
887.985	1317
887.994	1295
888.073	1076
888.090	1010
888.153	1654
888.195	2084
888.232	1921
888.300	1693
888.311	1720
888.391	1683
888.405	1697
888.470	1290
888.510	995
888.549	1068
888.615	1220
888.628	1236
888.708	1243
888.720	1248
888.787	1650
888.825	1821
888.866	1539
888.930	1174
888.945	1190
889.024	1184
889.035	1182
889.103	1692
889.140	1938
889.182	1610
889.245	1142
889.261	1183
889.340	1335
889.349	1348
889.419	1403
889.454	1430
889.498	1614
889.559	1858
889.577	1830
889.656	1677
889.664	1659
889.735	1708
889.768	1720
889.814	1775
889.873	1838
889.978	1109
890.083	1453
890.187	1785
890.292	1510
890.397	658
890.501	1185
890.606	1683
890.710	1290
890.815	2591
890.919	909
891.024	1681
891.128	1604
891.233	806
891.337	2216
891.442	1630
891.546	1833
891.650	1239
891.755	1221
891.859	1851
891.963	1807
892.068	1261
892.172	2097
892.276	973
892.380	1078
892.484	1169
892.589	1435
892.693	2067
892.797	2096
892.901	1225
893.005	908
893.109	958
893.213	1698
893.317	1157
893.421	1651
893.525	1051
893.629	1769
893.733	606
893.837	1793
893.941	1007
894.045	1609
894.148	1162
894.252	2496
894.356	2818
894.460	2050
894.564	1944
894.667	2129
894.771	1698
894.875	598
894.978	1287
895.082	1395
895.186	1518
895.289	1247
895.393	1216
895.496	1619
895.600	921
895.703	1827
895.807	1143
895.910	1142
896.014	405
896.117	1764
896.221	712
896.324	959
896.427	1177
896.531	1045
896.634	729
896.737	1792
896.840	1658
896.944	1665
897.047	1314
897.150	1504
897.253	900
897.356	1179
897.460	1268
897.563	1762
897.666	511
897.769	1579
897.872	1256
897.975	1055
898.078	82
898.181	1055
898.284	428
898.387	1689
898.490	1804
898.593	1034
898.695	-15
898.798	1191
898.901	904
899.004	1511
899.107	1291
899.209	1156
899.312	472
899.415	1332
899.518	751
899.620	5
899.723	1656
899.826	2022
899.928	2448
900.031	2807
900.133	1106
900.236	1056
900.338	319
900.441	1167
900.543	945
900.646	1359
900.748	613
900.851	1090
900.953	750
901.055	1239
901.158	1594
901.260	1330
901.362	212
901.465	834
901.567	791
901.669	821
901.771	779
901.873	1071
901.976	250
902.078	1537
902.180	1037
902.282	963
902.384	1514
902.486	1624
902.588	1002
902.690	1797
902.792	977
902.894	2052
902.996	876
903.098	1453
903.200	933
903.302	1140
903.404	330
903.505	214
903.607	843
903.709	1442
903.811	1573
903.913	1423
904.014	441
904.116	342
904.218	1031
904.319	314
904.421	1330
904.523	2055
904.624	2159
904.726	1499
904.827	505
904.929	1125
905.030	1485
905.132	1126
905.233	1409
905.335	916
905.436	71
905.537	692
905.639	1281
905.740	785
905.841	635
905.943	932
906.044	1351
906.145	528
906.247	979
906.348	1331
906.449	1034
906.550	1015
906.651	300
906.752	1352
906.854	865
906.955	475
907.056	342
907.157	-90
907.258	1092
907.359	607
907.460	514
907.561	1195
907.662	727
907.762	1081
907.863	83
907.964	1142
908.065	765
908.166	1047
908.267	466
908.367	1271
908.468	-263
908.569	664
908.670	1234
908.770	1090
908.871	1727
908.971	2212
909.072	1500
909.173	967
909.273	1412
909.374	1731
909.474	255
909.575	1927
909.675	36
909.776	655
909.876	784
909.977	1489
910.077	282
910.177	1163
910.278	382
910.378	468
910.478	824
910.579	1304
910.679	-132
910.779	738
910.879	791
910.980	1537
911.080	865
911.180	512
911.280	854
911.380	1038
911.480	352
911.580	813
911.680	1742
911.780	839
911.880	1287
911.980	1396
912.080	131
912.180	511
912.280	945
912.380	749
912.480	43
912.580	1334
912.679	405
912.779	474
912.879	848
912.979	588
913.078	177
913.178	1111
913.278	957
913.377	689
913.477	187
913.577	1239
913.676	732
913.776	507
913.875	880
913.975	1513
914.074	668
914.174	1096
914.273	724
914.373	1626
914.472	361
914.572	308
914.671	692
914.770	1305
914.870	496
914.969	-51
915.068	714
915.167	423
915.267	401
915.366	637
915.465	499
915.564	690
915.663	1040
915.763	882
915.862	623
915.961	1004
916.060	571
916.159	933
916.258	107
916.357	382
916.456	-453
916.555	688
916.654	1161
916.752	780
916.851	960
916.950	1222
917.049	644
917.148	249
917.247	891
917.345	1357
917.444	362
917.543	1049
917.642	568
917.740	981
917.839	1621
917.937	1033
918.036	1267
918.135	368
918.233	805
918.332	944
918.430	539
918.529	563
918.627	680
918.726	1317
918.824	491
918.923	983
919.021	666
919.119	1219
919.218	512
919.316	1137
919.414	1121
919.512	679
919.611	325
919.709	1210
919.807	967
919.905	1325
920.003	1072
920.102	643
920.200	-226
920.298	1899
920.396	610
920.494	1223
920.592	557
920.690	1188
920.788	1042
920.886	576
920.984	1388
921.082	1235
921.180	1047
921.277	1210
921.375	911
921.473	1337
921.571	1210
921.669	2273
921.766	988
921.864	1961
921.962	1640
922.060	2736
922.157	1332
922.255	1290
922.352	1057
922.450	1789
922.548	1197
922.645	981
922.743	1336
922.840	2682
922.938	3209
923.035	3397
923.133	2188
923.230	2397
923.327	2953
923.425	3598
923.522	2572
923.619	2690
923.717	2710
923.814	3164
923.911	3017
924.008	3445
924.106	2949
924.203	2938
924.300	2455
924.397	3238
924.494	2471
924.591	3251
924.688	2353
924.786	2900
924.883	2885
924.979	2839
925.077	3014
925.173	2751
925.270	1856
925.367	2382
925.464	2774
925.561	3114
925.658	3659
925.755	3959
925.852	3074
925.948	3860
926.045	3291
926.142	4319
926.239	4001
926.335	4239
926.432	3442
926.529	3925
926.625	4743
926.722	3356
926.818	1931
926.915	2333
927.011	2786
927.108	2754
927.204	2836
927.301	2606
927.397	1623
927.494	2838
927.590	2713
927.687	2286
927.783	2259
927.879	1907
927.976	1534
928.072	2031
928.168	2302
928.264	2047
928.361	2391
928.457	2632
928.553	1881
928.649	1930
928.745	1636
928.841	2416
928.937	2036
929.033	2638
929.129	2620
929.225	1603
929.321	2367
929.417	2236
929.513	1699
929.609	3564
929.705	1423
929.801	1899
929.897	1795
929.993	1948
930.089	1802
930.184	2176
930.280	1993
930.376	2329
930.471	2592
930.567	1642
930.663	1262
930.758	1647
930.854	1454
930.950	1337
931.045	2312
931.141	1906
931.236	1606
931.332	1785
931.427	1565
931.523	2068
931.618	1908
931.714	1359
931.809	2077
931.905	2008
932.000	1425
932.095	1777
932.191	1701
932.286	2153
932.381	1587
932.476	875
932.572	1686
932.667	1843
932.762	1329
932.857	2121
932.952	2262
933.047	1833
933.142	1885
933.237	1986
933.332	1229
933.427	2437
933.522	2093
933.617	1660
933.712	1857
933.807	1920
933.902	1263
933.997	2180
934.092	1298
934.187	1950
934.282	1739
934.376	2356
934.471	1950
934.566	1712
934.661	957
934.755	1512
934.850	1368
934.945	1533
935.039	1085
935.134	2584
935.228	846
935.323	1588
935.417	1716
935.512	1402
935.606	1127
935.701	1197
935.795	954
935.890	2105
935.984	1363
936.079	1103
936.173	844
936.267	1593
936.362	1103
936.456	1548
936.550	1946
936.644	1539
936.738	1595
936.833	1296
936.927	1798
937.021	2094
937.115	1735
937.209	1002
937.303	691
937.397	1473
937.491	646
937.585	1908
937.679	995
937.773	1193
937.867	1008
937.961	1122
938.055	996
938.149	1949
938.243	263
938.337	1696
938.430	1080
938.524	2326
938.618	2411
938.712	4538
938.805	2009
938.899	1130
938.993	2699
939.086	2263
939.180	2063
939.274	4762
939.367	3221
939.461	2794
939.554	1454
939.648	1677
939.741	1044
939.835	791
939.928	1254
940.022	1217
940.115	1701
940.208	1933
940.302	1845
940.395	2768
940.488	597
940.582	1155
940.675	733
940.768	746
940.861	1527
940.954	2529
941.048	1245
941.141	872
941.234	1709
941.327	3249
941.420	4864
941.513	3965
941.606	2746
941.699	1676
941.792	1380
941.885	937
941.978	1629
942.071	777
942.164	1182
942.257	689
942.349	1152
942.442	1571
942.535	270
942.628	666
942.721	955
942.813	1025
942.906	1060
942.999	1434
943.091	1271
943.184	1013
943.277	1108
943.369	1156
943.462	1204
943.554	548
943.647	755
943.739	1008
943.832	1653
943.924	1033
944.017	973
944.109	1041
944.201	1371
944.294	1504
944.386	1057
944.478	1139
944.571	855
944.663	838
944.755	774
944.847	777
944.940	1232
945.032	871
945.124	678
945.216	803
945.308	560
945.400	1983
945.492	649
945.584	1132
945.676	1113
945.768	1218
945.860	879
945.952	1064
946.044	2107
946.136	922
946.228	432
946.320	339
946.412	496
946.503	1136
946.595	1269
946.687	807
946.779	863
946.870	366
946.962	432
947.054	683
947.145	1247
947.237	1401
947.329	789
947.420	977
947.512	584
947.603	846
947.695	348
947.786	717
947.878	409
947.969	1313
948.061	363
948.152	1863
948.243	352
948.335	804
948.426	90
948.517	1050
948.609	812
948.700	695
948.791	841
948.882	1127
948.973	361
949.065	958
949.156	1169
949.247	387
949.338	944
949.429	104
949.520	495
949.611	1221
949.702	1161
949.793	659
949.884	553
949.975	805
950.066	894
950.157	408
950.247	255
950.338	251
950.429	803
950.520	1372
950.611	832
950.701	377
950.792	895
950.883	1839
950.973	756
951.064	1511
951.155	1234
951.245	1028
951.336	554
951.427	669
951.517	724
951.608	641
951.698	1215
951.788	864
951.879	-6
951.969	992
952.060	441
952.150	475
952.240	1248
952.331	581
952.421	1103
952.511	575
952.602	365
952.692	792
952.782	-199
952.872	-25
952.962	157
953.052	1056
953.143	593
953.233	298
953.323	81
953.413	337
953.503	832
953.593	989
953.683	362
953.773	1844
953.863	-119
953.953	1039
954.042	701
954.132	367
954.222	1386
954.312	728
954.402	900
954.492	1223
954.581	484
954.671	2629
954.761	1148
954.850	680
954.940	73
955.030	533
955.119	56
955.209	575
955.298	631
955.388	1358
955.477	638
955.567	928
955.656	-385
955.746	722
955.835	272
955.925	777
956.014	347
956.103	162
956.193	1003
956.282	747
956.371	1095
956.461	615
956.550	456
956.639	899
956.728	167
956.817	558
956.906	710
956.995	1025
957.085	496
957.174	890
957.263	654
957.352	1086
957.441	457
957.530	1075
957.619	851
957.708	556
957.796	296
957.885	756
957.974	57
958.063	1362
958.152	384
958.241	688
958.329	149
958.418	1046
958.507	1165
958.596	1178
958.684	1354
958.773	808
958.861	901
958.950	788
959.039	882
959.127	886
959.216	713
959.304	544
959.393	1263
959.481	1389
959.570	947
959.658	923
959.746	1683
959.835	1941
959.923	2753
960.011	3584
960.100	2004
960.188	1445
960.276	979
960.365	1040
960.453	27
960.541	259
960.629	1200
960.717	821
960.805	187
960.893	518
960.981	552
961.069	609
961.158	189
961.245	588
961.333	937
961.421	332
961.509	261
961.597	926
961.685	446
961.773	124
961.861	496
961.949	341
962.036	137
962.124	416
962.212	-529
962.299	86
962.387	-322
962.475	262
962.562	-176
962.650	774
962.738	-164
962.825	-72
962.913	-269
963.000	222
963.088	303
963.175	776
963.263	-342
963.350	177
963.438	1241
963.525	631
963.612	1136
963.700	3227
963.787	8324
963.874	13857
963.962	4567
964.049	100
964.136	360
964.223	-305
964.310	220
964.398	-177
964.485	-66
964.572	240
964.659	1060
964.746	2456
964.833	1383
964.920	610
965.007	-275
965.094	-121
965.181	238
965.268	-338
965.355	-401
965.441	-303
965.528	459
965.615	-92
965.702	-939
965.789	-377
965.875	-258
965.962	-402
966.049	663
966.136	222
966.222	376
966.309	547
966.395	841
966.482	578
966.569	-103
966.655	-504
966.742	-185
966.828	358
966.915	-143
967.001	96
967.087	-690
967.174	241
967.260	750
967.347	1579
967.433	2593
967.519	5771
967.605	7414
967.692	3172
967.778	26
967.864	209
967.950	-582
968.036	-200
968.123	-428
968.209	472
968.295	-563
968.381	660
968.467	228
968.553	-169
968.639	503
968.725	19
968.811	1305
968.897	1617
968.983	990
969.069	36
969.154	-328
969.240	-539
969.326	-78
969.412	475
969.497	-1037
969.583	-227
969.669	189
969.755	-89
969.840	-426
969.926	518
970.012	517
970.097	1350
970.183	1087
970.268	1046
970.354	380
970.439	1844
970.525	3631
970.610	5147
970.696	1648
970.781	566
970.866	-313
970.952	-411
971.037	43
971.122	125
971.208	132
971.293	-699
971.378	-738
971.463	411
971.549	-634
971.634	4
971.719	-855
971.804	-125
971.889	84
971.974	262
972.059	-7
972.144	-327
972.229	-836
972.314	93
972.399	-225
972.484	381
972.569	252
972.654	-105
972.739	1344
972.824	2473
972.908	1459
972.993	672
973.078	471
973.163	-610
973.247	31
973.332	-891
973.417	-565
973.501	196
973.586	-660
973.671	-531
973.755	-532
973.840	-473
973.924	164
974.009	741
974.093	-176
974.178	1248
974.262	242
974.346	2453
974.431	1629
974.515	738
974.600	-529
974.684	-501
974.768	-422
974.852	702
974.937	-322
975.021	-143
975.105	-201
975.189	-184
975.273	-341
975.358	-471
975.442	-865
975.526	-342
975.610	-324
975.694	-767
975.778	65
975.862	-127
975.946	-1907
976.030	-250
976.114	-461
976.198	-169
976.281	101
976.365	-2
976.449	-220
976.533	-72
976.617	-1086
976.700	-297
976.784	-681
976.868	-67
976.951	315
977.035	860
977.119	-110
977.202	-248
977.286	-1377
977.369	-307
977.453	-171
977.536	614
977.620	-187
977.703	329
977.787	-1650
977.870	599
977.953	-120
978.037	-186
978.120	287
978.203	521
978.287	1025
978.370	2201
978.453	692
978.536	-261
978.620	495
978.703	795
978.786	1176
978.869	153
978.952	-573
979.035	-331
979.118	-327
979.201	-309
979.284	-153
979.367	-239
979.450	-216
979.533	-968
979.616	-518
979.699	-376
979.782	-145
979.865	-204
979.948	374
980.030	-545
980.113	-719
980.196	-798
980.279	-327
980.361	-1346
980.444	-116
980.526	-309
980.609	11
980.692	538
980.774	-638
980.857	-709
980.939	-50
981.022	-282
981.104	-636
981.187	-564
981.269	-635
981.352	-77
981.434	-237
981.516	-780
981.599	-1
981.681	-534
981.763	-528
981.846	4
981.928	167
982.010	134
982.092	-862
982.174	371
982.256	16
982.339	-422
982.421	-957
982.503	-1000
982.585	-309
982.667	-182
982.749	-248
982.831	402
982.913	-959
982.995	626
983.077	-379
983.158	507
983.240	127
983.322	-35
983.404	-464
983.486	483
983.568	-232
983.649	227
983.731	-897
983.813	-264
983.894	-222
983.976	-608
984.058	322
984.139	208
984.221	-246
984.302	80
984.384	-719
984.465	-691
984.547	-566
984.628	-153
984.710	-97
984.791	-572
984.872	-919
984.954	20
985.035	35
985.116	-790
985.198	123
985.279	280
985.360	413
985.441	-11
985.522	-270
985.604	-226
985.685	-415
985.766	637
985.847	-182
985.928	-584
986.009	-844
986.090	-252
986.171	-843
986.252	135
986.333	-586
986.414	-308
986.495	846
986.576	-508
986.656	-450
986.737	-401
986.818	-383
986.899	197
986.980	423
987.060	-211
987.141	-463
987.222	166
987.302	-918
987.383	217
987.464	654
987.544	331
987.625	-196
987.705	681
987.786	455
987.866	656
987.947	-957
988.027	-285
988.108	-94
988.188	9
988.268	359
988.349	208
988.429	16
988.509	-283
988.589	-663
988.670	-1351
988.750	-294
988.830	-426
988.910	-90
988.990	-187
989.070	-353
989.151	174
989.231	-866
989.311	61
989.391	-485
989.471	-29
989.551	-414
989.631	-406
989.711	-300
989.791	-816
989.870	50
989.950	-106
990.030	-56
990.110	42
990.190	-645
990.269	-358
990.349	-547
990.429	-295
990.509	377
990.588	-635
990.668	41
990.747	-657
990.827	-123
990.907	-92
990.986	-1045
991.066	360
991.145	-419
991.225	-443
991.304	-579
991.383	-217
991.463	-373
991.542	-202
991.622	-470
991.701	-180
991.780	-178
991.859	-46
991.939	-881
992.018	-152
992.097	-457
992.176	-362
992.256	-1087
992.335	-320
992.414	-256
992.493	-372
992.572	-668
992.651	-261
992.730	-968
992.809	179
992.888	-821
992.967	-358
993.046	33
993.125	-148
993.203	-622
993.282	-259
993.361	-597
993.440	-387
993.519	-890
993.597	-144
993.676	-453
993.755	-562
993.834	-477
993.912	-123
993.991	-349
994.069	-749
994.148	-1060
994.226	-425
994.305	-1106
994.384	-1223
994.462	-184
994.540	-75
994.619	-854
994.697	54
994.776	-512
994.854	-463
994.932	-920
995.011	-420
995.089	-513
995.167	-765
995.245	-767
995.324	-1037
995.402	-456
995.480	22
995.558	-779
995.636	-1292
995.714	-1045
995.792	-234
995.870	-1071
995.948	-122
996.026	-1115
996.104	-241
996.182	-531
996.260	-741
996.338	-501
996.416	-1038
996.494	-1247
996.572	-609
996.649	-860
996.727	-958
996.805	-524
996.883	-353
996.960	-877
997.038	-412
997.116	-1059
997.193	-571
997.271	-520
997.348	-250
997.426	-1109
997.504	-865
997.581	-839
997.658	-1015
997.736	-919
997.813	-1302
997.891	-97
997.968	-1090
998.046	-790
998.123	263
998.200	-838
998.277	-900
998.355	-354
998.432	-561
998.509	-933
998.586	-1029
998.663	-687
998.741	-470
998.818	-778
998.895	-1256
998.972	-1554
999.049	-771
999.126	-1324
999.203	-451
999.280	-1473
999.357	-966
999.434	-1384
999.511	-651
999.587	-1660
999.664	-791
999.741	-572
999.818	210
999.895	-1046
999.971	-1270
1000.048	-1067
1000.125	-313
1000.202	-841
1000.278	-955
1000.355	-1158
1000.431	-375
1000.508	-1541
1000.584	-95
1000.661	-1200
1000.738	-1799
1000.814	-1320
1000.890	-237
1000.967	-1070
1001.043	-1122
1001.120	-677
1001.196	-640
1001.272	-786
1001.349	-445
1001.425	-1487
1001.501	-922
1001.577	-1113
1001.654	-1384
1001.730	-1839
1001.806	-1481
1001.882	-1719
1001.958	-864
1002.034	-1193
1002.110	-1506
1002.186	-1008
1002.262	-533
1002.338	-1391
1002.414	-1116
1002.490	-1031
1002.566	-749
1002.642	-1595
1002.718	-210
1002.794	-830
1002.870	-1112
1002.945	-282
1003.021	-1096
1003.097	-1159
1003.173	-614
1003.248	-908
1003.324	-837
1003.400	-1369
1003.475	-1202
1003.551	-1097
1003.626	-1171
1003.702	-1456
1003.777	-955
1003.853	-1704
1003.928	-242
1004.004	-917
1004.079	-774
1004.155	-532
1004.230	-1224
1004.305	-1439
1004.381	-471
1004.456	-1811
1004.531	-807
1004.607	-1190
1004.682	-1744
1004.757	-1239
1004.832	-1390
1004.907	-1044
1004.982	-604
1005.057	-681
1005.133	-990
1005.208	-1424
1005.283	-566
1005.358	-1198
1005.433	-1556
1005.508	-1085
1005.583	-1290
1005.657	-1646
1005.732	-1284
1005.807	-1352
1005.882	-1551
1005.957	-1645
1006.032	-1423
1006.106	-699
1006.181	-1758
1006.256	-1469
1006.331	-669
1006.405	-1696
1006.480	-1096
1006.554	-872
1006.629	-1125
1006.704	-1331
1006.778	-682
1006.853	-1530
1006.927	-729
1007.002	-1350
1007.076	-594
1007.150	-1733
1007.225	-538
1007.299	-1348
1007.373	-1607
1007.448	-1450
1007.522	-797
1007.596	-969
1007.671	-749
1007.745	-2164
1007.819	-1515
1007.893	-1318
1007.967	-914
1008.041	-1380
1008.115	-567
1008.190	-1991
1008.264	-499
1008.338	-1401
1008.412	-1478
1008.486	-1297
1008.560	-1044
1008.633	-1878
1008.707	-1662
1008.781	-1260
1008.855	-1620
1008.929	-1086
1009.003	-790
1009.076	-1894
1009.150	-919
1009.224	-666
1009.298	-1331
1009.371	-1801
1009.445	-556
1009.519	-1621
1009.592	-2354
1009.666	-907
1009.739	-1193
1009.813	-1405
1009.886	-1033
1009.960	-2118
1010.033	-1505
1010.107	-1870
1010.180	-2263
1010.253	-810
1010.327	-1615
1010.400	-2264
1010.473	-946
1010.547	-686
1010.620	-1202
1010.693	-1050
1010.766	-1751
1010.840	-990
1010.913	-797
1010.986	-1342
1011.059	-1188
1011.132	-1562
1011.205	-739
1011.278	-1115
1011.351	-1398
1011.424	-541
1011.497	-1182
1011.570	-653
1011.643	-1752
1011.716	-1909
1011.789	-747
1011.862	-1309
1011.934	-1009
1012.007	-1555
1012.080	-606
1012.153	-1811
1012.225	-1174
1012.298	-1498
1012.371	-753
1012.443	-1702
1012.516	-1961
1012.588	-637
1012.661	-692
1012.733	-1339
1012.806	-613
1012.879	-1255
1012.951	-1340
1013.023	-1664
1013.096	-461
1013.168	-1791
1013.241	-2065
1013.313	-1241
1013.385	-1842
1013.458	-1903
1013.530	-1412
1013.602	-1750
1013.674	-1091
1013.746	-1386
1013.819	-2037
1013.891	-1754
1013.963	-1266
1014.035	-832
1014.107	-1217
1014.179	-1406
1014.251	-1592
1014.323	-1150
1014.395	-1350
1014.467	-1041
1014.539	-915
1014.611	-1661
1014.683	-1176
1014.754	-1265
1014.826	-1565
1014.898	-1274
1014.970	-1773
1015.042	-756
1015.113	-903
1015.185	-1452
1015.257	-2270
1015.328	-1596
1015.400	-1523
1015.471	-1679
1015.543	-2204
1015.615	-1295
1015.686	-1577
1015.757	-2030
1015.829	-1138
1015.901	-1745
1015.972	-1218
1016.043	-929
1016.115	-1497
1016.186	-1201
1016.257	-1989
1016.328	-1074
1016.400	-1088
1016.471	-1822
1016.542	-926
1016.613	-1975
1016.685	-1415
1016.756	-919
1016.827	-2076
1016.898	-913
1016.969	-1215
1017.040	-1585
1017.111	-2040
1017.182	-1118
1017.253	-1998
1017.324	-1414
1017.395	-987
1017.466	-1584
1017.537	-1384
1017.608	-903
1017.678	-1424
1017.749	-1389
1017.820	-1574
1017.891	-2159
1017.961	-1535
1018.032	-1279
1018.103	6
1018.173	-1405
1018.244	-1555
1018.315	-1799
1018.385	-999
1018.456	-1994
1018.526	-1438
1018.597	-1391
1018.667	-1249
1018.738	-1663
1018.808	-1313
1018.878	-1678
1018.949	-1249
1019.019	-1928
1019.089	-952
1019.160	-1534
1019.230	-2090
1019.300	-979
1019.371	-1231
1019.441	-1649
1019.511	-1294
1019.581	-1711
1019.651	-1089
1019.721	-1328
1019.791	-1710
1019.861	-2125
1019.931	-832
1020.001	-2303
1020.071	-1387
1020.141	-1848
1020.211	-1595
1020.281	-1521
1020.351	-2138
1020.421	-1215
1020.491	-1868
1020.560	-2283
1020.630	-628
1020.700	-1979
1020.770	-1628
1020.839	-1229
1020.909	-1373
1020.979	-1545
1021.048	-1883
1021.118	-2424
1021.187	-1180
1021.257	-1564
1021.326	-1159
1021.396	-1656
1021.465	-1342
1021.535	-1493
1021.604	-1262
1021.674	-2408
1021.743	-1738
1021.812	-1874
1021.882	-1864
1021.951	-1382
1022.020	-1971
1022.089	-1615
1022.159	-1253
1022.228	-1499
1022.297	-1885
1022.366	-1649
1022.435	-940
1022.504	-1587
1022.573	-1768
1022.642	-1247
1022.711	-2161
1022.781	-805
1022.849	-1079
1022.918	-2066
1022.987	-1932
1023.056	-2118
1023.125	-1850
1023.194	-1858
1023.263	-1499
1023.331	-2062
1023.400	-1690
1023.469	-2298
1023.538	-1097
1023.606	-2263
1023.675	-1421
1023.744	-1798
1023.812	-1764
1023.881	-1946
1023.949	-1001
1024.018	-2130
1024.086	-1303
1024.155	-1087
1024.223	-1408
1024.292	-1687
1024.360	-1720
1024.429	-2029
1024.497	-1811
1024.565	-1595
1024.634	-1438
1024.702	-2268
1024.770	-1847
1024.838	-2322
1024.907	-2284
1024.975	-1875
1025.043	-1331
1025.111	-1993
1025.179	-1211
1025.247	-1541
1025.315	-1945
1025.383	-1959
1025.451	-1841
1025.519	-2122
1025.587	-2147
1025.655	-1804
1025.723	-1550
1025.791	-1648
1025.859	-963
1025.927	-1397
1025.995	-1552
1026.062	-1283
1026.130	-1491
1026.198	-1429
1026.266	-1814
1026.333	-1936
1026.401	-1928
1026.469	-1876
1026.536	-1975
1026.604	-2227
1026.671	-1658
1026.739	-1880
1026.806	-1982
1026.874	-1998
1026.941	-2256
1027.009	-1615
1027.076	-2740
1027.144	-1645
1027.211	-2518
1027.278	-1651
1027.345	-1807
1027.413	-1249
1027.480	-1616
1027.547	-2444
1027.614	-2344
1027.682	-1835
1027.749	-1257
1027.816	-1599
1027.883	-1007
1027.950	-1680
1028.017	-1319
1028.084	-2003
1028.151	-1598
1028.218	-2017
1028.285	-2445
1028.352	-1872
1028.419	-2320
1028.486	-2061
1028.553	-1364
1028.619	-1545
1028.686	-995
1028.753	-1893
1028.820	-1466
1028.886	-1589
1028.953	-1803
1029.020	-1879
1029.086	-2335
1029.153	-2017
1029.220	-2083
1029.286	-1803
1029.353	-1968
1029.419	-2183
1029.486	-1784
1029.552	-2746
1029.619	-1624
1029.685	-2412
1029.751	-1818
1029.818	-1894
1029.884	-2351
1029.951	-1914
1030.017	-2072
1030.083	-1323
1030.149	-1792
1030.216	-1991
1030.282	-1867
1030.348	-2212
1030.414	-1762
1030.480	-1659
1030.546	-2016
1030.612	-2170
1030.678	-1718
1030.744	-2166
1030.810	-1877
1030.876	-1630
1030.942	-1311
1031.008	-2144
1031.074	-2303
1031.140	-2594
1031.206	-2136
1031.272	-1454
1031.337	-1799
1031.403	-2758
1031.469	-1404
1031.534	-2828
1031.600	-1404
1031.666	-1549
1031.731	-1648
1031.797	-2026
1031.863	-2441
1031.928	-2512
1031.994	-2192
1032.059	-1816
1032.125	-1587
1032.190	-1800
1032.256	-1869
1032.321	-2034
1032.386	-2565
1032.452	-1773
1032.517	-2359
1032.582	-2139
1032.647	-1730
1032.713	-2523
1032.778	-1959
1032.843	-2236
1032.908	-1552
1032.974	-1581
1033.039	-2586
1033.104	-1327
1033.169	-1902
1033.234	-1514
1033.299	-858
1033.364	-1498
1033.429	-1168
1033.494	-1333
1033.559	-1423
1033.624	-1480
1033.688	-1725
1033.753	-2583
1033.818	-2231
1033.883	-2308
1033.948	-1955
1034.013	-1934
1034.077	-991
1034.142	-1366
1034.207	-510
1034.271	-860
1034.336	53
1034.400	-272
1034.465	-480
1034.530	111
1034.594	-51
1034.658	-1576
1034.723	-1773
1034.787	-1412
1034.852	-1276
1034.916	-2461
1034.981	-2213
1035.045	-2024
1035.109	-1856
1035.173	-1934
1035.238	-1601
1035.302	-1815
1035.366	-2426
1035.430	-2811
1035.495	-2503
1035.559	-1641
1035.623	-1798
1035.687	-1733
1035.751	-2243
1035.815	-2622
1035.879	-2124
1035.943	-1926
1036.007	-2143
1036.071	-1614
1036.135	-1540
1036.198	-1553
1036.262	-1978
1036.326	-2336
1036.390	-1777
1036.454	-1302
1036.517	-1877
1036.581	-2407
1036.645	-1349
1036.709	-811
1036.772	-226
1036.836	-1674
1036.900	-1824
1036.963	-1777
1037.026	-1589
1037.090	-2320
1037.154	-1406
1037.217	-2332
1037.280	-2269
1037.344	-1825
1037.407	-1985
1037.471	-1552
1037.534	-3242
1037.597	-2080
1037.661	-2020
1037.724	-1724
1037.787	-2302
1037.850	-2166
1037.913	-1377
1037.977	-1434
1038.040	-2203
1038.103	-2344
1038.166	-1637
1038.229	-1909
1038.292	-2407
1038.355	-2831
1038.418	-1577
1038.481	-2208
1038.544	-1463
1038.607	-2305
1038.670	-2007
1038.732	-1715
1038.795	-2695
1038.858	-2803
1038.921	-1573
1038.984	-1457
1039.046	-2010
1039.109	-2548
1039.172	-1934
1039.234	-1774
1039.297	-1969
1039.360	-2394
1039.422	-1807
1039.485	-2383
1039.547	-2071
1039.610	-1422
1039.672	-1625
1039.734	-2454
1039.797	-2468
1039.859	-1857
1039.922	-2728
1039.984	-1924
1040.046	-1479
1040.109	-2374
1040.171	-2590
1040.233	-1976
1040.295	-1454
1040.358	-2766
1040.420	-1779
1040.482	-2855
1040.544	-1883
1040.606	-2136
1040.668	-1587
1040.730	-2496
1040.792	-2699
1040.854	-2554
1040.916	-1727
1040.978	-2243
1041.040	-1146
1041.102	-2405
1041.164	-1292
1041.225	-1540
1041.287	-2176
1041.349	-3022
1041.411	-1556
1041.472	-2404
1041.534	-2568
1041.596	-1647
1041.657	-1220
1041.719	-2742
1041.781	-1911
1041.842	-2151
1041.904	-2525
1041.965	-1971
1042.027	-1244
1042.088	-1801
1042.150	-2079
1042.211	-2533
1042.272	-1945
1042.334	-1726
1042.395	-1652
1042.456	-2630
1042.518	-2205
1042.579	-2062
1042.640	-1469
1042.701	-2058
1042.763	-1472
1042.824	-1762
1042.885	-1790
1042.946	-2333
1043.007	-2302
1043.068	-2100
1043.129	-1772
1043.190	-3011
1043.251	-2593
1043.312	-2066
1043.373	-1773
1043.434	-2024
1043.495	-2636
1043.556	-1879
1043.616	-2180
1043.677	-2923
1043.738	-1769
1043.799	-1709
1043.859	-2289
1043.920	-2434
1043.981	-2253
1044.041	-2645
1044.102	-1658
1044.162	-2413
1044.223	-1600
1044.284	-1885
1044.344	-2062
1044.405	-2518
1044.465	-1535
1044.525	-2231
1044.586	-1423
1044.646	-2230
1044.707	-1826
1044.767	-1993
1044.827	-1790
1044.887	-1520
1044.948	-1690
1045.008	-2665
1045.068	-2122
1045.128	-1789
1045.188	-1834
1045.249	-1211
1045.309	-2398
1045.369	-1646
1045.429	-1602
1045.489	-2636
1045.549	-1911
1045.609	-1491
1045.669	-1625
1045.729	-1524
1045.789	-1470
1045.848	-1659
1045.908	-1933
1045.968	-1787
1046.028	-1221
1046.088	-1702
1046.147	-1832
1046.207	-1678
1046.267	-1875
1046.326	-2287
1046.386	-2118
1046.446	-1883
1046.505	-1567
1046.565	-1023
1046.624	-1765
1046.684	-2152
1046.743	-1137
1046.803	-1354
1046.862	-823
1046.922	0
