'Start Wavelength	183.907
'End Wavelength	1046.922
'Gate Delay	5.000
'Gate Width (ms)	1.050
'Laser Output Level	0.000
'X Position	0.000
'Y Position	0.000
'Z Position	0.000
'Grid Point Number	1.000
'Shot Number	100.000
183.907	887.000
183.977	-605.000
184.047	574
184.116	314
184.186	1378
184.256	-197
184.325	646
184.395	-67
184.465	979
184.534	-199
184.604	221
184.674	145
184.743	-51
184.813	648
184.883	405
184.952	-391
185.022	65
185.092	616
185.161	420
185.231	853
185.301	41
185.370	453
185.440	49
185.509	587
185.579	-523
185.649	-63
185.718	460
185.788	643
185.857	155
185.927	793
185.996	711
186.066	-325
186.136	1291
186.205	274
186.275	797
186.344	1029
186.414	603
186.483	652
186.553	1604
186.622	463
186.692	902
186.761	214
186.831	790
186.900	-67
186.970	925
187.039	596
187.109	1129
187.178	-114
187.248	946
187.317	1042
187.387	253
187.456	-43
187.526	701
187.595	-120
187.664	563
187.734	1059
187.803	829
187.873	-782
187.942	902
188.012	355
188.081	384
188.150	716
188.220	1211
188.289	670
188.358	826
188.428	233
188.497	1294
188.567	1014
188.636	565
188.705	509
188.775	535
188.844	-151
188.913	690
188.983	-31
189.052	654
189.121	-133
189.191	241
189.260	690
189.329	708
189.399	355
189.468	236
189.537	132
189.606	933
189.676	-10
189.745	1505
189.814	368
189.883	43
189.953	32
190.022	805
190.091	672
190.161	797
190.230	957
190.299	-440
190.368	380
190.437	746
190.507	172
190.576	532
190.645	997
190.714	429
190.783	-370
190.853	724
190.922	582
190.991	7
191.060	930
191.129	-337
191.198	260
191.268	342
191.337	399
191.406	410
191.475	341
191.544	426
191.613	285
191.682	692
191.752	406
191.821	843
191.890	-407
191.959	214
192.028	668
192.097	645
192.166	391
192.235	446
192.304	230
192.373	-50
192.442	505
192.511	894
192.580	128
192.650	410
192.719	803
192.788	1199
192.857	188
192.926	803
192.995	-163
193.064	2228
193.133	-269
193.202	422
193.271	636
193.340	769
193.409	513
193.478	517
193.547	995
193.615	1397
193.684	247
193.753	801
193.822	351
193.891	416
193.960	621
194.029	939
194.098	-542
194.167	172
194.236	327
194.305	178
194.374	94
194.443	523
194.512	404
194.580	1157
194.649	864
194.718	1074
194.787	774
194.856	131
194.925	885
194.994	698
195.062	166
195.131	179
195.200	322
195.269	719
195.338	616
195.407	500
195.475	378
195.544	1565
195.613	654
195.682	-84
195.751	316
195.819	561
195.888	548
195.957	1079
196.026	-92
196.094	706
196.163	737
196.232	855
196.301	489
196.369	692
196.438	695
196.507	495
196.576	-325
196.644	305
196.713	-122
196.782	1256
196.850	333
196.919	767
196.988	223
197.056	582
197.125	126
197.194	1055
197.262	-15
197.331	378
197.400	-434
197.468	524
197.537	83
197.606	643
197.674	1104
197.743	854
197.812	13
197.880	752
197.949	938
198.017	679
198.086	219
198.155	617
198.223	811
198.292	1106
198.360	438
198.429	1196
198.497	363
198.566	1174
198.635	737
198.703	651
198.772	1029
198.840	1411
198.909	905
198.977	286
199.046	483
199.114	1020
199.183	446
199.251	458
199.320	406
199.388	443
199.457	462
199.525	1193
199.594	243
199.662	778
199.731	364
199.799	1620
199.867	-7
199.936	996
200.004	269
200.073	859
200.141	817
200.210	1179
200.278	647
200.346	1813
200.415	998
200.483	1100
200.552	1046
200.620	904
200.688	772
200.757	636
200.825	588
200.893	1394
200.962	326
201.030	1038
201.098	-602
201.167	1263
201.235	339
201.303	1242
201.372	1765
201.440	1927
201.508	1831
201.577	991
201.645	1681
201.713	855
201.781	1060
201.850	1569
201.918	901
201.986	560
202.055	1299
202.123	107
202.191	482
202.259	691
202.327	836
202.396	1127
202.464	890
202.532	3265
202.600	5324
202.669	4362
202.737	1589
202.805	1265
202.873	1154
202.941	1301
203.009	531
203.078	1029
203.146	344
203.214	1085
203.282	213
203.350	1367
203.418	966
203.487	1029
203.555	332
203.623	773
203.691	542
203.759	1183
203.827	209
203.895	1752
203.963	1379
204.031	988
204.099	613
204.168	595
204.236	318
204.304	1308
204.372	918
204.440	857
204.508	-142
204.576	398
204.644	-203
204.712	1075
204.780	780
204.848	928
204.916	381
204.984	913
205.052	355
205.120	964
205.188	113
205.256	-58
205.324	1048
205.392	383
205.460	632
205.528	372
205.596	303
205.664	1193
205.732	284
205.799	1316
205.867	1035
205.935	106
206.003	770
206.071	993
206.139	230
206.207	732
206.275	204
206.343	776
206.411	-212
206.478	1390
206.546	269
206.614	760
206.682	512
206.750	1030
206.818	1850
206.885	1975
206.953	1062
207.021	1201
207.089	638
207.157	1016
207.225	-110
207.292	844
207.360	814
207.428	849
207.496	492
207.563	431
207.631	-152
207.699	555
207.767	-143
207.834	725
207.902	388
207.970	1239
208.038	1303
208.105	313
208.173	480
208.241	1366
208.309	1030
208.376	1320
208.444	1192
208.512	578
208.579	7
208.647	1781
208.715	1067
208.782	845
208.850	222
208.918	804
208.985	588
209.053	1064
209.120	337
209.188	312
209.256	-246
209.323	324
209.391	845
209.459	1317
209.526	136
209.594	1128
209.661	269
209.729	1002
209.796	963
209.864	2145
209.932	-24
209.999	1059
210.067	1231
210.134	1006
210.202	1213
210.269	1155
210.337	2645
210.404	1826
210.472	-25
210.539	2045
210.607	809
210.674	873
210.742	682
210.809	350
210.877	2025
210.944	1402
211.012	638
211.079	2058
211.146	790
211.214	1871
211.281	2367
211.349	1695
211.416	1158
211.484	797
211.551	658
211.618	1761
211.686	890
211.753	1261
211.821	1115
211.888	1328
211.955	1730
212.023	2089
212.090	961
212.157	1023
212.225	459
212.292	1820
212.359	2478
212.427	6555
212.494	1914
212.561	1308
212.629	854
212.696	428
212.763	901
212.831	1340
212.898	839
212.965	267
213.032	3
213.100	1098
213.167	1427
213.234	1954
213.301	658
213.369	849
213.436	847
213.503	717
213.570	833
213.638	1260
213.705	1082
213.772	950
213.839	605
213.906	2013
213.973	1250
214.041	465
214.108	1377
214.175	1507
214.242	971
214.309	1021
214.376	1177
214.444	1329
214.511	1367
214.578	1502
214.645	1696
214.712	1388
214.779	1364
214.846	1597
214.913	1845
214.980	2762
215.048	3596
215.115	3626
215.182	2377
215.249	1710
215.316	1323
215.383	1962
215.450	830
215.517	1041
215.584	642
215.651	576
215.718	316
215.785	1319
215.852	1122
215.919	1131
215.986	1642
216.053	1526
216.120	679
216.187	1256
216.254	812
216.321	1948
216.388	803
216.455	1349
216.522	1271
216.589	1074
216.656	1289
216.722	2035
216.789	1481
216.856	908
216.923	514
216.990	1729
217.057	614
217.124	1431
217.191	527
217.258	2152
217.324	1224
217.391	1738
217.458	1835
217.525	1851
217.592	1016
217.659	395
217.725	1780
217.792	2022
217.859	1069
217.926	970
217.993	267
218.059	1092
218.126	996
218.193	1113
218.260	1505
218.327	760
218.393	1071
218.460	859
218.527	-88
218.594	1454
218.660	1224
218.727	1631
218.794	651
218.860	1340
218.927	239
218.994	1512
219.061	1208
219.127	1405
219.194	2129
219.261	1231
219.327	1186
219.394	1147
219.461	559
219.527	1564
219.594	2232
219.661	2775
219.727	429
219.794	2667
219.860	1828
219.927	2903
219.994	5416
220.060	8300
220.127	7869
220.193	4300
220.260	2665
220.326	2605
220.393	2084
220.460	2130
220.526	1854
220.593	1969
220.659	2109
220.726	1144
220.792	3209
220.859	2913
220.925	2844
220.992	3593
221.058	4199
221.125	4741
221.191	2725
221.258	2604
221.324	1653
221.391	1475
221.457	853
221.524	1531
221.590	1352
221.657	5067
221.723	1523
221.789	2887
221.856	2118
221.922	1792
221.989	1035
222.055	1538
222.121	603
222.188	3007
222.254	1374
222.321	1489
222.387	666
222.453	747
222.520	70
222.586	1108
222.652	1256
222.719	1066
222.785	1606
222.851	1011
222.918	523
222.984	395
223.050	-153
223.116	323
223.183	1174
223.249	-32
223.315	239
223.382	1196
223.448	394
223.514	127
223.580	991
223.647	773
223.713	286
223.779	551
223.845	171
223.911	1162
223.978	971
224.044	855
224.110	741
224.176	995
224.242	592
224.309	776
224.375	529
224.441	1136
224.507	60
224.573	659
224.639	557
224.705	364
224.772	426
224.838	779
224.904	1166
224.970	1071
225.036	923
225.102	988
225.168	1393
225.234	1577
225.300	1518
225.366	1395
225.432	362
225.499	1931
225.565	847
225.631	1139
225.697	1125
225.763	1888
225.829	938
225.895	1379
225.961	1806
226.027	1335
226.093	1039
226.159	2385
226.225	2969
226.291	6195
226.357	5312
226.423	3552
226.489	3304
226.554	1289
226.620	1780
226.686	2135
226.752	2794
226.818	4915
226.884	11549
226.950	6824
227.016	3600
227.082	2984
227.148	2366
227.214	1336
227.279	2875
227.345	3571
227.411	4810
227.477	9766
227.543	13934
227.609	15540
227.674	8094
227.740	5033
227.806	3913
227.872	2408
227.938	1693
228.003	2120
228.069	644
228.135	1464
228.201	1071
228.267	1844
228.332	1026
228.398	861
228.464	1341
228.530	874
228.595	1436
228.661	787
228.727	1359
228.792	1764
228.858	650
228.924	-46
228.990	1407
229.055	1101
229.121	248
229.187	1240
229.252	1425
229.318	1361
229.384	28
229.449	546
229.515	-6
229.581	-36
229.646	1687
229.712	1333
229.777	1910
229.843	1419
229.909	1321
229.974	1329
230.040	669
230.105	1371
230.171	491
230.236	1265
230.302	1507
230.368	1000
230.433	557
230.499	450
230.564	504
230.630	506
230.695	1068
230.761	1234
230.826	582
230.892	1436
230.957	271
231.023	845
231.088	299
231.154	616
231.219	588
231.284	1699
231.350	1652
231.415	680
231.481	868
231.546	545
231.612	430
231.677	1493
231.742	-90
231.808	2076
231.873	688
231.939	20
232.004	1848
232.069	1410
232.135	636
232.200	955
232.265	1088
232.331	523
232.396	29
232.461	698
232.527	715
232.592	1534
232.657	1689
232.723	1093
232.788	488
232.853	1047
232.918	1285
232.984	942
233.049	576
233.114	1330
233.179	2473
233.245	1935
233.310	249
233.375	1065
233.440	1202
233.506	107
233.571	698
233.636	804
233.701	884
233.766	906
233.832	722
233.897	1291
233.962	64
234.027	1580
234.092	267
234.157	1851
234.222	1800
234.288	2551
234.353	2482
234.418	1791
234.483	1087
234.548	1436
234.613	1603
234.678	1560
234.743	199
234.808	2105
234.873	815
234.938	1009
235.004	489
235.069	829
235.134	929
235.199	1253
235.264	942
235.329	802
235.394	514
235.459	1433
235.524	1156
235.589	1518
235.654	942
235.719	463
235.784	1671
235.849	892
235.913	2322
235.978	1713
236.043	1454
236.108	1260
236.173	1071
236.238	1563
236.303	781
236.368	689
236.433	1442
236.498	1127
236.563	1968
236.627	4731
236.692	16491
236.757	9716
236.822	2815
236.887	2690
236.952	1582
237.017	1645
237.081	1789
237.146	2152
237.211	6387
237.276	19013
237.341	22831
237.405	7355
237.470	3604
237.535	2527
237.600	1834
237.664	2538
237.729	605
237.794	1663
237.859	2851
237.923	1423
237.988	1147
238.053	2100
238.118	1164
238.182	3909
238.247	3070
238.312	1322
238.376	1828
238.441	-515
238.506	1223
238.570	1061
238.635	1474
238.700	2147
238.764	393
238.829	1919
238.893	1167
238.958	2017
239.023	1177
239.087	2577
239.152	2744
239.216	1556
239.281	1681
239.346	1965
239.410	1568
239.475	2286
239.539	4121
239.604	2511
239.668	4138
239.733	7007
239.797	18371
239.862	28422
239.926	19495
239.991	8608
240.055	3959
240.120	3575
240.184	2318
240.249	1806
240.313	1322
240.378	1339
240.442	2764
240.507	2743
240.571	701
240.635	1392
240.700	1760
240.764	1658
240.829	688
240.893	940
240.957	1410
241.022	2750
241.086	1708
241.151	699
241.215	322
241.279	1857
241.344	444
241.408	858
241.472	689
241.537	1711
241.601	1090
241.665	1084
241.730	1395
241.794	1430
241.858	406
241.922	1232
241.987	1102
242.051	1033
242.115	161
242.179	1550
242.244	774
242.308	1425
242.372	704
242.436	1749
242.501	1224
242.565	658
242.629	302
242.693	1194
242.757	21
242.822	933
242.886	716
242.950	1370
243.014	24
243.078	1258
243.142	1222
243.206	747
243.271	1160
243.335	274
243.399	1394
243.463	7138
243.527	11161
243.591	2709
243.655	1159
243.719	1695
243.783	1238
243.847	2084
243.911	1791
243.975	2393
244.040	171
244.104	1755
244.168	1081
244.232	1026
244.296	1264
244.360	1994
244.424	91
244.488	889
244.552	1560
244.615	332
244.679	1616
244.743	1281
244.807	621
244.871	1831
244.935	1417
244.999	922
245.063	629
245.127	1521
245.191	1807
245.255	1762
245.319	1646
245.383	336
245.446	1611
245.510	927
245.574	1256
245.638	1924
245.702	1343
245.766	2902
245.829	2463
245.893	734
245.957	984
246.021	2554
246.085	1275
246.149	1346
246.212	4183
246.276	5018
246.340	1576
246.404	1984
246.467	2666
246.531	93
246.595	2237
246.659	2196
246.722	747
246.786	1794
246.850	1827
246.913	1944
246.977	1352
247.041	2106
247.104	746
247.168	2225
247.232	3815
247.295	7900
247.359	2560
247.423	2540
247.486	2373
247.550	2345
247.614	1587
247.677	2472
247.741	1846
247.804	2244
247.868	2462
247.932	4698
247.995	6747
248.059	1785
248.122	378
248.186	2146
248.249	3705
248.313	14796
248.376	10042
248.440	6008
248.503	1356
248.567	2948
248.630	2551
248.694	3697
248.757	6345
248.821	13162
248.884	5015
248.948	6902
249.011	8821
249.075	15614
249.138	10517
249.202	3442
249.265	1622
249.328	3103
249.392	1691
249.455	2542
249.519	1796
249.582	2228
249.645	3766
249.709	3031
249.772	1390
249.835	2288
249.899	2178
249.962	2935
250.025	675
250.089	6652
250.152	4303
250.215	2410
250.279	1948
250.342	2578
250.405	1921
250.468	1800
250.532	2717
250.595	4552
250.658	22284
250.721	21743
250.785	5883
250.848	5177
250.911	2471
250.974	3476
251.038	4950
251.101	7384
251.164	2712
251.227	3887
251.290	3043
251.354	6692
251.417	28551
251.480	15325
251.543	15518
251.606	48850
251.669	20978
251.732	8484
251.795	10773
251.859	12195
251.922	26617
251.985	10208
252.048	4866
252.111	3973
252.174	3549
252.237	8786
252.300	14374
252.363	19284
252.426	33797
252.489	8804
252.552	4126
252.615	3510
252.678	4615
252.741	12861
252.804	18502
252.867	33671
252.930	15764
252.993	7674
253.056	5883
253.119	2741
253.182	2335
253.245	4544
253.308	3103
253.371	2892
253.434	2357
253.497	3613
253.559	8505
253.622	3977
253.685	4185
253.748	3132
253.811	2267
253.874	3487
253.937	1522
254.000	2934
254.062	5805
254.125	7102
254.188	5372
254.251	3417
254.314	2691
254.376	3471
254.439	3814
254.502	3150
254.565	6375
254.628	7142
254.690	3654
254.753	3100
254.816	1849
254.878	2985
254.941	6549
255.004	5005
255.067	2156
255.129	1828
255.192	1590
255.255	1323
255.317	1870
255.380	2778
255.443	2052
255.505	2887
255.568	1314
255.631	2051
255.693	2893
255.756	2180
255.819	4153
255.881	3218
255.944	1924
256.006	1707
256.069	1736
256.132	1536
256.194	2221
256.257	2726
256.319	2101
256.382	4615
256.444	4723
256.507	3828
256.569	1781
256.632	2600
256.694	2278
256.757	10273
256.819	20655
256.882	5982
256.944	3256
257.007	4254
257.069	2274
257.132	2281
257.194	3240
257.257	1932
257.319	1500
257.381	2489
257.444	7660
257.506	33257
257.569	19628
257.631	8055
257.693	4445
257.756	2445
257.818	2261
257.880	2272
257.943	1998
258.005	1572
258.067	1764
258.130	2803
258.192	2501
258.254	2909
258.317	1413
258.379	2902
258.441	4884
258.503	3674
258.566	2990
258.628	3901
258.690	1979
258.753	2552
258.815	2580
258.877	2808
258.939	2177
259.001	3344
259.064	1328
259.126	2038
259.188	2086
259.250	2698
259.312	3087
259.375	4022
259.437	1664
259.499	2630
259.561	1591
259.623	2310
259.685	1636
259.747	3144
259.809	3451
259.872	4804
259.934	9640
259.996	6462
260.058	3367
260.120	1889
260.182	1929
260.244	2250
260.306	1973
260.368	2317
260.430	1822
260.492	3936
260.554	4060
260.616	3541
260.678	5749
260.740	4045
260.802	2172
260.864	2956
260.926	1657
260.988	3711
261.050	2386
261.112	4620
261.174	7109
261.236	4097
261.298	2752
261.359	3554
261.421	3409
261.483	2596
261.545	3005
261.607	2380
261.669	2672
261.731	3445
261.793	4364
261.854	1870
261.916	2885
261.978	2876
262.040	2761
262.102	3058
262.164	2521
262.225	3172
262.287	2744
262.349	4142
262.411	2910
262.472	3452
262.534	2956
262.596	3502
262.658	3840
262.719	2530
262.781	2874
262.843	3669
262.904	3221
262.966	3658
263.028	2842
263.090	8847
263.151	12406
263.213	5975
263.275	3982
263.336	3507
263.398	3679
263.459	2348
263.521	3247
263.583	5098
263.644	4286
263.706	3136
263.767	2194
263.829	3317
263.891	2594
263.952	2793
264.014	1682
264.075	3861
264.137	3696
264.198	3392
264.260	2291
264.321	2995
264.383	4157
264.444	5989
264.506	2500
264.567	3464
264.629	5201
264.690	4832
264.752	3312
264.813	2979
264.875	2362
264.936	3424
264.998	3052
265.059	4406
265.120	3138
265.182	3682
265.243	12512
265.305	9050
265.366	4381
265.427	3394
265.489	3647
265.550	2215
265.611	3142
265.673	3278
265.734	3267
265.795	4221
265.857	2843
265.918	3244
265.979	6694
266.040	22755
266.102	11422
266.163	6115
266.224	4582
266.286	4381
266.347	3225
266.408	4055
266.469	4090
266.530	4607
266.592	4504
266.653	5051
266.714	4065
266.775	3369
266.836	2797
266.898	3845
266.959	4830
267.020	3220
267.081	4730
267.142	4722
267.203	4531
267.264	3996
267.326	5673
267.387	5047
267.448	3752
267.509	4608
267.570	3469
267.631	3900
267.692	2778
267.753	4052
267.814	3449
267.875	4719
267.936	4175
267.997	3576
268.058	2304
268.119	2418
268.180	2456
268.241	3127
268.302	3111
268.363	3196
268.424	3061
268.485	2589
268.546	2413
268.607	2945
268.668	2577
268.729	2653
268.790	3142
268.851	3600
268.912	3574
268.972	3821
269.033	2086
269.094	2014
269.155	3139
269.216	3258
269.277	2809
269.338	2644
269.398	2775
269.459	2946
269.520	2360
269.581	3064
269.642	2455
269.702	2157
269.763	3274
269.824	3137
269.885	2371
269.945	2997
270.006	2694
270.067	2621
270.128	2085
270.188	2290
270.249	2491
270.310	2126
270.370	3530
270.431	2745
270.492	2092
270.553	3111
270.613	2993
270.674	4846
270.734	2387
270.795	2972
270.856	3120
270.916	2568
270.977	3049
271.038	3088
271.098	2214
271.159	3987
271.219	2538
271.280	3030
271.340	3267
271.401	2737
271.462	2992
271.522	4177
271.583	3060
271.643	3596
271.704	3686
271.764	4463
271.825	4802
271.885	16944
271.946	13744
272.006	6873
272.066	12876
272.127	17438
272.187	16614
272.248	8072
272.308	5533
272.369	13231
272.429	6418
272.489	5627
272.550	5626
272.610	6119
272.671	5240
272.731	5172
272.791	4946
272.852	5693
272.912	5299
272.972	4929
273.033	5835
273.093	5978
273.153	6076
273.214	6323
273.274	6817
273.334	14496
273.394	14498
273.455	10297
273.515	11581
273.575	13373
273.635	9979
273.696	14488
273.756	17038
273.816	11943
273.876	9415
273.936	10482
273.997	9351
274.057	6297
274.117	5931
274.177	8784
274.237	18317
274.297	10030
274.358	8140
274.418	11708
274.478	7817
274.538	5047
274.598	3411
274.658	7011
274.718	6145
274.778	5373
274.838	4111
274.898	5568
274.958	8300
275.018	15514
275.078	7137
275.138	5733
275.198	4413
275.258	4199
275.318	3880
275.378	4621
275.438	3999
275.498	4970
275.558	5732
275.618	9866
275.678	7082
275.738	6896
275.798	5479
275.858	3858
275.918	3415
275.978	4767
276.038	4410
276.098	4637
276.157	5216
276.217	7766
276.277	4853
276.337	4342
276.397	3963
276.457	5160
276.517	4783
276.576	5373
276.636	4297
276.696	5033
276.756	6596
276.815	5685
276.875	5435
276.935	5020
276.995	5448
277.055	6953
277.114	6587
277.174	6295
277.234	7321
277.293	6167
277.353	5024
277.413	3941
277.472	5705
277.532	6607
277.592	10782
277.651	40745
277.711	38085
277.771	22652
277.830	58439
277.890	34113
277.950	52839
278.009	81155
278.069	31887
278.128	49543
278.188	42582
278.248	33329
278.307	63837
278.367	25915
278.426	12689
278.486	9524
278.545	7104
278.605	7723
278.664	7277
278.724	7663
278.783	12962
278.843	15832
278.902	9669
278.962	8361
279.021	9004
279.081	15955
279.140	13046
279.199	11729
279.259	12933
279.318	15663
279.378	22202
279.437	34991
279.496	92499
279.556	200141
279.615	115700
279.675	48100
279.734	30880
279.793	34722
279.853	33113
279.912	18529
279.971	16399
280.031	15162
280.090	22961
280.149	29902
280.208	51206
280.268	154464
280.327	97574
280.386	36169
280.445	24583
280.505	15668
280.564	12582
280.623	10606
280.682	11927
280.742	12209
280.801	8524
280.860	8322
280.919	7731
280.978	8034
281.037	7663
281.097	7859
281.156	9265
281.215	7866
281.274	8211
281.333	13612
281.392	8396
281.451	6628
281.510	6370
281.569	7098
281.628	6166
281.688	6878
281.747	6757
281.806	6729
281.865	6511
281.924	6102
281.983	6305
282.042	5746
282.101	5690
282.160	6494
282.219	6158
282.278	7015
282.337	7685
282.396	6639
282.454	6627
282.513	7554
282.572	9190
282.631	7710
282.690	6158
282.749	5786
282.808	6954
282.867	7709
282.926	7488
282.985	7679
283.043	6357
283.102	7496
283.161	7377
283.220	11138
283.279	11272
283.338	8326
283.396	8864
283.455	9694
283.514	9310
283.573	10030
283.631	9481
283.690	10358
283.749	9940
283.808	11312
283.866	10575
283.925	11350
283.984	12048
284.043	12907
284.101	12944
284.160	13976
284.219	16582
284.277	17960
284.336	18904
284.395	25059
284.453	22940
284.512	24838
284.570	28514
284.629	33734
284.688	38280
284.746	45959
284.805	55966
284.863	69241
284.922	85619
284.981	108403
285.039	143176
285.098	181870
285.156	168627
285.215	96995
285.273	132792
285.332	186259
285.390	167632
285.449	133519
285.507	103283
285.566	82009
285.624	65986
285.683	54756
285.741	45084
285.799	37987
285.858	32393
285.916	28889
285.975	25492
286.033	23252
286.091	20482
286.150	18018
286.208	17570
286.267	16316
286.325	15097
286.383	14446
286.442	13052
286.500	13180
286.558	11382
286.616	12269
286.675	11021
286.733	10144
286.791	9262
286.850	10806
286.908	9469
286.966	9598
287.024	7783
287.083	8474
287.141	7053
287.199	8856
287.257	8257
287.315	8078
287.374	6777
287.432	8267
287.490	6820
287.548	7635
287.606	6211
287.664	6751
287.723	7028
287.781	7082
287.839	6324
287.897	7574
287.955	7381
288.013	8153
288.071	12579
288.129	48360
288.187	76791
288.245	25441
288.303	12677
288.361	9946
288.419	7387
288.477	7112
288.535	6419
288.593	6186
288.651	5889
288.709	6035
288.767	5602
288.825	5069
288.883	5278
288.941	5508
288.999	5067
289.057	5240
289.115	4701
289.173	4797
289.231	5201
289.289	5920
289.346	3863
289.404	5580
289.462	4310
289.520	5445
289.578	4349
289.636	4542
289.694	4260
289.751	5118
289.809	4669
289.867	4708
289.925	5691
289.983	5379
290.040	4486
290.098	4757
290.156	4369
290.214	4133
290.271	3818
290.329	6405
290.387	4217
290.444	4211
290.502	3679
290.560	5314
290.617	4194
290.675	4878
290.733	3718
290.790	4809
290.848	4557
290.906	5155
290.963	4487
291.021	4488
291.078	3849
291.136	4879
291.194	6879
291.251	8669
291.309	5120
291.366	4995
291.424	4694
291.481	4542
291.539	7151
291.596	6991
291.654	4866
291.711	5066
291.769	4550
291.826	5810
291.884	3951
291.941	3510
291.999	3984
292.056	4974
292.114	3749
292.171	4640
292.228	5536
292.286	4818
292.343	4802
292.401	5993
292.458	4203
292.515	5023
292.573	5427
292.630	4801
292.687	4571
292.745	4419
292.802	4568
292.859	7794
292.917	8688
292.974	5374
293.031	4477
293.089	5193
293.146	4095
293.203	4563
293.260	4236
293.318	4798
293.375	4633
293.432	4303
293.489	5512
293.546	5158
293.604	6784
293.661	13538
293.718	17827
293.775	10452
293.832	10320
293.889	12407
293.947	9112
294.004	7109
294.061	4749
294.118	8356
294.175	13013
294.232	16497
294.289	10613
294.346	8174
294.403	6689
294.460	5103
294.517	4541
294.574	4804
294.631	5050
294.688	5786
294.745	7960
294.802	17596
294.859	11397
294.916	6615
294.973	4821
295.030	4967
295.087	3586
295.144	4953
295.201	5628
295.258	3850
295.315	5356
295.372	9775
295.429	10412
295.486	6129
295.542	5005
295.599	9676
295.656	8750
295.713	9313
295.770	8521
295.827	5810
295.883	4105
295.940	5188
295.997	4240
296.054	4369
296.111	3369
296.167	4038
296.224	3167
296.281	3643
296.338	3095
296.394	4773
296.451	3573
296.508	7299
296.564	7589
296.621	7562
296.678	17772
296.734	15044
296.791	6500
296.848	6061
296.904	5633
296.961	7607
297.018	11191
297.074	6611
297.131	4576
297.187	5058
297.244	6532
297.301	19351
297.357	19169
297.414	6929
297.470	5452
297.527	4511
297.583	3451
297.640	4061
297.696	3958
297.753	3689
297.809	3724
297.866	4148
297.922	3707
297.979	4470
298.035	3424
298.092	4618
298.148	7815
298.204	7240
298.261	4930
298.317	10071
298.374	16147
298.430	8346
298.486	4909
298.543	4662
298.599	4587
298.656	4874
298.712	6129
298.768	8675
298.824	4788
298.881	4670
298.937	3727
298.993	4793
299.050	4101
299.106	4343
299.162	3532
299.218	4363
299.275	4248
299.331	6010
299.387	9749
299.443	25189
299.500	37698
299.556	20405
299.612	11275
299.668	15485
299.724	35586
299.780	26950
299.837	11881
299.893	14726
299.949	31515
300.005	30551
300.061	34720
300.117	39766
300.173	15944
300.229	9386
300.285	7317
300.341	7585
300.397	6205
300.453	6651
300.510	6963
300.566	8283
300.622	18888
300.678	53916
300.734	43440
300.790	23695
300.845	22162
300.901	33394
300.957	33185
301.013	15412
301.069	8758
301.125	6907
301.181	5715
301.237	5479
301.293	4064
301.349	5534
301.405	4309
301.461	4603
301.516	4959
301.572	4542
301.628	4685
301.684	4813
301.740	6922
301.796	7183
301.851	6411
301.907	7842
301.963	8539
302.019	19854
302.074	38294
302.130	27575
302.186	11700
302.242	7921
302.297	5624
302.353	6635
302.409	8031
302.464	7064
302.520	6739
302.576	13842
302.631	11276
302.687	6092
302.743	5219
302.798	4380
302.854	3978
302.910	4413
302.965	4144
303.021	4661
303.076	4756
303.132	5261
303.187	5320
303.243	3874
303.299	4192
303.354	3413
303.410	3962
303.465	4270
303.521	3425
303.576	3860
303.632	4250
303.687	8063
303.743	13538
303.798	9030
303.853	4576
303.909	4904
303.964	3893
304.020	5127
304.075	4180
304.130	4557
304.186	6028
304.241	6198
304.297	5975
304.352	4646
304.358	4618
304.407	4393
304.449	4350
304.463	4337
304.518	3466
304.539	3700
304.573	4057
304.629	4505
304.630	4545
304.684	6526
304.720	10414
304.739	12303
304.794	12840
304.811	11115
304.850	6996
304.902	4909
304.905	4784
304.960	4542
304.992	4356
305.015	4217
305.071	4627
305.083	4414
305.126	3604
305.173	3489
305.181	3482
305.236	3550
305.264	3470
305.292	3376
305.347	3978
305.354	3883
305.402	3342
305.445	4150
305.457	4356
305.512	4621
305.535	4511
305.567	4392
305.622	3667
305.626	3822
305.678	7142
305.716	10546
305.733	11582
305.788	9879
305.807	9473
305.843	9591
305.897	14524
305.898	14567
305.953	10792
305.988	7359
306.008	5769
306.063	4302
306.078	4354
306.118	4614
306.168	3611
306.173	3527
306.228	3608
306.259	3594
306.283	3642
306.338	4012
306.349	3916
306.393	3420
306.440	4135
306.448	4287
306.503	4390
306.530	4575
306.558	4885
306.613	5576
306.620	5739
306.668	7508
306.711	9951
306.723	10103
306.778	7785
306.801	6421
306.833	5103
306.888	4733
306.892	4658
306.943	4221
306.982	4100
306.997	4016
307.052	3897
307.072	4065
307.107	4471
307.162	3791
307.163	3797
307.217	4825
307.253	4895
307.272	4919
307.327	5417
307.343	5408
307.381	5228
307.434	5804
307.436	5906
307.491	7263
307.524	8947
307.546	9276
307.600	8437
307.614	7971
307.655	6448
307.704	5764
307.710	5815
307.765	6342
307.795	6841
307.819	7259
307.874	8451
307.885	8510
307.929	8576
307.975	9555
307.984	10120
308.038	13083
308.065	15921
308.093	27825
308.148	59833
308.156	66399
308.202	95020
308.246	100251
308.257	93866
308.312	45353
308.336	28557
308.366	22916
308.421	17550
308.426	17022
308.475	14182
308.517	13369
308.530	13423
308.585	13261
308.607	13603
308.639	14157
308.694	14365
308.697	14423
308.748	16768
308.787	18290
308.803	18560
308.857	18736
308.877	18938
308.912	21683
308.967	27474
308.967	27540
309.021	40853
309.058	51825
309.076	59720
309.130	84354
309.148	92906
309.185	132901
309.238	202393
309.239	203149
309.293	216580
309.328	207755
309.348	185574
309.402	120078
309.418	102409
309.457	84979
309.508	66766
309.511	67323
309.566	81278
309.598	92538
309.620	111203
309.674	162857
309.688	175013
309.729	168094
309.778	146610
309.783	143099
309.837	98790
309.868	73909
309.892	65519
309.946	49539
309.959	46160
310.001	40977
310.049	34704
310.055	33687
310.109	25142
310.139	20504
310.163	18767
310.218	15372
310.229	14816
310.272	13471
310.319	11695
310.326	11547
310.381	10837
310.409	10457
310.435	10217
310.489	9595
310.499	9522
310.543	9112
310.589	8485
310.598	8475
310.652	8692
310.679	8661
310.706	8559
310.760	8343
310.769	8287
310.814	7907
310.859	7713
310.868	7677
310.923	7081
310.948	6910
310.977	7056
311.031	7346
311.038	7357
311.085	6819
311.128	6321
311.139	6431
311.193	6874
311.218	7104
311.247	7199
311.301	7314
311.308	7318
311.356	7389
311.398	7389
311.410	7359
311.464	7214
311.488	7077
311.518	6790
311.572	6321
311.578	6261
311.626	6977
311.668	7569
311.680	7593
311.734	7560
311.758	7572
311.788	7567
311.842	7487
311.847	7464
311.896	7817
311.937	8100
311.950	8018
312.004	7583
312.027	7373
312.058	7020
312.112	6375
312.117	6297
312.165	6749
312.207	7114
312.297	6403
312.386	6733
312.476	6327
312.566	7491
312.656	6774
312.745	7816
312.835	7471
312.925	7961
313.015	7259
313.104	8326
313.194	8080
313.284	7993
313.374	8637
313.463	8948
313.553	9077
313.643	9604
313.732	10351
313.822	10808
313.912	11760
314.001	12034
314.091	11223
314.180	12068
314.270	12040
314.360	12418
314.449	12400
314.539	11362
314.628	11866
314.718	12385
314.808	12477
314.897	13557
314.987	14166
315.076	14929
315.166	13500
315.255	13480
315.345	12904
315.434	13006
315.524	13319
315.613	14473
315.703	18312
315.792	50621
315.881	150543
315.971	47509
316.060	17378
316.150	15478
316.239	13969
316.328	12645
316.418	13445
316.507	14446
316.597	16481
316.686	18251
316.775	15906
316.865	15717
316.954	12318
317.043	13248
317.133	11330
317.222	10386
317.311	9142
317.400	10242
317.490	10478
317.579	12393
317.668	13511
317.757	23158
317.847	82399
317.936	217641
318.025	65368
318.114	61933
318.203	28371
318.293	16525
318.382	23110
318.471	25169
318.560	23463
318.649	26816
318.738	13191
318.828	11324
318.917	8220
319.006	9598
319.095	12534
319.184	26062
319.273	14333
319.362	10170
319.451	9287
319.540	8651
319.629	10116
319.718	11790
319.807	9789
319.896	15040
319.985	30403
320.074	14214
320.163	9787
320.252	11243
320.341	11022
320.430	12128
320.519	12785
320.608	12908
320.697	14741
320.786	15401
320.875	17405
320.964	19823
321.053	21087
321.142	24152
321.230	26104
321.319	27146
321.408	32492
321.497	28944
321.586	25421
321.675	21699
321.764	21833
321.852	23314
321.941	24326
322.030	22625
322.119	25412
322.207	32448
322.296	32701
322.385	34963
322.474	37633
322.562	41626
322.651	30594
322.740	25190
322.829	23624
322.917	20708
323.006	18563
323.095	17069
323.183	15474
323.272	16259
323.361	17415
323.449	23026
323.538	14754
323.626	19729
323.715	14016
323.804	11965
323.892	16408
323.981	13294
324.069	10987
324.158	13316
324.246	12807
324.335	10529
324.424	11602
324.512	10353
324.601	9914
324.689	11193
324.778	10713
324.866	10182
324.954	8340
325.043	9247
325.131	9315
325.220	10952
325.308	10343
325.397	10464
325.485	8582
325.574	7838
325.662	8151
325.750	7801
325.839	8228
325.927	8464
326.015	7815
326.104	8570
326.192	8000
326.280	7612
326.369	7265
326.457	8470
326.545	9256
326.634	8907
326.722	7615
326.810	9106
326.898	9376
326.987	10792
327.075	10216
327.163	11196
327.251	8587
327.340	10743
327.428	13541
327.516	17177
327.604	12672
327.692	11293
327.781	9405
327.869	8945
327.957	7403
328.045	7724
328.133	6977
328.221	6991
328.309	6376
328.397	7518
328.485	8663
328.574	15260
328.662	22712
328.750	14944
328.838	10392
328.926	8895
329.014	7895
329.102	8596
329.190	10258
329.278	8711
329.366	7190
329.454	7340
329.542	7312
329.630	6970
329.718	7435
329.806	8007
329.893	7135
329.981	7253
330.069	6899
330.157	8810
330.245	11967
330.333	9263
330.421	6351
330.509	8024
330.597	11265
330.684	10271
330.772	8165
330.860	8827
330.948	8342
331.036	8316
331.123	7062
331.211	7724
331.299	7893
331.387	9656
331.475	9566
331.562	8208
331.650	7524
331.738	8187
331.825	8202
331.913	8244
332.001	7843
332.089	8833
332.176	8391
332.264	11536
332.352	9376
332.439	8905
332.527	8563
332.614	9116
332.702	9002
332.790	9902
332.877	12326
332.965	31441
333.052	26702
333.140	31052
333.228	79560
333.315	25846
333.403	13223
333.490	15681
333.578	32277
333.665	114719
333.753	51981
333.840	17850
333.928	16629
334.015	18857
334.103	25184
334.190	44571
334.278	36694
334.365	45286
334.452	43652
334.540	33740
334.627	33436
334.715	42571
334.802	57849
334.889	93035
334.977	106945
335.064	65670
335.151	38598
335.239	30498
335.326	26270
335.413	35861
335.501	38758
335.588	27770
335.675	31539
335.762	39277
335.850	50975
335.937	70308
336.024	104293
336.111	153312
336.199	121068
336.286	64530
336.373	38820
336.460	29010
336.547	22593
336.635	20377
336.722	16734
336.809	15689
336.896	15165
336.983	19097
337.070	27204
337.157	35209
337.245	22183
337.332	18117
337.419	13305
337.506	12980
337.593	13147
337.680	15991
337.767	22634
337.854	13559
337.941	12457
338.028	12739
338.115	10599
338.202	11863
338.289	13669
338.376	17922
338.463	10808
338.550	16911
338.637	15445
338.724	10134
338.811	10251
338.898	8677
338.984	9290
339.071	9776
339.158	9095
339.245	10955
339.332	9655
339.419	9277
339.506	9687
339.593	8632
339.679	8973
339.766	8786
339.853	8389
339.940	9801
340.027	8469
340.113	9126
340.200	8757
340.287	8163
340.374	8512
340.460	9390
340.547	7930
340.634	8766
340.720	13281
340.807	10700
340.894	6931
340.980	8407
341.067	8827
341.154	8851
341.240	8672
341.327	10598
341.414	8619
341.500	8079
341.587	8773
341.674	9119
341.760	9110
341.847	9204
341.933	8340
342.020	7715
342.106	8469
342.193	8760
342.279	8595
342.366	8373
342.452	8762
342.539	9220
342.625	8984
342.712	12946
342.798	10126
342.885	8140
342.971	7272
343.058	7700
343.144	7710
343.230	8181
343.317	7847
343.403	7653
343.490	7928
343.576	7896
343.662	7074
343.749	8087
343.835	8018
343.921	11119
344.008	35822
344.094	66436
344.180	16753
344.267	9818
344.353	16783
344.439	16553
344.525	10140
344.612	9878
344.698	10163
344.784	8408
344.870	7447
344.957	7698
345.043	8899
345.129	8307
345.215	9062
345.301	7557
345.387	7940
345.474	7599
345.560	7456
345.646	7641
345.732	7869
345.818	7221
345.904	7246
345.990	8752
346.076	7443
346.162	8456
346.249	8698
346.335	6828
346.421	8321
346.507	12933
346.593	24299
346.679	11934
346.765	10438
346.851	16783
346.937	13600
347.023	10232
347.108	8467
347.194	8908
347.280	9584
347.366	13655
347.452	32404
347.538	55707
347.624	30121
347.710	19053
347.796	10432
347.882	8943
347.967	8503
348.053	9068
348.139	9073
348.225	8761
348.311	7944
348.397	9349
348.482	8886
348.568	10549
348.654	15290
348.740	41890
348.825	49273
348.911	22540
348.997	22733
349.083	30576
349.168	10907
349.254	9210
349.340	8255
349.425	9133
349.511	10279
349.597	9469
349.682	10666
349.768	17350
349.854	11845
349.939	8664
350.025	8277
350.110	8876
350.196	7645
350.282	8236
350.367	8680
350.453	9397
350.538	8674
350.624	8492
350.709	8747
350.795	7974
350.880	7560
350.966	8225
351.051	8506
351.137	8261
351.222	7690
351.308	10118
351.393	13686
351.479	8992
351.564	7918
351.649	8623
351.735	8367
351.820	8306
351.906	7874
351.991	8243
352.076	12468
352.162	13333
352.247	8027
352.332	8996
352.418	8655
352.503	10398
352.588	17271
352.673	14644
352.759	9099
352.844	8538
352.929	8043
353.014	8083
353.100	8536
353.185	9290
353.270	8900
353.355	9618
353.441	7921
353.526	8325
353.611	9044
353.696	9250
353.781	9722
353.866	7692
353.952	8351
354.037	9751
354.122	11723
354.207	11008
354.292	8655
354.377	8771
354.462	8112
354.547	8621
354.632	9030
354.717	9281
354.802	9344
354.887	8668
354.972	8093
355.057	8099
355.142	8274
355.227	8786
355.312	9028
355.397	10733
355.482	13169
355.567	11057
355.652	10190
355.737	10918
355.822	18500
355.907	16379
355.991	8900
356.076	8567
356.161	9357
356.246	9496
356.331	9595
356.416	13166
356.501	34678
356.585	33645
356.670	11936
356.755	11412
356.840	11567
356.924	27811
357.009	69699
357.094	29763
357.179	11068
357.263	10769
357.348	10074
357.433	10459
357.517	9710
357.602	10241
357.687	9808
357.771	11551
357.856	12543
357.941	13041
358.025	26147
358.110	80948
358.195	39365
358.279	13109
358.364	11781
358.448	16112
358.533	27431
358.617	22684
358.702	21399
358.787	13629
358.871	11178
358.956	12546
359.040	11130
359.125	10024
359.209	9762
359.294	12797
359.378	19190
359.462	17357
359.547	10622
359.631	9847
359.716	8603
359.800	10219
359.885	10147
359.969	9649
360.053	9691
360.138	9992
360.222	9720
360.306	10681
360.391	11045
360.475	11757
360.559	14956
360.644	14836
360.728	13893
360.812	23767
360.896	47254
360.981	22228
361.065	14231
361.149	11713
361.233	11843
361.318	12031
361.402	11206
361.486	13337
361.570	12879
361.654	13945
361.739	17593
361.823	38602
361.907	54497
361.991	24553
362.075	24386
362.159	35652
362.243	60980
362.327	126993
362.411	156702
362.495	72903
362.580	39075
362.664	36891
362.748	45357
362.832	70451
362.916	137401
363.000	299141
363.084	361510
363.168	184446
363.252	65508
363.336	39446
363.420	32317
363.503	40685
363.587	41313
363.671	26685
363.755	25749
363.839	30274
363.923	32465
364.007	41201
364.091	54942
364.175	89187
364.258	186961
364.342	359083
364.426	494027
364.510	285421
364.594	108889
364.677	59828
364.761	66049
364.845	49278
364.929	24830
365.013	21561
365.096	18262
365.180	18400
365.264	22510
365.347	41185
365.431	24310
365.515	14654
365.598	12751
365.682	14511
365.766	14169
365.849	14250
365.933	13009
366.017	13872
366.100	13697
366.184	13313
366.267	13527
366.351	12680
366.435	12221
366.518	12169
366.602	12607
366.685	12969
366.769	12013
366.852	13426
366.936	14393
367.019	13278
367.103	12296
367.186	15257
367.270	12347
367.353	13468
367.436	14899
367.520	14735
367.603	14428
367.687	13947
367.770	14925
367.853	15665
367.937	18978
368.020	24726
368.104	14480
368.187	12677
368.270	12981
368.353	12732
368.437	12444
368.520	15380
368.603	13775
368.687	17393
368.770	22773
368.853	13273
368.936	12509
369.020	12008
369.103	9990
369.186	10808
369.269	10351
369.352	11960
369.436	11741
369.519	11200
369.602	9589
369.685	12047
369.768	10124
369.851	11159
369.934	10472
370.018	10627
370.101	11150
370.184	12952
370.267	12260
370.350	12635
370.433	16472
370.516	42489
370.599	91594
370.682	46496
370.765	21635
370.848	22703
370.931	29918
371.014	20673
371.097	13200
371.180	13834
371.263	13106
371.346	13351
371.429	14416
371.511	14604
371.594	14729
371.677	17182
371.760	18994
371.843	19627
371.926	44032
372.009	78774
372.091	42140
372.174	29451
372.257	41009
372.340	29703
372.423	24858
372.505	25360
372.588	18597
372.671	20955
372.754	31673
372.836	25260
372.919	21968
373.002	28494
373.085	20726
373.167	20267
373.250	23141
373.332	36104
373.415	53087
373.498	91188
373.580	58479
373.663	128322
373.746	142737
373.828	34242
373.911	19394
373.993	17887
374.076	26076
374.159	25237
374.241	18288
374.324	27239
374.406	25357
374.489	36175
374.571	69052
374.654	36797
374.736	25318
374.819	49059
374.901	67079
374.983	69257
375.066	24080
375.148	18862
375.231	26885
375.313	36795
375.395	23776
375.478	18077
375.560	18344
375.643	17379
375.725	25675
375.807	56152
375.890	45415
375.972	18657
376.054	16510
376.136	17215
376.219	15523
376.301	25043
376.383	42984
376.465	24710
376.548	15322
376.630	19533
376.712	34815
376.794	23799
376.877	11602
376.959	11163
377.041	11221
377.123	12245
377.205	12953
377.287	11878
377.369	11862
377.452	12635
377.534	12297
377.616	12444
377.698	11853
377.780	11656
377.862	11845
377.944	11964
378.026	11495
378.108	11615
378.190	11414
378.272	11911
378.354	11272
378.436	11185
378.518	11464
378.600	14435
378.682	14290
378.764	19032
378.846	17601
378.928	12581
379.010	11441
379.091	12511
379.173	11884
379.255	11958
379.337	11668
379.419	15138
379.501	23365
379.583	17821
379.664	12436
379.746	14163
379.828	19344
379.910	23784
379.991	23053
380.073	13828
380.155	12898
380.237	12641
380.318	11600
380.400	13647
380.482	13936
380.564	14946
380.645	15925
380.727	16049
380.809	14550
380.890	14172
380.972	14588
381.053	15417
381.135	14936
381.217	18266
381.298	24040
381.380	19431
381.461	20331
381.543	41352
381.624	49174
381.706	23430
381.787	21727
381.869	22906
381.951	37257
382.032	75028
382.113	59737
382.195	29087
382.276	31190
382.358	38524
382.439	56909
382.521	74217
382.602	96899
382.684	89433
382.765	146912
382.846	334833
382.928	585655
383.009	420118
383.090	371630
383.172	698159
383.253	788714
383.334	392354
383.416	203316
383.497	159063
383.578	185854
383.659	329550
383.741	671154
383.822	921679
383.903	622280
383.984	271082
384.066	156399
384.147	101251
384.228	66715
384.309	56311
384.390	49924
384.471	45106
384.553	40546
384.634	37900
384.715	37029
384.796	34018
384.877	36410
384.958	43420
385.039	42353
385.120	33442
385.201	28256
385.282	29329
385.363	36565
385.444	44170
385.525	44748
385.606	52967
385.687	47675
385.768	31592
385.849	32757
385.930	53479
386.011	71418
386.092	39192
386.173	28102
386.254	24857
386.335	24286
386.416	24074
386.496	28486
386.577	30600
386.658	24571
386.739	23509
386.820	25070
386.901	24194
386.981	26917
387.062	29770
387.143	32788
387.224	36306
387.304	38512
387.385	35138
387.466	33186
387.547	34768
387.627	35451
387.708	39776
387.789	50083
387.869	53761
387.950	35976
388.031	28605
388.111	26419
388.192	30842
388.273	33086
388.353	29940
388.434	21054
388.514	24051
388.595	41149
388.676	46405
388.756	27433
388.837	23394
388.917	20291
388.998	16401
389.078	17721
389.159	17728
389.239	16285
389.320	17600
389.400	16220
389.480	19286
389.561	25906
389.641	23346
389.722	16891
389.802	16640
389.883	20097
389.963	29250
390.043	22786
390.124	16387
390.204	17745
390.284	22607
390.365	21098
390.445	23377
390.525	35013
390.605	33107
390.686	21181
390.766	18138
390.846	17526
390.927	17841
391.007	16417
391.087	18479
391.167	19169
391.247	18737
391.328	19645
391.408	20104
391.488	20014
391.568	20664
391.648	20704
391.728	23523
391.808	23681
391.888	26040
391.969	29910
392.049	35105
392.129	32664
392.209	35340
392.289	45761
392.369	43899
392.449	43255
392.529	46649
392.609	51378
392.689	58704
392.769	75728
392.849	90737
392.929	108631
393.009	153114
393.089	219101
393.169	367095
393.248	675418
393.328	964671
393.408	921627
393.488	642605
393.568	352520
393.648	202760
393.728	132678
393.807	93852
393.887	74319
393.967	60090
394.047	51433
394.127	44293
394.206	44462
394.286	76702
394.366	203476
394.446	225347
394.525	70656
394.605	33019
394.685	29960
394.764	36444
394.844	59733
394.924	71604
395.003	39449
395.083	26422
395.163	24497
395.242	23469
395.322	23450
395.402	22961
395.481	26920
395.561	37180
395.640	83414
395.720	146570
395.799	98208
395.879	51288
395.958	42461
396.038	91311
396.117	255980
396.197	294025
396.276	106369
396.356	64021
396.435	74062
396.515	95702
396.594	144547
396.673	281280
396.753	590556
396.832	878633
396.912	731994
396.991	377818
397.070	179587
397.150	105696
397.229	86662
397.308	132200
397.388	212182
397.467	129006
397.546	50975
397.625	34106
397.705	31612
397.784	27533
397.863	24657
397.942	22582
398.022	21129
398.101	23627
398.180	30334
398.259	24147
398.338	18169
398.417	16268
398.497	14941
398.576	15670
398.655	14043
398.734	14542
398.813	13191
398.892	18328
398.971	26571
399.050	20439
399.129	11569
399.208	13078
399.287	12066
399.366	11198
399.445	12193
399.524	11772
399.603	10374
399.682	12498
399.761	15531
399.840	27734
399.919	24573
399.998	11360
400.077	9557
400.156	9338
400.235	11553
400.313	9275
400.392	9150
400.471	13137
400.550	14946
400.629	10607
400.708	10316
400.786	9102
400.865	10064
400.944	9513
401.023	10468
401.102	8529
401.180	8794
401.259	8246
401.338	8067
401.416	7973
401.495	7282
401.574	9216
401.652	7858
401.731	8613
401.810	7752
401.888	8059
401.967	7572
402.046	8350
402.124	8407
402.203	7394
402.281	7952
402.360	8905
402.438	10254
402.517	9368
402.596	8240
402.674	7925
402.753	7719
402.831	7231
402.910	8538
402.988	11700
403.066	23221
403.145	18961
403.223	13339
403.302	21455
403.380	19414
403.459	18733
403.537	12991
403.615	11655
403.694	8464
403.772	10860
403.850	9689
403.929	8644
404.007	8539
404.085	10934
404.164	9451
404.242	9618
404.320	15640
404.398	28577
404.477	32190
404.555	43319
404.633	42088
404.711	24909
404.789	18167
404.868	9843
404.946	7640
405.024	8732
405.102	6922
405.180	7344
405.258	6517
405.336	8089
405.415	6092
405.493	8717
405.571	8483
405.649	7406
405.727	7884
405.805	10035
405.883	10080
405.961	10295
406.039	8971
406.117	7248
406.195	8765
406.273	13445
406.351	28956
406.429	22685
406.507	7959
406.585	6633
406.663	7396
406.740	7183
406.818	5992
406.896	6064
406.974	6986
407.052	8431
407.130	18131
407.208	25028
407.285	10331
407.363	7106
407.441	6534
407.519	7676
407.596	8825
407.674	13409
407.752	31051
407.830	29636
407.907	10413
407.985	7288
408.063	6927
408.141	6358
408.218	7439
408.296	6995
408.373	8206
408.451	9928
408.529	8862
408.606	9266
408.684	9648
408.762	10101
408.839	10304
408.917	10946
408.994	12697
409.072	14183
409.149	17953
409.227	26697
409.304	37838
409.382	44195
409.459	50878
409.537	60407
409.614	58699
409.692	51895
409.769	50480
409.846	62093
409.924	73202
410.001	61970
410.079	46155
410.156	36133
410.233	28046
410.311	23598
410.388	20275
410.465	19283
410.543	16757
410.620	16632
410.697	15013
410.775	15047
410.852	14224
410.929	16086
411.006	15834
411.083	14244
411.161	13980
411.238	14841
411.315	12339
411.392	11893
411.469	11552
411.547	11320
411.624	9108
411.701	9638
411.778	9489
411.855	10237
411.932	8059
412.009	8839
412.086	8961
412.163	9033
412.240	8386
412.317	8177
412.394	8289
412.471	8428
412.548	7203
412.625	7715
412.702	6928
412.779	7980
412.856	7441
412.933	6553
413.010	7050
413.087	6989
413.164	9588
413.241	11535
413.318	6668
413.395	7422
413.471	7154
413.548	6715
413.625	6966
413.702	5148
413.779	6249
413.855	6684
413.932	5542
414.009	5630
414.086	5871
414.162	6190
414.239	6695
414.316	9972
414.393	13943
414.469	8615
414.546	5845
414.623	5679
414.699	5605
414.776	5906
414.853	5018
414.929	6567
415.006	5884
415.082	5588
415.159	5226
415.236	5967
415.312	6251
415.389	6434
415.465	5959
415.542	6298
415.618	4535
415.695	6401
415.771	5410
415.848	5502
415.924	5622
416.000	6493
416.077	6154
416.153	5374
416.230	5272
416.306	5630
416.383	6205
416.459	5583
416.535	5360
416.612	6290
416.688	5921
416.764	6948
416.841	5978
416.917	7057
416.993	6872
417.069	7210
417.146	5761
417.222	6875
417.298	5744
417.374	5132
417.451	6235
417.527	5621
417.603	4830
417.679	5487
417.755	5525
417.831	5072
417.908	5624
417.984	5282
418.060	5602
418.136	6783
418.212	5811
418.288	5639
418.364	6595
418.440	5060
418.516	5879
418.592	6744
418.668	7279
418.744	7492
418.820	7541
418.896	5957
418.972	5259
419.048	6321
419.124	7573
419.200	6759
419.276	5963
419.352	6588
419.428	7365
419.504	6164
419.579	7112
419.655	7821
419.731	8021
419.807	9303
419.883	10520
419.959	9945
420.034	9415
420.110	10365
420.186	13189
420.262	14605
420.337	10424
420.413	10903
420.489	11830
420.565	12910
420.640	11734
420.716	13896
420.792	13649
420.867	15234
420.943	14645
421.019	17387
421.094	17301
421.170	19751
421.245	19725
421.321	22668
421.397	23332
421.472	32291
421.548	39800
421.623	39292
421.699	36519
421.774	40587
421.850	46173
421.925	53850
422.001	63712
422.076	77608
422.152	96562
422.227	125096
422.302	170590
422.378	240666
422.453	355288
422.529	472408
422.604	453192
422.679	317172
422.755	417288
422.830	475332
422.905	365957
422.981	264021
423.056	190588
423.131	145752
423.207	111411
423.282	89338
423.357	74527
423.432	61435
423.508	54282
423.583	47093
423.658	41882
423.733	37761
423.808	34499
423.883	34184
423.959	34597
424.034	39340
424.109	36793
424.184	28344
424.259	24249
424.334	21030
424.409	18049
424.484	16646
424.559	16184
424.634	14875
424.709	13975
424.784	14103
424.859	12699
424.934	12852
425.009	14222
425.084	16312
425.159	12433
425.234	11744
425.309	10228
425.384	10417
425.459	10409
425.534	9932
425.609	8471
425.683	8203
425.758	8782
425.833	9311
425.908	9256
425.983	9673
426.058	12650
426.132	10041
426.207	7339
426.282	9316
426.357	7412
426.431	7789
426.506	7707
426.581	6515
426.655	6724
426.730	6797
426.805	6164
426.879	7152
426.954	6029
427.029	6848
427.103	12544
427.178	23376
427.253	15635
427.327	7268
427.402	6921
427.476	7160
427.551	6986
427.625	7453
427.700	6640
427.774	5901
427.849	8131
427.923	7184
427.998	8002
428.072	10812
428.147	24958
428.221	87371
428.296	215490
428.370	143996
428.444	30950
428.519	13326
428.593	11707
428.667	12480
428.742	15479
428.816	41255
428.890	138006
428.965	207876
429.039	70486
429.113	17297
429.188	10163
429.262	8536
429.336	8447
429.410	9697
429.485	8633
429.559	9842
429.633	11278
429.707	13529
429.781	36263
429.855	132535
429.930	188325
430.004	72506
430.078	48924
430.152	115776
430.226	282774
430.300	289688
430.374	93388
430.448	30238
430.522	20993
430.596	30091
430.670	60540
430.744	168985
430.818	195056
430.892	51934
430.966	12147
431.040	8110
431.114	6036
431.188	5841
431.262	6078
431.336	6026
431.410	7552
431.484	7599
431.557	7737
431.631	8725
431.705	18190
431.779	72305
431.853	202655
431.927	159562
432.000	33479
432.074	9654
432.148	6272
432.222	4439
432.295	4237
432.369	4166
432.443	3578
432.516	10054
432.590	20855
432.664	10840
432.737	2623
432.811	2790
432.885	3045
432.958	3144
433.032	2130
433.106	1913
433.179	2580
433.253	3367
433.326	2694
433.400	3108
433.473	3097
433.547	3290
433.620	3419
433.694	2865
433.767	3443
433.841	3628
433.914	3824
433.988	4002
434.061	3826
434.134	3607
434.208	3198
434.281	2858
434.355	1728
434.428	3709
434.501	3404
434.575	3711
434.648	3151
434.721	3386
434.795	3497
434.868	4485
434.941	3810
435.014	4568
435.088	5783
435.161	8598
435.234	10876
435.307	13488
435.381	14210
435.454	19893
435.527	27744
435.600	31365
435.673	27747
435.746	22493
435.819	17375
435.892	15102
435.966	10758
436.039	9009
436.112	7979
436.185	6355
436.258	5909
436.331	4832
436.404	5137
436.477	4028
436.550	4501
436.623	4313
436.696	3281
436.769	3870
436.842	3269
436.915	3583
436.987	2907
437.060	2421
437.133	2767
437.206	2749
437.279	2951
437.352	2879
437.425	2163
437.498	2523
437.570	2666
437.643	3038
437.716	2634
437.789	2137
437.861	1909
437.934	3455
438.007	2831
438.080	1989
438.152	2448
438.225	3402
438.298	14044
438.370	32935
438.443	16127
438.516	3682
438.588	2604
438.661	1970
438.734	3117
438.806	2342
438.879	3151
438.951	3212
439.024	2667
439.096	2674
439.169	1942
439.241	2769
439.314	1810
439.386	2487
439.459	3228
439.531	2061
439.604	2647
439.676	2486
439.749	1936
439.821	2467
439.893	2078
439.966	1871
440.038	1560
440.110	2664
440.183	2150
440.255	2209
440.327	3298
440.400	6536
440.472	16426
440.544	13005
440.617	3586
440.689	3331
440.761	2723
440.833	3038
440.905	2673
440.978	3091
441.050	2732
441.122	3651
441.194	2933
441.266	2990
441.338	2924
441.411	3794
441.483	6129
441.555	8473
441.627	4418
441.699	3592
441.771	3812
441.843	5339
441.915	4255
441.987	4934
442.059	5854
442.131	7505
442.203	8695
442.275	12335
442.347	21041
442.419	51530
442.491	180421
442.563	327206
442.635	164925
442.706	42248
442.778	19913
442.850	13214
442.922	10920
442.994	11195
443.066	12638
443.137	15977
443.209	21339
443.281	35011
443.353	75014
443.425	212779
443.496	466166
443.568	489650
443.640	248426
443.711	71936
443.783	30010
443.855	18259
443.926	13321
443.998	11373
444.070	9611
444.141	8161
444.213	7748
444.285	7305
444.356	7080
444.428	7443
444.499	7609
444.571	7196
444.642	7683
444.714	7973
444.785	8323
444.857	10509
444.928	13008
445.000	13482
445.071	17268
445.143	24468
445.214	34720
445.285	60090
445.357	140929
445.428	349007
445.500	524774
445.571	471303
445.642	333535
445.714	137206
445.785	49352
445.856	24646
445.928	16664
445.999	12879
446.070	9437
446.141	9284
446.213	7041
446.284	5782
446.355	5034
446.426	4962
446.497	4120
446.569	4249
446.640	3728
446.711	3656
446.782	3629
446.853	3300
446.924	2846
446.995	1969
447.066	2137
447.138	2792
447.209	1863
447.280	1250
447.351	1694
447.422	1533
447.493	1953
447.564	1999
447.635	698
447.706	1250
447.777	1059
447.847	1233
447.918	959
447.989	1485
448.060	1699
448.131	2203
448.202	1469
448.273	1436
448.344	647
448.414	2154
448.485	1221
448.556	1916
448.627	1126
448.698	1284
448.768	989
448.839	931
448.910	995
448.981	1586
449.051	780
449.122	949
449.193	610
449.263	695
449.334	-215
449.405	1235
449.475	1436
449.546	1620
449.616	2279
449.687	2362
449.758	1097
449.828	511
449.899	533
449.969	789
450.040	930
450.110	1475
450.181	789
450.251	599
450.322	600
450.392	911
450.463	390
450.533	969
450.604	1122
450.674	1172
450.744	1757
450.815	1939
450.885	2825
450.955	3543
451.026	3184
451.096	2667
451.166	2547
451.237	4100
451.307	6150
451.377	4338
451.447	2420
451.518	2860
451.588	1446
451.658	2178
451.728	1211
451.799	3595
451.869	2914
451.939	1768
452.009	480
452.079	1247
452.149	1392
452.219	2242
452.289	4371
452.360	3735
452.430	3356
452.500	4818
452.570	9342
452.640	21920
452.710	50181
452.780	60610
452.850	35012
452.920	17635
452.990	9467
453.060	5778
453.129	4655
453.199	3804
453.269	4928
453.339	8698
453.409	12501
453.479	10735
453.549	14974
453.619	14875
453.688	5673
453.758	2460
453.828	1053
453.898	467
453.968	435
454.037	1169
454.087	403
454.107	68
454.168	536
454.177	580
454.247	652
454.249	665
454.316	312
454.330	425
454.386	736
454.411	810
454.456	819
454.492	1117
454.525	1373
454.574	1448
454.595	1451
454.655	830
454.665	697
454.734	653
454.736	713
454.804	1735
454.817	1972
454.873	2759
454.898	2688
454.943	2490
454.979	2060
455.013	1722
455.060	1404
455.082	1206
455.141	1582
455.152	1639
455.221	2528
455.222	2598
455.291	4505
455.303	4490
455.360	4001
455.384	5797
455.430	8727
455.465	6934
455.499	5292
455.546	3328
455.569	2399
455.627	2577
455.638	2610
455.707	1861
455.708	1882
455.777	686
455.789	886
455.846	1736
455.869	1342
455.916	680
455.950	1372
455.985	1863
456.031	1415
456.054	1171
456.112	1540
456.124	1620
456.193	2243
456.193	2218
456.262	1723
456.274	1992
456.332	3270
456.355	3020
456.401	2376
456.436	2235
456.470	2046
456.516	2367
456.540	2513
456.597	2633
456.609	2642
456.678	2818
456.678	2792
456.747	2561
456.759	2634
456.817	3065
456.840	3096
456.886	2968
456.920	3135
456.955	3367
457.001	3646
457.024	3778
457.082	4520
457.093	4518
457.162	5212
457.163	5238
457.232	4290
457.243	4366
457.301	4843
457.324	4873
457.370	5025
457.405	5901
457.439	6881
457.485	7340
457.508	7876
457.566	10208
457.577	11593
457.646	21042
457.647	21256
457.715	42793
457.727	47887
457.784	73759
457.808	93384
457.853	109311
457.889	122132
457.922	132201
457.969	104031
457.991	102270
458.050	114684
458.060	116169
458.129	176204
458.130	178238
458.198	169406
458.211	149999
458.267	95850
458.292	73117
458.336	55766
458.372	57830
458.405	73394
458.453	105635
458.474	122934
458.533	191632
458.543	191608
458.611	245623
458.614	245625
458.680	169085
458.694	137638
458.749	66693
458.775	48710
458.818	28132
458.855	21658
458.887	17337
458.936	14113
458.955	13103
459.016	11006
459.024	10797
459.093	9518
459.097	9488
459.162	8374
459.177	8262
459.230	7748
459.257	7441
459.299	7259
459.338	7416
459.368	7340
459.418	6636
459.437	6468
459.499	6379
459.505	6337
459.574	6311
459.579	6310
459.643	6060
459.659	5991
459.711	5995
459.740	6091
459.780	5925
459.820	5843
459.849	5988
459.900	6488
459.917	6500
459.981	6103
459.986	6084
460.054	5769
460.061	5767
460.123	5748
460.141	5772
460.191	5713
460.222	5931
460.260	6229
460.302	6114
460.328	6081
460.382	6536
460.397	6811
460.462	7547
460.465	7842
460.534	15473
460.543	16422
460.602	26052
460.623	30082
460.671	43351
460.703	55937
460.739	44309
460.783	25050
460.808	23529
460.864	9649
460.876	7639
460.944	5973
460.945	5946
461.013	5729
461.024	5669
461.081	5480
461.104	5517
461.150	5594
461.184	5677
461.218	5942
461.264	6350
461.286	6337
461.345	6098
461.355	6065
461.423	6055
461.425	6045
461.491	6186
461.505	6298
461.559	6885
461.585	7326
461.628	8304
461.665	9067
461.696	8792
461.745	8671
461.764	8465
461.825	6701
461.832	6657
461.901	6439
461.905	6439
461.969	6111
461.985	6066
462.037	6659
462.065	6882
462.105	6357
462.145	6254
462.173	6967
462.225	7586
462.241	7517
462.305	8264
462.310	8232
462.378	7182
462.385	7031
462.446	6886
462.465	6895
462.514	6700
462.545	6587
462.582	6733
462.625	6742
462.650	6691
462.705	6669
462.718	6760
462.785	7108
462.786	7101
462.854	6670
462.865	6606
462.922	6848
462.945	7006
462.990	6830
463.025	6446
463.058	6570
463.104	6944
463.126	6849
463.184	6562
463.194	6639
463.262	6848
463.264	6862
463.330	6958
463.344	6909
463.398	7140
463.424	7302
463.466	7134
463.504	7163
463.533	7299
463.583	6941
463.601	6908
463.663	7199
463.669	7231
463.737	7476
463.743	7502
463.805	9295
463.823	9702
463.873	10017
463.903	10419
463.940	10014
463.982	9567
464.008	9351
464.062	8570
464.076	8400
464.142	7141
464.144	7135
464.211	6907
464.221	6878
464.279	7228
464.301	7402
464.347	7326
464.381	7173
464.414	7163
464.461	7179
464.482	7261
464.540	7288
464.550	7344
464.617	7729
464.620	7734
464.685	8322
464.699	8432
464.753	8696
464.779	8761
464.820	9141
464.859	9580
464.888	9176
464.938	8202
464.956	8219
465.018	8474
465.023	8522
465.091	8792
465.098	8834
465.158	8695
465.177	8536
465.226	8692
465.257	8836
465.293	8744
465.336	8595
465.361	8955
465.416	9721
465.428	9805
465.495	10169
465.496	10195
465.563	11451
465.575	11644
465.631	11640
465.654	11754
465.698	10668
465.734	9455
465.765	8922
465.813	8064
465.833	8439
465.893	9747
465.900	9693
465.968	8918
465.972	8850
466.035	8411
466.052	8287
466.102	8262
466.131	8177
466.170	8204
466.210	8244
466.237	8465
466.290	8813
466.304	9000
466.369	9766
466.372	9759
466.439	8923
466.449	8790
466.506	9684
466.528	9987
466.573	11554
466.607	12700
466.641	13591
466.687	14771
466.708	14738
466.766	14604
466.775	14159
466.842	10515
466.845	10320
466.909	10642
466.925	10711
466.977	10944
467.004	11039
467.044	11090
467.083	11086
467.111	11424
467.163	11990
467.178	11984
467.242	11835
467.245	11874
467.312	12147
467.321	12158
467.379	12312
467.400	12328
467.446	12574
467.480	12704
467.559	12546
467.638	12800
467.717	12803
467.796	14044
467.875	15175
467.955	15760
468.034	20326
468.113	25746
468.192	30765
468.271	33910
468.350	46340
468.429	55571
468.508	50188
468.588	31732
468.667	21939
468.746	17929
468.825	16479
468.904	14951
468.983	14645
469.062	14586
469.141	14202
469.220	11888
469.299	12522
469.378	12808
469.456	14218
469.535	13049
469.614	13030
469.693	13020
469.772	14449
469.851	15480
469.930	15302
470.009	16007
470.088	20997
470.166	31483
470.245	47517
470.324	56887
470.403	39105
470.482	25702
470.560	18784
470.639	15513
470.718	14661
470.797	13646
470.875	13180
470.954	13144
471.033	13227
471.111	12153
471.190	11875
471.269	11136
471.347	10889
471.426	11971
471.505	12555
471.583	12355
471.662	11649
471.740	11457
471.819	11526
471.898	10826
471.976	11529
472.055	11087
472.133	12389
472.212	12414
472.290	12122
472.369	10561
472.447	10952
472.526	11675
472.604	12160
472.683	11396
472.761	11566
472.839	11710
472.918	12088
472.996	11852
473.075	13125
473.153	12563
473.231	12156
473.310	12301
473.388	12301
473.466	12577
473.545	12396
473.623	13536
473.701	13441
473.780	11852
473.858	11748
473.936	13816
474.014	12506
474.093	13453
474.171	14613
474.249	14126
474.327	12480
474.405	12603
474.484	12554
474.562	13021
474.640	11849
474.718	12579
474.796	11732
474.874	11652
474.952	11741
475.030	10075
475.108	11087
475.187	10960
475.265	12564
475.343	13088
475.421	12853
475.499	10891
475.577	12239
475.655	13454
475.733	13913
475.811	16352
475.889	15400
475.966	12235
476.044	11056
476.122	11937
476.200	11667
476.278	11054
476.356	10885
476.434	10660
476.512	12222
476.590	12182
476.667	11637
476.745	10828
476.823	11822
476.901	11308
476.979	11576
477.056	11846
477.134	10670
477.212	11416
477.290	11630
477.367	10712
477.445	10677
477.523	10138
477.601	11363
477.678	11345
477.756	10345
477.834	10878
477.911	10833
477.989	11859
478.066	11877
478.144	11882
478.222	11631
478.299	12684
478.377	11992
478.454	10665
478.532	10267
478.609	11036
478.687	11059
478.764	10465
478.842	10989
478.919	11521
478.997	10869
479.074	11169
479.152	12062
479.229	12161
479.307	10072
479.384	10063
479.461	11014
479.539	11236
479.616	11581
479.694	10051
479.771	11754
479.848	11446
479.926	11597
480.003	11852
480.080	12701
480.157	10553
480.235	12112
480.312	12387
480.389	12989
480.467	13393
480.544	14284
480.621	13935
480.698	14635
480.775	13457
480.853	12530
480.930	12713
481.007	12408
481.084	14358
481.161	14920
481.238	12981
481.315	11851
481.392	13212
481.470	12957
481.547	13546
481.624	13475
481.701	13271
481.778	13276
481.855	15875
481.932	16155
482.009	19461
482.086	19187
482.163	20130
482.240	23878
482.317	23721
482.393	20945
482.470	18938
482.547	18126
482.624	17497
482.701	16402
482.778	16769
482.855	16126
482.932	18246
483.009	18798
483.085	21389
483.162	23897
483.239	24550
483.316	25424
483.393	22725
483.469	19757
483.546	18139
483.623	17753
483.699	15562
483.776	15547
483.853	14928
483.930	16778
484.006	20699
484.083	24070
484.160	21127
484.236	25494
484.313	21505
484.389	22873
484.466	26716
484.543	31296
484.619	34735
484.696	34200
484.772	24026
484.849	21076
484.925	18847
485.002	17928
485.078	16753
485.155	15848
485.231	15406
485.308	15891
485.384	16358
485.461	17403
485.537	17800
485.614	17235
485.690	14163
485.766	15175
485.843	15362
485.919	15242
485.995	15684
486.072	14539
486.148	13699
486.224	15142
486.301	14147
486.377	15185
486.453	15095
486.530	16926
486.606	18118
486.682	18045
486.758	19046
486.835	20406
486.911	20363
486.987	25207
487.063	24501
487.139	27912
487.215	29562
487.292	31818
487.368	35115
487.444	45604
487.520	68738
487.596	134724
487.672	355128
487.748	791992
487.824	907340
487.900	304967
487.976	109135
488.052	59391
488.128	41142
488.204	32598
488.280	27180
488.356	25555
488.432	26579
488.508	25973
488.584	19017
488.660	18094
488.736	17120
488.812	17236
488.888	17226
488.964	18252
489.039	22030
489.115	25075
489.191	18647
489.267	15564
489.343	15083
489.418	15163
489.494	14095
489.570	14836
489.646	14558
489.722	14534
489.797	15374
489.873	18994
489.949	21264
490.024	18716
490.100	14572
490.176	15720
490.251	16041
490.327	16624
490.403	15290
490.478	15554
490.554	15135
490.629	15373
490.705	14117
490.781	15450
490.856	13982
490.932	14765
491.007	14409
491.083	14087
491.158	14100
491.234	15942
491.309	18028
491.385	15144
491.460	12417
491.536	13921
491.611	13063
491.686	14083
491.762	14149
491.837	17601
491.913	21052
491.988	23613
492.063	23065
492.139	15626
492.214	13488
492.289	12836
492.365	12176
492.440	13000
492.515	11798
492.590	12653
492.666	12648
492.741	13664
492.816	14052
492.891	12998
492.967	12626
493.042	13057
493.117	12326
493.192	13490
493.267	19438
493.342	29667
493.418	27051
493.493	13091
493.568	12832
493.643	11073
493.718	13317
493.793	13389
493.868	14168
493.943	12616
494.018	13037
494.093	13137
494.168	12771
494.243	11948
494.318	12827
494.393	13145
494.468	12414
494.543	13073
494.618	12081
494.693	13040
494.768	13895
494.842	13481
494.917	13614
494.992	13786
495.067	12808
495.142	12892
495.217	12852
495.292	12981
495.366	13393
495.441	13588
495.516	13788
495.591	16688
495.665	26683
495.740	35924
495.815	17288
495.890	13406
495.964	12565
496.039	15583
496.114	17059
496.188	18435
496.263	15951
496.338	13489
496.412	13561
496.487	14083
496.561	15145
496.636	13586
496.710	13744
496.785	14369
496.860	14525
496.934	13790
497.009	13762
497.083	14531
497.158	14692
497.232	16464
497.307	16734
497.381	18287
497.455	17875
497.530	15008
497.604	13500
497.679	13684
497.753	15356
497.827	15803
497.902	15141
497.976	20977
498.050	42289
498.125	90133
498.199	55147
498.273	17516
498.348	16722
498.422	19367
498.496	20466
498.570	20229
498.645	13696
498.719	12201
498.793	13801
498.867	16301
498.941	23436
499.016	48600
499.090	79912
499.164	22729
499.238	14656
499.312	15922
499.386	17277
499.460	18910
499.534	22036
499.609	23876
499.683	17923
499.757	16057
499.831	29839
499.905	60678
499.979	34846
500.053	15275
500.127	15263
500.201	14544
500.275	14692
500.349	16902
500.422	18643
500.496	21778
500.570	32568
500.644	54780
500.718	54670
500.792	15050
500.866	12253
500.940	13945
501.013	12559
501.087	12447
501.161	14295
501.235	17552
501.309	28838
501.382	50166
501.456	28986
501.530	17452
501.603	18578
501.677	11629
501.751	11050
501.825	13763
501.898	16522
501.972	24098
502.046	14206
502.119	12391
502.193	17813
502.266	23962
502.340	13733
502.413	17297
502.487	20576
502.561	14068
502.634	11988
502.708	12761
502.781	11757
502.855	11918
502.928	11560
503.002	11204
503.075	12347
503.149	12397
503.222	12529
503.295	13530
503.369	15063
503.442	17846
503.516	29506
503.589	41731
503.662	31344
503.736	32452
503.809	47052
503.882	58711
503.956	106251
504.029	224527
504.102	485469
504.175	514946
504.249	207378
504.322	90682
504.395	51852
504.468	35365
504.542	24988
504.615	20728
504.688	17440
504.761	14396
504.834	15482
504.907	14610
504.980	13861
505.053	11996
505.127	11337
505.200	12853
505.273	11477
505.346	10677
505.419	9788
505.492	10384
505.565	9856
505.638	9606
505.711	9101
505.784	8644
505.857	8342
505.930	9696
506.003	7595
506.076	9502
506.149	8933
506.221	7155
506.294	10426
506.367	15657
506.440	26529
506.513	12155
506.586	8704
506.659	7649
506.731	8556
506.804	8605
506.877	8608
506.950	8361
507.022	8562
507.095	8178
507.168	9014
507.241	8981
507.313	7782
507.386	7353
507.459	8513
507.531	7542
507.604	7316
507.677	7829
507.749	7074
507.822	8597
507.894	10503
507.967	10277
508.040	9007
508.112	8124
508.185	8510
508.257	8079
508.330	9784
508.402	7872
508.475	7974
508.547	9336
508.620	9142
508.692	10453
508.765	8816
508.837	7720
508.909	8091
508.982	7870
509.054	8203
509.127	7469
509.199	6962
509.271	8223
509.344	7703
509.416	7756
509.488	6581
509.560	8546
509.633	8379
509.705	8734
509.777	8774
509.849	9521
509.922	7621
509.994	8191
510.066	8252
510.138	8743
510.210	11967
510.283	8900
510.355	9167
510.427	9005
510.499	8753
510.571	8791
510.643	8600
510.715	9921
510.787	7495
510.859	9601
510.931	8571
511.003	9427
511.076	9693
511.148	8846
511.219	9044
511.291	11012
511.363	9565
511.435	8607
511.507	7536
511.579	9070
511.651	8370
511.723	9321
511.795	8909
511.867	9517
511.939	8895
512.010	9877
512.082	9844
512.154	8025
512.226	10300
512.298	11065
512.369	11343
512.441	10692
512.513	9435
512.585	8469
512.656	9537
512.728	9420
512.800	9646
512.871	8898
512.943	9610
513.015	8326
513.086	9237
513.158	9094
513.230	9030
513.301	9502
513.373	10078
513.444	8920
513.516	8295
513.588	9445
513.659	9244
513.731	9881
513.802	9184
513.874	11432
513.945	12377
514.016	9133
514.088	9455
514.159	8959
514.231	11000
514.302	10212
514.374	10134
514.445	10650
514.516	13677
514.588	10793
514.659	11334
514.730	11347
514.802	10589
514.873	10026
514.944	11369
515.016	11021
515.087	9998
515.158	10870
515.229	12207
515.301	10625
515.372	10604
515.443	10745
515.514	11143
515.585	10520
515.656	12684
515.728	12739
515.799	12782
515.870	14108
515.941	14100
516.012	15745
516.083	18460
516.154	18410
516.225	21539
516.296	25403
516.367	28209
516.438	36511
516.509	53897
516.580	128199
516.651	445753
516.722	872098
516.793	239189
516.864	62636
516.935	59555
517.006	74529
517.077	134099
517.148	399001
517.219	1218120
517.289	1062051
517.360	202559
517.431	67641
517.502	44298
517.573	37302
517.643	34499
517.714	35055
517.785	37315
517.856	41554
517.926	50942
517.997	60973
518.068	82763
518.138	135719
518.209	323239
518.280	1026104
518.350	1683506
518.421	599924
518.492	171798
518.562	121691
518.633	138948
518.703	222047
518.774	467954
518.845	845577
518.915	555727
518.986	193772
519.056	95876
519.127	67098
519.197	54751
519.268	53786
519.338	34138
519.408	25262
519.479	21696
519.549	20049
519.620	19106
519.690	16280
519.760	15601
519.831	15440
519.901	14173
519.971	14108
520.042	12989
520.112	13157
520.182	13607
520.253	12884
520.323	11382
520.393	11980
520.463	14327
520.534	10639
520.604	14518
520.674	12510
520.744	12604
520.814	14195
520.885	14521
520.955	21370
521.025	32661
521.095	14060
521.165	11949
521.235	10817
521.305	9657
521.375	10955
521.445	10742
521.515	10596
521.585	12408
521.655	10441
521.725	11096
521.795	10448
521.865	9570
521.935	12610
522.005	10632
522.075	10520
522.145	11389
522.215	11690
522.285	12300
522.355	13628
522.424	15232
522.494	13081
522.564	12123
522.634	15398
522.704	21734
522.774	11797
522.843	11636
522.913	11021
522.983	10866
523.053	10570
523.122	11724
523.192	12224
523.262	17375
523.331	14179
523.401	11524
523.471	11815
523.540	11895
523.610	10035
523.680	11480
523.749	12571
523.819	13061
523.888	13354
523.958	12785
524.027	12758
524.097	12324
524.166	12977
524.236	11028
524.305	13645
524.375	11075
524.444	11120
524.514	13324
524.583	12843
524.653	13314
524.722	13585
524.791	12368
524.861	14216
524.930	13539
524.999	14485
525.069	15901
525.138	15000
525.207	16434
525.277	17939
525.346	18021
525.415	20555
525.484	23583
525.554	26634
525.623	32433
525.692	37371
525.761	44485
525.830	57828
525.900	84771
525.969	158537
526.038	313002
526.107	755325
526.176	1391093
526.245	780746
526.314	380224
526.383	869721
526.452	916943
526.522	1342648
526.591	734684
526.660	171424
526.729	116160
526.797	141787
526.867	281854
526.935	830320
527.004	1670311
527.073	697070
527.142	151301
527.211	71247
527.280	47730
527.349	35488
527.418	28235
527.487	25037
527.555	21119
527.624	19085
527.693	18085
527.762	17993
527.831	16274
527.899	16529
527.968	15234
528.037	13885
528.106	13692
528.174	15768
528.243	14717
528.312	15706
528.380	13735
528.449	12671
528.518	13467
528.586	11543
528.655	12862
528.723	12559
528.792	12209
528.861	11864
528.929	11025
528.998	12860
529.066	13672
529.135	13535
529.203	13617
529.272	14565
529.340	15970
529.409	16475
529.477	15102
529.545	14448
529.614	17014
529.682	17551
529.751	16947
529.819	20083
529.887	19470
529.956	16695
530.024	17756
530.092	16565
530.161	16646
530.229	17807
530.297	18577
530.365	17641
530.434	19221
530.502	18330
530.570	17531
530.638	14949
530.707	16436
530.775	17760
530.843	16950
530.911	17661
530.979	18246
531.047	18603
531.115	18658
531.183	16778
531.252	15986
531.320	16720
531.388	16628
531.456	19451
531.524	17984
531.592	20170
531.660	20660
531.728	18594
531.796	18729
531.864	18132
531.932	18675
532.000	18394
532.067	20055
532.135	20547
532.203	23721
532.271	23264
532.339	27014
532.407	28162
532.475	24313
532.542	22820
532.610	22614
532.678	24407
532.746	40476
532.814	45517
532.881	25447
532.949	22290
533.017	22225
533.084	20957
533.152	20038
533.220	20953
533.287	20926
533.355	20857
533.423	22262
533.490	22120
533.558	22248
533.625	22925
533.693	21824
533.761	23292
533.828	22142
533.896	22464
533.963	26650
534.031	29389
534.098	34021
534.166	32875
534.233	31751
534.300	35500
534.368	32907
534.435	33229
534.503	34995
534.570	39931
534.637	45615
534.705	56183
534.772	87804
534.840	232454
534.907	780898
534.974	494451
535.041	73826
535.109	41066
535.176	32993
535.243	31647
535.310	31032
535.378	28957
535.445	29569
535.512	29052
535.579	27502
535.646	27722
535.714	30083
535.781	32376
535.848	32593
535.915	30027
535.982	29940
536.049	28963
536.116	30021
536.183	26583
536.250	27228
536.317	27692
536.384	28882
536.451	31006
536.518	29661
536.585	28755
536.652	31137
536.719	31054
536.786	27985
536.853	29105
536.920	30611
536.987	29977
537.053	31986
537.120	44208
537.187	37558
537.254	31901
537.321	32080
537.388	33603
537.454	30559
537.521	30761
537.588	30159
537.654	32190
537.721	33988
537.788	32652
537.855	31230
537.921	30633
537.988	29840
538.055	28954
538.121	27096
538.188	26992
538.254	28509
538.321	29127
538.388	30620
538.454	34729
538.521	33894
538.587	33122
538.654	31486
538.720	31224
538.787	32029
538.853	30530
538.920	27865
538.986	27164
539.053	28311
539.119	29278
539.185	29490
539.252	31722
539.318	32603
539.385	35526
539.451	32163
539.517	32373
539.583	32986
539.650	35545
539.716	36538
539.782	28930
539.849	29329
539.915	30349
539.981	28924
540.047	29183
540.114	29676
540.180	31311
540.246	32774
540.312	34865
540.378	34636
540.444	35276
540.510	36994
540.576	40624
540.643	31099
540.709	29516
540.775	30632
540.841	30043
540.907	30486
540.973	31297
541.039	30839
541.105	31897
541.171	33442
541.237	32857
541.303	32925
541.369	34304
541.435	33703
541.500	32109
541.566	28256
541.632	28916
541.698	30108
541.764	33262
541.830	31162
541.896	29635
541.961	30648
542.027	31549
542.093	34396
542.159	33587
542.224	30609
542.290	32837
542.356	32097
542.421	31832
542.487	28821
542.553	29958
542.618	29758
542.684	30023
542.750	30711
542.815	32281
542.881	32733
542.947	42007
543.012	36303
543.078	28978
543.143	28614
543.209	29891
543.274	29495
543.340	31464
543.405	34425
543.471	35092
543.536	32694
543.602	32198
543.667	31233
543.732	32100
543.798	31023
543.863	33450
543.928	32495
543.994	31912
544.059	33233
544.124	34509
544.190	33882
544.255	35238
544.320	34423
544.386	34625
544.451	36089
544.516	34940
544.581	35836
544.646	41349
544.712	42702
544.777	38205
544.842	35587
544.907	36056
544.972	36045
545.037	37468
545.102	39370
545.168	39727
545.233	40112
545.298	40476
545.363	41840
545.428	42934
545.493	45252
545.558	46265
545.623	42401
545.688	42710
545.753	44621
545.818	47014
545.883	49370
545.947	49928
546.012	51918
546.077	52837
546.142	57233
546.207	59766
546.272	61199
546.337	62737
546.401	66445
546.466	67610
546.531	69227
546.596	76187
546.661	76875
546.725	82753
546.790	87608
546.855	96215
546.919	106257
546.984	115688
547.049	127524
547.113	144265
547.178	160635
547.243	183518
547.307	212919
547.372	224886
547.436	226931
547.501	244998
547.565	248220
547.630	224597
547.695	223325
547.759	224823
547.823	224912
547.888	232180
547.952	236961
548.017	250149
548.081	251714
548.146	249583
548.210	262442
548.274	278047
548.339	260267
548.403	240299
548.468	228388
548.532	232111
548.596	232550
548.660	241807
548.725	263631
548.789	278986
548.853	263890
548.917	256108
548.982	240117
549.046	217825
549.110	202366
549.174	221106
549.238	257354
549.303	273282
549.367	274871
549.431	256774
549.495	242415
549.559	253807
549.623	302518
549.687	303046
549.751	320653
549.815	372916
549.879	358798
549.943	354973
550.007	371592
550.071	350964
550.135	318587
550.199	309233
550.263	296840
550.327	287526
550.391	305766
550.455	338220
550.519	353369
550.582	384150
550.646	423598
550.710	417291
550.774	419052
550.838	427871
550.901	446550
550.965	475859
551.029	505735
551.093	549986
551.156	615793
551.220	695017
551.284	659467
551.347	521203
551.411	459375
551.475	445797
551.538	442891
551.602	405120
551.666	388881
551.729	365132
551.793	359790
551.856	348881
551.920	345874
551.983	345525
552.047	343121
552.110	347067
552.174	352057
552.237	348830
552.301	321218
552.364	311018
552.428	308941
552.491	323839
552.554	322219
552.618	329087
552.681	333396
552.745	340057
552.808	406741
552.871	438139
552.934	373305
552.998	334044
553.061	316847
553.124	298058
553.187	304361
553.251	309689
553.314	311037
553.377	318676
553.440	340517
553.503	359578
553.567	347757
553.630	333188
553.693	324800
553.756	328596
553.819	315642
553.882	306274
553.945	311908
554.008	310397
554.071	315522
554.134	310369
554.197	290645
554.260	284010
554.323	295311
554.386	302344
554.449	312971
554.512	306106
554.575	295112
554.638	293601
554.701	293416
554.764	287752
554.827	278177
554.889	262752
554.952	249010
555.015	248358
555.078	254291
555.141	256092
555.203	249395
555.266	251015
555.329	247183
555.391	237572
555.454	236013
555.517	227056
555.580	220231
555.642	215041
555.705	210443
555.768	207216
555.830	198982
555.893	188042
555.955	185149
556.018	184599
556.080	187547
556.143	194723
556.206	186945
556.268	181861
556.330	177423
556.393	173478
556.455	169894
556.518	167275
556.580	159582
556.643	155199
556.705	153288
556.767	148656
556.830	148817
556.892	145566
556.955	143876
557.017	137471
557.079	138482
557.142	137838
557.204	137004
557.266	137494
557.328	126004
557.391	117972
557.453	114282
557.515	117915
557.577	120449
557.639	119263
557.701	119359
557.764	118868
557.826	120550
557.888	127683
557.950	135839
558.012	159650
558.074	249062
558.136	623693
558.198	826589
558.260	234121
558.322	136221
558.384	134259
558.446	138445
558.508	152287
558.570	171242
558.632	213641
558.694	310189
558.756	612689
558.818	1519703
558.880	1722433
558.942	938310
559.003	954616
559.065	335523
559.127	184596
559.189	182482
559.251	218815
559.312	377676
559.374	954437
559.436	1514012
559.498	562097
559.559	212854
559.621	184774
559.683	236553
559.744	466459
559.806	1210287
559.868	941071
559.929	265800
559.991	238219
560.052	503591
560.114	930884
560.176	468659
560.237	724756
560.299	635138
560.360	133764
560.422	75284
560.483	66125
560.545	61283
560.606	58821
560.667	55417
560.729	52410
560.790	50108
560.852	48456
560.913	47666
560.974	46703
561.036	46115
561.097	45864
561.158	44870
561.220	44021
561.281	42376
561.342	41809
561.403	41815
561.465	40971
561.526	44413
561.587	43498
561.648	39041
561.709	39154
561.771	37751
561.832	37308
561.893	36184
561.954	36884
562.015	35599
562.076	34330
562.137	35122
562.198	35108
562.259	35357
562.320	35248
562.381	35816
562.442	35153
562.503	33352
562.564	32397
562.625	32555
562.686	32092
562.747	31485
562.808	31754
562.869	32087
562.930	31316
562.991	29961
563.051	30876
563.112	30722
563.173	29548
563.234	29189
563.294	29668
563.355	28790
563.416	29507
563.477	29871
563.537	28706
563.598	28610
563.659	28473
563.720	27097
563.780	27683
563.841	28507
563.901	28414
563.962	28015
564.023	27025
564.083	27705
564.144	27094
564.204	26886
564.265	26482
564.325	27308
564.386	28834
564.446	26625
564.507	25066
564.567	25294
564.628	25993
564.688	24883
564.749	24735
564.809	25900
564.869	26511
564.930	25346
564.990	25457
565.050	25020
565.111	25100
565.171	24779
565.231	24356
565.292	24919
565.352	24055
565.412	25056
565.472	24448
565.532	24218
565.593	23190
565.653	23649
565.713	23483
565.773	25374
565.833	26657
565.893	26021
565.953	23459
566.013	22508
566.074	23338
566.134	23298
566.194	24313
566.254	24348
566.314	22922
566.374	22474
566.434	22515
566.494	23069
566.554	23311
566.614	24138
566.673	23951
566.733	25537
566.793	24538
566.853	24758
566.913	24265
566.973	24098
567.033	24228
567.092	23539
567.152	24439
567.212	24545
567.272	24902
567.331	25580
567.391	25602
567.451	26036
567.511	26708
567.570	27043
567.630	25371
567.690	24944
567.749	23830
567.809	24898
567.868	24372
567.928	24462
567.988	24129
568.047	24875
568.107	24511
568.166	25478
568.226	25685
568.285	26035
568.345	26163
568.404	25845
568.464	24854
568.523	24642
568.582	25954
568.642	25206
568.701	24110
568.761	23999
568.820	25105
568.879	25126
568.939	26520
568.998	25001
569.057	24266
569.116	24220
569.176	24025
569.235	24127
569.294	23684
569.353	22412
569.413	23326
569.472	21936
569.531	23011
569.590	22737
569.649	22866
569.708	22871
569.767	23656
569.827	22174
569.886	23292
569.945	22213
570.004	23409
570.063	22846
570.122	24316
570.181	23785
570.240	24728
570.299	24835
570.358	24713
570.417	24277
570.475	24221
570.534	24666
570.593	24755
570.652	24626
570.711	24846
570.770	23621
570.829	24782
570.887	24208
570.946	25537
571.005	26151
571.064	29506
571.122	30563
571.181	27098
571.240	25260
571.299	23330
571.357	23033
571.416	23360
571.475	23389
571.533	25861
571.592	26610
571.650	26669
571.709	28814
571.768	32307
571.826	31366
571.885	28179
571.943	26856
572.002	24499
572.060	24509
572.119	23439
572.177	23477
572.236	23837
572.294	24830
572.352	26031
572.411	26057
572.469	23588
572.528	22795
572.586	22832
572.644	23126
572.703	23289
572.761	21956
572.819	20737
572.877	20785
572.936	20837
572.994	20524
573.052	21648
573.110	22562
573.169	24374
573.227	23232
573.285	23284
573.343	22863
573.401	22030
573.459	23199
573.517	24527
573.576	25394
573.634	24191
573.692	23693
573.750	25239
573.808	22341
573.866	22158
573.924	22665
573.982	22149
574.040	22541
574.098	22410
574.155	20865
574.213	21638
574.271	24600
574.329	25602
574.387	21446
574.445	20907
574.503	21165
574.560	20341
574.618	20332
574.676	20981
574.734	21158
574.792	20675
574.849	18733
574.907	17423
574.965	17253
575.022	16826
575.080	15707
575.138	16360
575.195	16589
575.253	15749
575.311	16680
575.368	16270
575.426	16567
575.483	17198
575.541	16737
575.598	17088
575.656	17421
575.713	18262
575.771	20060
575.828	18224
575.886	16712
575.943	17299
576.001	15466
576.058	15276
576.115	16661
576.173	17752
576.230	18167
576.287	17562
576.345	17793
576.402	18838
576.459	18266
576.517	16639
576.574	16199
576.631	16082
576.688	15329
576.746	14559
576.803	14132
576.860	14988
576.917	16088
576.974	16094
577.031	15669
577.089	14482
577.146	14723
577.203	14706
577.260	15451
577.317	14541
577.374	14557
577.431	14597
577.488	14170
577.545	15306
577.602	14180
577.659	15418
577.716	14759
577.773	14893
577.830	14126
577.886	14083
577.943	14163
578.000	14991
578.057	14273
578.114	14434
578.171	15884
578.227	16909
578.284	15648
578.341	14863
578.398	14822
578.454	14040
578.511	14664
578.568	15205
578.625	14496
578.681	14565
578.738	14158
578.794	14634
578.851	14218
578.908	14429
578.964	13698
579.021	14580
579.077	14211
579.134	14425
579.190	14697
579.247	14394
579.303	15095
579.360	14536
579.416	14488
579.473	15125
579.529	14547
579.586	14126
579.642	14924
579.698	14427
579.755	15116
579.811	15014
579.867	14937
579.924	15352
579.980	15796
580.036	16433
580.093	17946
580.149	21432
580.205	20593
580.261	18795
580.317	18321
580.374	16620
580.430	17900
580.486	16932
580.542	16819
580.598	17008
580.619	17282
580.654	17778
580.692	16924
580.710	16524
580.765	17002
580.767	17033
580.823	17308
580.838	17496
580.879	18071
580.911	17866
580.935	17736
580.984	17014
580.991	16935
581.047	17475
581.057	17314
581.103	16665
581.130	16956
581.159	17276
581.203	16272
581.215	16025
581.270	16013
581.276	16048
581.326	16439
581.349	16249
581.382	16031
581.422	15847
581.438	15756
581.494	15763
581.494	15750
581.550	15502
581.567	15856
581.606	16641
581.640	15989
581.661	15605
581.713	17132
581.717	17257
581.773	15833
581.786	15974
581.829	16534
581.859	16447
581.885	16361
581.932	15669
581.940	15562
581.996	17161
582.004	17161
582.052	16997
582.077	16663
582.107	16427
582.150	16702
582.163	16716
582.219	16318
582.223	16306
582.274	16578
582.296	16588
582.330	16499
582.368	16614
582.386	16719
582.441	16847
582.441	16849
582.497	16580
582.514	16536
582.552	16741
582.587	16713
582.608	16586
582.659	17098
582.663	17143
582.719	17330
582.732	17277
582.774	17179
582.805	16692
582.830	16331
582.877	17589
582.885	17776
582.941	18061
582.950	18083
582.996	18494
583.023	19182
583.052	19772
583.095	20109
583.107	20255
583.162	20261
583.168	20260
583.218	19757
583.240	18812
583.273	17605
583.313	18086
583.328	18233
583.384	17310
583.385	17278
583.439	16340
583.458	16687
583.494	17518
583.531	17506
583.549	17527
583.603	17592
583.605	17584
583.660	18022
583.676	17713
583.715	17118
583.748	17493
583.770	17676
583.820	17743
583.825	17771
583.881	17421
583.893	17546
583.936	17603
583.965	17357
583.991	17399
584.038	17554
584.046	17534
584.101	17254
584.110	17300
584.156	17797
584.183	18527
584.211	19170
584.255	18996
584.266	19000
584.321	18960
584.328	19063
584.376	19549
584.400	19551
584.431	19660
584.472	19632
584.486	19655
584.541	20831
584.545	20880
584.596	21770
584.617	21864
584.651	21960
584.689	22801
584.706	23148
584.761	23259
584.762	23263
584.816	23891
584.834	24373
584.871	25446
584.906	26074
584.926	26404
584.978	27617
584.980	27659
585.035	29868
585.051	30518
585.090	32946
585.123	34885
585.145	36146
585.195	39803
585.200	40223
585.254	46366
585.267	48137
585.309	54161
585.340	59475
585.364	64222
585.412	77366
585.419	79434
585.473	102882
585.484	110719
585.528	148271
585.556	191592
585.583	248228
585.628	401774
585.637	449132
585.692	881056
585.700	910239
585.747	1041284
585.772	926804
585.801	608899
585.845	295897
585.856	247989
585.910	117066
585.917	104212
585.965	75389
585.989	64906
586.019	58012
586.061	50481
586.074	48638
586.128	43089
586.133	42695
586.183	40948
586.205	40293
586.237	39116
586.277	37916
586.292	37720
586.346	37507
586.349	37465
586.401	36361
586.421	36062
586.455	36222
586.493	36333
586.509	36186
586.564	36456
586.565	36502
586.618	41501
586.637	42896
586.672	45867
586.709	51160
586.727	54553
586.781	58491
586.781	58495
586.835	48498
586.853	46082
586.889	41210
586.925	37475
586.944	36820
586.996	35435
586.998	35435
587.052	35014
587.068	35073
587.106	35389
587.140	35358
587.161	35613
587.212	36408
587.215	36414
587.269	35702
587.284	35722
587.323	36994
587.356	37796
587.377	38200
587.427	38619
587.431	38712
587.485	40117
587.499	40407
587.539	40517
587.571	40883
587.593	42211
587.643	44560
587.648	44662
587.702	45431
587.715	45457
587.755	45326
587.786	45538
587.810	45740
587.858	45432
587.864	45520
587.917	46650
587.930	46757
587.971	46882
588.001	46856
588.025	47096
588.073	47580
588.079	47659
588.133	48214
588.145	48215
588.187	48523
588.217	48916
588.241	49430
588.288	50276
588.295	50570
588.348	52802
588.360	53136
588.402	54090
588.431	54670
588.456	55457
588.503	57557
588.510	58118
588.564	62430
588.575	63462
588.617	67802
588.646	70804
588.671	73411
588.718	80424
588.725	82243
588.778	100555
588.789	106122
588.832	147111
588.861	184375
588.886	257959
588.932	429502
588.939	456304
588.993	576606
589.004	585370
589.047	341919
589.075	213076
589.100	164348
589.147	86086
589.154	84712
589.207	75699
589.218	73969
589.261	74534
589.290	75691
589.314	77471
589.361	82740
589.368	84945
589.421	107845
589.433	114912
589.475	183202
589.504	245021
589.528	337406
589.576	487829
589.582	477553
589.635	304575
589.647	277204
589.689	157678
589.718	79190
589.742	73120
589.790	61499
589.795	61234
589.849	58029
589.861	57377
589.902	57052
589.932	56354
589.955	55835
590.004	54722
590.009	54736
590.062	53984
590.075	53703
590.115	52987
590.146	52398
590.168	52474
590.218	52423
590.222	52578
590.275	54031
590.289	54130
590.328	54681
590.360	55237
590.381	55724
590.431	56284
590.435	56370
590.488	56732
590.503	56645
590.541	57025
590.574	57387
590.594	58322
590.645	60182
590.647	60323
590.700	61908
590.716	62160
590.753	63397
590.787	64528
590.806	65607
590.859	68006
590.859	68137
590.912	69206
590.930	69489
590.965	70233
591.001	70581
591.018	70483
591.071	69811
591.072	69683
591.124	67627
591.143	66802
591.177	68084
591.214	69324
591.230	69647
591.283	70141
591.285	70033
591.336	70500
591.356	70638
591.389	70555
591.427	69788
591.442	69523
591.495	68328
591.498	68132
591.547	69240
591.569	69522
591.600	70422
591.640	71213
591.653	71443
591.706	72006
591.711	71947
591.759	74078
591.782	74997
591.811	77236
591.853	79995
591.864	80284
591.917	80974
591.924	80912
591.969	79826
591.995	79045
592.022	80025
592.066	81264
592.075	81726
592.127	83577
592.137	83777
592.180	85701
592.208	86641
592.233	87660
592.279	89253
592.285	89681
592.338	91753
592.350	92056
592.390	91321
592.421	90461
592.443	91649
592.491	93729
592.495	94001
592.548	95284
592.562	95448
592.600	95731
592.633	95652
592.653	95877
592.704	95431
592.705	96008
592.775	97513
592.846	101982
592.916	103474
592.987	102162
593.058	103292
593.128	104932
593.199	104986
593.270	105823
593.341	109744
593.411	110863
593.482	116782
593.553	119842
593.623	120163
593.694	123744
593.764	127720
593.835	125446
593.906	125343
593.976	128428
594.047	131679
594.117	136298
594.188	141347
594.258	142545
594.329	139201
594.399	143185
594.470	149039
594.540	153412
594.611	158262
594.681	155839
594.751	157024
594.822	159568
594.892	168654
594.963	173680
595.033	177649
595.103	183851
595.174	184614
595.244	189507
595.314	196122
595.384	200534
595.455	203029
595.525	211843
595.595	219059
595.665	220904
595.736	214887
595.806	219293
595.876	222945
595.946	221613
596.016	234020
596.087	238800
596.157	242273
596.227	243105
596.297	252324
596.367	266765
596.437	286789
596.507	288113
596.577	283653
596.647	291450
596.717	306586
596.787	315245
596.857	313865
596.927	316695
596.997	317090
597.067	318912
597.137	325643
597.207	327390
597.277	330024
597.347	318903
597.417	308651
597.487	306623
597.557	311785
597.626	323012
597.696	324868
597.766	325466
597.836	311600
597.906	292407
597.975	286026
598.045	287536
598.115	298418
598.185	319014
598.254	351983
598.324	388309
598.394	398673
598.464	387190
598.533	382061
598.603	361244
598.672	343408
598.742	347513
598.812	352026
598.881	360905
598.951	358851
599.020	364606
599.090	376060
599.159	387050
599.229	371799
599.299	361672
599.368	367974
599.437	369356
599.507	343472
599.576	326997
599.646	321803
599.715	315725
599.785	315495
599.854	306906
599.924	301455
599.993	296676
600.062	304308
600.132	314638
600.201	327214
600.270	372845
600.340	408372
600.409	396826
600.478	393366
600.547	400827
600.617	383485
600.686	302392
600.755	268641
600.824	255293
600.894	246224
600.963	246510
601.032	246260
601.101	238734
601.170	227753
601.239	218796
601.308	217512
601.378	218596
601.447	219282
601.516	222630
601.585	222478
601.654	225446
601.723	225864
601.792	232076
601.861	242184
601.930	248263
601.999	252837
602.068	253554
602.137	254225
602.206	261863
602.275	263766
602.343	265955
602.412	269454
602.481	271442
602.550	273613
602.619	281247
602.688	284649
602.756	285639
602.825	286120
602.894	294672
602.963	299960
603.032	306971
603.100	309298
603.169	304395
603.238	311118
603.307	311145
603.375	313008
603.444	321430
603.513	323427
603.581	329921
603.650	336346
603.719	327433
603.787	332788
603.856	341731
603.924	349835
603.993	363381
604.061	374562
604.130	392222
604.198	399569
604.267	407499
604.335	411597
604.404	417684
604.472	428249
604.541	429266
604.609	432578
604.678	435890
604.746	438263
604.815	450322
604.883	458841
604.951	455955
605.020	463450
605.088	472092
605.156	477400
605.225	486769
605.293	487713
605.361	488054
605.429	494596
605.498	503928
605.566	510699
605.634	534204
605.702	551616
605.771	569796
605.839	573727
605.907	564480
605.975	548292
606.043	534548
606.111	533182
606.180	532128
606.248	529823
606.316	519863
606.384	522325
606.452	519015
606.520	524856
606.588	543776
606.656	552351
606.724	547202
606.792	520337
606.860	479377
606.928	432995
606.996	411668
607.064	400489
607.132	408613
607.200	429396
607.267	453244
607.335	453565
607.403	470929
607.471	463670
607.539	435320
607.607	447338
607.674	399367
607.742	389801
607.810	388540
607.878	387427
607.946	393663
608.013	412853
608.081	420554
608.149	425264
608.216	435851
608.284	454923
608.352	451941
608.419	453117
608.487	443636
608.555	432916
608.622	444563
608.690	465262
608.757	508932
608.825	532672
608.893	520118
608.960	495190
609.028	469356
609.095	467141
609.163	467918
609.230	434995
609.298	384985
609.365	402746
609.432	432613
609.500	466451
609.567	522872
609.635	590773
609.702	634183
609.769	616923
609.837	508402
609.904	419236
609.971	425576
610.039	451503
610.106	509311
610.173	712670
610.241	1289497
610.308	1172657
610.375	554349
610.442	459612
610.509	432563
610.577	428083
610.644	433171
610.711	448207
610.778	458603
610.845	476106
610.912	500763
610.980	523700
611.047	528717
611.114	520602
611.181	504187
611.248	501671
611.315	520682
611.382	537927
611.449	552416
611.516	568793
611.583	558496
611.650	561056
611.717	566103
611.784	578350
611.851	592914
611.918	613771
611.984	667251
612.051	787198
612.118	1076028
612.185	1804919
612.252	1785618
612.319	907757
612.386	735323
612.452	677549
612.519	638452
612.586	623553
612.653	628300
612.719	649048
612.786	638851
612.853	598356
612.919	575638
612.986	584071
613.053	560252
613.120	529054
613.186	505007
613.253	507114
613.319	505785
613.386	513808
613.453	517552
613.519	520196
613.586	510926
613.652	516963
613.719	510876
613.785	516905
613.852	525592
613.918	525616
613.985	522668
614.051	544774
614.118	542548
614.184	529132
614.250	515699
614.317	533912
614.383	526535
614.449	535280
614.516	534383
614.582	537868
614.648	529623
614.715	520670
614.781	518354
614.847	508807
614.914	509171
614.980	497805
615.046	492931
615.112	508625
615.179	512815
615.245	519459
615.311	512304
615.377	515246
615.443	526130
615.509	526086
615.575	538347
615.642	543008
615.708	547390
615.774	566060
615.840	594968
615.906	618305
615.972	673676
616.038	822113
616.104	1216256
616.170	1924069
616.236	2084865
616.302	1159308
616.368	886784
616.434	718853
616.500	633769
616.565	651232
616.631	777031
616.697	733874
616.763	691316
616.829	831615
616.895	1268438
616.961	1426614
617.026	859102
617.092	601166
617.158	549929
617.224	541207
617.289	503599
617.355	476427
617.421	470905
617.487	470331
617.552	448992
617.618	443043
617.684	441739
617.749	446996
617.815	428502
617.880	420026
617.946	413494
618.012	422026
618.077	434753
618.143	419581
618.208	417199
618.274	441474
618.339	456143
618.405	389526
618.470	370950
618.536	376380
618.601	367348
618.667	351733
618.732	328914
618.798	323142
618.863	321325
618.928	319400
618.994	323010
619.059	319978
619.124	324319
619.190	321674
619.255	317956
619.320	317215
619.386	319473
619.451	318910
619.516	309590
619.581	310759
619.647	317132
619.712	324269
619.777	307763
619.842	307931
619.907	315087
619.972	318585
620.038	320349
620.103	309897
620.168	308879
620.233	313254
620.298	315519
620.363	320144
620.428	326473
620.493	336013
620.558	340118
620.623	342186
620.688	346119
620.753	338378
620.818	346968
620.883	348420
620.948	349474
621.013	342250
621.078	337485
621.143	339101
621.207	345699
621.272	338159
621.337	330909
621.402	322220
621.467	322889
621.532	320582
621.596	323219
621.661	317429
621.726	308753
621.791	314043
621.855	317074
621.920	311284
621.985	315835
622.049	319479
622.114	323663
622.179	326022
622.243	333887
622.308	344091
622.373	356665
622.437	353744
622.502	332090
622.566	329483
622.631	329484
622.695	332702
622.760	333211
622.824	331943
622.889	334947
622.953	334219
623.018	342932
623.082	355476
623.147	350734
623.211	345360
623.276	341812
623.340	339023
623.404	323657
623.469	322635
623.533	324078
623.597	322285
623.662	315369
623.726	300546
623.790	281346
623.854	270283
623.919	273612
623.983	276698
624.047	282181
624.111	282150
624.176	291747
624.240	291341
624.304	300146
624.368	293770
624.432	288876
624.496	296059
624.560	309108
624.625	319026
624.689	312251
624.753	325177
624.817	319860
624.881	306421
624.945	285112
625.009	266610
625.073	273243
625.137	281112
625.201	290272
625.265	296438
625.329	283483
625.393	284012
625.456	287053
625.520	293240
625.584	301668
625.648	306800
625.712	314949
625.776	317267
625.839	303946
625.903	266305
625.967	237089
626.031	245198
626.095	284625
626.158	292191
626.222	230725
626.286	206992
626.349	198902
626.413	187128
626.477	181309
626.540	183136
626.604	184239
626.668	181263
626.731	178032
626.795	178520
626.858	179890
626.922	178635
626.986	174063
627.049	173279
627.113	181792
627.176	177971
627.240	171039
627.303	170770
627.366	170667
627.430	169972
627.493	171147
627.557	167714
627.620	169380
627.684	176835
627.747	179282
627.810	168965
627.874	151136
627.937	143136
628.000	146462
628.064	145548
628.127	131395
628.190	127397
628.253	122236
628.317	119575
628.380	114686
628.443	109235
628.506	109632
628.569	106394
628.632	100185
628.696	99774
628.759	99409
628.822	95635
628.885	93460
628.948	92885
629.011	90679
629.074	88218
629.137	85015
629.200	83515
629.263	82328
629.326	81132
629.389	81556
629.452	80622
629.515	78902
629.578	79369
629.641	79469
629.704	80482
629.767	79324
629.830	77927
629.892	76462
629.955	73738
630.018	75613
630.081	75074
630.144	73964
630.207	75390
630.269	74579
630.332	72478
630.395	71113
630.458	70816
630.520	67467
630.583	68196
630.646	68947
630.708	70863
630.771	71338
630.834	76092
630.896	73113
630.959	73061
631.021	71824
631.084	70564
631.146	70822
631.209	72096
631.272	72005
631.334	73700
631.397	74679
631.459	73848
631.522	75429
631.584	78767
631.646	80602
631.709	86078
631.771	84494
631.834	82915
631.896	79232
631.958	74477
632.021	73998
632.083	70220
632.145	69915
632.208	68661
632.270	68829
632.332	67967
632.395	68355
632.457	68321
632.519	68338
632.581	67416
632.643	66560
632.706	66500
632.768	64942
632.830	66151
632.892	68188
632.954	69500
633.016	70145
633.078	68631
633.141	68960
633.203	68555
633.265	66581
633.327	67465
633.389	67176
633.451	68630
633.513	66741
633.575	69451
633.637	67766
633.698	70352
633.760	72313
633.822	76698
633.884	76724
633.946	78121
634.008	80002
634.070	81130
634.132	82917
634.193	90329
634.255	95469
634.317	98094
634.379	97807
634.441	89813
634.502	84559
634.564	76732
634.626	72165
634.687	69659
634.749	66792
634.811	65239
634.873	65283
634.934	66959
634.996	65627
635.057	64935
635.119	66297
635.181	68180
635.242	67525
635.304	66526
635.365	67891
635.427	67178
635.488	66145
635.550	67397
635.611	66188
635.673	66855
635.734	70077
635.796	73066
635.857	78416
635.918	81115
635.980	88491
636.041	95190
636.102	98811
636.164	101046
636.225	98765
636.286	89407
636.348	80219
636.409	73914
636.470	69501
636.531	67965
636.593	65273
636.654	64313
636.715	59628
636.776	60961
636.838	59020
636.899	57504
636.960	56529
637.021	56232
637.082	55985
637.143	54754
637.204	53542
637.265	53032
637.326	55702
637.387	55552
637.448	55731
637.509	55635
637.570	54742
637.631	54004
637.692	51960
637.753	51849
637.814	51375
637.875	51626
637.936	51480
637.997	50370
638.058	49476
638.119	50386
638.179	50726
638.240	50362
638.301	50913
638.362	49406
638.423	47752
638.483	48931
638.544	46115
638.605	47553
638.666	46469
638.726	48402
638.787	47098
638.848	47219
638.908	47793
638.969	45663
639.030	44084
639.090	44853
639.151	44636
639.211	46124
639.272	46242
639.332	46049
639.393	46247
639.453	48712
639.514	50495
639.574	46046
639.635	43224
639.695	42696
639.756	41471
639.816	42568
639.877	40694
639.937	42805
639.997	42039
640.058	41281
640.118	42104
640.178	41528
640.239	40818
640.299	42065
640.359	42414
640.420	44346
640.480	47454
640.540	53148
640.600	56682
640.661	51647
640.721	46876
640.781	48940
640.841	43555
640.901	43309
640.961	42929
641.021	42949
641.082	46040
641.142	44502
641.202	43235
641.262	38920
641.322	40116
641.382	40109
641.442	39210
641.502	38587
641.562	39652
641.622	40805
641.682	42453
641.742	46794
641.802	47424
641.861	41610
641.921	38935
641.981	38375
642.041	36835
642.101	37058
642.161	36213
642.221	36589
642.280	37026
642.340	37770
642.400	36654
642.460	40143
642.519	38007
642.579	39096
642.639	38819
642.698	36840
642.758	40835
642.818	39685
642.877	39178
642.937	40295
642.997	38459
643.056	39582
643.116	38418
643.175	40155
643.235	39578
643.294	41207
643.354	44506
643.414	46155
643.473	53275
643.532	61176
643.592	77163
643.651	104885
643.711	153374
643.770	251095
643.830	482614
643.889	1045302
643.948	619755
644.008	150559
644.067	79638
644.126	60722
644.186	50957
644.245	45598
644.304	40961
644.363	42626
644.423	39024
644.482	40120
644.541	41467
644.600	43785
644.659	51532
644.719	60913
644.778	79743
644.837	117776
644.896	200235
644.955	463736
645.014	326175
645.073	75460
645.132	51070
645.191	45854
645.250	43467
645.309	45499
645.368	47529
645.427	57187
645.486	80899
645.545	165246
645.604	88950
645.663	41331
645.722	39781
645.781	41933
645.840	46500
645.898	54603
645.957	69419
646.016	95028
646.075	144105
646.134	236500
646.192	485383
646.251	928743
646.310	372166
646.369	100473
646.427	68933
646.486	58077
646.545	45228
646.603	40567
646.662	37104
646.721	36396
646.779	35921
646.838	38723
646.896	44600
646.955	54112
647.014	75420
647.072	120395
647.131	298178
647.189	299664
647.248	59757
647.306	36372
647.365	32461
647.423	29507
647.481	30442
647.540	28652
647.598	27877
647.657	28762
647.715	28153
647.773	26833
647.832	27158
647.890	23946
647.948	24394
648.007	24802
648.065	22955
648.123	23633
648.181	24243
648.240	22935
648.298	22754
648.356	22369
648.414	23227
648.472	22294
648.531	22427
648.589	22464
648.647	21968
648.705	22432
648.763	22835
648.821	23201
648.879	24435
648.937	26912
648.995	31408
649.053	38632
649.111	49201
649.169	73403
649.227	114066
649.285	202230
649.343	515460
649.401	518425
649.459	98784
649.516	44042
649.574	34316
649.632	34584
649.690	38025
649.748	42756
649.806	55281
649.863	90475
649.921	210819
649.979	278791
650.037	55696
650.094	25071
650.152	20298
650.210	20163
650.268	19562
650.325	19053
650.383	17912
650.440	16203
650.498	17423
650.556	16961
650.613	15636
650.671	17195
650.728	15921
650.786	17866
650.843	21436
650.901	22640
650.958	15328
651.016	15662
651.073	14268
651.131	14678
651.188	13002
651.246	13734
651.303	12892
651.360	14614
651.418	13268
651.475	14139
651.532	12340
651.590	14005
651.647	12770
651.704	13053
651.762	12611
651.819	13689
651.876	12090
651.933	12230
651.990	12243
652.048	11930
652.105	11648
652.162	13207
652.219	11835
652.276	12326
652.333	12345
652.390	11532
652.448	11017
652.505	12364
652.562	11733
652.619	11768
652.676	11857
652.733	13059
652.790	10833
652.847	11249
652.904	11494
652.961	9517
653.017	9857
653.074	11961
653.131	10978
653.188	10227
653.245	9977
653.302	11424
653.359	11283
653.415	11292
653.472	10152
653.529	11422
653.586	10045
653.642	10957
653.699	10824
653.756	10375
653.813	10138
653.869	10807
653.926	10134
653.983	10374
654.039	10542
654.096	10592
654.152	10590
654.209	9616
654.266	9867
654.322	9503
654.379	10674
654.435	10240
654.492	9015
654.548	10276
654.605	9353
654.661	10585
654.717	9813
654.774	10153
654.830	10005
654.887	9917
654.943	9959
655.000	10520
655.056	10198
655.112	10077
655.168	9452
655.225	10556
655.281	10902
655.337	10436
655.394	9521
655.450	9782
655.506	10274
655.562	10077
655.618	10925
655.675	9111
655.731	8941
655.787	9162
655.843	10252
655.899	9070
655.955	10850
656.011	9466
656.067	9284
656.123	10766
656.179	8977
656.235	10836
656.291	9340
656.347	11074
656.403	10567
656.459	10684
656.515	9372
656.571	10568
656.627	9684
656.683	9680
656.739	10175
656.795	9870
656.850	9940
656.906	9787
656.962	11195
657.018	9987
657.074	12106
657.129	16483
657.185	22573
657.241	46968
657.297	51225
657.352	14546
657.408	9164
657.464	10440
657.519	8229
657.575	7771
657.630	7616
657.686	8286
657.742	8057
657.797	8247
657.853	7969
657.908	10034
657.964	7652
658.019	8048
658.075	7867
658.130	8482
658.186	7200
658.241	9151
658.297	6540
658.352	7878
658.407	8361
658.463	7152
658.518	7785
658.573	8225
658.629	7971
658.684	7817
658.739	7482
658.795	7893
658.850	7477
658.905	7953
658.960	7855
659.016	7301
659.071	6800
659.126	7027
659.181	6858
659.236	7695
659.291	7326
659.346	6810
659.401	7173
659.457	8252
659.512	7279
659.567	8752
659.622	6805
659.677	7548
659.732	6190
659.787	7430
659.842	6444
659.897	6940
659.952	7390
660.007	7364
660.061	6889
660.116	6459
660.171	5975
660.226	7062
660.281	7698
660.336	6884
660.391	6770
660.445	6621
660.500	6388
660.555	6676
660.610	6173
660.664	6568
660.719	6174
660.774	7607
660.828	5890
660.883	6499
660.938	6401
660.992	6191
661.047	6863
661.101	5850
661.156	5769
661.211	6340
661.265	6398
661.320	6297
661.374	6334
661.429	6309
661.483	7626
661.538	5909
661.592	6197
661.647	6019
661.701	6747
661.755	7138
661.810	6957
661.864	5668
661.919	6175
661.973	6984
662.027	5837
662.081	5785
662.136	5751
662.190	6301
662.244	6829
662.299	6777
662.353	6765
662.407	7007
662.461	6065
662.515	6602
662.569	5375
662.624	6295
662.678	5866
662.732	6659
662.786	5329
662.840	7005
662.894	6823
662.948	5689
663.002	5937
663.056	6327
663.110	5090
663.164	6085
663.218	6406
663.272	7276
663.326	6814
663.380	6616
663.434	5953
663.488	5998
663.542	6761
663.595	6796
663.649	5547
663.703	7029
663.757	6155
663.811	5614
663.864	6285
663.918	6400
663.972	5533
664.026	6387
664.079	6597
664.133	6542
664.187	6723
664.240	6540
664.294	5484
664.348	5952
664.401	6408
664.455	6484
664.508	5800
664.562	6444
664.615	6486
664.669	5962
664.722	6460
664.776	5709
664.829	6148
664.883	6664
664.936	4962
664.990	6155
665.043	6387
665.097	6359
665.150	6560
665.203	6188
665.257	6956
665.310	7525
665.363	5943
665.417	7045
665.470	6979
665.523	6869
665.576	6793
665.630	6864
665.683	6419
665.736	6736
665.789	7027
665.842	6370
665.895	7079
665.949	7411
666.002	6117
666.055	7212
666.108	7252
666.161	7537
666.214	7176
666.267	6941
666.320	6820
666.373	7367
666.426	7334
666.479	6803
666.532	6764
666.585	7723
666.638	8139
666.691	7952
666.744	7249
666.796	7781
666.849	6621
666.902	7971
666.955	6800
667.008	7105
667.060	7326
667.113	6904
667.166	7240
667.219	7373
667.271	8292
667.324	7948
667.377	7385
667.430	8335
667.482	7100
667.535	8213
667.587	7444
667.640	8029
667.693	7306
667.745	7793
667.798	7939
667.850	7592
667.903	7637
667.955	7844
668.008	8162
668.060	7618
668.113	7226
668.165	7810
668.218	7900
668.270	8434
668.322	6856
668.375	7455
668.427	7357
668.479	6850
668.532	7637
668.584	7491
668.636	6947
668.689	7216
668.741	6610
668.793	7457
668.845	6762
668.898	7255
668.950	7507
669.002	7464
669.054	6653
669.106	7249
669.158	7163
669.211	6827
669.263	7213
669.315	7594
669.367	6907
669.419	6862
669.471	6753
669.523	6587
669.575	7280
669.627	6812
669.679	5885
669.731	6924
669.783	6936
669.835	7049
669.886	6410
669.938	6962
669.990	6309
670.042	6215
670.094	5875
670.146	5810
670.197	7629
670.249	7950
670.301	6632
670.353	8760
670.404	9185
670.456	9675
670.508	11925
670.560	16847
670.611	22724
670.663	32460
670.715	58249
670.766	131677
670.818	79725
670.869	17146
670.921	9761
670.972	9892
671.024	8395
671.075	8502
671.127	7247
671.178	8351
671.230	9058
671.281	10389
671.333	11687
671.384	13443
671.436	15807
671.487	22917
671.538	30110
671.590	42151
671.641	64026
671.692	103126
671.744	205038
671.795	233213
671.846	105431
671.897	45121
671.949	26342
672.000	18431
672.051	13895
672.102	11233
672.153	8982
672.204	9853
672.256	8328
672.307	7870
672.358	7243
672.409	7568
672.460	6945
672.511	7667
672.562	6131
672.613	5958
672.664	5744
672.715	5860
672.766	5968
672.817	4076
672.868	4962
672.919	5351
672.970	4774
673.021	5859
673.071	4646
673.122	5632
673.173	3833
673.224	4727
673.275	4984
673.326	5124
673.376	5492
673.427	4708
673.478	4477
673.528	6124
673.579	4904
673.630	5500
673.680	5662
673.731	5717
673.782	4578
673.832	5673
673.883	4419
673.934	5110
673.984	5035
674.035	5843
674.085	5629
674.136	5167
674.186	4692
674.237	5058
674.287	5475
674.338	5667
674.388	5399
674.438	5009
674.489	5222
674.539	6676
674.589	6426
674.640	6116
674.690	5941
674.740	4869
674.791	4979
674.841	5693
674.891	5065
674.942	4315
674.992	4237
675.042	4458
675.092	4279
675.142	3792
675.193	3442
675.243	4320
675.293	4964
675.343	5133
675.393	4185
675.443	5219
675.493	4164
675.543	3948
675.593	4820
675.643	5195
675.693	4332
675.743	4572
675.793	4478
675.843	4119
675.893	3466
675.943	4054
675.993	3005
676.043	3970
676.093	4425
676.142	3809
676.192	4099
676.242	3437
676.292	3705
676.341	3581
676.391	4129
676.441	4087
676.491	3314
676.540	3869
676.590	3248
676.640	3581
676.689	2846
676.739	3905
676.789	4275
676.838	3212
676.888	3096
676.937	2853
676.987	3525
677.037	3400
677.086	3467
677.136	3420
677.185	2754
677.235	3424
677.284	3346
677.333	3854
677.383	3153
677.432	3254
677.482	3019
677.531	3082
677.580	2280
677.630	2968
677.679	3170
677.728	2911
677.778	3576
677.827	2767
677.876	2699
677.925	3018
677.975	2524
678.024	3550
678.073	3782
678.122	4518
678.171	3553
678.220	3817
678.269	4301
678.319	4913
678.368	6021
678.417	5438
678.466	4342
678.515	3968
678.564	3216
678.613	2989
678.662	2553
678.711	2937
678.760	3015
678.809	2735
678.857	3305
678.906	3787
678.955	2937
679.004	3292
679.053	2664
679.102	2591
679.151	2519
679.199	2966
679.248	2632
679.297	2749
679.346	2362
679.394	2472
679.443	2479
679.492	2925
679.540	2550
679.589	3409
679.638	3155
679.686	3513
679.735	3416
679.784	3879
679.832	5079
679.881	4928
679.929	2959
679.978	2720
680.026	2671
680.075	3871
680.123	2076
680.172	2100
680.220	2264
680.268	2618
680.317	2554
680.365	3000
680.414	2511
680.462	2414
680.510	2313
680.559	3407
680.607	2385
680.655	3210
680.703	2589
680.752	3301
680.800	3048
680.848	2578
680.896	2453
680.945	2736
680.993	2211
681.041	2407
681.089	1962
681.137	2968
681.185	1979
681.233	2335
681.258	2059
681.281	1783
681.329	2012
681.377	2082
681.380	2111
681.425	2365
681.473	2585
681.502	2826
681.521	2959
681.569	3075
681.617	3651
681.624	3626
681.665	3361
681.713	3615
681.745	3297
681.761	3118
681.809	2375
681.857	2958
681.867	3176
681.904	3858
681.952	3164
681.989	3394
682.000	3447
682.048	3118
682.096	3336
682.111	3144
682.143	2677
682.191	2717
682.233	3134
682.239	3181
682.286	3991
682.334	2919
682.354	3221
682.382	3605
682.430	3934
682.476	3296
682.477	3267
682.525	3402
682.572	2772
682.598	2653
682.620	2511
682.667	3797
682.715	3055
682.720	3008
682.763	2474
682.810	2805
682.841	3739
682.857	4195
682.905	2956
682.952	3512
682.963	3505
683.000	3398
683.047	3625
683.085	4116
683.095	4246
683.142	3171
683.190	2868
683.206	3351
683.237	4153
683.284	2928
683.328	3428
683.332	3458
683.379	2929
683.426	3285
683.449	3315
683.473	3340
683.521	4018
683.568	3188
683.571	3247
683.615	3817
683.662	3661
683.693	3515
683.709	3406
683.757	3217
683.804	3692
683.814	3561
683.851	3106
683.898	3570
683.936	3696
683.945	3721
683.992	3551
684.039	3229
684.057	3372
684.086	3538
684.133	4523
684.179	3366
684.180	3319
684.227	3842
684.274	4141
684.300	3882
684.321	3670
684.368	3438
684.415	4323
684.422	4366
684.462	4593
684.509	3612
684.543	3991
684.556	4104
684.603	3650
684.649	4172
684.665	4135
684.696	4091
684.743	4056
684.786	4190
684.790	4180
684.837	4026
684.883	4133
684.908	4045
684.930	4049
684.977	4208
685.023	5430
685.029	5326
685.070	4356
685.117	5220
685.150	4884
685.164	4759
685.210	4674
685.257	4682
685.272	4805
685.303	5024
685.350	5205
685.393	5171
685.396	5153
685.443	4238
685.490	4097
685.514	4137
685.536	4216
685.583	4507
685.629	4150
685.636	4194
685.675	4412
685.722	4639
685.757	4979
685.768	5077
685.815	4253
685.861	4671
685.878	4533
685.908	4320
685.954	4740
686.000	4827
686.000	4826
686.047	4364
686.093	5164
686.121	5457
686.139	5603
686.185	5138
686.232	5486
686.242	5376
686.278	4942
686.324	5210
686.363	5517
686.370	5581
686.416	4947
686.463	5788
686.484	5691
686.509	5495
686.555	4438
686.601	5011
686.606	5030
686.647	5241
686.693	5277
686.727	5025
686.739	4968
686.785	4915
686.831	4915
686.848	5055
686.877	5183
686.923	5463
686.969	5150
686.969	5149
687.015	5341
687.061	5710
687.090	5940
687.107	6015
687.153	6112
687.199	6040
687.211	5956
687.245	5626
687.291	5503
687.332	5424
687.336	5445
687.382	5517
687.428	5587
687.453	5628
687.474	5570
687.520	5848
687.565	6255
687.574	6190
687.611	6057
687.657	5840
687.695	6156
687.702	6217
687.748	6221
687.794	6568
687.816	6524
687.839	6394
687.885	6569
687.931	6176
687.937	6243
687.976	6581
688.022	5800
688.058	6278
688.067	6402
688.113	5725
688.158	5831
688.179	5675
688.204	5548
688.249	6237
688.295	5545
688.300	5593
688.340	6048
688.386	6594
688.421	6496
688.431	6433
688.477	5846
688.522	6347
688.542	6392
688.567	6737
688.613	7166
688.658	7298
688.663	7354
688.703	7308
688.749	6996
688.784	7017
688.794	7045
688.839	6503
688.884	6825
688.905	6732
688.930	6732
688.975	6962
689.020	6915
689.026	6876
689.065	6521
689.110	6722
689.146	6589
689.155	6598
689.201	7074
689.246	7350
689.267	7118
689.291	6809
689.336	7209
689.381	6591
689.388	6693
689.426	7272
689.471	7462
689.509	7031
689.516	6993
689.561	6951
689.606	7457
689.630	7311
689.651	7037
689.696	7170
689.741	6480
689.750	6605
689.785	7290
689.830	7160
689.871	7030
689.875	7016
689.920	6975
689.965	7131
689.992	7015
690.010	6953
690.054	6997
690.099	7117
690.112	7216
690.144	7551
690.189	7193
690.233	7324
690.233	7333
690.278	6983
690.323	7230
690.354	7060
690.367	7031
690.412	7399
690.457	7011
690.474	7045
690.501	7084
690.546	7178
690.590	7580
690.595	7547
690.635	7275
690.680	7377
690.716	6939
690.724	6906
690.769	7407
690.813	7482
690.836	7605
690.857	7885
690.902	8750
690.946	9405
690.957	9527
690.991	10928
691.035	13110
691.077	15502
691.080	15592
691.124	15990
691.168	15865
691.198	16157
691.213	15350
691.257	12805
691.301	10191
691.318	9190
691.346	8872
691.390	8444
691.434	8056
691.439	8009
691.478	8040
691.522	7653
691.559	7978
691.567	8069
691.611	7957
691.655	8051
691.680	7909
691.699	7833
691.743	8074
691.787	7973
691.800	7973
691.831	8045
691.875	7995
691.919	8203
691.921	8191
691.964	8098
692.008	8027
692.041	7974
692.052	8062
692.096	8209
692.139	8249
692.162	8451
692.183	8380
692.227	8161
692.271	7704
692.282	7558
692.315	7504
692.359	7755
692.402	7984
692.403	8000
692.447	7648
692.490	7921
692.523	7940
692.534	7967
692.578	7918
692.622	7917
692.643	8031
692.666	8220
692.709	8346
692.753	8122
692.763	8230
692.797	8410
692.840	7993
692.884	7641
692.884	7658
692.928	7738
692.971	8102
693.004	7985
693.015	7930
693.059	7884
693.102	8057
693.124	8137
693.146	8333
693.189	8204
693.233	8401
693.245	8472
693.276	8655
693.320	8935
693.363	8600
693.365	8590
693.407	8982
693.450	9084
693.485	9693
693.493	9891
693.537	9771
693.580	10151
693.605	10349
693.624	10728
693.667	11922
693.710	12720
693.725	13118
693.753	16311
693.797	21178
693.840	26918
693.845	27393
693.883	27509
693.926	27017
693.966	27016
693.970	26513
694.013	21040
694.056	15423
694.086	11826
694.099	11674
694.142	10775
694.185	9891
694.206	9465
694.229	9439
694.272	9416
694.315	9449
694.326	9408
694.358	9460
694.401	9612
694.444	9837
694.446	9807
694.487	9363
694.530	9298
694.566	8996
694.573	8967
694.616	8972
694.659	8582
694.686	8499
694.702	8750
694.745	9294
694.787	9725
694.806	9970
694.830	9870
694.873	9619
694.916	9370
694.926	9264
694.959	9365
695.002	9578
695.044	9843
695.046	9819
695.087	9728
695.130	10140
695.166	10065
695.172	10074
695.215	10056
695.258	10174
695.286	10302
695.301	10448
695.343	10556
695.386	10854
695.406	10956
695.428	11286
695.471	11773
695.514	12229
695.526	12432
695.556	13936
695.599	15912
695.641	17654
695.646	17799
695.684	17021
695.726	16220
695.766	15585
695.769	15585
695.811	14861
695.854	14364
695.886	13771
695.896	13710
695.938	13474
695.981	13262
696.005	13069
696.023	13466
696.065	14477
696.108	15378
696.125	15743
696.150	16362
696.192	17202
696.235	18167
696.245	18351
696.277	18361
696.319	18398
696.361	18416
696.365	18361
696.404	18265
696.446	18292
696.485	18341
696.488	18361
696.530	17917
696.572	17555
696.604	17152
696.614	17213
696.656	17440
696.698	17704
696.724	17755
696.740	17623
696.783	17029
696.825	16817
696.844	16542
696.867	16815
696.909	17332
696.951	17724
696.964	17899
696.992	17990
697.034	17779
697.076	17806
697.083	17741
697.118	18462
697.160	19342
697.202	20213
697.203	20190
697.244	19955
697.286	19625
697.323	19269
697.327	19283
697.369	18990
697.411	18760
697.442	18579
697.453	18731
697.494	19025
697.536	19399
697.562	19565
697.578	19467
697.620	19123
697.661	18773
697.682	18565
697.703	19198
697.744	20349
697.786	21490
697.801	21883
697.828	21896
697.869	21691
697.911	21555
697.921	21465
697.952	21514
697.994	21592
698.035	21577
698.040	21528
698.077	21608
698.118	21618
698.160	21682
698.160	21630
698.201	22001
698.243	22391
698.279	22621
698.284	22738
698.325	23382
698.367	23963
698.399	24362
698.408	24489
698.449	24849
698.491	25169
698.518	25307
698.532	25492
698.573	25902
698.614	26316
698.638	26482
698.656	26436
698.697	26180
698.738	25926
698.757	25740
698.779	25766
698.820	25714
698.862	25648
698.877	25564
698.903	25517
698.944	25339
698.985	25161
698.996	25051
699.026	25167
699.067	25247
699.116	25281
699.235	25501
699.354	25816
699.474	23906
699.593	23502
699.713	23337
699.832	23490
699.951	25152
700.070	24595
700.190	22376
700.309	22162
700.428	21268
700.547	22174
700.667	21004
700.786	20827
700.905	19740
701.024	20616
701.143	20810
701.262	21803
701.381	22373
701.500	22569
701.619	21235
701.738	21853
701.857	21670
701.976	20791
702.095	20534
702.214	22591
702.333	21292
702.452	21546
702.571	21039
702.690	21672
702.809	22297
702.928	21030
703.047	19362
703.165	19832
703.284	20359
703.403	18083
703.522	19987
703.640	18252
703.759	18946
703.878	18407
703.997	18020
704.115	18913
704.234	18997
704.353	20030
704.471	18208
704.590	17102
704.708	18048
704.827	16499
704.946	16852
705.064	17226
705.183	17109
705.301	17580
705.420	18138
705.538	15855
705.656	16887
705.775	14375
705.893	17756
706.012	17505
706.130	16386
706.249	16241
706.367	16112
706.485	15190
706.604	14401
706.722	15125
706.840	15637
706.958	17850
707.077	14608
707.195	14663
707.313	15539
707.431	13431
707.549	14141
707.668	12980
707.786	14849
707.904	13652
708.022	15393
708.140	14640
708.258	12638
708.376	14697
708.494	12352
708.612	13576
708.730	15108
708.848	14651
708.966	14874
709.084	14196
709.202	14819
709.320	13951
709.438	12856
709.556	14145
709.674	12088
709.791	12722
709.909	12078
710.027	12325
710.145	12667
710.263	12153
710.380	11979
710.498	12697
710.616	12598
710.733	11777
710.851	11309
710.969	12580
711.086	11249
711.204	11118
711.322	11420
711.439	10963
711.557	10267
711.674	11082
711.792	11399
711.909	11447
712.027	11315
712.144	10558
712.262	11348
712.379	11328
712.497	12192
712.614	11735
712.732	11546
712.849	10675
712.966	11235
713.084	13026
713.201	10746
713.318	11280
713.436	13111
713.553	11424
713.670	12353
713.787	12213
713.905	11409
714.022	12180
714.139	12688
714.256	15424
714.373	21591
714.490	42582
714.608	97928
714.725	403581
714.842	743186
714.959	100101
715.076	25147
715.193	17851
715.310	15785
715.427	11617
715.544	11649
715.661	11876
715.778	10522
715.895	10323
716.011	11236
716.128	9972
716.245	10706
716.362	9906
716.479	8682
716.596	8711
716.713	8548
716.829	9275
716.946	8522
717.063	9328
717.180	8343
717.296	8572
717.413	8853
717.530	8395
717.646	8307
717.763	8505
717.880	8565
717.996	8016
718.113	8149
718.229	8245
718.346	7668
718.462	6842
718.579	8431
718.695	8488
718.812	8252
718.928	7796
719.045	7735
719.161	7605
719.277	8303
719.394	9123
719.510	7950
719.626	9432
719.743	11251
719.859	19246
719.975	39988
720.092	139052
720.208	468784
720.324	127058
720.440	16915
720.557	12207
720.673	10063
720.789	9494
720.905	9881
721.021	9939
721.137	8245
721.253	6740
721.369	6705
721.486	6633
721.602	7482
721.718	6923
721.834	6316
721.950	6574
722.066	6302
722.181	6433
722.297	7191
722.413	6360
722.529	6639
722.645	6601
722.761	6587
722.877	6788
722.993	7792
723.108	9669
723.224	9808
723.340	7327
723.456	6389
723.571	5798
723.687	5382
723.803	6583
723.918	6899
724.034	5778
724.150	6119
724.265	5846
724.381	5286
724.497	6958
724.612	5886
724.728	5443
724.843	5324
724.959	6044
725.074	5589
725.190	7560
725.305	6252
725.421	5397
725.536	5808
725.651	5290
725.767	5071
725.882	6155
725.997	4913
726.113	5792
726.228	5576
726.343	6374
726.459	5278
726.574	5418
726.689	5635
726.804	5203
726.920	4795
727.035	5299
727.150	5893
727.265	4887
727.380	6123
727.495	5998
727.610	4283
727.725	5114
727.841	5217
727.956	6354
728.071	6637
728.186	5686
728.301	4677
728.416	6127
728.531	5454
728.645	5773
728.760	4590
728.875	5891
728.990	5449
729.105	5274
729.220	4662
729.335	4913
729.449	5508
729.564	5552
729.679	5143
729.794	5376
729.908	6007
730.023	4913
730.138	6013
730.253	5745
730.367	4992
730.482	5279
730.596	5514
730.711	6555
730.826	9460
730.940	8206
731.055	7761
731.169	8458
731.284	7804
731.398	8251
731.513	7977
731.627	9194
731.742	12530
731.856	15764
731.970	16277
732.085	18748
732.199	26575
732.313	45578
732.428	106238
732.542	341004
732.656	355120
732.771	62876
732.885	27640
732.999	23630
733.113	23986
733.227	23579
733.342	21684
733.456	20922
733.570	20557
733.684	19220
733.798	18145
733.912	17944
734.026	19610
734.140	17626
734.254	17972
734.368	17125
734.482	17810
734.596	17902
734.710	17370
734.824	17097
734.938	15587
735.052	18255
735.166	16387
735.280	16280
735.393	15513
735.507	16004
735.621	16223
735.735	15471
735.849	16263
735.962	14392
736.076	15615
736.190	14524
736.303	14046
736.417	15907
736.531	14715
736.644	15237
736.758	14353
736.872	14409
736.985	13885
737.099	13956
737.212	12924
737.326	14639
737.439	13906
737.553	13767
737.666	13623
737.780	12871
737.893	14193
738.007	13299
738.120	15414
738.233	12812
738.347	13642
738.460	11959
738.573	14291
738.687	12659
738.800	12957
738.913	13024
739.026	12860
739.140	12767
739.253	11749
739.366	12518
739.479	12795
739.592	12717
739.705	10478
739.818	13924
739.932	12101
740.045	10857
740.158	11681
740.271	11163
740.384	11941
740.497	10420
740.610	11550
740.723	11867
740.836	11714
740.949	11333
741.062	12480
741.174	11435
741.287	10231
741.400	12173
741.513	9614
741.626	12018
741.739	11136
741.851	9700
741.964	10431
742.077	10830
742.189	9287
742.302	11213
742.415	10691
742.527	10339
742.640	11248
742.753	8574
742.865	9467
742.978	10013
743.090	9572
743.203	9098
743.316	9291
743.428	8823
743.541	10792
743.653	7965
743.766	9651
743.878	10767
743.990	8696
744.103	10091
744.215	11384
744.327	7662
744.440	11162
744.552	9700
744.664	7968
744.777	8510
744.889	9486
745.001	8280
745.113	8946
745.226	9677
745.338	7655
745.450	9887
745.562	8731
745.674	7665
745.786	8243
745.898	9545
746.010	7471
746.122	8706
746.234	8473
746.347	8713
746.459	9076
746.570	6488
746.682	8950
746.794	11820
746.906	8356
747.018	7650
747.130	8357
747.242	7352
747.354	5969
747.466	8676
747.577	7347
747.689	7351
747.801	8670
747.913	7023
748.024	7941
748.136	6564
748.248	6803
748.359	7828
748.471	7753
748.583	6825
748.694	6715
748.806	7486
748.918	7479
749.029	6841
749.141	6440
749.252	7792
749.364	5611
749.475	6496
749.587	6518
749.698	6402
749.809	7556
749.921	6663
750.032	6688
750.144	5860
750.255	5945
750.366	5882
750.478	5629
750.589	5830
750.700	5831
750.811	6909
750.923	5938
751.034	5908
751.145	7368
751.256	6631
751.367	6095
751.479	6302
751.590	5463
751.701	5975
751.812	5363
751.923	5890
752.034	6749
752.145	6831
752.256	6593
752.367	6181
752.478	6339
752.589	6908
752.700	7217
752.811	6496
752.922	5564
753.032	6179
753.143	5894
753.254	5310
753.365	7931
753.476	6603
753.586	6060
753.697	5551
753.808	5682
753.919	4188
754.029	5995
754.140	5480
754.251	5552
754.361	5965
754.472	6759
754.582	5846
754.693	5474
754.804	6630
754.914	5801
755.025	5189
755.135	5293
755.246	6555
755.356	5867
755.466	5062
755.577	4439
755.687	5614
755.798	4881
755.908	4851
756.018	5487
756.129	4914
756.239	6166
756.349	5442
756.460	5319
756.570	6798
756.680	5587
756.790	6066
756.900	6208
757.011	5218
757.121	4988
757.231	4939
757.341	5204
757.451	4755
757.561	4616
757.671	4558
757.781	5791
757.891	4377
758.001	4227
758.111	5949
758.221	5242
758.331	5824
758.441	5664
758.551	5963
758.661	6500
758.771	6721
758.880	5374
758.990	6264
759.100	5296
759.210	4517
759.320	5729
759.429	6521
759.539	6989
759.649	7427
759.758	8289
759.868	8953
759.978	8946
760.087	9792
760.197	8943
760.307	8971
760.416	8378
760.526	8074
760.635	8134
760.745	8575
760.854	9014
760.964	10603
761.073	10703
761.182	10033
761.292	9190
761.401	6898
761.511	7004
761.620	6693
761.729	6302
761.839	5835
761.948	6127
762.057	5430
762.166	5975
762.276	5966
762.385	6132
762.494	5671
762.603	6127
762.712	6455
762.822	5975
762.931	5901
763.040	5990
763.149	6889
763.258	6113
763.367	6479
763.476	6737
763.585	6129
763.694	6338
763.803	6383
763.912	6674
764.021	6713
764.130	7015
764.238	8069
764.347	8525
764.456	7662
764.565	8769
764.674	8299
764.783	9401
764.891	9066
765.000	10336
765.109	10573
765.217	11887
765.326	13978
765.435	16914
765.543	19746
765.652	23703
765.761	30943
765.869	41121
765.978	61738
766.086	99900
766.195	178480
766.303	352136
766.412	582513
766.520	558303
766.629	421551
766.737	199621
766.846	107695
766.954	69309
767.062	49284
767.171	36330
767.279	28589
767.387	22432
767.496	19184
767.604	17090
767.712	15692
767.820	13966
767.928	13515
768.037	11392
768.145	11387
768.253	11012
768.361	10641
768.469	11186
768.577	11929
768.685	11245
768.793	11353
768.901	12808
769.009	14041
769.117	14881
769.225	19946
769.333	26735
769.441	41983
769.549	72164
769.657	144636
769.765	328611
769.873	521164
769.981	403306
770.088	169802
770.196	75955
770.304	46479
770.412	34119
770.519	26123
770.627	20048
770.735	17279
770.842	15090
770.950	13993
771.058	12839
771.165	13911
771.273	13088
771.380	12782
771.488	14825
771.595	18710
771.703	15627
771.810	15162
771.918	14127
772.025	15867
772.133	18637
772.240	17952
772.348	18813
772.455	20411
772.562	16902
772.670	17031
772.777	17322
772.884	16292
772.991	15896
773.099	16222
773.206	15102
773.313	15911
773.420	16015
773.528	15767
773.635	14220
773.742	16115
773.849	14245
773.956	14704
774.063	14220
774.170	14695
774.277	14618
774.384	14474
774.491	13016
774.598	14801
774.705	13247
774.812	13908
774.919	13931
775.026	13852
775.133	12916
775.239	13408
775.346	12472
775.453	12894
775.560	13051
775.667	12935
775.773	12514
775.880	12125
775.987	13100
776.093	11348
776.200	14519
776.307	10756
776.413	10466
776.520	12968
776.627	14207
776.733	10742
776.840	9848
776.946	14371
777.053	13230
777.159	15078
777.266	12849
777.372	14173
777.478	13843
777.585	13663
777.691	9975
777.798	11202
777.904	10532
778.010	9681
778.117	10157
778.223	10246
778.329	9954
778.435	9534
778.542	10813
778.648	10122
778.754	9243
778.860	9237
778.966	10172
779.072	9326
779.178	9453
779.284	8756
779.391	9009
779.497	9502
779.603	9427
779.708	8885
779.815	9330
779.920	15964
780.026	30701
780.132	14403
780.238	10052
780.344	7490
780.450	11144
780.556	7974
780.661	6820
780.767	10255
780.873	7258
780.979	7796
781.085	8972
781.190	8736
781.296	7467
781.402	7651
781.507	8127
781.613	7168
781.719	6828
781.824	9775
781.930	7418
782.035	7642
782.141	9267
782.246	6515
782.352	6007
782.457	7985
782.563	6617
782.668	6939
782.773	6414
782.879	7066
782.984	7475
783.090	7857
783.195	6949
783.300	8942
783.405	6864
783.511	5112
783.616	5682
783.721	7019
783.826	7464
783.932	5487
784.037	7302
784.142	7056
784.247	6701
784.352	6782
784.457	5723
784.562	6079
784.667	7850
784.772	5538
784.877	4305
784.982	6304
785.087	7676
785.192	5389
785.297	5417
785.402	6383
785.507	6486
785.611	6949
785.716	4432
785.821	4825
785.926	6189
786.031	5851
786.135	6095
786.240	5607
786.345	5230
786.450	3942
786.554	4909
786.659	5492
786.763	5450
786.868	5814
786.973	5073
787.077	5405
787.182	4345
787.286	5404
787.391	6017
787.495	4964
787.600	3860
787.704	4003
787.809	5486
787.913	5396
788.017	4930
788.122	6193
788.226	4703
788.330	3873
788.435	4577
788.539	5882
788.643	4424
788.747	2935
788.852	4615
788.956	4590
789.060	4663
789.164	4007
789.268	3790
789.372	4885
789.476	4222
789.580	3655
789.684	3583
789.788	5679
789.892	4935
789.996	4098
790.100	3097
790.204	4436
790.308	6334
790.412	5233
790.516	2594
790.620	3883
790.724	5739
790.828	4923
790.931	2904
791.035	3702
791.139	3242
791.242	3730
791.346	5219
791.450	3962
791.554	4543
791.657	3380
791.761	3772
791.864	4259
791.968	4521
792.072	4631
792.175	3199
792.279	3211
792.382	3277
792.486	2603
792.589	4071
792.693	4504
792.796	2575
792.899	4047
793.003	4489
793.106	3647
793.209	3718
793.313	2931
793.416	1722
793.519	3172
793.623	3932
793.726	4490
793.829	3410
793.932	2065
794.035	1761
794.138	3200
794.242	4498
794.345	3349
794.448	2651
794.551	2902
794.654	6785
794.757	13110
794.860	6299
794.963	3357
795.066	2639
795.169	2770
795.272	3226
795.375	3814
795.477	2682
795.580	1972
795.683	1742
795.786	3328
795.889	3142
795.991	3810
796.094	3537
796.197	2905
796.300	3636
796.402	4276
796.505	2172
796.608	1606
796.710	2800
796.813	3558
796.915	3785
797.018	3781
797.120	2270
797.223	2362
797.326	3822
797.428	2801
797.530	1926
797.633	2051
797.735	3453
797.838	3384
797.940	3967
798.042	3434
798.145	2313
798.247	2184
798.349	1814
798.452	3289
798.554	3031
798.656	3681
798.758	4524
798.860	2410
798.962	3279
799.065	1750
799.167	1640
799.269	2703
799.371	3075
799.473	4351
799.575	4102
799.677	2647
799.779	3241
799.881	2057
799.983	3317
800.085	2692
800.187	2297
800.289	2857
800.390	1886
800.492	3029
800.594	3105
800.696	2752
800.798	1724
800.899	2381
801.001	2214
801.103	3393
801.205	2207
801.306	2748
801.408	2025
801.509	2600
801.611	2206
801.713	2507
801.814	1836
801.916	1260
802.017	1097
802.119	1145
802.220	2119
802.322	1389
802.423	2657
802.525	2276
802.626	1527
802.727	2786
802.829	2671
802.930	398
803.031	1946
803.133	2400
803.234	1603
803.335	2029
803.436	1745
803.538	1978
803.639	799
803.740	2849
803.841	2057
803.942	2420
804.043	2237
804.144	1940
804.245	1915
804.346	1461
804.447	1970
804.548	1948
804.649	2131
804.750	1703
804.851	1387
804.952	1379
805.053	2256
805.154	1411
805.255	1891
805.355	1615
805.456	1208
805.557	1023
805.658	994
805.758	1935
805.859	1611
805.960	2090
806.061	1748
806.161	1187
806.262	1545
806.362	1239
806.463	1598
806.564	2774
806.664	1799
806.765	1335
806.865	779
806.966	1109
807.066	1272
807.166	1958
807.267	2000
807.367	1230
807.468	1189
807.568	847
807.668	1862
807.769	2306
807.869	1730
807.969	1233
808.069	1805
808.170	2144
808.270	2304
808.370	1208
808.470	2046
808.570	1085
808.670	1906
808.770	2449
808.870	1061
808.970	1923
809.070	1650
809.170	1288
809.271	1344
809.370	1749
809.470	1764
809.570	708
809.670	698
809.770	791
809.870	1597
809.970	1639
810.070	980
810.169	1255
810.269	-366
810.369	2128
810.469	1200
810.568	931
810.668	1435
810.768	1311
810.867	1685
810.967	1809
811.066	937
811.166	1679
811.265	2408
811.365	1435
811.464	1598
811.564	1127
811.663	2541
811.763	1206
811.862	1280
811.962	1349
812.061	632
812.160	921
812.260	1264
812.359	1326
812.458	812
812.557	1964
812.657	1100
812.756	1671
812.855	1402
812.954	1273
813.053	1355
813.153	1588
813.252	757
813.351	1630
813.450	2030
813.549	1066
813.648	1460
813.747	507
813.846	1727
813.945	1866
814.044	1820
814.143	1598
814.242	1961
814.341	1901
814.439	1588
814.538	2238
814.637	2080
814.736	2128
814.835	2999
814.933	2529
815.032	2669
815.131	4353
815.229	7511
815.328	13724
815.427	11053
815.525	8411
815.624	8145
815.722	8029
815.821	8321
815.919	9685
816.018	8296
816.116	8444
816.215	7966
816.313	8943
816.412	9712
816.510	11705
816.609	10963
816.707	12593
816.805	12330
816.904	11460
817.002	11724
817.100	12283
817.198	11464
817.296	11470
817.395	10931
817.493	10093
817.591	9049
817.689	10054
817.787	9658
817.885	10418
817.983	8361
818.081	10598
818.179	10172
818.277	14935
818.375	15326
818.473	11071
818.571	9381
818.669	9251
818.767	11421
818.865	10173
818.963	8338
819.061	8735
819.158	8984
819.256	11991
819.354	11373
819.452	18354
819.549	17317
819.647	12089
819.745	8874
819.842	7969
819.940	9620
820.038	8033
820.135	7712
820.233	8312
820.330	8277
820.428	7928
820.525	9813
820.623	8165
820.720	6667
820.818	8545
820.915	8439
821.012	7866
821.110	6640
821.207	8258
821.304	7174
821.402	8127
821.499	9191
821.596	7554
821.693	7307
821.791	8728
821.888	7151
821.985	7814
822.082	7236
822.179	6675
822.276	8486
822.373	6678
822.470	5919
822.567	7810
822.664	6964
822.761	5826
822.858	6376
822.955	7802
823.052	5661
823.149	6103
823.246	7632
823.343	5387
823.440	5761
823.536	6279
823.633	6942
823.730	6188
823.827	6117
823.923	7055
824.020	5886
824.117	5909
824.213	7601
824.310	5868
824.407	4553
824.503	6484
824.600	7111
824.696	4658
824.793	6903
824.889	6277
824.986	6047
825.082	4348
825.179	4394
825.275	5693
825.371	7161
825.468	6284
825.564	2641
825.660	5385
825.757	7468
825.853	6069
825.949	4577
826.045	4851
826.142	4471
826.238	6130
826.334	5503
826.430	5438
826.526	3851
826.622	3361
826.718	5068
826.814	6647
826.910	6472
827.006	3422
827.102	3210
827.198	4955
827.294	5994
827.390	5664
827.486	4574
827.582	2678
827.678	3151
827.774	5548
827.869	3867
827.965	4318
828.061	2139
828.157	5105
828.252	5855
828.348	5549
828.444	4655
828.539	3023
828.635	4438
828.731	4510
828.826	3381
828.922	4908
829.017	5178
829.113	5614
829.208	3044
829.304	3411
829.399	5239
829.495	5384
829.590	4344
829.685	4794
829.781	5660
829.876	5822
829.971	2538
830.066	2309
830.162	3146
830.257	6302
830.352	4464
830.447	3808
830.543	3115
830.638	2924
830.733	5464
830.828	4115
830.923	4555
831.018	4438
831.113	4709
831.208	4145
831.303	1963
831.398	3047
831.493	2176
831.588	6092
831.683	5060
831.778	1993
831.873	2163
831.967	4496
832.062	4343
832.157	3557
832.252	3775
832.346	2800
832.441	3730
832.536	4318
832.631	4036
832.725	2748
832.820	3097
832.914	3880
833.009	2740
833.104	2394
833.198	2825
833.293	3276
833.387	3998
833.482	3650
833.576	3764
833.670	4197
833.765	3076
833.859	3963
833.954	4032
834.048	3140
834.142	3817
834.237	1908
834.331	2072
834.425	3247
834.519	3144
834.613	2445
834.708	2709
834.802	2104
834.896	2630
834.990	3644
835.084	2925
835.178	2333
835.272	2684
835.366	4478
835.460	4467
835.554	3299
835.648	1235
835.742	1667
835.836	1425
835.930	1871
836.024	3552
836.117	3156
836.211	3091
836.305	1898
836.399	2253
836.493	1532
836.586	2657
836.680	2299
836.774	2423
836.867	2256
836.961	804
837.055	2369
837.148	2068
837.242	2415
837.335	1935
837.429	3085
837.522	1447
837.616	2169
837.709	806
837.803	1790
837.896	2493
837.989	3232
838.083	2714
838.176	1085
838.269	1089
838.363	2906
838.456	1588
838.549	2347
838.642	2232
838.735	1220
838.829	2178
838.922	1495
839.015	1690
839.108	1474
839.201	1411
839.294	2073
839.387	1299
839.480	963
839.573	1735
839.666	1930
839.759	918
839.852	1443
839.945	1835
840.038	1340
840.131	993
840.223	1712
840.316	1684
840.409	2164
840.502	1994
840.594	3004
840.687	285
840.780	930
840.873	354
840.965	1639
841.058	1373
841.150	2306
841.243	1535
841.336	2065
841.428	1818
841.521	1404
841.613	729
841.706	2329
841.798	856
841.890	1340
841.983	896
842.075	1244
842.167	1025
842.260	1205
842.352	1689
842.444	2097
842.537	1603
842.629	978
842.721	522
842.813	894
842.905	1207
842.997	1224
843.090	1594
843.182	2166
843.274	571
843.366	1036
843.458	1965
843.550	2409
843.642	1807
843.734	2369
843.826	1157
843.918	1615
844.009	1206
844.101	1306
844.193	1380
844.285	1187
844.377	1486
844.469	1440
844.560	859
844.652	1369
844.744	1050
844.835	1441
844.927	758
845.019	1510
845.110	593
845.202	1501
845.293	1472
845.385	466
845.476	1408
845.568	2004
845.659	1102
845.751	746
845.842	489
845.934	878
846.025	824
846.116	863
846.208	712
846.299	643
846.390	141
846.482	714
846.573	721
846.664	1943
846.755	507
846.846	2246
846.937	-320
847.029	470
847.120	675
847.211	-59
847.302	1195
847.393	509
847.484	1494
847.575	-586
847.666	139
847.757	284
847.847	1464
847.938	1842
848.029	1181
848.120	1294
848.211	277
848.302	415
848.392	751
848.483	396
848.574	487
848.664	1016
848.755	748
848.846	1519
848.936	542
849.027	1429
849.118	974
849.208	1469
849.299	2550
849.389	5046
849.480	8682
849.570	17465
849.661	28957
849.751	58142
849.841	38319
849.932	6633
850.022	1820
850.112	1824
850.203	1852
850.293	980
850.383	484
850.474	747
850.564	439
850.654	1483
850.744	-53
850.834	658
850.924	1013
851.014	1559
851.104	1216
851.194	985
851.284	398
851.374	120
851.464	420
851.554	859
851.644	458
851.734	916
851.824	533
851.914	820
852.004	1301
852.094	627
852.183	-588
852.273	1578
852.363	429
852.452	1173
852.542	1016
852.632	427
852.721	423
852.811	345
852.901	1487
852.990	1546
853.080	1163
853.169	1612
853.259	2242
853.348	1716
853.438	2132
853.527	3659
853.617	5189
853.706	10048
853.795	17725
853.885	36920
853.974	68270
854.063	108690
854.152	187225
854.242	124703
854.331	34205
854.420	11195
854.509	7719
854.598	5396
854.687	4103
854.777	3585
854.866	1975
854.955	2311
855.044	1447
855.133	931
855.222	755
855.311	1151
855.400	1477
855.488	537
855.577	196
855.666	1050
855.755	409
855.844	529
855.933	309
856.021	1383
856.110	790
856.199	139
856.288	828
856.376	1042
856.465	-531
856.554	1309
856.642	503
856.731	1746
856.819	1090
856.908	956
856.996	953
857.085	100
857.173	-45
857.262	142
857.350	-93
857.438	822
857.527	990
857.615	743
857.703	523
857.792	297
857.880	-136
857.968	330
858.056	424
858.145	534
858.233	688
858.321	1110
858.409	1149
858.497	1339
858.585	246
858.673	525
858.761	-130
858.849	709
858.937	-256
859.025	1172
859.113	500
859.201	353
859.289	1306
859.377	1397
859.465	751
859.552	334
859.640	108
859.728	51
859.816	-350
859.903	1029
859.991	316
860.079	1222
860.166	889
860.254	230
860.342	546
860.429	523
860.517	223
860.604	568
860.692	12
860.779	-43
860.867	332
860.954	140
861.042	794
861.129	1479
861.216	1225
861.304	1071
861.391	805
861.478	252
861.565	1156
861.653	998
861.740	149
861.827	563
861.914	388
862.001	558
862.089	483
862.176	832
862.263	-15
862.350	1438
862.437	16
862.524	692
862.611	4
862.698	1130
862.785	1411
862.871	1634
862.958	974
863.045	1001
863.132	1578
863.219	833
863.306	-3
863.392	885
863.479	188
863.566	489
863.652	1048
863.739	1079
863.826	889
863.912	1889
863.999	645
864.086	1710
864.172	1300
864.259	2291
864.345	2441
864.432	1897
864.518	1831
864.604	1606
864.691	540
864.777	2960
864.863	2209
864.950	4904
865.036	5943
865.122	11185
865.209	13811
865.295	12171
865.381	11310
865.467	11356
865.553	11390
865.639	14199
865.726	18277
865.812	27163
865.898	43859
865.984	65051
866.070	94920
866.156	137180
866.242	70152
866.328	24227
866.414	13489
866.499	11737
866.585	10640
866.671	10415
866.757	8650
866.843	9586
866.928	9252
867.014	8588
867.100	9846
867.186	8900
867.271	8682
867.357	8831
867.442	7914
867.528	7945
867.614	8088
867.699	8487
867.785	9049
867.870	8344
867.956	8800
868.041	9413
868.127	7234
868.212	8599
868.297	7046
868.383	8057
868.468	7806
868.553	9402
868.639	7962
868.724	6546
868.809	7270
868.894	7760
868.979	7239
869.065	7540
869.150	6291
869.235	6507
869.320	7153
869.405	6837
869.490	6118
869.575	7821
869.660	5921
869.745	6698
869.830	7928
869.915	6026
870.000	6251
870.085	6941
870.169	7146
870.254	8425
870.339	6274
870.424	4854
870.509	6576
870.593	7450
870.678	7069
870.763	6460
870.847	5196
870.932	6248
871.016	8100
871.101	5754
871.186	4692
871.270	7882
871.355	5790
871.439	5464
871.523	5921
871.608	6778
871.692	4764
871.777	5527
871.861	6402
871.945	6239
872.030	6291
872.114	5528
872.198	5272
872.282	4802
872.367	4828
872.451	5150
872.535	4766
872.619	5560
872.703	5087
872.787	6561
872.871	6191
872.955	5102
873.039	3781
873.123	4246
873.207	7073
873.291	4222
873.375	3638
873.459	6024
873.543	5159
873.627	4960
873.711	4083
873.794	5253
873.878	5255
873.962	5476
874.045	4572
874.129	4543
874.137	4538
874.213	4493
874.245	4589
874.296	4749
874.352	4226
874.380	3966
874.460	5082
874.464	5129
874.547	4566
874.568	4834
874.631	5616
874.676	5073
874.714	4624
874.784	5414
874.798	5567
874.881	5375
874.892	5076
874.965	3013
874.999	3642
875.048	4525
875.107	5133
875.131	5357
875.215	3523
875.215	3522
875.298	2233
875.323	2631
875.381	3634
875.430	4833
875.465	5618
875.538	5670
875.548	5669
875.631	4206
875.646	3957
875.714	2762
875.753	3136
875.798	3715
875.861	4358
875.881	4501
875.964	4927
875.968	4853
876.047	3561
876.076	3622
876.130	3830
876.183	3932
876.213	3986
876.291	5606
876.296	5703
876.379	3882
876.398	3816
876.462	3565
876.506	3086
876.545	2713
876.613	2938
876.628	3038
876.711	4061
876.721	4164
876.794	4820
876.828	4650
876.877	4236
876.935	3575
876.960	3324
877.043	3032
877.043	3034
877.125	3928
877.150	4230
877.208	4722
877.258	4666
877.291	4490
877.365	3417
877.374	3325
877.456	3280
877.472	3223
877.539	2945
877.579	3204
877.622	3679
877.687	4532
877.704	4655
877.787	3831
877.794	3836
877.869	4104
877.901	4110
877.952	3919
878.008	3119
878.034	2760
878.115	2611
878.117	2618
878.199	2493
878.222	2847
878.282	3935
878.329	4703
878.364	5130
878.437	4932
878.447	4822
878.529	3197
878.544	3139
878.611	3289
878.651	3189
878.694	3395
878.758	4350
878.776	4477
878.858	3968
878.865	3993
878.941	4165
878.972	3679
879.023	2944
879.078	2923
879.105	3135
879.185	4125
879.187	4141
879.269	4383
879.292	4514
879.351	4656
879.399	3887
879.433	3352
879.506	3356
879.516	3371
879.598	3860
879.613	3898
879.680	4068
879.720	4270
879.762	4703
879.827	4673
879.844	4523
879.926	3596
879.933	3591
880.007	3967
880.040	4098
880.089	4168
880.147	4113
880.171	4398
880.253	7325
880.254	7333
880.335	8661
880.360	9122
880.417	12084
880.467	15368
880.499	18902
880.574	29642
880.580	29576
880.662	18417
880.680	16096
880.744	8382
880.787	4563
880.825	3583
880.893	3831
880.907	3958
880.989	3464
881.000	3529
881.070	3981
881.106	4053
881.152	4109
881.213	3628
881.233	3433
881.315	3314
881.319	3317
881.396	3903
881.426	3739
881.478	3296
881.532	4040
881.559	4618
881.639	4434
881.641	4404
881.722	3801
881.745	3495
881.803	3457
881.852	3634
881.885	3631
881.958	3659
881.966	3681
882.047	3317
882.064	3425
882.129	3863
882.171	3417
882.210	2641
882.277	2336
882.291	2435
882.372	3023
882.383	3096
882.454	4658
882.489	5266
882.535	5040
882.596	4696
882.616	4747
882.697	4979
882.702	4959
882.778	4065
882.808	3768
882.859	3273
882.914	2912
882.940	2943
883.020	2838
883.021	2849
883.102	3639
883.127	3965
883.183	4737
883.233	5226
883.264	4902
883.339	3494
883.345	3378
883.426	1943
883.445	1713
883.507	2201
883.551	2588
883.587	3261
883.657	4432
883.668	4541
883.749	5152
883.763	5165
883.830	3999
883.869	3531
883.910	3150
883.975	2650
883.991	2759
884.072	3383
884.081	3399
884.152	4220
884.187	4740
884.233	5599
884.292	6668
884.314	6265
884.394	3843
884.398	3732
884.475	1968
884.504	1503
884.555	2121
884.610	2468
884.636	2555
884.716	2964
884.716	2981
884.797	5008
884.821	5475
884.877	5262
884.927	4953
884.958	4530
885.033	3273
885.038	3212
885.118	2578
885.139	2376
885.199	2208
885.244	2156
885.279	2675
885.350	3948
885.359	4162
885.439	5743
885.456	5930
885.520	5273
885.561	5022
885.600	4296
885.667	3041
885.680	3117
885.760	3636
885.773	3672
885.840	3161
885.878	3055
885.920	3036
885.984	2855
886.000	2986
886.080	3427
886.089	3503
886.160	3753
886.195	3741
886.240	4148
886.300	4592
886.320	4370
886.400	3834
886.406	3769
886.480	3775
886.511	3736
886.560	3396
886.616	3045
886.640	3090
886.720	3460
886.722	3455
886.800	2941
886.827	2805
886.879	3162
886.932	3606
886.959	4016
887.038	4999
887.039	5004
887.119	4494
887.143	4342
887.198	4492
887.248	4561
887.278	4487
887.354	4470
887.358	4468
887.437	3910
887.459	3847
887.517	4451
887.564	4747
887.596	4377
887.669	3462
887.676	3373
887.755	2333
887.774	2048
887.835	2024
887.880	2136
887.914	2684
887.985	3585
887.994	3712
888.073	4810
888.090	5048
888.153	6231
888.195	6883
888.232	6250
888.300	5126
888.311	4950
888.391	3571
888.405	3322
888.470	3337
888.510	3248
888.549	3077
888.615	3036
888.628	3229
888.708	4144
888.720	4289
888.787	5158
888.825	5571
888.866	4465
888.930	2754
888.945	2860
889.024	3486
889.035	3554
889.103	4408
889.140	4826
889.182	4632
889.245	4360
889.261	4331
889.340	4136
889.349	4106
889.419	4573
889.454	4779
889.498	4545
889.559	4215
889.577	4256
889.656	4401
889.664	4407
889.735	4687
889.768	4802
889.814	4437
889.873	3926
889.978	3868
890.083	3573
890.187	3970
890.292	5321
890.397	4122
890.501	3936
890.606	3432
890.710	3791
890.815	6181
890.919	5099
891.024	4407
891.128	3563
891.233	2118
891.337	3713
891.442	4966
891.546	4673
891.650	3371
891.755	2683
891.859	3660
891.963	5080
892.068	4985
892.172	3734
892.276	2876
892.380	3242
892.484	5577
892.589	5972
892.693	5262
892.797	3369
892.901	1936
893.005	2768
893.109	5414
893.213	5764
893.317	4657
893.421	2197
893.525	2268
893.629	2579
893.733	3690
893.837	4174
893.941	3495
894.045	3070
894.148	1762
894.252	2962
894.356	4177
894.460	6133
894.564	3397
894.667	4178
894.771	2098
894.875	1963
894.978	2589
895.082	3379
895.186	3957
895.289	4113
895.393	2620
895.496	4685
895.600	4096
895.703	2778
895.807	2915
895.910	3355
896.014	3624
896.117	2695
896.221	3653
896.324	3695
896.427	2579
896.531	2888
896.634	3064
896.737	4114
896.840	3890
896.944	5302
897.047	4686
897.150	4025
897.253	3128
897.356	2116
897.460	2021
897.563	2221
897.666	4112
897.769	4935
897.872	3072
897.975	2041
898.078	2175
898.181	2184
898.284	1915
898.387	3697
898.490	4945
898.593	3302
898.695	2465
898.798	2996
898.901	3534
899.004	2846
899.107	3267
899.209	2523
899.312	4937
899.415	3964
899.518	2625
899.620	1809
899.723	2457
899.826	3436
899.928	3043
900.031	2481
900.133	4198
900.236	3214
900.338	2517
900.441	2587
900.543	1733
900.646	3817
900.748	3038
900.851	3796
900.953	2727
901.055	2096
901.158	2643
901.260	2626
901.362	1280
901.465	2438
901.567	3722
901.669	4070
901.771	2749
901.873	2869
901.976	2712
902.078	3608
902.180	2359
902.282	1843
902.384	2447
902.486	4370
902.588	3779
902.690	2594
902.792	1908
902.894	2749
902.996	3356
903.098	3872
903.200	2427
903.302	2201
903.404	2272
903.505	2382
903.607	2451
903.709	3838
903.811	4733
903.913	3129
904.014	2900
904.116	1970
904.218	2177
904.319	2278
904.421	4565
904.523	5342
904.624	2290
904.726	2216
904.827	1501
904.929	2326
905.030	2257
905.132	4339
905.233	4299
905.335	2259
905.436	1931
905.537	2242
905.639	1979
905.740	3058
905.841	3815
905.943	3607
906.044	2860
906.145	2999
906.247	931
906.348	2212
906.449	3653
906.550	3847
906.651	2908
906.752	2024
906.854	2197
906.955	2518
907.056	2088
907.157	3225
907.258	4298
907.359	2043
907.460	2130
907.561	2345
907.662	1173
907.762	3102
907.863	2609
907.964	3976
908.065	2844
908.166	2587
908.267	1435
908.367	2499
908.468	2073
908.569	2595
908.670	3975
908.770	3325
908.871	2417
908.971	2578
909.072	3287
909.173	2089
909.273	2637
909.374	3105
909.474	3853
909.575	2236
909.675	2712
909.776	3410
909.876	3383
909.977	2511
910.077	2761
910.177	3186
910.278	2835
910.378	2245
910.478	2842
910.579	2772
910.679	3583
910.779	3247
910.879	4171
910.980	2659
911.080	3113
911.180	2724
911.280	1733
911.380	1527
911.480	1976
911.580	2371
911.680	2879
911.780	2638
911.880	4716
911.980	2932
912.080	2600
912.180	3032
912.280	2322
912.380	3082
912.480	1893
912.580	1593
912.679	1749
912.779	3656
912.879	3669
912.979	3176
913.078	2334
913.178	1675
913.278	1321
913.377	2966
913.477	1273
913.577	2077
913.676	3909
913.776	3821
913.875	2983
913.975	2387
914.074	3442
914.174	3480
914.273	2207
914.373	3361
914.472	1985
914.572	2007
914.671	2066
914.770	2840
914.870	2640
914.969	2338
915.068	2953
915.167	3500
915.267	2307
915.366	3499
915.465	2458
915.564	2631
915.663	2877
915.763	3277
915.862	2952
915.961	3827
916.060	2057
916.159	2293
916.258	2106
916.357	2956
916.456	2447
916.555	2986
916.654	2830
916.752	3555
916.851	3408
916.950	2468
917.049	2460
917.148	3155
917.247	2316
917.345	2827
917.444	1746
917.543	2657
917.642	2457
917.740	2879
917.839	4319
917.937	4990
918.036	4996
918.135	2803
918.233	1739
918.332	3230
918.430	2714
918.529	1998
918.627	1987
918.726	4131
918.824	3135
918.923	2971
919.021	2479
919.119	2763
919.218	1850
919.316	2910
919.414	3449
919.512	3432
919.611	3976
919.709	3234
919.807	3571
919.905	5190
920.003	3641
920.102	4342
920.200	4184
920.298	4847
920.396	5260
920.494	4349
920.592	3638
920.690	4354
920.788	3648
920.886	4622
920.984	5472
921.082	5007
921.180	5877
921.277	4755
921.375	6052
921.473	7970
921.571	8507
921.669	7209
921.766	7173
921.864	7438
921.962	7280
922.060	6861
922.157	7220
922.255	7924
922.352	7785
922.450	8667
922.548	7397
922.645	9262
922.743	12042
922.840	16373
922.938	21960
923.035	20537
923.133	18117
923.230	21030
923.327	24750
923.425	23634
923.522	23012
923.619	22150
923.717	19643
923.814	18702
923.911	18936
924.008	19684
924.106	18462
924.203	18141
924.300	18505
924.397	18729
924.494	17779
924.591	18204
924.688	16726
924.786	19418
924.883	18330
924.979	18025
925.077	18715
925.173	17460
925.270	17351
925.367	18475
925.464	18262
925.561	18988
925.658	19431
925.755	17263
925.852	18486
925.948	19179
926.045	17393
926.142	18334
926.239	19761
926.335	15914
926.432	17492
926.529	18086
926.625	19085
926.722	17156
926.818	14092
926.915	18790
927.011	16695
927.108	16488
927.204	17834
927.301	14997
927.397	15535
927.494	19129
927.590	15077
927.687	13102
927.783	18453
927.879	18454
927.976	16729
928.072	13479
928.168	15311
928.264	17713
928.361	15391
928.457	17716
928.553	15619
928.649	14824
928.745	16432
928.841	14197
928.937	14477
929.033	16426
929.129	14788
929.225	16909
929.321	16611
929.417	11953
929.513	15762
929.609	13990
929.705	13153
929.801	15708
929.897	13577
929.993	12904
930.089	14434
930.184	12751
930.280	12594
930.376	17223
930.471	14515
930.567	11520
930.663	13037
930.758	13578
930.854	13029
930.950	12961
931.045	12078
931.141	12307
931.236	14710
931.332	15243
931.427	10026
931.523	14074
931.618	14976
931.714	10696
931.809	11063
931.905	13709
932.000	11838
932.095	8792
932.191	13415
932.286	17415
932.381	14299
932.476	10598
932.572	11483
932.667	11207
932.762	10517
932.857	11974
932.952	14284
933.047	13347
933.142	9705
933.237	12137
933.332	13088
933.427	14178
933.522	11962
933.617	9725
933.712	11096
933.807	12929
933.902	15120
933.997	15708
934.092	11301
934.187	10878
934.282	13111
934.376	11942
934.471	14030
934.566	11030
934.661	9563
934.755	11297
934.850	12960
934.945	11842
935.039	8760
935.134	9081
935.228	8762
935.323	15382
935.417	11888
935.512	7574
935.606	7876
935.701	10976
935.795	12331
935.890	12288
935.984	10216
936.079	7821
936.173	9127
936.267	10985
936.362	8312
936.456	10208
936.550	12535
936.644	12038
936.738	8400
936.833	8406
936.927	7225
937.021	7592
937.115	10490
937.209	10976
937.303	11049
937.397	7349
937.491	8530
937.585	10945
937.679	10781
937.773	8845
937.867	8446
937.961	7013
938.055	10751
938.149	11869
938.243	7144
938.337	6578
938.430	7646
938.524	10454
938.618	9939
938.712	6955
938.805	8329
938.899	9442
938.993	12100
939.086	9239
939.180	5721
939.274	6876
939.367	8502
939.461	10980
939.554	8547
939.648	7409
939.741	7745
939.835	7946
939.928	10684
940.022	11761
940.115	8295
940.208	9906
940.302	11136
940.395	12312
940.488	8996
940.582	8779
940.675	6612
940.768	7746
940.861	9074
940.954	11994
941.048	7294
941.141	6371
941.234	6516
941.327	8239
941.420	8622
941.513	10130
941.606	7430
941.699	7672
941.792	8640
941.885	9424
941.978	8458
942.071	9635
942.164	6338
942.257	5905
942.349	7042
942.442	8168
942.535	6859
942.628	5972
942.721	7191
942.813	7013
942.906	8106
942.999	7971
943.091	6485
943.184	7060
943.277	6651
943.369	5958
943.462	4368
943.554	6925
943.647	7106
943.739	7783
943.832	10479
943.924	6483
944.017	3879
944.109	6302
944.201	5651
944.294	6074
944.386	7456
944.478	6327
944.571	6031
944.663	6555
944.755	7034
944.847	6821
944.940	7039
945.032	5443
945.124	4997
945.216	5529
945.308	6367
945.400	7060
945.492	5557
945.584	7971
945.676	8385
945.768	7420
945.860	7133
945.952	8612
946.044	8621
946.136	6036
946.228	5763
946.320	6114
946.412	5617
946.503	7351
946.595	7974
946.687	6734
946.779	4490
946.870	5451
946.962	5709
947.054	5906
947.145	6297
947.237	6289
947.329	5091
947.420	6866
947.512	6051
947.603	4751
947.695	4280
947.786	5022
947.878	4547
947.969	6670
948.061	6230
948.152	6968
948.243	5184
948.335	3914
948.426	4188
948.517	5523
948.609	6775
948.700	6140
948.791	5932
948.882	4894
948.973	3994
949.065	5583
949.156	5681
949.247	4759
949.338	4150
949.429	3964
949.520	3559
949.611	5351
949.702	6647
949.793	4690
949.884	4795
949.975	5495
950.066	3635
950.157	3832
950.247	4739
950.338	3761
950.429	4539
950.520	5578
950.611	4150
950.701	4141
950.792	7018
950.883	7004
950.973	5175
951.064	5474
951.155	5642
951.245	6592
951.336	6096
951.427	6272
951.517	7021
951.608	6848
951.698	5240
951.788	4430
951.879	3731
951.969	4341
952.060	3772
952.150	5342
952.240	6483
952.331	5907
952.421	5700
952.511	3948
952.602	3302
952.692	3499
952.782	3637
952.872	3433
952.962	4757
953.052	4969
953.143	4381
953.233	4294
953.323	4349
953.413	4815
953.503	5482
953.593	4771
953.683	5531
953.773	3784
953.863	3290
953.953	4058
954.042	4167
954.132	5242
954.222	5357
954.312	3884
954.402	3577
954.492	3514
954.581	4386
954.671	4836
954.761	3926
954.850	5210
954.940	2641
955.030	2977
955.119	3061
955.209	3568
955.298	3989
955.388	4641
955.477	5303
955.567	3191
955.656	2813
955.746	3659
955.835	3802
955.925	2884
956.014	3646
956.103	4997
956.193	5798
956.282	5292
956.371	4008
956.461	3810
956.550	4313
956.639	3428
956.728	3499
956.817	3771
956.906	3762
956.995	5108
957.085	4646
957.174	4110
957.263	3101
957.352	3199
957.441	4078
957.530	4153
957.619	3197
957.708	3087
957.796	3462
957.885	3962
957.974	3414
958.063	3800
958.152	2867
958.241	2949
958.329	2548
958.418	3099
958.507	3132
958.596	5079
958.684	3332
958.773	3723
958.861	3445
958.950	1938
959.039	3074
959.127	4093
959.216	3414
959.304	3744
959.393	2841
959.481	3967
959.570	3063
959.658	3624
959.746	2342
959.835	3906
959.923	3630
960.011	3187
960.100	3186
960.188	4768
960.276	4005
960.365	2311
960.453	2862
960.541	2538
960.629	2082
960.717	2364
960.805	2199
960.893	2923
960.981	2766
961.069	4115
961.158	4701
961.245	5847
961.333	5883
961.421	4266
961.509	3550
961.597	3846
961.685	3276
961.773	3526
961.861	3879
961.949	4818
962.036	3375
962.124	3033
962.212	2245
962.299	2848
962.387	2507
962.475	3482
962.562	2368
962.650	3615
962.738	2960
962.825	1716
962.913	3187
963.000	2201
963.088	3121
963.175	3734
963.263	2953
963.350	2594
963.438	2916
963.525	2350
963.612	2775
963.700	3031
963.787	3474
963.874	3431
963.962	2510
964.049	1939
964.136	2988
964.223	2698
964.310	2169
964.398	2670
964.485	1589
964.572	2573
964.659	3527
964.746	2625
964.833	1383
964.920	2942
965.007	3080
965.094	2254
965.181	2803
965.268	3708
965.355	3243
965.441	2942
965.528	2902
965.615	2832
965.702	2663
965.789	2811
965.875	3066
965.962	3354
966.049	3078
966.136	3951
966.222	4419
966.309	4423
966.395	4026
966.482	4443
966.569	3952
966.655	3803
966.742	3265
966.828	2682
966.915	3188
967.001	3114
967.087	1482
967.174	1535
967.260	2296
967.347	3124
967.433	3033
967.519	4136
967.605	3920
967.692	3064
967.778	2903
967.864	2190
967.950	1924
968.036	2782
968.123	2712
968.209	3170
968.295	1710
968.381	3795
968.467	1896
968.553	2066
968.639	3015
968.725	3593
968.811	4374
968.897	5076
968.983	3115
969.069	3352
969.154	1835
969.240	2007
969.326	1269
969.412	2033
969.497	2195
969.583	2214
969.669	2216
969.755	3923
969.840	3543
969.926	4566
970.012	6125
970.097	8255
970.183	7719
970.268	5310
970.354	3391
970.439	2991
970.525	3215
970.610	3116
970.696	3605
970.781	3358
970.866	1623
970.952	2973
971.037	1580
971.122	2801
971.208	3504
971.293	2367
971.378	2049
971.463	2904
971.549	2772
971.634	2015
971.719	2376
971.804	2487
971.889	2987
971.974	2117
972.059	2560
972.144	2860
972.229	2627
972.314	2417
972.399	1376
972.484	2036
972.569	1995
972.654	1764
972.739	1802
972.824	2417
972.908	2665
972.993	1735
973.078	1878
973.163	2466
973.247	2545
973.332	2373
973.417	2994
973.501	2991
973.586	2897
973.671	3100
973.755	2261
973.840	2930
973.924	3614
974.009	4060
974.093	5115
974.178	4810
974.262	3359
974.346	2912
974.431	3217
974.515	3813
974.600	2867
974.684	2593
974.768	2814
974.852	3220
974.937	2086
975.021	3426
975.105	1995
975.189	2716
975.273	3295
975.358	2411
975.442	1933
975.526	2703
975.610	2853
975.694	2506
975.778	2231
975.862	2176
975.946	1430
976.030	3585
976.114	2090
976.198	2134
976.281	2250
976.365	3293
976.449	2104
976.533	2437
976.617	1528
976.700	1364
976.784	1514
976.868	1687
976.951	1956
977.035	2735
977.119	1284
977.202	2801
977.286	2712
977.369	2925
977.453	5377
977.536	5378
977.620	3957
977.703	4402
977.787	3131
977.870	4383
977.953	4227
978.037	2767
978.120	3110
978.203	2772
978.287	3287
978.370	4088
978.453	2686
978.536	1963
978.620	2806
978.703	3996
978.786	2797
978.869	2438
978.952	1742
979.035	3158
979.118	3126
979.201	2526
979.284	2497
979.367	2545
979.450	3391
979.533	2660
979.616	2396
979.699	1955
979.782	3060
979.865	2435
979.948	2642
980.030	2142
980.113	2965
980.196	2419
980.279	2867
980.361	1929
980.444	2703
980.526	3205
980.609	3903
980.692	6097
980.774	6689
980.857	3954
980.939	4313
981.022	2999
981.104	4076
981.187	3406
981.269	4036
981.352	3238
981.434	2532
981.516	2063
981.599	3435
981.681	3096
981.763	2748
981.846	3047
981.928	2923
982.010	3490
982.092	3120
982.174	3857
982.256	3383
982.339	2787
982.421	2995
982.503	3275
982.585	2405
982.667	2564
982.749	2885
982.831	3683
982.913	2645
982.995	3546
983.077	2388
983.158	4579
983.240	3441
983.322	5386
983.404	5576
983.486	6059
983.568	5326
983.649	5171
983.731	4078
983.813	3419
983.894	4282
983.976	3307
984.058	3762
984.139	3752
984.221	3497
984.302	4643
984.384	3903
984.465	3950
984.547	4151
984.628	3663
984.710	3804
984.791	3976
984.872	4764
984.954	4065
985.035	3494
985.116	4143
985.198	3460
985.279	4339
985.360	4621
985.441	3612
985.522	3484
985.604	3970
985.685	2986
985.766	4276
985.847	5162
985.928	3751
986.009	3445
986.090	4044
986.171	4012
986.252	4364
986.333	3971
986.414	3813
986.495	3781
986.576	4748
986.656	5012
986.737	4368
986.818	5209
986.899	5126
986.980	4520
987.060	4748
987.141	4481
987.222	5373
987.302	4988
987.383	7110
987.464	5621
987.544	6691
987.625	5445
987.705	6176
987.786	5704
987.866	6313
987.947	4860
988.027	6432
988.108	5384
988.188	5592
988.268	5400
988.349	5464
988.429	5554
988.509	5812
988.589	4018
988.670	4991
988.750	5633
988.830	4772
988.910	5372
988.990	5076
989.070	4847
989.151	3788
989.231	4291
989.311	4622
989.391	4764
989.471	4408
989.551	4002
989.631	3759
989.711	4481
989.791	5063
989.870	4482
989.950	4403
990.030	4699
990.110	4779
990.190	2985
990.269	2771
990.349	3337
990.429	4622
990.509	3410
990.588	3089
990.668	3844
990.747	3982
990.827	4090
990.907	4071
990.986	4140
991.066	4054
991.145	3025
991.225	4066
991.304	4059
991.383	4166
991.463	3352
991.542	4114
991.622	3110
991.701	2785
991.780	2523
991.859	3558
991.939	2593
992.018	2821
992.097	2961
992.176	3598
992.256	2354
992.335	2993
992.414	3935
992.493	3575
992.572	2102
992.651	2922
992.730	3913
992.809	3477
992.888	3105
992.967	3561
993.046	3196
993.125	2672
993.203	3201
993.282	2854
993.361	2619
993.440	3538
993.519	2214
993.597	2689
993.676	2327
993.755	3391
993.834	2886
993.912	1798
993.991	3314
994.069	2281
994.148	3554
994.226	2814
994.305	2518
994.384	3030
994.462	2915
994.540	1798
994.619	1606
994.697	2191
994.776	2800
994.854	2702
994.932	1623
995.011	2445
995.089	2650
995.167	1990
995.245	2101
995.324	1809
995.402	2524
995.480	2960
995.558	1690
995.636	1724
995.714	1362
995.792	2708
995.870	2705
995.948	1317
996.026	1254
996.104	1441
996.182	2936
996.260	1613
996.338	1785
996.416	1379
996.494	2119
996.572	3025
996.649	2039
996.727	1650
996.805	1797
996.883	2122
996.960	1383
997.038	2346
997.116	1415
997.193	1550
997.271	2212
997.348	1249
997.426	651
997.504	1291
997.581	1938
997.658	2516
997.736	787
997.813	941
997.891	1700
997.968	1628
998.046	1613
998.123	1366
998.200	2011
998.277	1517
998.355	2191
998.432	326
998.509	975
998.586	1024
998.663	2188
998.741	1922
998.818	1252
998.895	526
998.972	1639
999.049	1641
999.126	724
999.203	1688
999.280	238
999.357	628
999.434	1175
999.511	520
999.587	597
999.664	1320
999.741	573
999.818	1721
999.895	1200
999.971	1241
1000.048	1374
1000.125	1500
1000.202	739
1000.278	1062
1000.355	739
1000.431	956
1000.508	-65
1000.584	697
1000.661	472
1000.738	1196
1000.814	643
1000.890	1462
1000.967	842
1001.043	1171
1001.120	428
1001.196	373
1001.272	804
1001.349	538
1001.425	1066
1001.501	987
1001.577	1327
1001.654	1007
1001.730	206
1001.806	199
1001.882	-73
1001.958	573
1002.034	436
1002.110	1050
1002.186	-78
1002.262	599
1002.338	-99
1002.414	886
1002.490	483
1002.566	533
1002.642	-171
1002.718	1119
1002.794	83
1002.870	1116
1002.945	686
1003.021	357
1003.097	-672
1003.173	818
1003.248	484
1003.324	418
1003.400	1104
1003.475	-149
1003.551	-183
1003.626	-8
1003.702	-182
1003.777	120
1003.853	-288
1003.928	-658
1004.004	-510
1004.079	781
1004.155	147
1004.230	-169
1004.305	378
1004.381	87
1004.456	-231
1004.531	-422
1004.607	322
1004.682	89
1004.757	-471
1004.832	-15
1004.907	-366
1004.982	1285
1005.057	161
1005.133	770
1005.208	138
1005.283	243
1005.358	56
1005.433	452
1005.508	-261
1005.583	-107
1005.657	-351
1005.732	88
1005.807	-236
1005.882	308
1005.957	36
1006.032	-425
1006.106	-23
1006.181	71
1006.256	642
1006.331	411
1006.405	-662
1006.480	208
1006.554	-780
1006.629	37
1006.704	-117
1006.778	-361
1006.853	-156
1006.927	9
1007.002	7
1007.076	-119
1007.150	-719
1007.225	-556
1007.299	-450
1007.373	-540
1007.448	-450
1007.522	1016
1007.596	27
1007.671	-802
1007.745	678
1007.819	-668
1007.893	-234
1007.967	-135
1008.041	-868
1008.115	65
1008.190	-1104
1008.264	-130
1008.338	-1546
1008.412	-212
1008.486	-642
1008.560	-503
1008.633	-755
1008.707	-88
1008.781	651
1008.855	174
1008.929	-306
1009.003	-226
1009.076	-1011
1009.150	-351
1009.224	-538
1009.298	473
1009.371	-341
1009.445	322
1009.519	-651
1009.592	-1228
1009.666	-473
1009.739	354
1009.813	-742
1009.886	-161
1009.960	-1444
1010.033	-595
1010.107	-1117
1010.180	-916
1010.253	-750
1010.327	-1
1010.400	-635
1010.473	-696
1010.547	-347
1010.620	-428
1010.693	-314
1010.766	-468
1010.840	-199
1010.913	155
1010.986	-1003
1011.059	-501
1011.132	-1051
1011.205	-338
1011.278	-1076
1011.351	-368
1011.424	-917
1011.497	-385
1011.570	-1237
1011.643	-830
1011.716	-1219
1011.789	-261
1011.862	-694
1011.934	145
1012.007	-1912
1012.080	-377
1012.153	-879
1012.225	142
1012.298	-1041
1012.371	-540
1012.443	78
1012.516	-1046
1012.588	-1134
1012.661	-753
1012.733	-1059
1012.806	-168
1012.879	-1512
1012.951	-242
1013.023	-1910
1013.096	-690
1013.168	-1080
1013.241	-70
1013.313	-981
1013.385	-819
1013.458	-969
1013.530	83
1013.602	-1506
1013.674	-862
1013.746	-1503
1013.819	-1497
1013.891	-967
1013.963	-636
1014.035	-181
1014.107	-956
1014.179	-1401
1014.251	-1420
1014.323	-684
1014.395	-109
1014.467	-756
1014.539	-586
1014.611	-1429
1014.683	-1209
1014.754	-1505
1014.826	-1849
1014.898	-1050
1014.970	-1448
1015.042	-764
1015.113	-825
1015.185	-986
1015.257	-920
1015.328	-939
1015.400	-968
1015.471	-490
1015.543	-1022
1015.615	-909
1015.686	-912
1015.757	-750
1015.829	-594
1015.901	-571
1015.972	-1743
1016.043	-711
1016.115	-505
1016.186	-1091
1016.257	-618
1016.328	-816
1016.400	-705
1016.471	-1898
1016.542	-696
1016.613	-322
1016.685	-422
1016.756	-697
1016.827	-805
1016.898	-1649
1016.969	-435
1017.040	-1599
1017.111	-1182
1017.182	-840
1017.253	-537
1017.324	-1323
1017.395	-1138
1017.466	-234
1017.537	-480
1017.608	-974
1017.678	-721
1017.749	-1451
1017.820	-530
1017.891	-1928
1017.961	-1599
1018.032	-1555
1018.103	-325
1018.173	-1784
1018.244	-1859
1018.315	-1712
1018.385	-836
1018.456	-662
1018.526	-1777
1018.597	-1609
1018.667	-1604
1018.738	-1042
1018.808	-987
1018.878	-1768
1018.949	-779
1019.019	-1378
1019.089	-976
1019.160	-1493
1019.230	-2444
1019.300	-368
1019.371	-1233
1019.441	-1570
1019.511	-1265
1019.581	-1290
1019.651	-1048
1019.721	-1830
1019.791	-1157
1019.861	-1478
1019.931	-1385
1020.001	-1006
1020.071	-1282
1020.141	-980
1020.211	-1693
1020.281	-1324
1020.351	-2387
1020.421	-1223
1020.491	-704
1020.560	-1148
1020.630	-1431
1020.700	-493
1020.770	-1479
1020.839	-1567
1020.909	-779
1020.979	-941
1021.048	-956
1021.118	-1540
1021.187	-1011
1021.257	-870
1021.326	-924
1021.396	-1469
1021.465	-1650
1021.535	-2316
1021.604	-2025
1021.674	-1728
1021.743	-1020
1021.812	-1563
1021.882	-164
1021.951	-1285
1022.020	-85
1022.089	-1616
1022.159	-1713
1022.228	-1298
1022.297	-1292
1022.366	-2281
1022.435	-873
1022.504	-903
1022.573	-1490
1022.642	-1042
1022.711	-1179
1022.781	-767
1022.849	-635
1022.918	-1939
1022.987	-1135
1023.056	-497
1023.125	-807
1023.194	-949
1023.263	-1427
1023.331	-1785
1023.400	-1841
1023.469	-1428
1023.538	-843
1023.606	-1671
1023.675	-1031
1023.744	-1172
1023.812	-1257
1023.881	-1959
1023.949	-1102
1024.018	-1410
1024.086	-1164
1024.155	-2258
1024.223	-1791
1024.292	-928
1024.360	-1186
1024.429	-1309
1024.497	-917
1024.565	-1159
1024.634	-1263
1024.702	-719
1024.770	-641
1024.838	-1145
1024.907	-559
1024.975	-1334
1025.043	-1187
1025.111	-1743
1025.179	-1490
1025.247	-1740
1025.315	-1877
1025.383	-1697
1025.451	-1273
1025.519	-1714
1025.587	-1102
1025.655	-857
1025.723	-1302
1025.791	-1505
1025.859	-1103
1025.927	-939
1025.995	-2390
1026.062	-1510
1026.130	-1347
1026.198	-899
1026.266	-1001
1026.333	-1493
1026.401	-771
1026.469	-1592
1026.536	-881
1026.604	-1639
1026.671	-1253
1026.739	-794
1026.806	-1073
1026.874	-848
1026.941	-1622
1027.009	-958
1027.076	-1702
1027.144	-1211
1027.211	-1213
1027.278	-1406
1027.345	-387
1027.413	-854
1027.480	-1598
1027.547	-1314
1027.614	-821
1027.682	-1832
1027.749	-1378
1027.816	-959
1027.883	-1265
1027.950	-1478
1028.017	-1627
1028.084	-1007
1028.151	-1322
1028.218	-1264
1028.285	-663
1028.352	-1334
1028.419	-1691
1028.486	-1354
1028.553	-437
1028.619	-2142
1028.686	-1214
1028.753	-789
1028.820	-889
1028.886	-1502
1028.953	-659
1029.020	-1312
1029.086	-2090
1029.153	-2141
1029.220	-1415
1029.286	-1777
1029.353	-1496
1029.419	-1167
1029.486	-1077
1029.552	-2179
1029.619	-1261
1029.685	-1514
1029.751	-1439
1029.818	-807
1029.884	-1636
1029.951	-954
1030.017	-1622
1030.083	-2246
1030.149	-1437
1030.216	-2493
1030.282	-902
1030.348	-1911
1030.414	-1371
1030.480	-1342
1030.546	-591
1030.612	-1081
1030.678	-1186
1030.744	-1998
1030.810	-1192
1030.876	-2075
1030.942	-1633
1031.008	-1338
1031.074	-1217
1031.140	-2020
1031.206	-683
1031.272	-2297
1031.337	-1025
1031.403	-614
1031.469	-1312
1031.534	-2247
1031.600	-1834
1031.666	-1330
1031.731	-1257
1031.797	-1729
1031.863	-451
1031.928	-1565
1031.994	-1479
1032.059	-2089
1032.125	-1093
1032.190	-1212
1032.256	-1622
1032.321	-1522
1032.386	-780
1032.452	-953
1032.517	-973
1032.582	-1342
1032.647	-918
1032.713	-2379
1032.778	-1400
1032.843	-1566
1032.908	-1702
1032.974	-1319
1033.039	-1401
1033.104	-1613
1033.169	-937
1033.234	-1320
1033.299	-1056
1033.364	-1037
1033.429	-1009
1033.494	-567
1033.559	-1705
1033.624	-1418
1033.688	-124
1033.753	-1796
1033.818	-1625
1033.883	-838
1033.948	-696
1034.013	87
1034.077	566
1034.142	763
1034.207	877
1034.271	2725
1034.336	3896
1034.400	4146
1034.465	2904
1034.530	458
1034.594	-3
1034.658	-882
1034.723	-1882
1034.787	-1045
1034.852	-894
1034.916	-580
1034.981	-1885
1035.045	-1384
1035.109	-1730
1035.173	-2232
1035.238	-1678
1035.302	-1781
1035.366	-1767
1035.430	-1591
1035.495	-1665
1035.559	-602
1035.623	-2247
1035.687	-1060
1035.751	-1328
1035.815	-1818
1035.879	-1742
1035.943	-1783
1036.007	-1304
1036.071	-945
1036.135	-2089
1036.198	-2167
1036.262	-1695
1036.326	-1519
1036.390	-591
1036.454	-1901
1036.517	-955
1036.581	-940
1036.645	-563
1036.709	-788
1036.772	-584
1036.836	-1974
1036.900	-1787
1036.963	-1960
1037.026	-891
1037.090	-2548
1037.154	-2127
1037.217	-846
1037.280	-1461
1037.344	-2068
1037.407	-1957
1037.471	-1830
1037.534	-1511
1037.597	-832
1037.661	-2313
1037.724	-737
1037.787	-843
1037.850	-1967
1037.913	-1325
1037.977	-836
1038.040	-1361
1038.103	-2044
1038.166	-1949
1038.229	-1648
1038.292	-1922
1038.355	-2261
1038.418	-1472
1038.481	-1796
1038.544	-2362
1038.607	-1600
1038.670	-1722
1038.732	-1264
1038.795	-2384
1038.858	-2210
1038.921	-1632
1038.984	-2054
1039.046	-2124
1039.109	-1361
1039.172	-1932
1039.234	-2097
1039.297	-1055
1039.360	-2166
1039.422	-1183
1039.485	-2010
1039.547	-1808
1039.610	-1376
1039.672	-1655
1039.734	-2117
1039.797	-1895
1039.859	-2211
1039.922	-1912
1039.984	-1639
1040.046	-2419
1040.109	-2179
1040.171	-2323
1040.233	-1825
1040.295	-2073
1040.358	-2377
1040.420	-2549
1040.482	-1722
1040.544	-1947
1040.606	-1792
1040.668	-2181
1040.730	-1687
1040.792	-2435
1040.854	-2220
1040.916	-1661
1040.978	-1938
1041.040	-1552
1041.102	-1758
1041.164	-1796
1041.225	-2349
1041.287	-2264
1041.349	-2047
1041.411	-2119
1041.472	-1822
1041.534	-2535
1041.596	-2667
1041.657	-2457
1041.719	-1667
1041.781	-1835
1041.842	-2892
1041.904	-1951
1041.965	-1954
1042.027	-1832
1042.088	-1567
1042.150	-2416
1042.211	-1406
1042.272	-2287
1042.334	-2120
1042.395	-2227
1042.456	-2582
1042.518	-2107
1042.579	-1906
1042.640	-1841
1042.701	-2106
1042.763	-2267
1042.824	-2439
1042.885	-1725
1042.946	-2615
1043.007	-1368
1043.068	-2461
1043.129	-1593
1043.190	-2042
1043.251	-1679
1043.312	-2288
1043.373	-1847
1043.434	-1969
1043.495	-1983
1043.556	-1505
1043.616	-1747
1043.677	-1713
1043.738	-1436
1043.799	-2262
1043.859	-2038
1043.920	-2008
1043.981	-1580
1044.041	-1902
1044.102	-1892
1044.162	-2093
1044.223	-1878
1044.284	-2057
1044.344	-1416
1044.405	-2041
1044.465	-2043
1044.525	-1801
1044.586	-1311
1044.646	-2508
1044.707	-1926
1044.767	-1551
1044.827	-2564
1044.887	-2089
1044.948	-1403
1045.008	-2161
1045.068	-2170
1045.128	-2476
1045.188	-2078
1045.249	-2065
1045.309	-1759
1045.369	-1975
1045.429	-2237
1045.489	-2636
1045.549	-2015
1045.609	-1830
1045.669	-1788
1045.729	-1852
1045.789	-2177
1045.848	-1062
1045.908	-1067
1045.968	-1730
1046.028	-1726
1046.088	-1675
1046.147	-1549
1046.207	-1362
1046.267	-1213
1046.326	-1284
1046.386	-1570
1046.446	-1956
1046.505	-1018
1046.565	-1306
1046.624	-818
1046.684	-944
1046.743	-943
1046.803	-926
1046.862	-857
1046.922	0
