'Start Wavelength	183.907
'End Wavelength	1046.922
'Gate Delay	5.000
'Gate Width (ms)	1.050
'Laser Output Level	0.000
'X Position	0.000
'Y Position	0.000
'Z Position	0.000
'Grid Point Number	1.000
'Shot Number	100.000
183.907	375.000
183.977	89.000
184.047	-13
184.116	401
184.186	744
184.256	-368
184.325	-72
184.395	-66
184.465	702
184.534	-49
184.604	848
184.674	124
184.743	332
184.813	157
184.883	-336
184.952	378
185.022	284
185.092	148
185.161	359
185.231	350
185.301	850
185.370	981
185.440	290
185.509	-237
185.579	-108
185.649	-39
185.718	265
185.788	360
185.857	759
185.927	585
185.996	38
186.066	-252
186.136	978
186.205	281
186.275	1089
186.344	330
186.414	1024
186.483	-45
186.553	257
186.622	1243
186.692	417
186.761	465
186.831	792
186.900	205
186.970	1058
187.039	-170
187.109	1099
187.178	-76
187.248	626
187.317	465
187.387	432
187.456	453
187.526	518
187.595	502
187.664	71
187.734	834
187.803	223
187.873	561
187.942	327
188.012	809
188.081	-53
188.150	-96
188.220	1356
188.289	825
188.358	627
188.428	521
188.497	551
188.567	141
188.636	528
188.705	-297
188.775	232
188.844	107
188.913	1106
188.983	892
189.052	529
189.121	87
189.191	364
189.260	959
189.329	389
189.399	-1
189.468	899
189.537	243
189.606	682
189.676	528
189.745	1187
189.814	573
189.883	1023
189.953	928
190.022	1364
190.091	3499
190.161	3531
190.230	489
190.299	1213
190.368	844
190.437	281
190.507	781
190.576	692
190.645	640
190.714	680
190.783	411
190.853	806
190.922	1390
190.991	1022
191.060	537
191.129	647
191.198	818
191.268	350
191.337	266
191.406	1611
191.475	132
191.544	1095
191.613	803
191.682	493
191.752	350
191.821	508
191.890	390
191.959	484
192.028	925
192.097	404
192.166	930
192.235	5
192.304	480
192.373	454
192.442	1053
192.511	717
192.580	472
192.650	765
192.719	605
192.788	369
192.857	684
192.926	1049
192.995	603
193.064	1667
193.133	887
193.202	867
193.271	648
193.340	735
193.409	2338
193.478	2246
193.547	2082
193.615	2696
193.684	1523
193.753	1930
193.822	981
193.891	1270
193.960	647
194.029	1207
194.098	1697
194.167	684
194.236	1253
194.305	973
194.374	1330
194.443	892
194.512	1215
194.580	1227
194.649	1315
194.718	1392
194.787	566
194.856	234
194.925	1778
194.994	1108
195.062	1770
195.131	1826
195.200	1722
195.269	1696
195.338	1346
195.407	1627
195.475	1420
195.544	1920
195.613	1010
195.682	1633
195.751	2069
195.819	1572
195.888	409
195.957	2827
196.026	2203
196.094	2145
196.163	1574
196.232	2251
196.301	1234
196.369	1613
196.438	1349
196.507	1678
196.576	1289
196.644	484
196.713	981
196.782	1892
196.850	1703
196.919	1031
196.988	859
197.056	660
197.125	1488
197.194	977
197.262	1352
197.331	1186
197.400	309
197.468	1526
197.537	1416
197.606	1100
197.674	2654
197.743	4774
197.812	1670
197.880	5043
197.949	2611
198.017	5398
198.086	2897
198.155	1239
198.223	2120
198.292	6027
198.360	1548
198.429	2212
198.497	2236
198.566	5109
198.635	3722
198.703	1660
198.772	1427
198.840	8350
198.909	4777
198.977	1360
199.046	2295
199.114	2173
199.183	1873
199.251	1220
199.320	2063
199.388	1339
199.457	726
199.525	1700
199.594	1171
199.662	1656
199.731	953
199.799	2144
199.867	1458
199.936	1510
200.004	1374
200.073	1721
200.141	1433
200.210	1180
200.278	859
200.346	1698
200.415	2472
200.483	2705
200.552	1786
200.620	502
200.688	578
200.757	1503
200.825	777
200.893	1636
200.962	1363
201.030	757
201.098	1177
201.167	1518
201.235	1482
201.303	1667
201.372	2167
201.440	1555
201.508	1445
201.577	1545
201.645	1798
201.713	1700
201.781	1081
201.850	2939
201.918	1591
201.986	1674
202.055	1911
202.123	1142
202.191	1382
202.259	1435
202.327	1124
202.396	1458
202.464	1377
202.532	3744
202.600	10278
202.669	3591
202.737	2112
202.805	952
202.873	1636
202.941	1859
203.009	699
203.078	1652
203.146	1198
203.214	1329
203.282	1413
203.350	1401
203.418	1610
203.487	1485
203.555	805
203.623	1605
203.691	1793
203.759	736
203.827	445
203.895	2322
203.963	1429
204.031	1884
204.099	2105
204.168	1086
204.236	1579
204.304	2082
204.372	1628
204.440	1561
204.508	1126
204.576	858
204.644	1780
204.712	1278
204.780	1598
204.848	1875
204.916	1046
204.984	682
205.052	1051
205.120	1635
205.188	2141
205.256	1415
205.324	1455
205.392	2075
205.460	2096
205.528	2529
205.596	2370
205.664	1699
205.732	2596
205.799	7973
205.867	6833
205.935	2318
206.003	1889
206.071	2196
206.139	2142
206.207	1744
206.275	1829
206.343	2483
206.411	1307
206.478	2432
206.546	2535
206.614	1645
206.682	1580
206.750	2426
206.818	3463
206.885	2722
206.953	734
207.021	2286
207.089	1440
207.157	2269
207.225	1412
207.292	1419
207.360	1929
207.428	2332
207.496	1323
207.563	1793
207.631	1543
207.699	1597
207.767	1876
207.834	1751
207.902	1632
207.970	2671
208.038	1263
208.105	1894
208.173	2075
208.241	3143
208.309	3471
208.376	3342
208.444	4411
208.512	2983
208.579	547
208.647	3401
208.715	2315
208.782	2039
208.850	2569
208.918	2576
208.985	1785
209.053	2238
209.120	3148
209.188	2502
209.256	2268
209.323	2484
209.391	4128
209.459	3281
209.526	1973
209.594	1800
209.661	2087
209.729	2310
209.796	1460
209.864	2943
209.932	1353
209.999	3458
210.067	3020
210.134	3078
210.202	2711
210.269	3826
210.337	4115
210.404	2227
210.472	2561
210.539	2813
210.607	3139
210.674	3131
210.742	2503
210.809	3532
210.877	3845
210.944	3547
211.012	2756
211.079	3624
211.146	1841
211.214	3655
211.281	4831
211.349	3706
211.416	3162
211.484	3434
211.551	2458
211.618	2985
211.686	2940
211.753	2868
211.821	3508
211.888	2716
211.955	3638
212.023	2916
212.090	3545
212.157	4372
212.225	3727
212.292	7761
212.359	18031
212.427	38032
212.494	11323
212.561	5881
212.629	3929
212.696	3555
212.763	3250
212.831	3115
212.898	2584
212.965	2659
213.032	3139
213.100	4421
213.167	3553
213.234	3076
213.301	2768
213.369	4200
213.436	2311
213.503	3552
213.570	3444
213.638	3194
213.705	1504
213.772	2310
213.839	4088
213.906	4089
213.973	4199
214.041	3560
214.108	2858
214.175	3900
214.242	3022
214.309	3194
214.376	3132
214.444	3605
214.511	3531
214.578	3591
214.645	4535
214.712	4403
214.779	3904
214.846	3251
214.913	4130
214.980	4750
215.048	4829
215.115	5059
215.182	5345
215.249	4444
215.316	3815
215.383	3447
215.450	2832
215.517	3556
215.584	3096
215.651	3771
215.718	3081
215.785	4246
215.852	4711
215.919	4923
215.986	4798
216.053	3395
216.120	3023
216.187	4086
216.254	3996
216.321	3876
216.388	4074
216.455	4418
216.522	4683
216.589	5727
216.656	9836
216.722	8353
216.789	4841
216.856	5554
216.923	4103
216.990	5351
217.057	4662
217.124	5809
217.191	4634
217.258	5408
217.324	6063
217.391	6938
217.458	4917
217.525	4356
217.592	4033
217.659	4618
217.725	4706
217.792	8393
217.859	6075
217.926	3592
217.993	3338
218.059	4139
218.126	3773
218.193	3644
218.260	3203
218.327	3016
218.393	3501
218.460	3272
218.527	3369
218.594	4870
218.660	8164
218.727	7954
218.794	3389
218.860	4034
218.927	2212
218.994	3497
219.061	3342
219.127	4553
219.194	7453
219.261	3656
219.327	2708
219.394	2636
219.461	2728
219.527	3010
219.594	5768
219.661	4078
219.727	2977
219.794	3155
219.860	2952
219.927	4167
219.994	7108
220.060	10679
220.127	5913
220.193	4845
220.260	5506
220.326	6020
220.393	8563
220.460	8670
220.526	6185
220.593	5505
220.659	5673
220.726	7798
220.792	18950
220.859	12011
220.925	13029
220.992	15888
221.058	23349
221.125	21796
221.191	15852
221.258	6295
221.324	4695
221.391	5620
221.457	4364
221.524	5489
221.590	8981
221.657	28631
221.723	12680
221.789	16905
221.856	9645
221.922	6238
221.989	4952
222.055	4846
222.121	4808
222.188	6881
222.254	5384
222.321	4626
222.387	3186
222.453	3426
222.520	3391
222.586	3133
222.652	3037
222.719	4086
222.785	3738
222.851	3000
222.918	2850
222.984	3900
223.050	3306
223.116	3189
223.183	3314
223.249	3098
223.315	2865
223.382	3406
223.448	3332
223.514	3093
223.580	2585
223.647	2563
223.713	2917
223.779	2372
223.845	2616
223.911	2988
223.978	3186
224.044	3617
224.110	2930
224.176	3307
224.242	2864
224.309	2925
224.375	3459
224.441	3638
224.507	2291
224.573	3667
224.639	2855
224.705	2792
224.772	3241
224.838	3234
224.904	3793
224.970	3048
225.036	2904
225.102	4271
225.168	3787
225.234	3081
225.300	4134
225.366	3219
225.432	2237
225.499	3071
225.565	4141
225.631	3635
225.697	3762
225.763	5127
225.829	5167
225.895	6316
225.961	7759
226.027	7282
226.093	6090
226.159	7101
226.225	9683
226.291	18905
226.357	22476
226.423	13481
226.489	9571
226.554	7252
226.620	6822
226.686	10787
226.752	12956
226.818	19268
226.884	35171
226.950	22671
227.016	11069
227.082	8370
227.148	7394
227.214	7528
227.279	6069
227.345	5648
227.411	5827
227.477	7081
227.543	14373
227.609	13032
227.674	6502
227.740	5967
227.806	5170
227.872	4322
227.938	5447
228.003	6966
228.069	3440
228.135	4430
228.201	4035
228.267	3940
228.332	5349
228.398	6823
228.464	4144
228.530	2213
228.595	3190
228.661	3991
228.727	7938
228.792	5080
228.858	4116
228.924	3784
228.990	5208
229.055	5373
229.121	4376
229.187	4290
229.252	5539
229.318	2988
229.384	4111
229.449	5304
229.515	2521
229.581	2021
229.646	5638
229.712	5716
229.777	13168
229.843	10592
229.909	8833
229.974	8572
230.040	6198
230.105	6251
230.171	6488
230.236	7894
230.302	11456
230.368	8556
230.433	5499
230.499	6357
230.564	5777
230.630	4936
230.695	4763
230.761	5518
230.826	3492
230.892	8271
230.957	4832
231.023	4616
231.088	4985
231.154	4811
231.219	5470
231.284	8154
231.350	6228
231.415	4828
231.481	3973
231.546	4166
231.612	4699
231.677	3974
231.742	3416
231.808	4504
231.873	2782
231.939	3973
232.004	9446
232.069	6137
232.135	5587
232.200	4037
232.265	3987
232.331	3754
232.396	3249
232.461	3328
232.527	4013
232.592	3603
232.657	5519
232.723	10331
232.788	5686
232.853	4128
232.918	3490
232.984	4056
233.049	3634
233.114	10645
233.179	7143
233.245	16903
233.310	12905
233.375	4369
233.440	4053
233.506	4143
233.571	3381
233.636	4235
233.701	4581
233.766	13839
233.832	9935
233.897	5373
233.962	4976
234.027	6366
234.092	5196
234.157	5900
234.222	6738
234.288	15433
234.353	34934
234.418	24798
234.483	12707
234.548	10213
234.613	7990
234.678	7715
234.743	12659
234.808	36462
234.873	13761
234.938	7296
235.004	6335
235.069	7104
235.134	6321
235.199	6606
235.264	5661
235.329	6244
235.394	5962
235.459	7777
235.524	7542
235.589	6088
235.654	5945
235.719	4591
235.784	5405
235.849	9754
235.913	17029
235.978	22173
236.043	16229
236.108	8460
236.173	9181
236.238	7326
236.303	5883
236.368	6787
236.433	14414
236.498	18079
236.563	10342
236.627	20989
236.692	51202
236.757	29373
236.822	17701
236.887	15738
236.952	11063
237.017	10798
237.081	11381
237.146	14437
237.211	24290
237.276	58673
237.341	73967
237.405	32626
237.470	17782
237.535	14509
237.600	9715
237.664	7973
237.729	7526
237.794	10206
237.859	14499
237.923	14568
237.988	8744
238.053	17579
238.118	15562
238.182	57329
238.247	27413
238.312	17354
238.376	10477
238.441	10305
238.506	8178
238.570	4914
238.635	5643
238.700	6290
238.764	7245
238.829	26672
238.893	18488
238.958	10404
239.023	8754
239.087	6547
239.152	7112
239.216	5503
239.281	6485
239.346	6406
239.410	6823
239.475	11912
239.539	54905
239.604	22615
239.668	9777
239.733	7814
239.797	13311
239.862	30528
239.926	34257
239.991	12297
240.055	7351
240.120	7252
240.184	6528
240.249	6583
240.313	6439
240.378	9069
240.442	34515
240.507	33529
240.571	10731
240.635	25679
240.700	18669
240.764	8082
240.829	5849
240.893	4947
240.957	7428
241.022	33016
241.086	37610
241.151	13659
241.215	6239
241.279	14139
241.344	19302
241.408	8972
241.472	8086
241.537	7853
241.601	7008
241.665	6432
241.730	7396
241.794	7895
241.858	7085
241.922	6816
241.987	7095
242.051	6128
242.115	5143
242.179	6885
242.244	5869
242.308	7402
242.372	9513
242.436	10291
242.501	6546
242.565	6363
242.629	4936
242.693	6779
242.757	5434
242.822	7613
242.886	7414
242.950	9209
243.014	8139
243.078	8286
243.142	7094
243.206	8753
243.271	9880
243.335	9788
243.399	13921
243.463	62209
243.527	86652
243.591	22020
243.655	12306
243.719	9897
243.783	10265
243.847	17500
243.911	19243
243.975	23092
244.040	12148
244.104	9071
244.168	7790
244.232	13813
244.296	14038
244.360	14943
244.424	11179
244.488	9472
244.552	9636
244.615	6990
244.679	5889
244.743	10484
244.807	8531
244.871	5311
244.935	5729
244.999	6091
245.063	7054
245.127	8913
245.191	13682
245.255	9344
245.319	10591
245.383	7981
245.446	8017
245.510	5982
245.574	7795
245.638	6749
245.702	9718
245.766	18225
245.829	11569
245.893	10084
245.957	7460
246.021	8927
246.085	10136
246.149	13702
246.212	32042
246.276	35764
246.340	15858
246.404	12290
246.467	15130
246.531	16518
246.595	10346
246.659	11608
246.722	10195
246.786	11915
246.850	14404
246.913	14573
246.977	7913
247.041	10668
247.104	10037
247.168	12160
247.232	32491
247.295	51762
247.359	17792
247.423	14020
247.486	19511
247.550	11090
247.614	12038
247.677	12822
247.741	8755
247.804	8908
247.868	11375
247.932	32558
247.995	43647
248.059	14152
248.122	10166
248.186	15627
248.249	32125
248.313	101390
248.376	71477
248.440	45546
248.503	16445
248.567	16497
248.630	25776
248.694	30685
248.757	50345
248.821	88815
248.884	40888
248.948	57946
249.011	71643
249.075	110041
249.138	67974
249.202	28638
249.265	23976
249.328	33381
249.392	19944
249.455	14617
249.519	12859
249.582	17218
249.645	25024
249.709	16186
249.772	13593
249.835	14937
249.899	17060
249.962	14136
250.025	12879
250.089	42860
250.152	33697
250.215	19101
250.279	15468
250.342	15711
250.405	15783
250.468	14635
250.532	19283
250.595	33749
250.658	151652
250.721	132375
250.785	44915
250.848	26913
250.911	16897
250.974	16914
251.038	34466
251.101	48931
251.164	28802
251.227	27641
251.290	23801
251.354	48171
251.417	183285
251.480	102946
251.543	116892
251.606	297502
251.669	135525
251.732	62854
251.795	75697
251.859	85643
251.922	173269
251.985	62958
252.048	31632
252.111	25834
252.174	27683
252.237	65659
252.300	101379
252.363	139253
252.426	192808
252.489	67738
252.552	40405
252.615	32545
252.678	39591
252.741	86981
252.804	133129
252.867	206529
252.930	103982
252.993	54997
253.056	34326
253.119	23928
253.182	23240
253.245	34172
253.308	25362
253.371	30281
253.434	24742
253.497	27255
253.559	47076
253.622	28703
253.685	44404
253.748	29454
253.811	19280
253.874	33657
253.937	23855
254.000	18191
254.062	44570
254.125	42468
254.188	43835
254.251	24898
254.314	19286
254.376	37050
254.439	29118
254.502	27004
254.565	43518
254.628	50088
254.690	28271
254.753	16383
254.816	16157
254.878	20931
254.941	47046
255.004	29203
255.067	17494
255.129	14242
255.192	8798
255.255	9589
255.317	10622
255.380	7713
255.443	6952
255.505	7265
255.568	6643
255.631	7598
255.693	8159
255.756	7133
255.819	7683
255.881	5988
255.944	5893
256.006	7724
256.069	6998
256.132	7487
256.194	16384
256.257	37280
256.319	24984
256.382	18792
256.444	11170
256.507	8914
256.569	8074
256.632	11469
256.694	17095
256.757	39823
256.819	66100
256.882	24137
256.944	14551
257.007	13510
257.069	13655
257.132	10272
257.194	9284
257.257	9939
257.319	10065
257.381	12305
257.444	31851
257.506	104350
257.569	84135
257.631	56770
257.693	26648
257.756	16660
257.818	14375
257.880	9398
257.943	8673
258.005	8819
258.067	8182
258.130	7979
258.192	14156
258.254	25456
258.317	12347
258.379	12528
258.441	32829
258.503	21181
258.566	58389
258.628	36840
258.690	10426
258.753	13303
258.815	20047
258.877	11123
258.939	9051
259.001	8885
259.064	8547
259.126	16175
259.188	15680
259.250	14476
259.312	19572
259.375	43598
259.437	15803
259.499	11276
259.561	10286
259.623	10754
259.685	9567
259.747	13706
259.809	61036
259.872	64926
259.934	131750
259.996	57199
260.058	17372
260.120	11642
260.182	8234
260.244	8187
260.306	7457
260.368	9002
260.430	8719
260.492	18990
260.554	37912
260.616	24099
260.678	69752
260.740	51270
260.802	14976
260.864	13070
260.926	9935
260.988	11787
261.050	12904
261.112	29374
261.174	84729
261.236	38431
261.298	17207
261.359	44641
261.421	31641
261.483	12068
261.545	10650
261.607	7389
261.669	10084
261.731	31038
261.793	40473
261.854	15489
261.916	11719
261.978	10732
262.040	10819
262.102	11434
262.164	21014
262.225	11486
262.287	11324
262.349	25549
262.411	12965
262.472	9821
262.534	36043
262.596	36013
262.658	12334
262.719	8704
262.781	21707
262.843	41713
262.904	15092
262.966	15370
263.028	20559
263.090	126302
263.151	141671
263.213	41159
263.275	22230
263.336	11893
263.398	9961
263.459	7413
263.521	10867
263.583	22111
263.644	11087
263.706	6667
263.767	5084
263.829	5555
263.891	4745
263.952	4852
264.014	5196
264.075	12465
264.137	17037
264.198	10347
264.260	5795
264.321	6535
264.383	21003
264.444	25734
264.506	8844
264.567	7168
264.629	17281
264.690	19612
264.752	9965
264.813	7933
264.875	5971
264.936	6826
264.998	5661
265.059	5424
265.120	6424
265.182	12974
265.243	44231
265.305	24302
265.366	9160
265.427	5984
265.489	5318
265.550	4851
265.611	8941
265.673	7398
265.734	4873
265.795	5561
265.857	6006
265.918	6971
265.979	16464
266.040	69132
266.102	31844
266.163	14468
266.224	13368
266.286	7991
266.347	6627
266.408	7969
266.469	10023
266.530	7705
266.592	7384
266.653	19492
266.714	18323
266.775	7717
266.836	6203
266.898	7629
266.959	9282
267.020	6490
267.081	6969
267.142	5754
267.203	6389
267.264	5982
267.326	7962
267.387	5602
267.448	4290
267.509	7442
267.570	5879
267.631	6221
267.692	6396
267.753	7833
267.814	6565
267.875	19098
267.936	22860
267.997	13325
268.058	11079
268.119	8455
268.180	7226
268.241	5936
268.302	6108
268.363	5267
268.424	5935
268.485	7422
268.546	4746
268.607	4273
268.668	4719
268.729	4609
268.790	7009
268.851	7672
268.912	20884
268.972	16733
269.033	9423
269.094	5938
269.155	6077
269.216	5696
269.277	7648
269.338	5674
269.398	5428
269.459	7077
269.520	10720
269.581	13471
269.642	13266
269.702	9383
269.763	7544
269.824	7358
269.885	11650
269.945	11802
270.006	6238
270.067	6113
270.128	5079
270.188	5633
270.249	5606
270.310	4578
270.370	7560
270.431	6792
270.492	4653
270.553	7455
270.613	17181
270.674	25155
270.734	9185
270.795	7437
270.856	11821
270.916	7521
270.977	7272
271.038	9571
271.098	8266
271.159	17372
271.219	11044
271.280	6688
271.340	6149
271.401	13463
271.462	22110
271.522	10483
271.583	7964
271.643	9291
271.704	7738
271.764	11896
271.825	29724
271.885	97191
271.946	74214
272.006	28670
272.066	63301
272.127	59784
272.187	19471
272.248	14646
272.308	21124
272.369	52264
272.429	20504
272.489	25004
272.550	17898
272.610	22966
272.671	13642
272.731	24639
272.791	25891
272.852	14592
272.912	12328
272.972	8225
273.033	9922
273.093	14830
273.153	12200
273.214	10861
273.274	12339
273.334	52876
273.394	55263
273.455	24126
273.515	36410
273.575	48227
273.635	22403
273.696	52875
273.756	61313
273.816	22718
273.876	20165
273.936	66358
273.997	52149
274.057	17287
274.117	14938
274.177	29708
274.237	97202
274.297	63004
274.358	53223
274.418	57274
274.478	31086
274.538	15197
274.598	24708
274.658	76764
274.718	64247
274.778	22681
274.838	17995
274.898	63900
274.958	97420
275.018	78351
275.078	35487
275.138	17287
275.198	11265
275.258	11155
275.318	17204
275.378	24646
275.438	20469
275.498	18505
275.558	74928
275.618	82546
275.678	37088
275.738	29014
275.798	17489
275.858	10246
275.918	8093
275.978	11678
276.038	8517
276.098	9083
276.157	26250
276.217	41091
276.277	17636
276.337	13612
276.397	8736
276.457	11057
276.517	7673
276.576	7648
276.636	9144
276.696	15959
276.756	33373
276.815	16225
276.875	12035
276.935	12915
276.995	10200
277.055	7852
277.114	7380
277.174	18804
277.234	32038
277.293	14059
277.353	10226
277.413	7550
277.472	10229
277.532	9358
277.592	14298
277.651	58692
277.711	48792
277.771	31307
277.830	87758
277.890	44672
277.950	79888
278.009	116746
278.069	38730
278.128	67129
278.188	50985
278.248	37600
278.307	79792
278.367	31235
278.426	15772
278.486	11174
278.545	10029
278.605	9725
278.664	9781
278.724	11672
278.783	44625
278.843	54162
278.902	17877
278.962	16071
279.021	21007
279.081	49009
279.140	29537
279.199	21516
279.259	20508
279.318	24290
279.378	33975
279.437	69511
279.496	234452
279.556	527428
279.615	246054
279.675	86662
279.734	62379
279.793	126872
279.853	110219
279.912	39613
279.971	29008
280.031	27265
280.090	59745
280.149	65371
280.208	108792
280.268	394966
280.327	206888
280.386	64534
280.445	50133
280.505	33033
280.564	20736
280.623	18341
280.682	31312
280.742	27037
280.801	13267
280.860	11521
280.919	11156
280.978	9310
281.037	9552
281.097	8716
281.156	10704
281.215	9814
281.274	15595
281.333	48216
281.392	19491
281.451	9191
281.510	8560
281.569	7763
281.628	6592
281.688	6938
281.747	9402
281.806	7597
281.865	6133
281.924	6528
281.983	6692
282.042	5995
282.101	5593
282.160	6655
282.219	5800
282.278	10685
282.337	24742
282.396	11080
282.454	9251
282.513	13880
282.572	34878
282.631	13662
282.690	7664
282.749	7290
282.808	8829
282.867	10048
282.926	7788
282.985	6056
283.043	6168
283.102	6879
283.161	10230
283.220	26594
283.279	30468
283.338	9874
283.396	8116
283.455	8451
283.514	10836
283.573	17170
283.631	10646
283.690	8428
283.749	8591
283.808	19958
283.866	14199
283.925	9583
283.984	9581
284.043	14764
284.101	12180
284.160	10410
284.219	12391
284.277	12717
284.336	24877
284.395	54103
284.453	29091
284.512	19134
284.570	24760
284.629	20112
284.688	22367
284.746	25167
284.805	29919
284.863	39060
284.922	47246
284.981	63066
285.039	93060
285.098	162420
285.156	321490
285.215	455812
285.273	370040
285.332	229903
285.390	139450
285.449	90675
285.507	63386
285.566	49771
285.624	37874
285.683	29856
285.741	24963
285.799	22701
285.858	20542
285.916	17493
285.975	15102
286.033	13361
286.091	13000
286.150	10845
286.208	11728
286.267	11809
286.325	13179
286.383	18046
286.442	13015
286.500	10494
286.558	8493
286.616	7863
286.675	11503
286.733	10087
286.791	9344
286.850	10309
286.908	15758
286.966	17926
287.024	8257
287.083	7679
287.141	6875
287.199	9610
287.257	11320
287.315	8767
287.374	11920
287.432	21707
287.490	11308
287.548	8901
287.606	7875
287.664	8430
287.723	11919
287.781	12167
287.839	9668
287.897	12672
287.955	15154
288.013	23604
288.071	59086
288.129	266780
288.187	378844
288.245	126976
288.303	53149
288.361	31467
288.419	22676
288.477	15391
288.535	12354
288.593	10348
288.651	9625
288.709	8091
288.767	7876
288.825	6681
288.883	6505
288.941	7500
288.999	6847
289.057	6074
289.115	5883
289.173	6173
289.231	6582
289.289	6748
289.346	6673
289.404	8274
289.462	12667
289.520	10890
289.578	5496
289.636	5083
289.694	5283
289.751	3980
289.809	4296
289.867	4926
289.925	7969
289.983	7057
290.040	4595
290.098	4370
290.156	6121
290.214	6864
290.271	3741
290.329	4965
290.387	3530
290.444	3626
290.502	3561
290.560	4313
290.617	3865
290.675	4152
290.733	4608
290.790	4631
290.848	4833
290.906	5912
290.963	4932
291.021	5112
291.078	5008
291.136	6735
291.194	24340
291.251	26281
291.309	7422
291.366	5441
291.424	5179
291.481	5331
291.539	5868
291.596	6236
291.654	3373
291.711	4173
291.769	7023
291.826	11733
291.884	6054
291.941	3705
291.999	4144
292.056	6150
292.114	5536
292.171	4370
292.228	5976
292.286	7107
292.343	13899
292.401	14289
292.458	7945
292.515	6815
292.573	8544
292.630	9195
292.687	7977
292.745	5687
292.802	10608
292.859	26969
292.917	37503
292.974	15159
293.031	7464
293.089	5650
293.146	4896
293.203	4484
293.260	4450
293.318	8460
293.375	8374
293.432	5562
293.489	5725
293.546	6245
293.604	14048
293.661	50065
293.718	62629
293.775	24468
293.832	15186
293.889	14668
293.947	14677
294.004	10145
294.061	9722
294.118	24838
294.175	35849
294.232	29527
294.289	13658
294.346	10261
294.403	8604
294.460	8732
294.517	7205
294.574	5716
294.631	5667
294.688	8992
294.745	32092
294.802	76835
294.859	46933
294.916	24900
294.973	15763
295.030	12604
295.087	8896
295.144	7849
295.201	6538
295.258	6229
295.315	11783
295.372	41223
295.429	41575
295.486	16791
295.542	13987
295.599	30960
295.656	32388
295.713	37664
295.770	35251
295.827	13228
295.883	9036
295.940	10319
295.997	15203
296.054	10244
296.111	6668
296.167	5732
296.224	4641
296.281	4747
296.338	4691
296.394	5952
296.451	9289
296.508	29469
296.564	32057
296.621	28515
296.678	81281
296.734	64234
296.791	22661
296.848	14277
296.904	20134
296.961	40039
297.018	54282
297.074	27682
297.131	14401
297.187	12958
297.244	23216
297.301	82038
297.357	76352
297.414	23353
297.470	13108
297.527	9781
297.583	8490
297.640	8185
297.696	5565
297.753	5562
297.809	5624
297.866	4814
297.922	5359
297.979	5185
298.035	6781
298.092	15170
298.148	34479
298.204	22752
298.261	15168
298.317	41928
298.374	68821
298.430	29968
298.486	20167
298.543	14329
298.599	15227
298.656	18013
298.712	30099
298.768	48879
298.824	23106
298.881	11499
298.937	7099
298.993	9110
299.050	9548
299.106	7793
299.162	8262
299.218	7609
299.275	6928
299.331	9499
299.387	26967
299.443	75707
299.500	50673
299.556	20555
299.612	12802
299.668	13704
299.724	18332
299.780	15062
299.837	10946
299.893	22156
299.949	58805
300.005	47156
300.061	63578
300.117	74644
300.173	28889
300.229	19222
300.285	24668
300.341	19930
300.397	11535
300.453	8467
300.510	9110
300.566	8999
300.622	14709
300.678	41243
300.734	52565
300.790	53392
300.845	51066
300.901	40509
300.957	50640
301.013	26634
301.069	12199
301.125	12096
301.181	12026
301.237	8998
301.293	5561
301.349	7211
301.405	6682
301.461	10534
301.516	12965
301.572	12659
301.628	16244
301.684	14631
301.740	29711
301.796	31942
301.851	26129
301.907	40411
301.963	37191
302.019	95725
302.074	186170
302.130	134822
302.186	58637
302.242	28590
302.297	19465
302.353	23226
302.409	36211
302.464	25797
302.520	30074
302.576	66813
302.631	54857
302.687	27023
302.743	13997
302.798	9543
302.854	7359
302.910	8850
302.965	12377
303.021	19910
303.076	17287
303.132	25036
303.187	21764
303.243	10878
303.299	7394
303.354	6497
303.410	6339
303.465	5670
303.521	6488
303.576	6617
303.632	9424
303.687	28908
303.743	57085
303.798	32976
303.853	14041
303.909	9999
303.964	8523
304.020	16682
304.075	18489
304.130	20017
304.186	33595
304.241	29309
304.297	21864
304.352	11111
304.358	10800
304.407	8284
304.449	9246
304.463	9574
304.518	9047
304.539	8569
304.573	7835
304.629	9170
304.630	9388
304.684	19795
304.720	42322
304.739	53443
304.794	50352
304.811	41966
304.850	22010
304.902	11704
304.905	11080
304.960	8487
304.992	8749
305.015	8889
305.071	8294
305.083	7941
305.126	6706
305.173	4805
305.181	4500
305.236	4729
305.264	5773
305.292	6888
305.347	9120
305.354	9062
305.402	8572
305.445	9312
305.457	9524
305.512	10955
305.535	10626
305.567	10399
305.622	12778
305.626	13445
305.678	27702
305.716	50828
305.733	58652
305.788	46830
305.807	43071
305.843	39128
305.897	60021
305.898	60225
305.953	42226
305.988	27542
306.008	20455
306.063	14612
306.078	13072
306.118	9387
306.168	6320
306.173	6084
306.228	6182
306.259	5459
306.283	4887
306.338	5042
306.349	5174
306.393	5821
306.440	5943
306.448	6022
306.503	7339
306.530	8589
306.558	11486
306.613	23786
306.620	25563
306.668	37757
306.711	50289
306.723	51135
306.778	30957
306.801	23152
306.833	15578
306.888	8910
306.892	8574
306.943	6423
306.982	6043
306.997	5899
307.052	5258
307.072	5280
307.107	6115
307.162	8151
307.163	8182
307.217	11790
307.253	14128
307.272	14440
307.327	13473
307.343	12674
307.381	12026
307.434	12715
307.436	13124
307.491	28308
307.524	40404
307.546	42739
307.600	33556
307.614	29466
307.655	17698
307.704	9938
307.710	9919
307.765	13873
307.795	17985
307.819	20735
307.874	25715
307.885	25376
307.929	19475
307.975	15647
307.984	16466
308.038	24729
308.065	32323
308.093	58730
308.148	131988
308.156	146078
308.202	197961
308.246	196403
308.257	184331
308.312	97030
308.336	67865
308.366	54974
308.421	34072
308.426	32331
308.475	20535
308.517	14882
308.530	14152
308.585	13163
308.607	12874
308.639	13653
308.694	15723
308.697	16053
308.748	28334
308.787	38185
308.803	37031
308.857	24909
308.877	20903
308.912	19936
308.967	21482
308.967	21530
309.021	31771
309.058	41170
309.076	53072
309.130	95491
309.148	112402
309.185	195950
309.238	340272
309.239	340652
309.293	311074
309.328	257082
309.348	214113
309.402	99413
309.418	70963
309.457	53182
309.508	37195
309.511	37129
309.566	42042
309.598	47831
309.620	56980
309.674	84669
309.688	90516
309.729	79747
309.778	59202
309.783	57690
309.837	41122
309.868	33178
309.892	40226
309.946	63091
309.959	69243
310.001	80139
310.049	83796
310.055	80284
310.109	43899
310.139	25339
310.163	20828
310.218	13873
310.229	12726
310.272	10305
310.319	8030
310.326	7812
310.381	6792
310.409	6191
310.435	6000
310.489	5900
310.499	5969
310.543	6511
310.589	6849
310.598	6721
310.652	5901
310.679	5456
310.706	5129
310.760	4559
310.769	4471
310.814	4323
310.859	4280
310.868	4341
310.923	4607
310.948	4849
310.977	5746
311.031	7449
311.038	7669
311.085	6782
311.128	5676
311.139	5601
311.193	5578
311.218	5437
311.247	5174
311.301	4759
311.308	4712
311.356	4598
311.398	4521
311.410	4519
311.464	4407
311.488	4375
311.518	4693
311.572	5358
311.578	5439
311.626	7354
311.668	8959
311.680	8790
311.734	7874
311.758	7460
311.788	7494
311.842	7642
311.847	7647
311.896	9664
311.937	11492
311.950	11252
312.004	10036
312.027	9488
312.058	8185
312.112	5881
312.117	5649
312.165	5291
312.207	4990
312.297	7144
312.386	6399
312.476	7475
312.566	15836
312.656	6097
312.745	4542
312.835	4804
312.925	5840
313.015	5859
313.104	5142
313.194	5112
313.284	5878
313.374	9061
313.463	6605
313.553	4165
313.643	4341
313.732	3708
313.822	4696
313.912	5113
314.001	6556
314.091	6507
314.180	8389
314.270	8282
314.360	10166
314.449	7316
314.539	5425
314.628	4861
314.718	6810
314.808	6863
314.897	4372
314.987	5592
315.076	8435
315.166	8911
315.255	7906
315.345	8430
315.434	8556
315.524	7596
315.613	10471
315.703	14898
315.792	33268
315.881	74985
315.971	19761
316.060	19072
316.150	22921
316.239	20971
316.328	7468
316.418	5210
316.507	6872
316.597	8606
316.686	7869
316.775	13471
316.865	20598
316.954	5015
317.043	3763
317.133	6368
317.222	5211
317.311	4934
317.400	4988
317.490	9029
317.579	10024
317.668	7771
317.757	16537
317.847	59777
317.936	133326
318.025	43191
318.114	28539
318.203	14441
318.293	21191
318.382	38098
318.471	28138
318.560	37645
318.649	53390
318.738	10952
318.828	9833
318.917	10073
319.006	13447
319.095	32795
319.184	73861
319.273	41188
319.362	21845
319.451	7841
319.540	8315
319.629	23874
319.718	29933
319.807	12170
319.896	34844
319.985	90447
320.074	28071
320.163	9806
320.252	14563
320.341	11628
320.430	10726
320.519	16983
320.608	8147
320.697	7391
320.786	8075
320.875	11102
320.964	14708
321.053	24973
321.142	37305
321.230	31194
321.319	30439
321.408	56275
321.497	20888
321.586	22438
321.675	27491
321.764	20540
321.852	16115
321.941	34915
322.030	18624
322.119	28319
322.207	62153
322.296	32080
322.385	17115
322.474	28503
322.562	79008
322.651	30248
322.740	31575
322.829	37888
322.917	31840
323.006	21177
323.095	17864
323.183	12337
323.272	19223
323.361	44841
323.449	97397
323.538	31610
323.626	75781
323.715	33207
323.804	20030
323.892	65219
323.981	29649
324.069	10779
324.158	36605
324.246	25225
324.335	14787
324.424	21325
324.512	7267
324.601	12356
324.689	42267
324.778	61315
324.866	25523
324.954	6705
325.043	7713
325.131	16960
325.220	25325
325.308	27034
325.397	21959
325.485	10532
325.574	5405
325.662	5863
325.750	6191
325.839	5121
325.927	4917
326.015	7470
326.104	13473
326.192	13109
326.280	4717
326.369	4993
326.457	10977
326.545	18196
326.634	6257
326.722	4869
326.810	5446
326.898	4859
326.987	7295
327.075	19000
327.163	15021
327.251	8316
327.340	27070
327.428	30242
327.516	6246
327.604	5957
327.692	5486
327.781	7445
327.869	11213
327.957	8326
328.045	7573
328.133	4255
328.221	6444
328.309	5055
328.397	4643
328.485	6712
328.574	13239
328.662	42503
328.750	18159
328.838	6449
328.926	3975
329.014	4381
329.102	8669
329.190	19574
329.278	11385
329.366	3548
329.454	3673
329.542	4072
329.630	4201
329.718	4314
329.806	7163
329.893	5645
329.981	5391
330.069	9199
330.157	50999
330.245	133653
330.333	57571
330.421	8921
330.509	15351
330.597	51739
330.684	25602
330.772	8219
330.860	11357
330.948	13875
331.036	6679
331.123	3428
331.211	3245
331.299	5148
331.387	14050
331.475	20246
331.562	7380
331.650	3744
331.738	5282
331.825	5907
331.913	3658
332.001	4195
332.089	7147
332.176	12895
332.264	34113
332.352	20397
332.439	7053
332.527	5411
332.614	5262
332.702	5745
332.790	5291
332.877	18994
332.965	30171
333.052	10168
333.140	15577
333.228	29348
333.315	7443
333.403	6294
333.490	19905
333.578	21419
333.665	41497
333.753	14634
333.840	5373
333.928	7180
334.015	18783
334.103	38064
334.190	92977
334.278	19873
334.365	11585
334.452	9059
334.540	6856
334.627	7369
334.715	10785
334.802	27635
334.889	138173
334.977	105614
335.064	16070
335.151	8824
335.239	7738
335.326	11056
335.413	53040
335.501	54217
335.588	9290
335.675	5938
335.762	9187
335.850	12458
335.937	13142
336.024	42952
336.111	133244
336.199	46901
336.286	11686
336.373	7381
336.460	5210
336.547	5341
336.635	6823
336.722	6362
336.809	5567
336.896	10242
336.983	31448
337.070	70520
337.157	94663
337.245	81235
337.332	43159
337.419	7106
337.506	4917
337.593	5575
337.680	24565
337.767	54035
337.854	17323
337.941	19466
338.028	25101
338.115	8530
338.202	10335
338.289	26462
338.376	73092
338.463	19820
338.550	37213
338.637	31985
338.724	15631
338.811	19476
338.898	4813
338.984	3802
339.071	5758
339.158	8958
339.245	23922
339.332	12838
339.419	17117
339.506	12235
339.593	3044
339.679	4343
339.766	4221
339.853	7748
339.940	16473
340.027	5626
340.113	5862
340.200	8708
340.287	5545
340.374	9076
340.460	15304
340.547	6638
340.634	14872
340.720	50856
340.807	23313
340.894	4674
340.980	5487
341.067	4222
341.154	5545
341.240	11731
341.327	21866
341.414	8440
341.500	9543
341.587	5677
341.674	4983
341.760	15865
341.847	17941
341.933	5468
342.020	2385
342.106	2870
342.193	6424
342.279	11045
342.366	10179
342.452	15356
342.539	8077
342.625	24559
342.712	51280
342.798	19865
342.885	7658
342.971	2534
343.058	3232
343.144	3673
343.230	4501
343.317	5462
343.403	4679
343.490	2556
343.576	2996
343.662	4629
343.749	6335
343.835	7020
343.921	18261
344.008	131626
344.094	237335
344.180	42489
344.267	19688
344.353	68039
344.439	57607
344.525	22627
344.612	10119
344.698	7835
344.784	6222
344.870	3183
344.957	5734
345.043	9074
345.129	8002
345.215	14449
345.301	9191
345.387	5826
345.474	2543
345.560	3883
345.646	4764
345.732	4121
345.818	6809
345.904	5660
345.990	6818
346.076	7387
346.162	11857
346.249	5425
346.335	3959
346.421	5716
346.507	32983
346.593	88479
346.679	18222
346.765	5193
346.851	5628
346.937	5073
347.023	3766
347.108	5576
347.194	5154
347.280	5063
347.366	7575
347.452	34759
347.538	114807
347.624	77329
347.710	53983
347.796	7451
347.882	4712
347.967	4171
348.053	5482
348.139	4288
348.225	4411
348.311	4942
348.397	4381
348.482	6619
348.568	7227
348.654	3887
348.740	7450
348.825	7572
348.911	12488
348.997	59393
349.083	94408
349.168	12304
349.254	6412
349.340	5700
349.425	4121
349.511	6605
349.597	8191
349.682	20779
349.768	61898
349.854	24701
349.939	4648
350.025	3981
350.110	2801
350.196	4107
350.282	3398
350.367	4027
350.453	8210
350.538	7943
350.624	6674
350.709	5532
350.795	4114
350.880	4518
350.966	6095
351.051	8599
351.137	5420
351.222	5513
351.308	22940
351.393	50112
351.479	13244
351.564	5197
351.649	5276
351.735	3321
351.820	3104
351.906	3688
351.991	7523
352.076	36890
352.162	47022
352.247	8391
352.332	7196
352.418	15282
352.503	22332
352.588	76577
352.673	54826
352.759	11959
352.844	6626
352.929	8516
353.014	10227
353.100	7615
353.185	14366
353.270	20719
353.355	17330
353.441	5476
353.526	6925
353.611	17242
353.696	18592
353.781	9943
353.866	4651
353.952	6055
354.037	18633
354.122	36561
354.207	31557
354.292	11421
354.377	4852
354.462	5096
354.547	7697
354.632	6710
354.717	11352
354.802	15817
354.887	6245
354.972	3902
355.057	3153
355.142	3179
355.227	6018
355.312	12191
355.397	28055
355.482	58967
355.567	26583
355.652	19317
355.737	25416
355.822	74602
355.907	52473
355.991	7735
356.076	5121
356.161	4547
356.246	3732
356.331	5728
356.416	24731
356.501	129737
356.585	115345
356.670	14617
356.755	9886
356.840	19217
356.924	108335
357.009	294573
357.094	98213
357.179	20431
357.263	13439
357.348	13070
357.433	12991
357.517	12221
357.602	9652
357.687	8518
357.771	24447
357.856	67600
357.941	36480
358.025	86833
358.110	292926
358.195	121352
358.279	15583
358.364	14190
358.448	56554
358.533	131221
358.617	94938
358.702	88451
358.787	30231
358.871	17786
358.956	14577
359.040	5649
359.125	5689
359.209	8874
359.294	37223
359.378	51123
359.462	17959
359.547	9656
359.631	5505
359.716	3937
359.800	5543
359.885	7711
359.969	5829
360.053	4729
360.138	5087
360.222	10211
360.306	18213
360.391	16099
360.475	40417
360.559	70864
360.644	52141
360.728	36581
360.812	79077
360.896	176069
360.981	67362
361.065	30128
361.149	8833
361.233	8635
361.318	7790
361.402	8544
361.486	7827
361.570	6039
361.654	9752
361.739	31165
361.823	130571
361.907	171143
361.991	30039
362.075	18569
362.159	36787
362.243	25879
362.327	27409
362.411	30698
362.495	16597
362.580	8513
362.664	6132
362.748	6941
362.832	8782
362.916	17310
363.000	62187
363.084	171888
363.168	207841
363.252	45938
363.336	15231
363.420	22566
363.503	66773
363.587	70339
363.671	14849
363.755	11918
363.839	16879
363.923	9217
364.007	19849
364.091	21361
364.175	34321
364.258	106284
364.342	93137
364.426	110181
364.510	56539
364.594	24841
364.677	44820
364.761	159639
364.845	106357
364.929	32609
365.013	26314
365.096	22460
365.180	24464
365.264	34950
365.347	98088
365.431	40439
365.515	11228
365.598	7002
365.682	6433
365.766	10093
365.849	11846
365.933	8291
366.017	8943
366.100	6764
366.184	3891
366.267	5287
366.351	4700
366.435	4439
366.518	3208
366.602	4489
366.685	5043
366.769	5944
366.852	10762
366.936	18370
367.019	10890
367.103	8633
367.186	12075
367.270	4808
367.353	3597
367.436	5465
367.520	4561
367.603	7406
367.687	13425
367.770	20565
367.853	15525
367.937	47947
368.020	70415
368.104	17893
368.187	15999
368.270	22153
368.353	20464
368.437	27426
368.520	47717
368.603	34495
368.687	58016
368.770	92494
368.853	23401
368.936	19096
369.020	17090
369.103	7203
369.186	5719
369.269	7137
369.352	14994
369.436	19424
369.519	11415
369.602	6429
369.685	6704
369.768	6881
369.851	5525
369.934	4069
370.018	8009
370.101	17045
370.184	13688
370.267	9334
370.350	17821
370.433	32644
370.516	88879
370.599	106936
370.682	34807
370.765	50089
370.848	70077
370.931	113839
371.014	40316
371.097	8066
371.180	6626
371.263	4008
371.346	3507
371.429	4904
371.511	6151
371.594	11313
371.677	17351
371.760	15638
371.843	25371
371.926	118617
372.009	231186
372.091	71342
372.174	53467
372.257	107827
372.340	44222
372.423	25082
372.505	25156
372.588	15155
372.671	43422
372.754	114867
372.836	58098
372.919	33736
373.002	53602
373.085	21605
373.167	20166
373.250	53985
373.332	115536
373.415	174555
373.498	309352
373.580	125498
373.663	176365
373.746	209725
373.828	44569
373.911	15540
373.993	21061
374.076	55640
374.159	51697
374.241	36356
374.324	94824
374.406	67038
374.489	109165
374.571	248626
374.654	101892
374.736	56895
374.819	163874
374.901	234136
374.983	220215
375.066	38586
375.148	15866
375.231	50678
375.313	85238
375.395	31559
375.478	8681
375.560	6940
375.643	13510
375.725	61022
375.807	196889
375.890	140176
375.972	47484
376.054	29034
376.136	37689
376.219	22536
376.301	66958
376.383	161413
376.465	64981
376.548	36485
376.630	57643
376.712	133957
376.794	62491
376.877	6283
376.959	4945
377.041	6426
377.123	11103
377.205	11744
377.287	3948
377.369	3485
377.452	4878
377.534	5006
377.616	4606
377.698	5055
377.780	4043
377.862	5630
377.944	4544
378.026	2687
378.108	3665
378.190	3581
378.272	3350
378.354	2618
378.436	3739
378.518	9671
378.600	25657
378.682	30881
378.764	66337
378.846	50240
378.928	14651
379.010	18948
379.091	10033
379.173	4783
379.255	6335
379.337	10003
379.419	39192
379.501	91646
379.583	37978
379.664	10897
379.746	27716
379.828	67205
379.910	92604
379.991	75356
380.073	14558
380.155	7422
380.237	6075
380.318	4838
380.400	7054
380.482	14789
380.564	23931
380.645	23086
380.727	21491
380.809	11964
380.890	8854
380.972	5977
381.053	6334
381.135	9585
381.217	28168
381.298	64930
381.380	34572
381.461	40366
381.543	145711
381.624	164856
381.706	30966
381.787	14219
381.869	19966
381.951	83979
382.032	238318
382.113	146295
382.195	29485
382.276	21639
382.358	56118
382.439	131149
382.521	157917
382.602	219064
382.684	115823
382.765	185383
382.846	245383
382.928	327150
383.009	185134
383.090	167901
383.172	511760
383.253	663901
383.334	240630
383.416	200783
383.497	110203
383.578	59825
383.659	142081
383.741	489548
383.822	956576
383.903	490378
383.984	174137
384.066	234512
384.147	143322
384.228	33597
384.309	23149
384.390	17393
384.471	14601
384.553	14261
384.634	18616
384.715	18052
384.796	11382
384.877	20439
384.958	64101
385.039	74256
385.120	26070
385.201	11762
385.282	13307
385.363	13528
385.444	15067
385.525	34942
385.606	98720
385.687	82618
385.768	19520
385.849	29787
385.930	119705
386.011	187267
386.092	52924
386.173	11074
386.254	8421
386.335	8255
386.416	13642
386.496	42670
386.577	63850
386.658	21362
386.739	12926
386.820	10425
386.901	8576
386.981	8060
387.062	8012
387.143	21505
387.224	64772
387.304	58244
387.385	19291
387.466	12654
387.547	14419
387.627	13374
387.708	33620
387.789	120534
387.869	139392
387.950	38278
388.031	7077
388.111	6198
388.192	15781
388.273	20476
388.353	13824
388.434	10429
388.514	33343
388.595	118462
388.676	145549
388.756	71097
388.837	58430
388.917	35726
388.998	7637
389.078	7313
389.159	6513
389.239	6701
389.320	11386
389.400	11736
389.480	29853
389.561	65852
389.641	35231
389.722	12539
389.802	19244
389.883	34797
389.963	80218
390.043	50264
390.124	15523
390.204	27733
390.284	74528
390.365	50827
390.445	59505
390.525	143821
390.605	124891
390.686	39282
390.766	13533
390.846	7334
390.927	6154
391.007	5853
391.087	7814
391.167	8692
391.247	6761
391.328	10171
391.408	13976
391.488	9433
391.568	5557
391.648	9303
391.728	14010
391.808	13715
391.888	17689
391.969	40298
392.049	60033
392.129	27211
392.209	35843
392.289	76716
392.369	44507
392.449	25294
392.529	21053
392.609	18174
392.689	31847
392.769	81839
392.849	72145
392.929	53233
393.009	109499
393.089	98870
393.169	113267
393.248	403431
393.328	1100358
393.408	1091038
393.488	303656
393.568	78797
393.648	39995
393.728	26223
393.807	17971
393.887	16389
393.967	14456
394.047	15470
394.127	16817
394.206	28596
394.286	119218
394.366	399204
394.446	404752
394.525	86345
394.605	20142
394.685	18943
394.764	36833
394.844	60392
394.924	44949
395.003	16061
395.083	11000
395.163	9754
395.242	9816
395.322	9941
395.402	6248
395.481	11436
395.561	30743
395.640	71363
395.720	67586
395.799	72858
395.879	58971
395.958	39565
396.038	166837
396.117	531934
396.197	551591
396.276	144106
396.356	44157
396.435	34242
396.515	30195
396.594	41855
396.673	106679
396.753	408469
396.832	969153
396.912	695184
396.991	164346
397.070	41994
397.150	23157
397.229	18211
397.308	24825
397.388	36584
397.467	20003
397.546	9180
397.625	7261
397.705	11706
397.784	12028
397.863	6098
397.942	5091
398.022	6856
398.101	22984
398.180	56876
398.259	31292
398.338	10113
398.417	7786
398.497	4883
398.576	6643
398.655	3960
398.734	4740
398.813	5626
398.892	24562
398.971	62554
399.050	34400
399.129	4734
399.208	2751
399.287	3594
399.366	2796
399.445	3094
399.524	2931
399.603	3412
399.682	10454
399.761	30677
399.840	70703
399.919	55336
399.998	8091
400.077	2966
400.156	2415
400.235	5126
400.313	3571
400.392	7479
400.471	36534
400.550	54172
400.629	15789
400.708	5471
400.786	5107
400.865	12571
400.944	15110
401.023	7997
401.102	2349
401.180	1836
401.259	3000
401.338	3715
401.416	6039
401.495	5581
401.574	4020
401.652	3631
401.731	5907
401.810	4546
401.888	2926
401.967	2300
402.046	3410
402.124	6367
402.203	7725
402.281	4838
402.360	8485
402.438	16272
402.517	12256
402.596	4101
402.674	4098
402.753	2785
402.831	2999
402.910	5651
402.988	33472
403.066	85961
403.145	54238
403.223	32638
403.302	73162
403.380	58787
403.459	52687
403.537	21887
403.615	6380
403.694	1860
403.772	2697
403.850	1834
403.929	2374
404.007	3167
404.085	9733
404.164	11790
404.242	3707
404.320	3545
404.398	10545
404.477	50166
404.555	175583
404.633	151560
404.711	23610
404.789	4945
404.868	4966
404.946	2911
405.024	1342
405.102	1268
405.180	1396
405.258	1132
405.336	2786
405.415	3134
405.493	7755
405.571	7743
405.649	2109
405.727	2083
405.805	5200
405.883	5573
405.961	6553
406.039	4621
406.117	3100
406.195	10916
406.273	52147
406.351	144264
406.429	88257
406.507	12531
406.585	4171
406.663	5186
406.740	6698
406.818	5439
406.896	3480
406.974	4705
407.052	18859
407.130	89671
407.208	118944
407.285	25106
407.363	4076
407.441	3249
407.519	3340
407.596	5777
407.674	18155
407.752	43594
407.830	37082
407.907	13300
407.985	5207
408.063	2285
408.141	1862
408.218	5107
408.296	6158
408.373	5860
408.451	5578
408.529	4769
408.606	2057
408.684	1498
408.762	1435
408.839	720
408.917	1770
408.994	1698
409.072	2304
409.149	2362
409.227	5913
409.304	7292
409.382	6697
409.459	7641
409.537	10456
409.614	9362
409.692	6198
409.769	6760
409.846	11667
409.924	13919
410.001	10530
410.079	7281
410.156	4626
410.233	4510
410.311	4192
410.388	2897
410.465	4971
410.543	4500
410.620	4205
410.697	3868
410.775	5421
410.852	2153
410.929	5216
411.006	7491
411.083	5150
411.161	11075
411.238	11209
411.315	5204
411.392	3036
411.469	5603
411.547	6124
411.624	2334
411.701	2887
411.778	5329
411.855	11204
411.932	5563
412.009	2380
412.086	1990
412.163	3304
412.240	4197
412.317	5285
412.394	4258
412.471	2722
412.548	1619
412.625	2365
412.702	4503
412.779	7860
412.856	5484
412.933	1457
413.010	2073
413.087	7570
413.164	32581
413.241	45591
413.318	12191
413.395	6839
413.471	9430
413.548	4619
413.625	2847
413.702	3126
413.779	2303
413.855	766
413.932	288
414.009	926
414.086	1199
414.162	2188
414.239	6683
414.316	34112
414.393	67554
414.469	26350
414.546	2414
414.623	2227
414.699	950
414.776	3557
414.853	1635
414.929	1905
415.006	2518
415.082	2899
415.159	2008
415.236	1479
415.312	2891
415.389	7205
415.465	10051
415.542	4840
415.618	2753
415.695	6044
415.771	5052
415.848	3929
415.924	3262
416.000	2420
416.077	1685
416.153	554
416.230	327
416.306	744
416.383	1385
416.459	1646
416.535	619
416.612	916
416.688	1548
416.764	1577
416.841	996
416.917	1510
416.993	1941
417.069	3600
417.146	4247
417.222	6104
417.298	3883
417.374	2430
417.451	3045
417.527	4395
417.603	5135
417.679	3551
417.755	2541
417.831	667
417.908	1198
417.984	1392
418.060	884
418.136	8500
418.212	11332
418.288	3842
418.364	1429
418.440	1969
418.516	4751
418.592	5615
418.668	13877
418.744	21651
418.820	14476
418.896	3806
418.972	538
419.048	3282
419.124	8770
419.200	7195
419.276	878
419.352	659
419.428	1167
419.504	2959
419.579	4216
419.655	2222
419.731	4104
419.807	14847
419.883	25697
419.959	17309
420.034	5398
420.110	14330
420.186	41770
420.262	35025
420.337	6295
420.413	4267
420.489	2208
420.565	2798
420.640	1566
420.716	2737
420.792	353
420.867	3380
420.943	2489
421.019	5754
421.094	4617
421.170	2572
421.245	2000
421.321	2942
421.397	3336
421.472	11024
421.548	23546
421.623	17560
421.699	6472
421.774	6698
421.850	5392
421.925	10194
422.001	9516
422.076	8500
422.152	9962
422.227	15942
422.302	19524
422.378	28798
422.453	57718
422.529	149925
422.604	396197
422.679	615418
422.755	409282
422.830	143724
422.905	54193
422.981	28768
423.056	18603
423.131	14731
423.207	9597
423.282	11727
423.357	17143
423.432	12315
423.508	12621
423.583	23803
423.658	17045
423.733	5951
423.808	7195
423.883	8419
423.959	7263
424.034	7085
424.109	4625
424.184	3550
424.259	2148
424.334	2267
424.409	1146
424.484	2384
424.559	2806
424.634	2939
424.709	4540
424.784	6029
424.859	3508
424.934	8645
425.009	31903
425.084	49151
425.159	18471
425.234	2887
425.309	3573
425.384	20765
425.459	31045
425.534	9125
425.609	839
425.683	1301
425.758	1007
425.833	2564
425.908	4682
425.983	21071
426.058	50155
426.132	22525
426.207	2850
426.282	5384
426.357	3921
426.431	2116
426.506	2048
426.581	2278
426.655	2023
426.730	1680
426.805	1345
426.879	2399
426.954	2039
427.029	11319
427.103	56915
427.178	122501
427.253	57395
427.327	6649
427.402	11979
427.476	28744
427.551	15122
427.625	4031
427.700	2122
427.774	1014
427.849	2640
427.923	1194
427.998	403
428.072	1929
428.147	10379
428.221	47532
428.296	113172
428.370	62125
428.444	7608
428.519	7033
428.593	11592
428.667	10657
428.742	11711
428.816	21973
428.890	75463
428.965	120853
429.039	41719
429.113	14184
429.188	5778
429.262	2995
429.336	7691
429.410	22815
429.485	14736
429.559	10623
429.633	8032
429.707	3718
429.781	16232
429.855	76046
429.930	111768
430.004	52961
430.078	58255
430.152	75812
430.226	153476
430.300	155158
430.374	24721
430.448	7518
430.522	21949
430.596	57999
430.670	55503
430.744	136048
430.818	187684
430.892	41297
430.966	4882
431.040	2372
431.114	910
431.188	505
431.262	434
431.336	1277
431.410	6540
431.484	16631
431.557	12391
431.631	1536
431.705	4398
431.779	29187
431.853	98088
431.927	69916
432.000	7520
432.074	1353
432.148	1404
432.222	1585
432.295	648
432.369	1484
432.443	7986
432.516	53229
432.590	119439
432.664	45929
432.737	3798
432.811	-398
432.885	273
432.958	1310
433.032	190
433.106	-126
433.179	-203
433.253	235
433.326	262
433.400	-763
433.473	65
433.547	-153
433.620	778
433.694	4610
433.767	4977
433.841	454
433.914	532
433.988	691
434.061	994
434.134	622
434.208	-736
434.281	86
434.355	34
434.428	1042
434.501	773
434.575	-151
434.648	61
434.721	1026
434.795	-114
434.868	-594
434.941	47
435.014	239
435.088	2141
435.161	4532
435.234	6902
435.307	6930
435.381	3455
435.454	2473
435.527	4441
435.600	5017
435.673	3269
435.746	1737
435.819	1332
435.892	1455
435.966	439
436.039	-383
436.112	906
436.185	14
436.258	-282
436.331	-698
436.404	-536
436.477	-696
436.550	-158
436.623	-126
436.696	504
436.769	1278
436.842	556
436.915	1458
436.987	1642
437.060	1116
437.133	202
437.206	-161
437.279	311
437.352	387
437.425	62
437.498	1511
437.570	4065
437.643	5210
437.716	-74
437.789	878
437.861	4856
437.934	14283
438.007	6047
438.080	339
438.152	1229
438.225	10643
438.298	72081
438.370	168993
438.443	72347
438.516	13353
438.588	2497
438.661	241
438.734	931
438.806	1244
438.879	2384
438.951	3484
439.024	6316
439.096	2185
439.169	835
439.241	133
439.314	140
439.386	922
439.459	4489
439.531	6680
439.604	1874
439.676	506
439.749	-697
439.821	-359
439.893	3
439.966	513
440.038	771
440.110	2333
440.183	-145
440.255	-145
440.327	3541
440.400	29592
440.472	99420
440.544	66130
440.617	6677
440.689	5266
440.761	7178
440.833	11524
440.905	6426
440.978	250
441.050	-375
441.122	185
441.194	-897
441.266	114
441.338	284
441.411	6074
441.483	31808
441.555	44323
441.627	8485
441.699	3253
441.771	2703
441.843	485
441.915	75
441.987	580
442.059	-128
442.131	1892
442.203	2748
442.275	3989
442.347	4097
442.419	10374
442.491	51381
442.563	109197
442.635	44536
442.706	17556
442.778	12716
442.850	2446
442.922	1264
442.994	1960
443.066	3821
443.137	2718
443.209	2402
443.281	5138
443.353	14091
443.425	68159
443.496	205503
443.568	190758
443.640	64190
443.711	9768
443.783	3351
443.855	2740
443.926	1014
443.998	1247
444.070	2545
444.141	2103
444.213	4303
444.285	5862
444.356	3428
444.428	3861
444.499	515
444.571	-219
444.642	382
444.714	1883
444.785	4155
444.857	4378
444.928	8458
445.000	5534
445.071	6542
445.143	8668
445.214	5312
445.285	11112
445.357	38432
445.428	144593
445.500	297707
445.571	177555
445.642	85934
445.714	27184
445.785	17695
445.856	6698
445.928	6222
445.999	5181
446.070	3364
446.141	3312
446.213	6360
446.284	2331
446.355	1593
446.426	967
446.497	1130
446.569	3134
446.640	5303
446.711	4317
446.782	333
446.853	1969
446.924	2459
446.995	1544
447.066	1600
447.138	1958
447.209	750
447.280	-220
447.351	-703
447.422	-343
447.493	603
447.564	1525
447.635	3315
447.706	537
447.777	-604
447.847	-514
447.918	-388
447.989	1494
448.060	2288
448.131	5624
448.202	6189
448.273	4008
448.344	1096
448.414	781
448.485	-179
448.556	-530
448.627	-430
448.698	370
448.768	-829
448.839	673
448.910	1534
448.981	1662
449.051	258
449.122	-55
449.193	-919
449.263	309
449.334	-716
449.405	1242
449.475	5132
449.546	3701
449.616	2731
449.687	2007
449.758	-114
449.828	-339
449.899	301
449.969	-607
450.040	-254
450.110	471
450.181	136
450.251	200
450.322	-532
450.392	-116
450.463	-437
450.533	-508
450.604	-620
450.674	-578
450.744	644
450.815	-226
450.885	22
450.955	-368
451.026	-450
451.096	-764
451.166	-200
451.237	3472
451.307	8314
451.377	2143
451.447	-581
451.518	-922
451.588	-768
451.658	-81
451.728	1206
451.799	9195
451.869	9142
451.939	689
452.009	-1024
452.079	-571
452.149	-357
452.219	1906
452.289	10715
452.360	6607
452.430	553
452.500	1083
452.570	1589
452.640	4437
452.710	12859
452.780	16741
452.850	12351
452.920	10894
452.990	1528
453.060	1135
453.129	1702
453.199	2717
453.269	15127
453.339	29333
453.409	43584
453.479	45052
453.549	63698
453.619	62108
453.688	20623
453.758	1775
453.828	-185
453.898	89
453.968	-186
454.037	-119
454.087	-30
454.107	-9
454.168	-431
454.177	-511
454.247	-887
454.249	-833
454.316	-109
454.330	39
454.386	316
454.411	1865
454.456	4170
454.492	5642
454.525	7016
454.574	3197
454.595	1559
454.655	358
454.665	158
454.734	953
454.736	1077
454.804	2694
454.817	4341
454.873	10317
454.898	10351
454.943	10500
454.979	6844
455.013	3807
455.060	2011
455.082	1139
455.141	1925
455.152	1922
455.221	7453
455.222	7584
455.291	11760
455.303	10301
455.360	4445
455.384	4729
455.430	5031
455.465	4922
455.499	4490
455.546	7501
455.569	8587
455.627	5007
455.638	4478
455.707	280
455.708	294
455.777	-95
455.789	-26
455.846	294
455.869	326
455.916	286
455.950	727
455.985	1080
456.031	613
456.054	364
456.112	241
456.124	261
456.193	216
456.193	192
456.262	1197
456.274	1311
456.332	1913
456.355	1880
456.401	1236
456.436	605
456.470	260
456.516	431
456.540	387
456.597	96
456.609	81
456.678	400
456.678	387
456.747	-128
456.759	-152
456.817	-120
456.840	45
456.886	278
456.920	436
456.955	720
457.001	588
457.024	506
457.082	1486
457.093	1636
457.162	2818
457.163	2847
457.232	2796
457.243	2358
457.301	791
457.324	729
457.370	746
457.405	830
457.439	934
457.485	1319
457.508	1632
457.566	1503
457.577	1593
457.646	3819
457.647	3869
457.715	7395
457.727	8251
457.784	12632
457.808	15845
457.853	18391
457.889	19454
457.922	20298
457.969	15372
457.991	14983
458.050	19315
458.060	19917
458.129	31119
458.130	31446
458.198	26621
458.211	22569
458.267	11705
458.292	8854
458.336	7611
458.372	8327
458.405	12013
458.453	19233
458.474	22596
458.533	35204
458.543	35233
458.611	46498
458.614	46394
458.680	25923
458.694	19613
458.749	7681
458.775	5748
458.818	3375
458.855	2654
458.887	2341
458.936	2290
458.955	2300
459.016	2004
459.024	2038
459.093	2773
459.097	2825
459.162	3075
459.177	3001
459.230	3153
459.257	3814
459.299	4084
459.338	3680
459.368	3624
459.418	3849
459.437	3503
459.499	2099
459.505	2098
459.574	2517
459.579	2544
459.643	2523
459.659	2478
459.711	2701
459.740	2818
459.780	2466
459.820	2552
459.849	2945
459.900	3149
459.917	3066
459.981	3295
459.986	3336
460.054	3660
460.061	3736
460.123	4608
460.141	4735
460.191	5234
460.222	5999
460.260	6234
460.302	6422
460.328	6102
460.382	4574
460.397	4620
460.462	4728
460.465	4945
460.534	11415
460.543	12137
460.602	20087
460.623	23535
460.671	35210
460.703	46406
460.739	36813
460.783	19863
460.808	18027
460.864	6053
460.876	4438
460.944	3181
460.945	3160
461.013	2923
461.024	2874
461.081	3303
461.104	3756
461.150	3636
461.184	3116
461.218	3126
461.264	3127
461.286	2992
461.345	3098
461.355	3153
461.423	3387
461.425	3385
461.491	5015
461.505	5397
461.559	9841
461.585	12089
461.628	16923
461.665	21594
461.696	19642
461.745	18005
461.764	16381
461.825	6041
461.832	5762
461.901	4246
461.905	4260
461.969	3900
461.985	3718
462.037	4163
462.065	4390
462.105	5547
462.145	6858
462.173	8373
462.225	11225
462.241	11716
462.305	14787
462.310	14344
462.378	6764
462.385	5703
462.446	4663
462.465	4679
462.514	4108
462.545	3804
462.582	3978
462.625	4254
462.650	4154
462.705	3781
462.718	4008
462.785	5284
462.786	5312
462.854	6578
462.865	6870
462.922	7298
462.945	7539
462.990	6139
463.025	4413
463.058	3637
463.104	3085
463.126	3237
463.184	3304
463.194	3408
463.262	4637
463.264	4668
463.330	4214
463.344	4116
463.398	4905
463.424	5179
463.466	4392
463.504	4003
463.533	4503
463.583	4870
463.601	5159
463.663	6528
463.669	6858
463.737	10232
463.743	10580
463.805	14933
463.823	16126
463.873	21879
463.903	25570
463.940	23167
463.982	20657
464.008	16466
464.062	6052
464.076	5763
464.142	4334
464.144	4326
464.211	4651
464.221	4703
464.279	5332
464.301	5658
464.347	6736
464.381	7348
464.414	8097
464.461	9114
464.482	9129
464.540	9566
464.550	9570
464.617	8798
464.620	8768
464.685	8853
464.699	8844
464.753	8516
464.779	8343
464.820	8727
464.859	9131
464.888	8924
464.938	8463
464.956	8488
465.018	8522
465.023	8528
465.091	8212
465.098	8186
465.158	8333
465.177	8367
465.226	7742
465.257	7315
465.293	8522
465.336	9786
465.361	10849
465.416	13448
465.428	14251
465.495	18413
465.496	18489
465.563	25229
465.575	26427
465.631	25655
465.654	25372
465.698	16382
465.734	8290
465.765	7686
465.813	6965
465.833	6995
465.893	7254
465.900	7211
465.968	6812
465.972	6769
466.035	7510
466.052	7700
466.102	8210
466.131	8417
466.170	8299
466.210	8193
466.237	8609
466.290	9357
466.304	9510
466.369	10118
466.372	10156
466.439	10639
466.449	10687
466.506	13473
466.528	14513
466.573	20850
466.607	25553
466.641	32560
466.687	42180
466.708	42250
466.766	42398
466.775	39479
466.842	16690
466.845	15576
466.909	13594
466.925	13146
466.977	12313
467.004	11880
467.044	12635
467.083	13317
467.111	13589
467.163	14037
467.178	14187
467.242	14672
467.245	14670
467.312	14041
467.321	13932
467.379	13858
467.400	13788
467.446	14444
467.480	14870
467.559	11886
467.638	12145
467.717	11884
467.796	13541
467.875	15751
467.955	15259
468.034	27573
468.113	46426
468.192	49721
468.271	13651
468.350	14342
468.429	16764
468.508	15344
468.588	12366
468.667	11500
468.746	11913
468.825	10987
468.904	10609
468.983	15102
469.062	18918
469.141	18647
469.220	9504
469.299	9753
469.378	10514
469.456	12306
469.535	10130
469.614	10748
469.693	12674
469.772	15882
469.851	20926
469.930	12272
470.009	11539
470.088	13492
470.166	19680
470.245	29491
470.324	31915
470.403	19538
470.482	14242
470.560	12873
470.639	12794
470.718	15167
470.797	11756
470.875	14790
470.954	18865
471.033	16315
471.111	7666
471.190	7456
471.269	8036
471.347	7956
471.426	8557
471.505	10126
471.583	9455
471.662	8396
471.740	8750
471.819	8664
471.898	7499
471.976	8238
472.055	9210
472.133	11128
472.212	13644
472.290	12750
472.369	7643
472.447	7955
472.526	7582
472.604	9470
472.683	10079
472.761	10703
472.839	9967
472.918	9547
472.996	9380
473.075	11150
473.153	9142
473.231	8770
473.310	11766
473.388	8759
473.466	10203
473.545	13115
473.623	16176
473.701	14424
473.780	8989
473.858	8891
473.936	10567
474.014	9564
474.093	12844
474.171	16485
474.249	20591
474.327	11041
474.405	8561
474.484	8509
474.562	8810
474.640	9198
474.718	9528
474.796	9095
474.874	8128
474.952	8672
475.030	8357
475.108	10565
475.187	12190
475.265	16171
475.343	22116
475.421	19867
475.499	9833
475.577	10919
475.655	17312
475.733	30283
475.811	42958
475.889	37792
475.966	16378
476.044	11927
476.122	15755
476.200	19706
476.278	11412
476.356	8785
476.434	9610
476.512	15057
476.590	18529
476.667	12776
476.745	7969
476.823	9081
476.901	7865
476.979	9230
477.056	8566
477.134	8933
477.212	9419
477.290	7913
477.367	6864
477.445	7176
477.523	7122
477.601	9002
477.678	8316
477.756	10243
477.834	9856
477.911	8130
477.989	7690
478.066	7992
478.144	10993
478.222	17257
478.299	28367
478.377	16870
478.454	7471
478.532	7632
478.609	8030
478.687	8801
478.764	7886
478.842	10612
478.919	10348
478.997	8313
479.074	7842
479.152	9361
479.229	11874
479.307	6382
479.384	5731
479.461	7413
479.539	8237
479.616	9308
479.694	7844
479.771	10304
479.848	9958
479.926	13661
480.003	11562
480.080	8669
480.157	7289
480.235	7435
480.312	6771
480.389	11558
480.467	15321
480.544	15236
480.621	8906
480.698	9425
480.775	10331
480.853	9657
480.930	8020
481.007	8730
481.084	10403
481.161	11871
481.238	8934
481.315	6569
481.392	7416
481.470	8063
481.547	7241
481.624	7827
481.701	6639
481.778	9101
481.855	11273
481.932	16999
482.009	24007
482.086	12843
482.163	12135
482.240	23301
482.317	37453
482.393	18484
482.470	9650
482.547	9159
482.624	9666
482.701	9671
482.778	8745
482.855	7519
482.932	7381
483.009	8940
483.085	10362
483.162	13077
483.239	11003
483.316	9173
483.393	8817
483.469	9180
483.546	10229
483.623	10418
483.699	8379
483.776	8596
483.853	12061
483.930	21404
484.006	42077
484.083	56479
484.160	23654
484.236	31822
484.313	22813
484.389	19471
484.466	18231
484.543	18025
484.619	19473
484.696	21751
484.772	20388
484.849	20564
484.925	17302
485.002	16841
485.078	18295
485.155	18969
485.231	15563
485.308	15277
485.384	17844
485.461	25535
485.537	39128
485.614	36255
485.690	16050
485.766	16434
485.843	21829
485.919	31671
485.995	27485
486.072	14853
486.148	14642
486.224	14242
486.301	16691
486.377	20778
486.453	20518
486.530	17601
486.606	22958
486.682	25583
486.758	33324
486.835	35495
486.911	34785
486.987	61684
487.063	68310
487.139	84534
487.215	49910
487.292	20189
487.368	19380
487.444	25026
487.520	33329
487.596	37303
487.672	77908
487.748	168304
487.824	198920
487.900	56479
487.976	28713
488.052	26760
488.128	29701
488.204	20960
488.280	18569
488.356	28117
488.432	51616
488.508	60695
488.584	19751
488.660	16812
488.736	16140
488.812	19117
488.888	27647
488.964	50441
489.039	108751
489.115	131452
489.191	52019
489.267	16805
489.343	14155
489.418	13253
489.494	13288
489.570	12797
489.646	12794
489.722	12816
489.797	15641
489.873	30487
489.949	52610
490.024	30066
490.100	12565
490.176	16496
490.251	21723
490.327	26952
490.403	14460
490.478	12386
490.554	10860
490.629	11797
490.705	11643
490.781	13549
490.856	14141
490.932	16508
491.007	17370
491.083	15074
491.158	14632
491.234	23506
491.309	42606
491.385	30178
491.460	13291
491.536	15319
491.611	13697
491.686	18063
491.762	31885
491.837	70664
491.913	113114
491.988	149353
492.063	147985
492.139	30279
492.214	16755
492.289	12023
492.365	12040
492.440	15293
492.515	13271
492.590	12529
492.666	11318
492.741	18709
492.816	21909
492.891	11106
492.967	9957
493.042	10560
493.117	8932
493.192	9479
493.267	14394
493.342	20414
493.418	17963
493.493	10415
493.568	9026
493.643	12230
493.718	16494
493.793	26303
493.868	25449
493.943	16358
494.018	10796
494.093	10606
494.168	9427
494.243	9615
494.318	9144
494.393	8566
494.468	9761
494.543	10152
494.618	13471
494.693	11065
494.768	10181
494.842	9700
494.917	9675
494.992	11162
495.067	9387
495.142	9227
495.217	10699
495.292	11257
495.366	14296
495.441	17655
495.516	23766
495.591	59164
495.665	176656
495.740	305523
495.815	68140
495.890	15399
495.964	11867
496.039	14183
496.114	13195
496.188	16098
496.263	13242
496.338	13228
496.412	15714
496.487	18267
496.561	21061
496.636	19491
496.710	16552
496.785	17416
496.860	18576
496.934	15562
497.009	15332
497.083	16462
497.158	17466
497.232	20788
497.307	24684
497.381	21215
497.455	25609
497.530	29633
497.604	22493
497.679	27971
497.753	40739
497.827	46889
497.902	43660
497.976	64215
498.050	172919
498.125	420997
498.199	259528
498.273	65839
498.348	54442
498.422	46343
498.496	44506
498.570	37292
498.645	27445
498.719	26926
498.793	31411
498.867	47616
498.941	79143
499.016	214291
499.090	376108
499.164	63491
499.238	18719
499.312	19520
499.386	24141
499.460	19400
499.534	19088
499.609	24086
499.683	29841
499.757	38135
499.831	115938
499.905	287486
499.979	155164
500.053	36151
500.127	37050
500.201	29622
500.275	17933
500.349	16988
500.422	22546
500.496	42961
500.570	99534
500.644	186788
500.718	228025
500.792	28454
500.866	16951
500.940	20000
501.013	16067
501.087	21181
501.161	37285
501.235	51855
501.309	119860
501.382	249107
501.456	132585
501.530	49823
501.603	65936
501.677	18545
501.751	13009
501.825	20492
501.898	45165
501.972	92984
502.046	34465
502.119	22386
502.193	56817
502.266	96140
502.340	34961
502.413	55044
502.487	77592
502.561	37435
502.634	15060
502.708	15202
502.781	13244
502.855	9856
502.928	8518
503.002	9040
503.075	9533
503.149	9635
503.222	9672
503.295	11770
503.369	15009
503.442	31150
503.516	95913
503.589	168321
503.662	79168
503.736	42477
503.809	84538
503.882	65937
503.956	105906
504.029	86443
504.102	105505
504.175	106848
504.249	37717
504.322	22424
504.395	16930
504.468	11610
504.542	10799
504.615	8760
504.688	8362
504.761	10055
504.834	13121
504.907	19867
504.980	27485
505.053	12900
505.127	17980
505.200	17546
505.273	14129
505.346	8722
505.419	7594
505.492	7589
505.565	6796
505.638	7025
505.711	6315
505.784	6408
505.857	5787
505.930	7997
506.003	6311
506.076	9355
506.149	12212
506.221	12344
506.294	18557
506.367	56516
506.440	122938
506.513	39753
506.586	13541
506.659	9889
506.731	9052
506.804	15053
506.877	17208
506.950	10652
507.022	8847
507.095	12244
507.168	12791
507.241	8623
507.313	8353
507.386	11472
507.459	15009
507.531	8632
507.604	7066
507.677	6956
507.749	7324
507.822	13249
507.894	22889
507.967	19724
508.040	9287
508.112	10772
508.185	9682
508.257	12265
508.330	15850
508.402	8330
508.475	8722
508.547	9510
508.620	12243
508.692	15926
508.765	8620
508.837	6788
508.909	7252
508.982	8981
509.054	10117
509.127	7941
509.199	6631
509.271	7217
509.344	6549
509.416	6741
509.488	6640
509.560	8308
509.633	9271
509.705	11075
509.777	11389
509.849	16418
509.922	8129
509.994	6920
510.066	8230
510.138	8362
510.210	14482
510.283	11214
510.355	10827
510.427	10185
510.499	11101
510.571	10513
510.643	12142
510.715	21913
510.787	14517
510.859	11784
510.931	14285
511.003	20638
511.076	13918
511.148	8399
511.219	9359
511.291	18439
511.363	14894
511.435	7619
511.507	6875
511.579	7941
511.651	6835
511.723	7991
511.795	7883
511.867	8970
511.939	13580
512.010	24927
512.082	13708
512.154	9008
512.226	10776
512.298	16804
512.369	19951
512.441	16020
512.513	17009
512.585	12461
512.656	13631
512.728	13300
512.800	9940
512.871	10297
512.943	10252
513.015	9514
513.086	10795
513.158	12979
513.230	15297
513.301	24714
513.373	20677
513.444	12521
513.516	9224
513.588	10762
513.659	13535
513.731	16674
513.802	18904
513.874	46384
513.945	57834
514.016	13722
514.088	10888
514.159	14280
514.231	18848
514.302	18521
514.374	13126
514.445	15842
514.516	28713
514.588	16496
514.659	17127
514.730	25441
514.802	20154
514.873	17401
514.944	17537
515.016	17168
515.087	18509
515.158	23221
515.229	24147
515.301	20272
515.372	23111
515.443	16437
515.514	12721
515.585	11740
515.656	11671
515.728	12500
515.799	10745
515.870	12983
515.941	12567
516.012	13634
516.083	18039
516.154	21496
516.225	28308
516.296	24688
516.367	23973
516.438	28814
516.509	41825
516.580	96604
516.651	340727
516.722	742794
516.793	183004
516.864	47765
516.935	44075
517.006	56116
517.077	112364
517.148	341307
517.219	1053913
517.289	970735
517.360	184266
517.431	47580
517.502	24662
517.573	23375
517.643	22087
517.714	25115
517.785	25719
517.856	27157
517.926	33492
517.997	41006
518.068	53256
518.138	87807
518.209	225846
518.280	851291
518.350	1714102
518.421	412334
518.492	64484
518.562	41076
518.633	39652
518.703	45966
518.774	91166
518.845	171245
518.915	114850
518.986	43693
519.056	40544
519.127	66857
519.197	99972
519.268	153859
519.338	55585
519.408	26662
519.479	37028
519.549	21963
519.620	15162
519.690	11719
519.760	12207
519.831	14383
519.901	11413
519.971	11350
520.042	13078
520.112	15411
520.182	19897
520.253	20676
520.323	17799
520.393	40319
520.463	49955
520.534	46565
520.604	74948
520.674	23785
520.744	41068
520.814	103297
520.885	57407
520.955	73280
521.025	152112
521.095	30562
521.165	11817
521.235	11401
521.305	9935
521.375	10477
521.445	14221
521.515	20859
521.585	24168
521.655	18242
521.725	17074
521.795	12772
521.865	9943
521.935	16224
522.005	11196
522.075	8954
522.145	11412
522.215	14378
522.285	18078
522.355	28933
522.424	47167
522.494	32612
522.564	27940
522.634	78975
522.704	149780
522.774	30891
522.843	13360
522.913	14684
522.983	16355
523.053	12538
523.122	15046
523.192	34577
523.262	104110
523.331	58058
523.401	12306
523.471	9652
523.540	10433
523.610	7433
523.680	7835
523.749	8628
523.819	11853
523.888	9927
523.958	7706
524.027	9364
524.097	9606
524.166	10110
524.236	11987
524.305	11401
524.375	8684
524.444	7262
524.514	9727
524.583	10642
524.653	12481
524.722	13362
524.791	8431
524.861	8780
524.930	8102
524.999	12292
525.069	14554
525.138	12371
525.207	12686
525.277	10499
525.346	10959
525.415	11002
525.484	12303
525.554	14841
525.623	12920
525.692	14028
525.761	15126
525.830	16779
525.900	21833
525.969	36639
526.038	66773
526.107	170928
526.176	348506
526.245	202291
526.314	96078
526.383	215053
526.452	242909
526.522	447171
526.591	275837
526.660	86483
526.729	45161
526.797	67821
526.867	200817
526.935	624456
527.004	846513
527.073	276410
527.142	31981
527.211	18795
527.280	20122
527.349	17927
527.418	9150
527.487	11639
527.555	8757
527.624	8767
527.693	7430
527.762	9062
527.831	6147
527.899	8643
527.968	8297
528.037	8341
528.106	15593
528.174	26374
528.243	19055
528.312	35046
528.380	29149
528.449	9131
528.518	7695
528.586	5345
528.655	7538
528.723	6730
528.792	6977
528.861	7332
528.929	5868
528.998	7937
529.066	6977
529.135	6405
529.203	6188
529.272	6147
529.340	6581
529.409	8883
529.477	7486
529.545	10416
529.614	11917
529.682	15921
529.751	13773
529.819	18373
529.887	9286
529.956	8142
530.024	7990
530.092	7448
530.161	13060
530.229	18751
530.297	8229
530.365	8394
530.434	6693
530.502	6406
530.570	7138
530.638	5059
530.707	9406
530.775	9242
530.843	6943
530.911	6895
530.979	7422
531.047	7379
531.115	7357
531.183	7313
531.252	7430
531.320	7008
531.388	6006
531.456	7395
531.524	6356
531.592	8400
531.660	8677
531.728	6975
531.796	6948
531.864	6858
531.932	8523
532.000	8121
532.067	8877
532.135	10730
532.203	12145
532.271	15368
532.339	35045
532.407	73643
532.475	26305
532.542	15266
532.610	19035
532.678	43887
532.746	187232
532.814	247537
532.881	40616
532.949	11931
533.017	10021
533.084	8884
533.152	8701
533.220	9555
533.287	11213
533.355	8131
533.423	7513
533.490	7413
533.558	7202
533.625	8383
533.693	9361
533.761	9155
533.828	9628
533.896	12124
533.963	26320
534.031	30701
534.098	38191
534.166	12558
534.233	9307
534.300	10324
534.368	9814
534.435	10349
534.503	12541
534.570	17850
534.637	12777
534.705	15406
534.772	22648
534.840	59076
534.907	205969
534.974	138346
535.041	18490
535.109	12828
535.176	8315
535.243	10251
535.310	11092
535.378	9059
535.445	8128
535.512	8221
535.579	8766
535.646	9018
535.714	8827
535.781	10407
535.848	9513
535.915	10272
535.982	8874
536.049	9106
536.116	10481
536.183	9599
536.250	10309
536.317	11081
536.384	16374
536.451	23460
536.518	20709
536.585	14809
536.652	21702
536.719	29535
536.786	19237
536.853	17054
536.920	29818
536.987	43315
537.053	58966
537.120	185646
537.187	75171
537.254	13177
537.321	10286
537.388	12385
537.454	8936
537.521	9187
537.588	8360
537.654	12171
537.721	11916
537.788	13882
537.855	9956
537.921	10999
537.988	10245
538.055	10471
538.121	11507
538.188	15054
538.254	29745
538.321	46086
538.388	19314
538.454	11810
538.521	10581
538.587	10904
538.654	10215
538.720	10307
538.787	10065
538.853	11870
538.920	15152
538.986	13431
539.053	11514
539.119	13009
539.185	12370
539.252	18794
539.318	24892
539.385	15969
539.451	14328
539.517	15837
539.583	22547
539.650	68137
539.716	97583
539.782	18051
539.849	12505
539.915	12369
539.981	15180
540.047	17542
540.114	12966
540.180	14808
540.246	16106
540.312	26549
540.378	50078
540.444	41346
540.510	73033
540.576	118491
540.643	22042
540.709	11262
540.775	12034
540.841	13689
540.907	21597
540.973	32015
541.039	26225
541.105	22175
541.171	12287
541.237	11970
541.303	14099
541.369	18698
541.435	27192
541.500	38593
541.566	18512
541.632	11274
541.698	10383
541.764	11457
541.830	10819
541.896	10864
541.961	11505
542.027	12515
542.093	11919
542.159	13147
542.224	16400
542.290	26817
542.356	46358
542.421	36165
542.487	15491
542.553	13150
542.618	12723
542.684	12593
542.750	13307
542.815	19709
542.881	46327
542.947	130680
543.012	47007
543.078	11884
543.143	10547
543.209	13961
543.274	13976
543.340	20643
543.405	59251
543.471	51702
543.536	11650
543.602	11898
543.667	10826
543.732	11634
543.798	10140
543.863	9827
543.928	9223
543.994	10572
544.059	10537
544.124	11618
544.190	10272
544.255	10794
544.320	12401
544.386	14513
544.451	21183
544.516	23277
544.581	31176
544.646	98092
544.712	81223
544.777	16538
544.842	14089
544.907	13510
544.972	12394
545.037	13381
545.102	13325
545.168	14096
545.233	14823
545.298	16481
545.363	20154
545.428	26134
545.493	59513
545.558	87481
545.623	23813
545.688	14313
545.753	13952
545.818	13145
545.883	13872
545.947	14106
546.012	17162
546.077	15395
546.142	17551
546.207	18042
546.272	25792
546.337	21557
546.401	18273
546.466	16730
546.531	15710
546.596	19320
546.661	17739
546.725	18406
546.790	16877
546.855	17551
546.919	19805
546.984	21905
547.049	24464
547.113	27124
547.178	26338
547.243	31662
547.307	36476
547.372	41622
547.436	39206
547.501	37333
547.565	40814
547.630	44644
547.695	40652
547.759	40464
547.823	35794
547.888	35718
547.952	36730
548.017	38345
548.081	44574
548.146	47424
548.210	42644
548.274	42700
548.339	38870
548.403	36976
548.468	33638
548.532	34527
548.596	35748
548.660	36452
548.725	41785
548.789	45736
548.853	43039
548.917	41475
548.982	45183
549.046	37696
549.110	30836
549.174	33292
549.238	37375
549.303	39340
549.367	40433
549.431	38913
549.495	36695
549.559	38034
549.623	45562
549.687	51062
549.751	58155
549.815	55656
549.879	52087
549.943	50119
550.007	54939
550.071	54732
550.135	56061
550.199	47272
550.263	45516
550.327	49428
550.391	52252
550.455	50327
550.519	53084
550.582	59977
550.646	74038
550.710	67506
550.774	62094
550.838	62064
550.901	65088
550.965	70307
551.029	73754
551.093	84999
551.156	102838
551.220	144308
551.284	129078
551.347	94178
551.411	116550
551.475	90161
551.538	67491
551.602	59261
551.666	57583
551.729	51369
551.793	52665
551.856	51465
551.920	50415
551.983	51083
552.047	50956
552.110	51144
552.174	51066
552.237	52876
552.301	48021
552.364	47555
552.428	46511
552.491	49615
552.554	49936
552.618	51284
552.681	55370
552.745	63228
552.808	97323
552.871	105207
552.934	66734
552.998	54089
553.061	50501
553.124	47090
553.187	46337
553.251	47786
553.314	47457
553.377	49392
553.440	51836
553.503	58879
553.567	57032
553.630	50022
553.693	50948
553.756	50177
553.819	48046
553.882	46644
553.945	47292
554.008	47451
554.071	48590
554.134	47832
554.197	44588
554.260	46299
554.323	47981
554.386	47088
554.449	47061
554.512	48200
554.575	45963
554.638	47667
554.701	45996
554.764	44283
554.827	43247
554.889	40292
554.952	38909
555.015	38904
555.078	40062
555.141	40949
555.203	38703
555.266	39616
555.329	39628
555.391	38745
555.454	41171
555.517	37552
555.580	35852
555.642	34781
555.705	33938
555.768	34978
555.830	34127
555.893	31993
555.955	31250
556.018	31412
556.080	32135
556.143	32228
556.206	31435
556.268	32666
556.330	32731
556.393	32583
556.455	33087
556.518	40204
556.580	32982
556.643	27808
556.705	27104
556.767	26906
556.830	29118
556.892	35270
556.955	43418
557.017	29844
557.079	27243
557.142	28602
557.204	36473
557.266	60273
557.328	36301
557.391	23411
557.453	24215
557.515	25614
557.577	30978
557.639	28277
557.701	23036
557.764	24170
557.826	24650
557.888	27325
557.950	28508
558.012	35055
558.074	57069
558.136	159790
558.198	237533
558.260	56108
558.322	31653
558.384	33742
558.446	38024
558.508	43422
558.570	59396
558.632	102700
558.694	131242
558.756	216566
558.818	714063
558.880	950301
558.942	256620
559.003	262234
559.065	79535
559.127	44306
559.189	48704
559.251	61209
559.312	116173
559.374	361867
559.436	735313
559.498	191248
559.559	46999
559.621	45523
559.683	66168
559.744	149139
559.806	469529
559.868	373219
559.929	61047
559.991	58420
560.052	127067
560.114	263956
560.176	119414
560.237	196625
560.299	184877
560.360	31403
560.422	18777
560.483	18114
560.545	17415
560.606	16712
560.667	14820
560.729	14235
560.790	15399
560.852	15259
560.913	14975
560.974	15118
561.036	14005
561.097	14934
561.158	13595
561.220	15603
561.281	13955
561.342	16355
561.403	20187
561.465	32577
561.526	81111
561.587	63350
561.648	17070
561.709	14473
561.771	14391
561.832	13501
561.893	13591
561.954	12801
562.015	12693
562.076	13768
562.137	13324
562.198	13271
562.259	13677
562.320	14279
562.381	18667
562.442	25913
562.503	17006
562.564	13384
562.625	14020
562.686	13730
562.747	15251
562.808	13710
562.869	12703
562.930	14863
562.991	13816
563.051	12932
563.112	12116
563.173	13637
563.234	11337
563.294	12916
563.355	13363
563.416	13719
563.477	11688
563.537	11714
563.598	13700
563.659	13423
563.720	13175
563.780	14982
563.841	13580
563.901	12491
563.962	12002
564.023	12504
564.083	12890
564.144	13480
564.204	12484
564.265	14392
564.325	17533
564.386	30917
564.446	17826
564.507	13445
564.567	13054
564.628	13444
564.688	12963
564.749	12252
564.809	15153
564.869	16637
564.930	12100
564.990	12675
565.050	11730
565.111	13382
565.171	13076
565.231	11504
565.292	12973
565.352	11994
565.412	13444
565.472	13166
565.532	14371
565.593	14500
565.653	13210
565.713	14859
565.773	15657
565.833	21680
565.893	22146
565.953	14408
566.013	12999
566.074	17284
566.134	20880
566.194	29418
566.254	25963
566.314	18180
566.374	15010
566.434	15256
566.494	15700
566.554	15766
566.614	16044
566.673	17670
566.733	18003
566.793	20221
566.853	19138
566.913	19754
566.973	20077
567.033	21316
567.092	20672
567.152	20882
567.212	21166
567.272	21691
567.331	22310
567.391	22574
567.451	25221
567.511	29931
567.570	23928
567.630	21458
567.690	19825
567.749	20537
567.809	22305
567.868	25628
567.928	28029
567.988	32570
568.047	37768
568.107	46939
568.166	67863
568.226	104421
568.285	119787
568.345	99378
568.404	84145
568.464	73213
568.523	69823
568.582	72335
568.642	83677
568.701	106828
568.761	162561
568.820	216587
568.879	188067
568.939	144653
568.998	108393
569.057	87245
569.116	69896
569.176	57169
569.235	47795
569.294	43145
569.353	35537
569.413	33628
569.472	29366
569.531	26625
569.590	24307
569.649	22897
569.708	21373
569.767	23858
569.827	25952
569.886	19406
569.945	18387
570.004	18163
570.063	17637
570.122	18416
570.181	18014
570.240	19234
570.299	18323
570.358	19260
570.417	14402
570.475	14332
570.534	15783
570.593	16145
570.652	16419
570.711	15735
570.770	14204
570.829	15188
570.887	16928
570.946	16643
571.005	12499
571.064	14507
571.122	15732
571.181	15913
571.240	11716
571.299	11763
571.357	12424
571.416	13163
571.475	14682
571.533	13623
571.592	11904
571.650	12876
571.709	11459
571.768	13235
571.826	12038
571.885	10743
571.943	11058
572.002	10976
572.060	11086
572.119	10415
572.177	10258
572.236	9869
572.294	10372
572.352	10743
572.411	9916
572.469	9470
572.528	10224
572.586	11749
572.644	14872
572.703	17617
572.761	10670
572.819	9803
572.877	9660
572.936	9552
572.994	9311
573.052	9873
573.110	11015
573.169	10194
573.227	9146
573.285	9710
573.343	9078
573.401	10355
573.459	9533
573.517	8823
573.576	8644
573.634	10863
573.692	10604
573.750	9872
573.808	9426
573.866	10113
573.924	13201
573.982	11677
574.040	9444
574.098	9641
574.155	8690
574.213	9294
574.271	9431
574.329	9833
574.387	8820
574.445	9105
574.503	7910
574.560	8129
574.618	8327
574.676	8655
574.734	8460
574.792	9581
574.849	7938
574.907	7408
574.965	7974
575.022	6728
575.080	6792
575.138	9019
575.195	8300
575.253	9767
575.311	9458
575.368	8086
575.426	6478
575.483	7490
575.541	8183
575.598	7341
575.656	8315
575.713	8288
575.771	8456
575.828	8353
575.886	7989
575.943	8691
576.001	8040
576.058	8334
576.115	9334
576.173	11004
576.230	12432
576.287	13730
576.345	9671
576.402	9243
576.459	8381
576.517	9715
576.574	9994
576.631	8758
576.688	7776
576.746	7946
576.803	7694
576.860	7877
576.917	7846
576.974	7959
577.031	8138
577.089	8138
577.146	8972
577.203	9225
577.260	9194
577.317	9115
577.374	9266
577.431	8930
577.488	9149
577.545	7952
577.602	7906
577.659	7867
577.716	7482
577.773	7734
577.830	7026
577.886	7979
577.943	7544
578.000	8284
578.057	8585
578.114	8791
578.171	8117
578.227	8837
578.284	8076
578.341	9256
578.398	8122
578.454	9665
578.511	9361
578.568	9967
578.625	8850
578.681	8428
578.738	8011
578.794	7722
578.851	7985
578.908	8422
578.964	8311
579.021	9974
579.077	9350
579.134	8527
579.190	8137
579.247	8200
579.303	7215
579.360	7785
579.416	7704
579.473	7824
579.529	6830
579.586	7345
579.642	8996
579.698	7997
579.755	8740
579.811	7791
579.867	8066
579.924	7361
579.980	7923
580.036	7758
580.093	8068
580.149	7545
580.205	7238
580.261	8283
580.317	8569
580.374	9784
580.430	10124
580.486	10268
580.542	8797
580.598	9336
580.619	9036
580.654	8526
580.692	8517
580.710	8527
580.765	8167
580.767	8159
580.823	9099
580.838	9062
580.879	9012
580.911	8360
580.935	7896
580.984	7521
580.991	7480
581.047	8692
581.057	8686
581.103	8652
581.130	8634
581.159	8645
581.203	8423
581.215	8357
581.270	8692
581.276	8662
581.326	8487
581.349	8905
581.382	9491
581.422	8776
581.438	8502
581.494	9516
581.494	9504
581.550	8778
581.567	8977
581.606	9436
581.640	8933
581.661	8607
581.713	9565
581.717	9651
581.773	8337
581.786	8581
581.829	9394
581.859	9006
581.885	8668
581.932	8975
581.940	9030
581.996	8558
582.004	8554
582.052	8600
582.077	8608
582.107	8582
582.150	9136
582.163	9312
582.219	8618
582.223	8688
582.274	9635
582.296	9503
582.330	9269
582.368	9575
582.386	9700
582.441	9180
582.441	9181
582.497	9401
582.514	9254
582.552	9111
582.587	9201
582.608	9192
582.659	8673
582.663	8633
582.719	9911
582.732	9693
582.774	8988
582.805	9123
582.830	9282
582.877	9718
582.885	9780
582.941	10255
582.950	10055
582.996	9073
583.023	9959
583.052	11036
583.095	9986
583.107	9648
583.162	10225
583.168	10178
583.218	9682
583.240	9622
583.273	9664
583.313	9742
583.328	9749
583.384	10745
583.385	10702
583.439	9546
583.458	9895
583.494	10403
583.531	9936
583.549	9762
583.603	9732
583.605	9731
583.660	10027
583.676	10201
583.715	10640
583.748	10355
583.770	10106
583.820	10597
583.825	10653
583.881	10397
583.893	10409
583.936	10530
583.965	10276
583.991	10012
584.038	11072
584.046	11244
584.101	9651
584.110	9828
584.156	10913
584.183	10767
584.211	10464
584.255	11189
584.266	11397
584.321	10802
584.328	10915
584.376	11846
584.400	11581
584.431	11293
584.472	11495
584.486	11554
584.541	11933
584.545	11973
584.596	12375
584.617	12212
584.651	12321
584.689	13044
584.706	13198
584.761	12662
584.762	12664
584.816	13200
584.834	13348
584.871	13683
584.906	13549
584.926	13446
584.978	14362
584.980	14406
585.035	15175
585.051	15357
585.090	15797
585.123	16152
585.145	16502
585.195	17207
585.200	17258
585.254	18748
585.267	19045
585.309	20211
585.340	21341
585.364	22214
585.412	24474
585.419	24877
585.473	30015
585.484	31644
585.528	38634
585.556	48232
585.583	59904
585.628	93012
585.637	102981
585.692	217307
585.700	224992
585.747	263617
585.772	218236
585.801	125545
585.845	54530
585.856	45312
585.910	28238
585.917	26525
585.965	22953
585.989	21958
586.019	21429
586.061	21173
586.074	21036
586.128	20398
586.133	20384
586.183	21059
586.205	21420
586.237	21637
586.277	21169
586.292	21157
586.346	21315
586.349	21341
586.401	21213
586.421	21680
586.455	22971
586.493	24365
586.509	25196
586.564	28312
586.565	28460
586.618	36498
586.637	35784
586.672	31407
586.709	29316
586.727	28536
586.781	27285
586.781	27291
586.835	26346
586.853	26269
586.889	26148
586.925	25755
586.944	25850
586.996	26663
586.998	26695
587.052	27574
587.068	27746
587.106	28243
587.140	28685
587.161	28919
587.212	29688
587.215	29771
587.269	31173
587.284	31572
587.323	32327
587.356	33148
587.377	34021
587.427	35967
587.431	36032
587.485	36978
587.499	37125
587.539	38967
587.571	40759
587.593	41621
587.643	43412
587.648	43701
587.702	46573
587.715	47487
587.755	50075
587.786	51546
587.810	52863
587.858	56505
587.864	56949
587.917	61508
587.930	62575
587.971	67818
588.001	71786
588.025	75081
588.073	81495
588.079	82420
588.133	91522
588.145	93674
588.187	102839
588.217	110048
588.241	116969
588.288	131157
588.295	133442
588.348	154316
588.360	158989
588.402	178995
588.431	194227
588.456	209578
588.503	242833
588.510	248556
588.564	298835
588.575	311600
588.617	371161
588.646	417758
588.671	471009
588.718	589845
588.725	616536
588.778	848010
588.789	900610
588.832	1228389
588.861	1445883
588.886	1672880
588.932	1994203
588.939	1994036
588.993	1976466
589.004	1975118
589.047	1867932
589.075	1736758
589.100	1485655
589.147	1014079
589.154	977018
589.207	716695
589.218	667872
589.261	604135
589.290	572302
589.314	584696
589.361	628021
589.368	648918
589.421	850394
589.433	899238
589.475	1260153
589.504	1489948
589.528	1665366
589.576	1932334
589.582	1910728
589.635	1688933
589.647	1622998
589.689	1136552
589.718	803314
589.742	663479
589.790	406194
589.795	393874
589.849	288052
589.861	265067
589.902	224465
589.932	194291
589.955	178706
590.004	148446
590.009	146459
590.062	125434
590.075	120395
590.115	109709
590.146	101565
590.168	97323
590.218	88668
590.222	88170
590.275	80778
590.289	78801
590.328	74873
590.360	71882
590.381	69955
590.431	65117
590.435	64949
590.488	61490
590.503	60477
590.541	58404
590.574	56608
590.594	55762
590.645	53262
590.647	53235
590.700	51118
590.716	50479
590.753	48934
590.787	47145
590.806	46599
590.859	45586
590.859	45621
590.912	43870
590.930	43313
590.965	42901
591.001	42409
591.018	42350
591.071	41986
591.072	41920
591.124	40900
591.143	40500
591.177	39844
591.214	38959
591.230	39004
591.283	39045
591.285	38990
591.336	39127
591.356	39099
591.389	38647
591.427	37827
591.442	37254
591.495	34988
591.498	34769
591.547	35048
591.569	35184
591.600	35025
591.640	34452
591.653	34484
591.706	34575
591.711	34524
591.759	34098
591.782	33823
591.811	34514
591.853	35269
591.864	35146
591.917	34228
591.924	34036
591.969	33292
591.995	32810
592.022	32965
592.066	33026
592.075	33109
592.127	33354
592.137	33349
592.180	34609
592.208	35262
592.233	34680
592.279	33411
592.285	33416
592.338	33025
592.350	32863
592.390	32186
592.421	31593
592.443	31567
592.491	31309
592.495	31385
592.548	31629
592.562	31636
592.600	31634
592.633	31529
592.653	31313
592.704	30431
592.705	30610
592.775	30835
592.846	32154
592.916	32722
592.987	32906
593.058	31673
593.128	31472
593.199	30723
593.270	29928
593.341	30344
593.411	31025
593.482	30709
593.553	32312
593.623	30477
593.694	32172
593.764	31181
593.835	31638
593.906	31576
593.976	30233
594.047	31850
594.117	33868
594.188	34752
594.258	33167
594.329	31869
594.399	32034
594.470	32380
594.540	33336
594.611	33409
594.681	32813
594.751	34099
594.822	34660
594.892	36278
594.963	35281
595.033	35515
595.103	35469
595.174	37060
595.244	39912
595.314	44969
595.384	38598
595.455	37596
595.525	38705
595.595	40140
595.665	40491
595.736	38565
595.806	38828
595.876	39931
595.946	39171
596.016	40033
596.087	43004
596.157	41937
596.227	41374
596.297	42303
596.367	45826
596.437	48463
596.507	49595
596.577	52431
596.647	50158
596.717	48407
596.787	50966
596.857	50178
596.927	50299
596.997	49424
597.067	50033
597.137	52488
597.207	51268
597.277	51378
597.347	49929
597.417	50072
597.487	49897
597.557	51059
597.626	52408
597.696	52186
597.766	53766
597.836	54273
597.906	50832
597.975	46493
598.045	46329
598.115	48161
598.185	50054
598.254	54938
598.324	60290
598.394	60854
598.464	59321
598.533	58374
598.603	55206
598.672	53885
598.742	54403
598.812	53459
598.881	56136
598.951	53396
599.020	54272
599.090	55730
599.159	58017
599.229	55857
599.299	53850
599.368	55339
599.437	55563
599.507	51459
599.576	50063
599.646	49909
599.715	49136
599.785	48723
599.854	47770
599.924	49320
599.993	48100
600.062	48166
600.132	49579
600.201	50544
600.270	57586
600.340	60835
600.409	59582
600.478	58215
600.547	58902
600.617	57828
600.686	47426
600.755	44845
600.824	43033
600.894	42364
600.963	42113
601.032	40711
601.101	40445
601.170	39424
601.239	38714
601.308	39478
601.378	40698
601.447	38024
601.516	38526
601.585	40090
601.654	42584
601.723	41396
601.792	40737
601.861	42150
601.930	44151
601.999	45389
602.068	42886
602.137	44256
602.206	45876
602.275	44605
602.343	45832
602.412	47822
602.481	44283
602.550	44190
602.619	45336
602.688	47789
602.756	46490
602.825	46567
602.894	47285
602.963	47160
603.032	48861
603.100	47322
603.169	48319
603.238	47814
603.307	48522
603.375	48516
603.444	50572
603.513	49634
603.581	50315
603.650	50559
603.719	49254
603.787	49643
603.856	51651
603.924	52950
603.993	53825
604.061	54662
604.130	57135
604.198	59330
604.267	59977
604.335	59299
604.404	60279
604.472	61058
604.541	62697
604.609	63079
604.678	61408
604.746	61651
604.815	64581
604.883	65117
604.951	65685
605.020	64674
605.088	66444
605.156	66563
605.225	68879
605.293	67750
605.361	68897
605.429	69112
605.498	72159
605.566	73511
605.634	75192
605.702	77251
605.771	79404
605.839	80984
605.907	78864
605.975	75971
606.043	74799
606.111	75300
606.180	74675
606.248	73044
606.316	73981
606.384	72011
606.452	74535
606.520	77339
606.588	78420
606.656	76252
606.724	74360
606.792	70486
606.860	64911
606.928	59349
606.996	58104
607.064	56034
607.132	57513
607.200	59968
607.267	62724
607.335	62754
607.403	64846
607.471	63847
607.539	61418
607.607	62424
607.674	55565
607.742	54455
607.810	55288
607.878	56294
607.946	54980
608.013	57474
608.081	59752
608.149	61493
608.216	60934
608.284	63952
608.352	62674
608.419	63823
608.487	63985
608.555	62611
608.622	63391
608.690	65158
608.757	70583
608.825	73787
608.893	71809
608.960	71307
609.028	69163
609.095	67772
609.163	66725
609.230	61787
609.298	55831
609.365	56769
609.432	60618
609.500	65256
609.567	73825
609.635	81607
609.702	88211
609.769	87708
609.837	73958
609.904	62363
609.971	62850
610.039	70201
610.106	82307
610.173	130799
610.241	285379
610.308	275996
610.375	132848
610.442	75098
610.509	63997
610.577	62437
610.644	61525
610.711	62830
610.778	65944
610.845	67384
610.912	71114
610.980	72795
611.047	73887
611.114	72887
611.181	72438
611.248	68719
611.315	72924
611.382	74740
611.449	76947
611.516	78795
611.583	79105
611.650	78545
611.717	79617
611.784	83791
611.851	86718
611.918	94707
611.984	107672
612.051	138799
612.118	234636
612.185	551077
612.252	535656
612.319	137227
612.386	102383
612.452	95005
612.519	90546
612.586	90721
612.653	90910
612.719	91460
612.786	90192
612.853	84048
612.919	80561
612.986	83323
613.053	79150
613.120	74264
613.186	70649
613.253	72796
613.319	72920
613.386	72866
613.453	73342
613.519	75093
613.586	76436
613.652	84927
613.719	80646
613.785	79391
613.852	74125
613.918	76579
613.985	73672
614.051	77684
614.118	80440
614.184	77378
614.250	73470
614.317	76980
614.383	74310
614.449	76231
614.516	75237
614.582	76933
614.648	76279
614.715	74370
614.781	73821
614.847	74615
614.914	75211
614.980	73367
615.046	72021
615.112	72897
615.179	73658
615.245	76625
615.311	78221
615.377	87597
615.443	95944
615.509	82091
615.575	80918
615.642	81804
615.708	81927
615.774	87766
615.840	94157
615.906	105803
615.972	129556
616.038	191019
616.104	319023
616.170	662423
616.236	841089
616.302	202348
616.368	126634
616.434	100962
616.500	92721
616.565	94716
616.631	111738
616.697	101904
616.763	100263
616.829	121285
616.895	197144
616.961	223106
617.026	116296
617.092	82424
617.158	79495
617.224	79122
617.289	73982
617.355	71382
617.421	69285
617.487	71438
617.552	67423
617.618	66233
617.684	66349
617.749	68739
617.815	65816
617.880	63725
617.946	64624
618.012	65140
618.077	66833
618.143	64551
618.208	65206
618.274	67243
618.339	71723
618.405	62563
618.470	59520
618.536	60190
618.601	60654
618.667	58524
618.732	57219
618.798	55533
618.863	55488
618.928	54998
618.994	55874
619.059	55370
619.124	59910
619.190	58006
619.255	55246
619.320	53818
619.386	54468
619.451	53438
619.516	52965
619.581	53273
619.647	54305
619.712	55234
619.777	52633
619.842	53791
619.907	55754
619.972	54053
620.038	54850
620.103	53682
620.168	53170
620.233	53731
620.298	54693
620.363	55003
620.428	55906
620.493	55928
620.558	57639
620.623	57712
620.688	58055
620.753	56360
620.818	58091
620.883	58180
620.948	59370
621.013	57485
621.078	58502
621.143	56755
621.207	60191
621.272	57810
621.337	59463
621.402	58120
621.467	58968
621.532	60518
621.596	58896
621.661	56593
621.726	55628
621.791	55909
621.855	56788
621.920	58067
621.985	57473
622.049	59154
622.114	59416
622.179	57983
622.243	59162
622.308	60065
622.373	62487
622.437	61852
622.502	58123
622.566	58473
622.631	57475
622.695	60328
622.760	58615
622.824	58907
622.889	59425
622.953	60273
623.018	66809
623.082	70637
623.147	61475
623.211	60027
623.276	60976
623.340	57219
623.404	56967
623.469	56080
623.533	57052
623.597	56292
623.662	55357
623.726	54099
623.790	51327
623.854	50464
623.919	51487
623.983	50688
624.047	52080
624.111	51323
624.176	51975
624.240	53224
624.304	55656
624.368	52392
624.432	52273
624.496	53268
624.560	55575
624.625	55834
624.689	54320
624.753	55020
624.817	53767
624.881	51388
624.945	49736
625.009	47271
625.073	48878
625.137	50333
625.201	54430
625.265	56317
625.329	49757
625.393	49003
625.456	50089
625.520	50438
625.584	52170
625.648	54204
625.712	56236
625.776	69873
625.839	78092
625.903	57920
625.967	42516
626.031	47823
626.095	60009
626.158	51279
626.222	40294
626.286	38108
626.349	36657
626.413	33104
626.477	35675
626.540	34047
626.604	33058
626.668	33627
626.731	32649
626.795	32617
626.858	33769
626.922	31183
626.986	32004
627.049	31215
627.113	31927
627.176	31925
627.240	31515
627.303	30336
627.366	30252
627.430	30523
627.493	30440
627.557	30333
627.620	30524
627.684	30787
627.747	31079
627.810	28976
627.874	27400
627.937	25316
628.000	28319
628.064	26146
628.127	24193
628.190	24165
628.253	23805
628.317	23218
628.380	21736
628.443	21878
628.506	22183
628.569	21113
628.632	19793
628.696	20535
628.759	19640
628.822	19312
628.885	19267
628.948	19711
629.011	18688
629.074	18099
629.137	18471
629.200	17270
629.263	18888
629.326	17795
629.389	17842
629.452	17322
629.515	18060
629.578	16742
629.641	17726
629.704	16983
629.767	17880
629.830	17361
629.892	16198
629.955	15985
630.018	16746
630.081	17132
630.144	19600
630.207	16351
630.269	17599
630.332	15167
630.395	15477
630.458	14730
630.520	15355
630.583	15052
630.646	14608
630.708	14162
630.771	15379
630.834	14738
630.896	14878
630.959	15274
631.021	14165
631.084	14387
631.146	15467
631.209	15311
631.272	14444
631.334	14369
631.397	14896
631.459	14928
631.522	14694
631.584	15491
631.646	15296
631.709	16233
631.771	18157
631.834	16509
631.896	15401
631.958	13581
632.021	14797
632.083	13077
632.145	13230
632.208	13866
632.270	14195
632.332	13521
632.395	12314
632.457	13853
632.519	12600
632.581	13772
632.643	12824
632.706	13390
632.768	12458
632.830	13050
632.892	13332
632.954	13329
633.016	13489
633.078	12723
633.141	13013
633.203	12881
633.265	13477
633.327	12664
633.389	12511
633.451	13318
633.513	15242
633.575	14501
633.637	14765
633.698	14007
633.760	14371
633.822	13914
633.884	13446
633.946	13322
634.008	13972
634.070	14192
634.132	14727
634.193	14508
634.255	16439
634.317	15217
634.379	16808
634.441	14567
634.502	13917
634.564	13290
634.626	13575
634.687	12655
634.749	12705
634.811	13523
634.873	11247
634.934	11670
634.996	12934
635.057	12665
635.119	12627
635.181	12281
635.242	12924
635.304	11807
635.365	14047
635.427	12344
635.488	12264
635.550	11924
635.611	12046
635.673	10370
635.734	13259
635.796	12752
635.857	13987
635.918	13518
635.980	15083
636.041	15180
636.102	16538
636.164	16200
636.225	16291
636.286	14409
636.348	14876
636.409	12040
636.470	12474
636.531	11397
636.593	12126
636.654	12008
636.715	10853
636.776	10792
636.838	10496
636.899	11471
636.960	10683
637.021	10344
637.082	11110
637.143	10836
637.204	9878
637.265	9989
637.326	10920
637.387	10951
637.448	10339
637.509	10537
637.570	10666
637.631	10657
637.692	9859
637.753	10045
637.814	9940
637.875	9661
637.936	10471
637.997	9674
638.058	10827
638.119	11582
638.179	10293
638.240	10694
638.301	10008
638.362	9300
638.423	9762
638.483	10075
638.544	10693
638.605	9565
638.666	8997
638.726	9601
638.787	9521
638.848	9263
638.908	10232
638.969	9104
639.030	9347
639.090	9541
639.151	10736
639.211	9966
639.272	10839
639.332	14608
639.393	12947
639.453	9741
639.514	10118
639.574	9897
639.635	8793
639.695	9335
639.756	9155
639.816	9545
639.877	9936
639.937	13053
639.997	17559
640.058	11282
640.118	8809
640.178	9058
640.239	8704
640.299	8755
640.359	9395
640.420	9025
640.480	10031
640.540	9617
640.600	10571
640.661	9746
640.721	9078
640.781	12014
640.841	9477
640.901	10196
640.961	9789
641.021	10037
641.082	10173
641.142	11756
641.202	11290
641.262	7760
641.322	8683
641.382	6884
641.442	9643
641.502	7575
641.562	8681
641.622	7872
641.682	9292
641.742	9161
641.802	9805
641.861	9490
641.921	8837
641.981	9381
642.041	9882
642.101	9831
642.161	9172
642.221	8242
642.280	7954
642.340	7572
642.400	7816
642.460	8069
642.519	7622
642.579	7751
642.639	10200
642.698	6660
642.758	9390
642.818	8782
642.877	7720
642.937	9063
642.997	9386
643.056	11434
643.116	9968
643.175	9978
643.235	8977
643.294	8888
643.354	10481
643.414	10862
643.473	13426
643.532	15436
643.592	21724
643.651	31388
643.711	48917
643.770	80355
643.830	154841
643.889	456037
643.948	246478
644.008	29320
644.067	16374
644.126	12086
644.186	10881
644.245	11067
644.304	8403
644.363	9862
644.423	8864
644.482	9544
644.541	8346
644.600	9180
644.659	11280
644.719	12089
644.778	16615
644.837	23369
644.896	38355
644.955	93680
645.014	69952
645.073	13709
645.132	9870
645.191	9826
645.250	8788
645.309	9415
645.368	8674
645.427	10858
645.486	13170
645.545	23349
645.604	15106
645.663	9265
645.722	8994
645.781	9911
645.840	10911
645.898	13034
645.957	19191
646.016	25633
646.075	42746
646.134	70615
646.192	150747
646.251	372587
646.310	120846
646.369	19356
646.427	13835
646.486	10452
646.545	9642
646.603	9213
646.662	7795
646.721	8048
646.779	7720
646.838	7955
646.896	9829
646.955	11695
647.014	15136
647.072	21989
647.131	52933
647.189	57434
647.248	11027
647.306	7262
647.365	7545
647.423	5748
647.481	8009
647.540	5977
647.598	6660
647.657	5621
647.715	6297
647.773	5060
647.832	6445
647.890	4886
647.948	5124
648.007	5542
648.065	5156
648.123	5082
648.181	6284
648.240	5779
648.298	5102
648.356	5350
648.414	6627
648.472	6134
648.531	6343
648.589	5765
648.647	5814
648.705	5649
648.763	5650
648.821	5674
648.879	6801
648.937	6470
648.995	8141
649.053	9814
649.111	13897
649.169	20451
649.227	31069
649.285	53319
649.343	148555
649.401	163666
649.459	30569
649.516	18269
649.574	8555
649.632	8598
649.690	9247
649.748	10056
649.806	9790
649.863	17064
649.921	33917
649.979	49770
650.037	11618
650.094	5222
650.152	5465
650.210	4246
650.268	5398
650.325	4569
650.383	5042
650.440	3740
650.498	4480
650.556	4554
650.613	4553
650.671	4443
650.728	3923
650.786	4322
650.843	4506
650.901	3837
650.958	4149
651.016	3697
651.073	3409
651.131	3759
651.188	2710
651.246	3466
651.303	2941
651.360	3319
651.418	3672
651.475	4066
651.532	2493
651.590	4090
651.647	3463
651.704	3948
651.762	3452
651.819	3184
651.876	3006
651.933	3235
651.990	3516
652.048	2709
652.105	2980
652.162	3650
652.219	3504
652.276	3423
652.333	4249
652.390	2272
652.448	3270
652.505	2737
652.562	3771
652.619	2683
652.676	3491
652.733	4401
652.790	3237
652.847	2054
652.904	3514
652.961	2267
653.017	2071
653.074	3431
653.131	2747
653.188	2225
653.245	3015
653.302	3383
653.359	2908
653.415	3582
653.472	2884
653.529	3213
653.586	3388
653.642	1948
653.699	2634
653.756	2034
653.813	3622
653.869	2937
653.926	3367
653.983	1816
654.039	3065
654.096	2951
654.152	3910
654.209	2140
654.266	2546
654.322	1779
654.379	3547
654.435	3202
654.492	3341
654.548	3976
654.605	5004
654.661	5383
654.717	3692
654.774	2875
654.830	3110
654.887	3380
654.943	3104
655.000	3456
655.056	4271
655.112	3011
655.168	2578
655.225	3602
655.281	3459
655.337	2832
655.394	4663
655.450	4719
655.506	3760
655.562	3905
655.618	5382
655.675	2294
655.731	3113
655.787	2509
655.843	2915
655.899	2564
655.955	3951
656.011	3141
656.067	2271
656.123	3104
656.179	4486
656.235	4121
656.291	3836
656.347	3923
656.403	3551
656.459	2777
656.515	3271
656.571	3566
656.627	3618
656.683	2798
656.739	4169
656.795	2236
656.850	3214
656.906	4266
656.962	4025
657.018	2193
657.074	3678
657.129	3135
657.185	4549
657.241	7412
657.297	7390
657.352	3315
657.408	2650
657.464	3450
657.519	3357
657.575	2209
657.630	2203
657.686	2807
657.742	2811
657.797	2201
657.853	2532
657.908	4187
657.964	2408
658.019	1690
658.075	3123
658.130	3945
658.186	1816
658.241	2165
658.297	2829
658.352	2494
658.407	2917
658.463	1624
658.518	2578
658.573	3046
658.629	1667
658.684	2080
658.739	2949
658.795	1525
658.850	2446
658.905	2098
658.960	3731
659.016	2162
659.071	2518
659.126	1916
659.181	2814
659.236	3936
659.291	5955
659.346	3323
659.401	3067
659.457	2948
659.512	2643
659.567	3304
659.622	2639
659.677	2837
659.732	1289
659.787	2807
659.842	2690
659.897	3574
659.952	2638
660.007	3202
660.061	2543
660.116	1707
660.171	1991
660.226	2896
660.281	3431
660.336	2297
660.391	2525
660.445	2114
660.500	3370
660.555	1887
660.610	1754
660.664	3871
660.719	2359
660.774	2603
660.828	2124
660.883	2446
660.938	2718
660.992	2306
661.047	3036
661.101	2837
661.156	2840
661.211	1888
661.265	2410
661.320	2347
661.374	2984
661.429	1961
661.483	2621
661.538	2414
661.592	2436
661.647	2563
661.701	2876
661.755	2530
661.810	2993
661.864	2573
661.919	1677
661.973	2149
662.027	2866
662.081	2267
662.136	1702
662.190	2550
662.244	3037
662.299	2397
662.353	2601
662.407	1866
662.461	2552
662.515	2075
662.569	1647
662.624	3105
662.678	2159
662.732	1978
662.786	2382
662.840	2790
662.894	2127
662.948	2544
663.002	2707
663.056	2813
663.110	1214
663.164	924
663.218	2514
663.272	2128
663.326	2722
663.380	2878
663.434	2775
663.488	1811
663.542	2358
663.595	2511
663.649	1240
663.703	1990
663.757	2874
663.811	1139
663.864	1743
663.918	2211
663.972	2026
664.026	2223
664.079	2056
664.133	2520
664.187	2148
664.240	1390
664.294	2159
664.348	1701
664.401	2396
664.455	2124
664.508	2255
664.562	2318
664.615	2752
664.669	1763
664.722	2365
664.776	1364
664.829	1862
664.883	2078
664.936	1694
664.990	2369
665.043	2476
665.097	1867
665.150	3238
665.203	1646
665.257	2272
665.310	2670
665.363	2614
665.417	2136
665.470	2524
665.523	2427
665.576	2773
665.630	3069
665.683	2591
665.736	2254
665.789	2797
665.842	1998
665.895	2236
665.949	2556
666.002	1842
666.055	1979
666.108	3337
666.161	2591
666.214	2645
666.267	2647
666.320	2722
666.373	2992
666.426	2534
666.479	2058
666.532	3077
666.585	2078
666.638	3135
666.691	2357
666.744	3634
666.796	2403
666.849	2693
666.902	2357
666.955	2121
667.008	2251
667.060	1939
667.113	2389
667.166	2455
667.219	2571
667.271	2282
667.324	2055
667.377	2847
667.430	2828
667.482	2350
667.535	2501
667.587	2212
667.640	1772
667.693	2166
667.745	3814
667.798	6122
667.850	2982
667.903	2509
667.955	2228
668.008	2349
668.060	2507
668.113	1899
668.165	2214
668.218	2563
668.270	2580
668.322	2873
668.375	2052
668.427	3034
668.479	2140
668.532	2723
668.584	2208
668.636	2556
668.689	1664
668.741	1823
668.793	2838
668.845	1858
668.898	2926
668.950	2763
669.002	2592
669.054	1782
669.106	2544
669.158	2782
669.211	2282
669.263	2916
669.315	3029
669.367	2397
669.419	2625
669.471	3188
669.523	3021
669.575	3779
669.627	2781
669.679	2620
669.731	2526
669.783	3315
669.835	2695
669.886	2878
669.938	2734
669.990	3635
670.042	2689
670.094	4046
670.146	3548
670.197	4147
670.249	6895
670.301	6875
670.353	9868
670.404	14489
670.456	20413
670.508	31838
670.560	49825
670.611	78462
670.663	127694
670.715	246381
670.766	566207
670.818	380350
670.869	65627
670.921	19835
670.972	12719
671.024	9931
671.075	6515
671.127	5513
671.178	5057
671.230	5137
671.281	4839
671.333	4319
671.384	3729
671.436	5022
671.487	6101
671.538	6359
671.590	7132
671.641	10513
671.692	14704
671.744	28840
671.795	34024
671.846	12823
671.897	5647
671.949	3847
672.000	3856
672.051	2929
672.102	3925
672.153	2119
672.204	2632
672.256	2635
672.307	2772
672.358	3129
672.409	2816
672.460	2053
672.511	2854
672.562	2968
672.613	2044
672.664	2459
672.715	1652
672.766	2021
672.817	2055
672.868	2175
672.919	1771
672.970	2220
673.021	1623
673.071	2198
673.122	2167
673.173	2529
673.224	1616
673.275	2056
673.326	1433
673.376	1693
673.427	1731
673.478	2454
673.528	2021
673.579	2108
673.630	2393
673.680	2027
673.731	1521
673.782	1330
673.832	2086
673.883	2672
673.934	1674
673.984	1528
674.035	2120
674.085	2968
674.136	2402
674.186	1236
674.237	2123
674.287	2125
674.338	2944
674.388	1498
674.438	1208
674.489	2632
674.539	2037
674.589	1880
674.640	1802
674.690	1710
674.740	1573
674.791	2815
674.841	2027
674.891	2184
674.942	2053
674.992	1762
675.042	988
675.092	2095
675.142	2058
675.193	2067
675.243	1130
675.293	2205
675.343	1641
675.393	2398
675.443	1494
675.493	2442
675.543	1021
675.593	1325
675.643	2351
675.693	1137
675.743	1930
675.793	1438
675.843	1055
675.893	1074
675.943	1865
675.993	1702
676.043	1140
676.093	1392
676.142	908
676.192	1659
676.242	1516
676.292	1622
676.341	541
676.391	1084
676.441	998
676.491	1195
676.540	1267
676.590	1464
676.640	1459
676.689	1352
676.739	735
676.789	1345
676.838	807
676.888	2146
676.937	1028
676.987	1635
677.037	983
677.086	1340
677.136	104
677.185	630
677.235	2152
677.284	890
677.333	1036
677.383	805
677.432	674
677.482	1349
677.531	1026
677.580	1663
677.630	1255
677.679	681
677.728	1160
677.778	806
677.827	699
677.876	1161
677.925	749
677.975	866
678.024	1009
678.073	1415
678.122	1243
678.171	395
678.220	895
678.269	1836
678.319	1542
678.368	339
678.417	970
678.466	1638
678.515	864
678.564	1032
678.613	583
678.662	1126
678.711	1018
678.760	1456
678.809	749
678.857	828
678.906	1184
678.955	588
679.004	1675
679.053	890
679.102	1096
679.151	1105
679.199	815
679.248	611
679.297	822
679.346	910
679.394	689
679.443	1047
679.492	1134
679.540	1561
679.589	511
679.638	885
679.686	1583
679.735	1373
679.784	206
679.832	1656
679.881	1125
679.929	1301
679.978	674
680.026	1110
680.075	579
680.123	423
680.172	1486
680.220	481
680.268	795
680.317	940
680.365	555
680.414	688
680.462	802
680.510	1234
680.559	1294
680.607	261
680.655	1062
680.703	530
680.752	888
680.800	407
680.848	797
680.896	798
680.945	338
680.993	-74
681.041	750
681.089	690
681.137	-480
681.185	398
681.233	792
681.258	464
681.281	145
681.329	625
681.377	632
681.380	637
681.425	616
681.473	292
681.502	439
681.521	520
681.569	1103
681.617	987
681.624	992
681.665	1006
681.713	1060
681.745	1213
681.761	1275
681.809	514
681.857	2356
681.867	2054
681.904	953
681.952	372
681.989	1052
682.000	1259
682.048	669
682.096	1077
682.111	1051
682.143	972
682.191	911
682.233	1302
682.239	1348
682.286	1194
682.334	1283
682.354	1030
682.382	686
682.430	1370
682.476	234
682.477	203
682.525	880
682.572	465
682.598	784
682.620	1031
682.667	305
682.715	1163
682.720	1172
682.763	1217
682.810	1027
682.841	1097
682.857	1125
682.905	1263
682.952	1194
682.963	1347
683.000	1861
683.047	1313
683.085	1897
683.095	2047
683.142	1567
683.190	1076
683.206	982
683.237	760
683.284	1302
683.328	813
683.332	775
683.379	964
683.426	1586
683.449	1253
683.473	871
683.521	931
683.568	788
683.571	730
683.615	-73
683.662	1674
683.693	1408
683.709	1230
683.757	892
683.804	1107
683.814	1137
683.851	1285
683.898	1540
683.936	1679
683.945	1698
683.992	1341
684.039	1583
684.057	1346
684.086	965
684.133	1426
684.179	1596
684.180	1596
684.227	1244
684.274	2274
684.300	1974
684.321	1743
684.368	1113
684.415	1620
684.422	1575
684.462	1229
684.509	640
684.543	1093
684.556	1266
684.603	979
684.649	1066
684.665	1195
684.696	1442
684.743	834
684.786	1848
684.790	1933
684.837	1092
684.883	1386
684.908	1713
684.930	1987
684.977	1987
685.023	1976
685.029	1884
685.070	1128
685.117	1917
685.150	1552
685.164	1418
685.210	1770
685.257	2140
685.272	2150
685.303	2105
685.350	2112
685.393	1723
685.396	1689
685.443	1627
685.490	1682
685.514	1890
685.536	2158
685.583	1880
685.629	1604
685.636	1697
685.675	1974
685.722	1990
685.757	1652
685.768	1613
685.815	2137
685.861	1512
685.878	1694
685.908	1878
685.954	1737
686.000	1862
686.000	1864
686.047	2603
686.093	2543
686.121	2565
686.139	2588
686.185	2403
686.232	2203
686.242	2191
686.278	2032
686.324	2230
686.363	2248
686.370	2259
686.416	2038
686.463	2431
686.484	2360
686.509	2270
686.555	2226
686.601	1986
686.606	1996
686.647	2029
686.693	1918
686.727	1941
686.739	1992
686.785	1674
686.831	1842
686.848	1942
686.877	2071
686.923	2246
686.969	2212
686.969	2211
687.015	2243
687.061	1959
687.090	2340
687.107	2504
687.153	2238
687.199	2313
687.211	2055
687.245	1490
687.291	1881
687.332	2052
687.336	2071
687.382	2341
687.428	2551
687.453	2704
687.474	2730
687.520	2192
687.565	2515
687.574	2353
687.611	1808
687.657	2073
687.695	2012
687.702	2048
687.748	2766
687.794	2809
687.816	2994
687.839	2921
687.885	2392
687.931	2687
687.937	2613
687.976	2454
688.022	2077
688.058	2365
688.067	2421
688.113	2366
688.158	2343
688.179	2309
688.204	2312
688.249	2656
688.295	2745
688.300	2742
688.340	2656
688.386	2565
688.421	2276
688.431	2226
688.477	2340
688.522	3296
688.542	3095
688.567	2772
688.613	3122
688.658	2469
688.663	2463
688.703	2518
688.749	2833
688.784	2766
688.794	2731
688.839	3279
688.884	2541
688.905	2684
688.930	2818
688.975	2301
689.020	2576
689.026	2550
689.065	2536
689.110	2631
689.146	2327
689.155	2250
689.201	2077
689.246	2492
689.267	2555
689.291	2610
689.336	2943
689.381	2460
689.388	2499
689.426	2824
689.471	2772
689.509	2817
689.516	2810
689.561	3041
689.606	2616
689.630	2839
689.651	3052
689.696	2736
689.741	3145
689.750	3049
689.785	2708
689.830	2738
689.871	2320
689.875	2283
689.920	2242
689.965	2653
689.992	2493
690.010	2437
690.054	2668
690.099	3205
690.112	3043
690.144	2662
690.189	3255
690.233	2851
690.233	2853
690.278	3057
690.323	2701
690.354	2976
690.367	3127
690.412	2939
690.457	3133
690.474	3052
690.501	2878
690.546	3004
690.590	2783
690.595	2782
690.635	2818
690.680	2644
690.716	2550
690.724	2563
690.769	2859
690.813	2901
690.836	2775
690.857	2718
690.902	3162
690.946	3203
690.957	3212
690.991	3052
691.035	2774
691.077	3260
691.080	3306
691.124	3175
691.168	3390
691.198	3262
691.213	3117
691.257	3629
691.301	3437
691.318	3322
691.346	3241
691.390	3201
691.434	3345
691.439	3316
691.478	2975
691.522	3096
691.559	2846
691.567	2860
691.611	3265
691.655	3123
691.680	3238
691.699	3287
691.743	3227
691.787	3542
691.800	3515
691.831	3436
691.875	3549
691.919	3558
691.921	3551
691.964	3515
692.008	3231
692.041	3176
692.052	3209
692.096	3306
692.139	3897
692.162	3859
692.183	3652
692.227	3249
692.271	3015
692.282	2987
692.315	3071
692.359	2982
692.402	2961
692.403	2969
692.447	3196
692.490	3037
692.523	3162
692.534	3238
692.578	3206
692.622	3609
692.643	3755
692.666	3774
692.709	3589
692.753	3604
692.763	3516
692.797	3408
692.840	3624
692.884	3708
692.884	3716
692.928	3532
692.971	3813
693.004	3736
693.015	3678
693.059	3368
693.102	3232
693.124	3036
693.146	2969
693.189	3222
693.233	3198
693.245	3189
693.276	3320
693.320	3513
693.363	3728
693.365	3726
693.407	3703
693.450	3717
693.485	3760
693.493	3797
693.537	3994
693.580	3929
693.605	3900
693.624	3867
693.667	3862
693.710	4045
693.725	3976
693.753	3745
693.797	3360
693.840	3410
693.845	3368
693.883	3563
693.926	3961
693.966	4144
693.970	4133
694.013	3961
694.056	3964
694.086	3783
694.099	3808
694.142	3748
694.185	4127
694.206	4158
694.229	4077
694.272	3921
694.315	3822
694.326	3753
694.358	3786
694.401	4041
694.444	4241
694.446	4237
694.487	4287
694.530	4426
694.566	4422
694.573	4394
694.616	3941
694.659	3724
694.686	3657
694.702	3742
694.745	3994
694.787	4038
694.806	4040
694.830	3879
694.873	3658
694.916	3266
694.926	3195
694.959	3457
695.002	3872
695.044	4238
695.046	4248
695.087	4181
695.130	3693
695.166	3465
695.172	3528
695.215	3843
695.258	4264
695.286	4487
695.301	4475
695.343	4499
695.386	4247
695.406	4150
695.428	4135
695.471	4243
695.514	4398
695.526	4328
695.556	4180
695.599	4486
695.641	4274
695.646	4282
695.684	4365
695.726	4137
695.766	4113
695.769	4136
695.811	4048
695.854	4244
695.886	4310
695.896	4300
695.938	4223
695.981	4010
696.005	3961
696.023	4012
696.065	3942
696.108	4062
696.125	4100
696.150	4320
696.192	4646
696.235	4767
696.245	4837
696.277	4741
696.319	4353
696.361	4224
696.365	4191
696.404	4147
696.446	4168
696.485	4077
696.488	4099
696.530	4312
696.572	4503
696.604	4598
696.614	4641
696.656	4749
696.698	5048
696.724	5050
696.740	4921
696.783	4688
696.825	4511
696.844	4395
696.867	4449
696.909	4384
696.951	4432
696.964	4416
696.992	4410
697.034	4535
697.076	4511
697.083	4491
697.118	4497
697.160	4637
697.202	4715
697.203	4703
697.244	4738
697.286	4720
697.323	4726
697.327	4735
697.369	4734
697.411	4685
697.442	4608
697.453	4656
697.494	4794
697.536	5022
697.562	5151
697.578	5220
697.620	5244
697.661	5327
697.682	5378
697.703	5249
697.744	4889
697.786	4591
697.801	4464
697.828	4896
697.869	5523
697.911	6147
697.921	6284
697.952	5882
697.994	5321
698.035	4863
698.040	4779
698.077	5001
698.118	5299
698.160	5546
698.160	5530
698.201	5553
698.243	5609
698.279	5653
698.284	5657
698.325	5500
698.367	5357
698.399	5210
698.408	5219
698.449	5227
698.491	5184
698.518	5160
698.532	5268
698.573	5557
698.614	5833
698.638	5983
698.656	5885
698.697	5594
698.738	5322
698.757	5179
698.779	5305
698.820	5502
698.862	5722
698.877	5785
698.903	5914
698.944	6090
698.985	6277
698.996	6312
699.026	6036
699.067	5630
699.116	5132
699.235	5687
699.354	5414
699.474	5603
699.593	5492
699.713	5496
699.832	5821
699.951	6114
700.070	6334
700.190	5250
700.309	6083
700.428	5427
700.547	5149
700.667	5385
700.786	5706
700.905	4852
701.024	5221
701.143	4876
701.262	4990
701.381	4635
701.500	5247
701.619	5325
701.738	5540
701.857	5281
701.976	4611
702.095	5226
702.214	5684
702.333	5087
702.452	5111
702.571	6255
702.690	5045
702.809	4694
702.928	4082
703.047	4966
703.165	5078
703.284	4541
703.403	5474
703.522	5028
703.640	5067
703.759	4577
703.878	5933
703.997	5327
704.115	4654
704.234	4428
704.353	5312
704.471	4317
704.590	4647
704.708	4733
704.827	4254
704.946	4449
705.064	4854
705.183	4370
705.301	5669
705.420	6112
705.538	6786
705.656	6128
705.775	5727
705.893	4864
706.012	5805
706.130	5671
706.249	4939
706.367	5104
706.485	6128
706.604	5313
706.722	5242
706.840	6326
706.958	6856
707.077	6568
707.195	4854
707.313	4558
707.431	5444
707.549	4711
707.668	5342
707.786	5315
707.904	4701
708.022	5451
708.140	4943
708.258	4774
708.376	5716
708.494	5241
708.612	5746
708.730	6405
708.848	6744
708.966	6412
709.084	7424
709.202	5971
709.320	6059
709.438	5707
709.556	5820
709.674	5429
709.791	6493
709.909	5819
710.027	5665
710.145	4794
710.263	5773
710.380	5344
710.498	5577
710.616	5160
710.733	5933
710.851	5976
710.969	6160
711.086	5955
711.204	5275
711.322	5198
711.439	5552
711.557	4845
711.674	5342
711.792	5838
711.909	4952
712.027	5194
712.144	4688
712.262	4743
712.379	5507
712.497	6102
712.614	7705
712.732	6450
712.849	6059
712.966	6214
713.084	7222
713.201	7384
713.318	6772
713.436	6742
713.553	6793
713.670	6041
713.787	6934
713.905	6397
714.022	6082
714.139	6243
714.256	6407
714.373	7789
714.490	12856
714.608	24661
714.725	102603
714.842	199002
714.959	21710
715.076	7047
715.193	5995
715.310	6486
715.427	6188
715.544	5132
715.661	5519
715.778	4960
715.895	5637
716.011	6017
716.128	6100
716.245	6584
716.362	6107
716.479	6371
716.596	5736
716.713	5894
716.829	5051
716.946	3964
717.063	5230
717.180	4809
717.296	4551
717.413	4387
717.530	5140
717.646	4873
717.763	5204
717.880	4043
717.996	4952
718.113	5216
718.229	4850
718.346	3837
718.462	4880
718.579	5071
718.695	8081
718.812	6392
718.928	5891
719.045	3872
719.161	4363
719.277	4002
719.394	5153
719.510	4497
719.626	5029
719.743	5169
719.859	6388
719.975	10048
720.092	27968
720.208	93285
720.324	24000
720.440	5166
720.557	4582
720.673	6817
720.789	8220
720.905	11970
721.021	8417
721.137	4862
721.253	5399
721.369	3957
721.486	4441
721.602	5012
721.718	4326
721.834	4136
721.950	4544
722.066	3677
722.181	4082
722.297	3601
722.413	5424
722.529	4298
722.645	3936
722.761	4174
722.877	4419
722.993	3369
723.108	4024
723.224	3892
723.340	4349
723.456	3893
723.571	4055
723.687	2953
723.803	4128
723.918	3803
724.034	3584
724.150	3356
724.265	4240
724.381	4240
724.497	8209
724.612	4482
724.728	3877
724.843	2546
724.959	4126
725.074	4381
725.190	7312
725.305	3193
725.421	3282
725.536	3480
725.651	3573
725.767	3042
725.882	3349
725.997	2814
726.113	2898
726.228	2923
726.343	3314
726.459	3285
726.574	3026
726.689	3007
726.804	3430
726.920	2505
727.035	3054
727.150	3891
727.265	3490
727.380	3226
727.495	3661
727.610	2751
727.725	3209
727.841	3188
727.956	3432
728.071	3069
728.186	3369
728.301	2895
728.416	2976
728.531	3142
728.645	2831
728.760	3287
728.875	3191
728.990	2972
729.105	3306
729.220	2550
729.335	3204
729.449	2836
729.564	3526
729.679	2742
729.794	2916
729.908	2991
730.023	3383
730.138	2276
730.253	2928
730.367	1758
730.482	2590
730.596	2651
730.711	2950
730.826	3196
730.940	2962
731.055	2786
731.169	3781
731.284	2342
731.398	2852
731.513	2834
731.627	3472
731.742	3838
731.856	3919
731.970	2759
732.085	3751
732.199	4693
732.313	6365
732.428	11798
732.542	41464
732.656	43679
732.771	7704
732.885	3524
732.999	3729
733.113	3700
733.227	4761
733.342	3613
733.456	3796
733.570	3931
733.684	3662
733.798	3013
733.912	3567
734.026	2174
734.140	2819
734.254	4395
734.368	3582
734.482	6342
734.596	3906
734.710	3023
734.824	3843
734.938	2714
735.052	3956
735.166	3075
735.280	3857
735.393	3417
735.507	3687
735.621	3675
735.735	4736
735.849	4013
735.962	2825
736.076	3297
736.190	2620
736.303	2682
736.417	3829
736.531	2601
736.644	3597
736.758	2761
736.872	3203
736.985	2160
737.099	3346
737.212	3288
737.326	3588
737.439	2957
737.553	2652
737.666	2919
737.780	2772
737.893	2592
738.007	2823
738.120	2737
738.233	1954
738.347	2517
738.460	2555
738.573	2968
738.687	2984
738.800	3338
738.913	2339
739.026	2970
739.140	2756
739.253	2061
739.366	2955
739.479	2916
739.592	2364
739.705	2446
739.818	2449
739.932	1844
740.045	3011
740.158	1876
740.271	2380
740.384	2577
740.497	2391
740.610	2136
740.723	3021
740.836	2235
740.949	2681
741.062	3039
741.174	3146
741.287	1718
741.400	2606
741.513	1953
741.626	2875
741.739	2971
741.851	2536
741.964	2337
742.077	2570
742.189	1956
742.302	3632
742.415	3027
742.527	2098
742.640	2804
742.753	2069
742.865	1765
742.978	1876
743.090	1435
743.203	2169
743.316	2091
743.428	1784
743.541	1481
743.653	2236
743.766	1942
743.878	2506
743.990	3078
744.103	3862
744.215	3572
744.327	2476
744.440	2763
744.552	3256
744.664	2519
744.777	1936
744.889	1998
745.001	2501
745.113	2077
745.226	1703
745.338	1824
745.450	1831
745.562	1857
745.674	1753
745.786	2776
745.898	1206
746.010	1603
746.122	1550
746.234	2633
746.347	2352
746.459	2291
746.570	1815
746.682	2757
746.794	5369
746.906	3086
747.018	2081
747.130	2200
747.242	2008
747.354	1379
747.466	1627
747.577	2152
747.689	1410
747.801	1594
747.913	1851
748.024	529
748.136	2212
748.248	1210
748.359	2492
748.471	1513
748.583	1965
748.694	1086
748.806	2766
748.918	966
749.029	2353
749.141	1840
749.252	2663
749.364	1954
749.475	2949
749.587	3286
749.698	1347
749.809	1357
749.921	2016
750.032	1151
750.144	1608
750.255	1254
750.366	1640
750.478	2144
750.589	1603
750.700	756
750.811	1598
750.923	2060
751.034	3100
751.145	5369
751.256	1952
751.367	886
751.479	1452
751.590	1179
751.701	1288
751.812	1360
751.923	1430
752.034	1556
752.145	1586
752.256	1679
752.367	1243
752.478	883
752.589	1536
752.700	1305
752.811	1810
752.922	1175
753.032	514
753.143	1803
753.254	1657
753.365	1824
753.476	1407
753.586	1430
753.697	1231
753.808	1275
753.919	1324
754.029	970
754.140	1781
754.251	641
754.361	2010
754.472	1623
754.582	1939
754.693	950
754.804	2264
754.914	1148
755.025	1206
755.135	1525
755.246	1124
755.356	312
755.466	1838
755.577	1092
755.687	2227
755.798	629
755.908	909
756.018	790
756.129	1196
756.239	693
756.349	2045
756.460	1218
756.570	1647
756.680	1026
756.790	413
756.900	1053
757.011	1263
757.121	835
757.231	1656
757.341	756
757.451	1333
757.561	678
757.671	621
757.781	1073
757.891	1618
758.001	19
758.111	1256
758.221	980
758.331	1596
758.441	1906
758.551	2396
758.661	1537
758.771	1608
758.880	1613
758.990	1691
759.100	1136
759.210	1612
759.320	339
759.429	1290
759.539	1579
759.649	1368
759.758	1806
759.868	1687
759.978	191
760.087	1584
760.197	1389
760.307	1299
760.416	547
760.526	966
760.635	1075
760.745	1178
760.854	891
760.964	1839
761.073	1406
761.182	1499
761.292	1050
761.401	2205
761.511	1637
761.620	1410
761.729	1443
761.839	1255
761.948	662
762.057	1124
762.166	1001
762.276	1025
762.385	1316
762.494	1105
762.603	1057
762.712	1119
762.822	842
762.931	872
763.040	283
763.149	1018
763.258	652
763.367	1343
763.476	1259
763.585	925
763.694	846
763.803	1010
763.912	1363
764.021	701
764.130	1293
764.238	1413
764.347	1475
764.456	1480
764.565	1059
764.674	1256
764.783	531
764.891	1675
765.000	641
765.109	742
765.217	1490
765.326	1836
765.435	2421
765.543	1725
765.652	1693
765.761	1811
765.869	2298
765.978	4078
766.086	5776
766.195	15494
766.303	39371
766.412	151798
766.520	237584
766.629	37597
766.737	7949
766.846	4996
766.954	3303
767.062	3620
767.171	1902
767.279	3503
767.387	1734
767.496	2006
767.604	1626
767.712	2512
767.820	558
767.928	2148
768.037	1628
768.145	1411
768.253	1864
768.361	1738
768.469	1448
768.577	1201
768.685	1700
768.793	1387
768.901	693
769.009	2215
769.117	1664
769.225	2467
769.333	2249
769.441	3338
769.549	5959
769.657	14369
769.765	47395
769.873	172807
769.981	81426
770.088	7555
770.196	3013
770.304	3863
770.412	2567
770.519	1746
770.627	1705
770.735	1421
770.842	1342
770.950	1512
771.058	1125
771.165	1228
771.273	1619
771.380	2068
771.488	1862
771.595	2575
771.703	1779
771.810	1807
771.918	1697
772.025	2803
772.133	1784
772.240	2081
772.348	2070
772.455	1987
772.562	1499
772.670	2626
772.777	1955
772.884	2278
772.991	2169
773.099	2667
773.206	1351
773.313	2268
773.420	1975
773.528	1299
773.635	1920
773.742	3032
773.849	1797
773.956	2817
774.063	2314
774.170	2192
774.277	1191
774.384	2689
774.491	2250
774.598	1849
774.705	1172
774.812	1868
774.919	2481
775.026	2431
775.133	1125
775.239	1862
775.346	1624
775.453	1995
775.560	762
775.667	1656
775.773	1387
775.880	2333
775.987	1373
776.093	2796
776.200	1369
776.307	1694
776.413	1629
776.520	1436
776.627	1807
776.733	1476
776.840	1047
776.946	2365
777.053	3206
777.159	7545
777.266	4207
777.372	6104
777.478	5732
777.585	3926
777.691	1270
777.798	1463
777.904	1603
778.010	1915
778.117	1825
778.223	1284
778.329	1610
778.435	2272
778.542	1957
778.648	798
778.754	1316
778.860	1988
778.966	796
779.072	1482
779.178	914
779.284	1273
779.391	1213
779.497	697
779.603	1921
779.708	917
779.815	1376
779.920	1984
780.026	3061
780.132	2052
780.238	800
780.344	1016
780.450	1789
780.556	1452
780.661	270
780.767	1442
780.873	632
780.979	1005
781.085	795
781.190	1298
781.296	-25
781.402	1583
781.507	1021
781.613	1058
781.719	990
781.824	1718
781.930	1241
782.035	1051
782.141	138
782.246	1642
782.352	1047
782.457	1099
782.563	979
782.668	1630
782.773	1194
782.879	1377
782.984	921
783.090	1976
783.195	1653
783.300	1680
783.405	720
783.511	519
783.616	1069
783.721	303
783.826	1626
783.932	1350
784.037	674
784.142	1048
784.247	910
784.352	1688
784.457	1443
784.562	682
784.667	125
784.772	972
784.877	718
784.982	1442
785.087	308
785.192	687
785.297	504
785.402	719
785.507	1019
785.611	720
785.716	843
785.821	747
785.926	764
786.031	680
786.135	804
786.240	738
786.345	-446
786.450	1077
786.554	523
786.659	401
786.763	-206
786.868	775
786.973	754
787.077	388
787.182	653
787.286	700
787.391	339
787.495	448
787.600	465
787.704	244
787.809	599
787.913	935
788.017	899
788.122	1023
788.226	997
788.330	236
788.435	536
788.539	713
788.643	319
788.747	274
788.852	486
788.956	640
789.060	634
789.164	615
789.268	424
789.372	951
789.476	181
789.580	33
789.684	354
789.788	694
789.892	382
789.996	334
790.100	-340
790.204	601
790.308	450
790.412	247
790.516	177
790.620	604
790.724	760
790.828	365
790.931	-8
791.035	589
791.139	118
791.242	28
791.346	1077
791.450	662
791.554	-1
791.657	-220
791.761	503
791.864	1184
791.968	556
792.072	1674
792.175	772
792.279	-9
792.382	559
792.486	234
792.589	-67
792.693	240
792.796	375
792.899	959
793.003	660
793.106	-39
793.209	677
793.313	716
793.416	110
793.519	1173
793.623	483
793.726	1911
793.829	326
793.932	616
794.035	-504
794.138	780
794.242	267
794.345	676
794.448	585
794.551	924
794.654	1930
794.757	1669
794.860	97
794.963	810
795.066	-38
795.169	361
795.272	373
795.375	819
795.477	-19
795.580	697
795.683	-492
795.786	257
795.889	-510
795.991	736
796.094	414
796.197	-182
796.300	1146
796.402	621
796.505	-406
796.608	839
796.710	116
796.813	890
796.915	649
797.018	503
797.120	-588
797.223	-117
797.326	190
797.428	207
797.530	388
797.633	-54
797.735	625
797.838	655
797.940	524
798.042	117
798.145	-188
798.247	685
798.349	-1012
798.452	175
798.554	-13
798.656	-676
798.758	39
798.860	354
798.962	-934
799.065	95
799.167	-515
799.269	1384
799.371	1169
799.473	857
799.575	-18
799.677	442
799.779	318
799.881	705
799.983	983
800.085	984
800.187	419
800.289	-157
800.390	-728
800.492	184
800.594	244
800.696	-192
800.798	-61
800.899	-653
801.001	-191
801.103	-22
801.205	-341
801.306	723
801.408	-2
801.509	207
801.611	-89
801.713	-29
801.814	203
801.916	296
802.017	-52
802.119	-92
802.220	-926
802.322	-535
802.423	1157
802.525	293
802.626	439
802.727	-292
802.829	140
802.930	-1007
803.031	762
803.133	-882
803.234	-684
803.335	394
803.436	-1129
803.538	-157
803.639	-429
803.740	383
803.841	-737
803.942	188
804.043	145
804.144	-294
804.245	-208
804.346	-192
804.447	-397
804.548	-88
804.649	368
804.750	-230
804.851	-769
804.952	306
805.053	-50
805.154	-215
805.255	-121
805.355	-357
805.456	-98
805.557	-313
805.658	-620
805.758	68
805.859	-218
805.960	157
806.061	-563
806.161	284
806.262	-57
806.362	-88
806.463	-507
806.564	-214
806.664	-504
806.765	-349
806.865	-113
806.966	172
807.066	-78
807.166	723
807.267	-111
807.367	-561
807.468	-24
807.568	-994
807.668	22
807.769	-85
807.869	-358
807.969	-233
808.069	-548
808.170	-272
808.270	-312
808.370	243
808.470	317
808.570	-572
808.670	-282
808.770	18
808.870	-541
808.970	-137
809.070	-900
809.170	-195
809.271	-550
809.370	-433
809.470	-34
809.570	-542
809.670	-168
809.770	-360
809.870	-362
809.970	-38
810.070	-463
810.169	276
810.269	-1574
810.369	305
810.469	-110
810.568	294
810.668	-176
810.768	-697
810.867	-328
810.967	48
811.066	-472
811.166	-684
811.265	-173
811.365	-521
811.464	-184
811.564	-172
811.663	-376
811.763	-547
811.862	146
811.962	439
812.061	-561
812.160	-503
812.260	-526
812.359	-49
812.458	-625
812.557	1549
812.657	2069
812.756	1027
812.855	42
812.954	-410
813.053	-411
813.153	-265
813.252	274
813.351	-175
813.450	-456
813.549	-538
813.648	-247
813.747	-882
813.846	-1108
813.945	-920
814.044	-189
814.143	-312
814.242	209
814.341	-604
814.439	-730
814.538	-59
814.637	-67
814.736	556
814.835	129
814.933	-801
815.032	156
815.131	-168
815.229	-725
815.328	660
815.427	629
815.525	485
815.624	278
815.722	425
815.821	905
815.919	127
816.018	205
816.116	448
816.215	620
816.313	941
816.412	890
816.510	898
816.609	1377
816.707	993
816.805	534
816.904	125
817.002	677
817.100	1593
817.198	1193
817.296	1042
817.395	681
817.493	1445
817.591	1100
817.689	2131
817.787	2737
817.885	5293
817.983	10471
818.081	23024
818.179	55533
818.277	144468
818.375	169126
818.473	42901
818.571	11625
818.669	7309
818.767	6911
818.865	7022
818.963	6847
819.061	11087
819.158	20177
819.256	46722
819.354	107571
819.452	262286
819.549	225033
819.647	52725
819.745	15811
819.842	9257
819.940	6891
820.038	4140
820.135	3309
820.233	2808
820.330	1229
820.428	2022
820.525	1949
820.623	1731
820.720	446
820.818	1606
820.915	1293
821.012	1568
821.110	681
821.207	757
821.304	268
821.402	1162
821.499	1787
821.596	2018
821.693	1388
821.791	873
821.888	674
821.985	2389
822.082	1409
822.179	1108
822.276	1325
822.373	408
822.470	-320
822.567	1256
822.664	92
822.761	687
822.858	-137
822.955	1038
823.052	-187
823.149	531
823.246	-386
823.343	407
823.440	237
823.536	-12
823.633	-515
823.730	-193
823.827	-73
823.923	277
824.020	289
824.117	404
824.213	-169
824.310	1197
824.407	-383
824.503	-340
824.600	-49
824.696	-634
824.793	627
824.889	-684
824.986	-716
825.082	-5
825.179	447
825.275	-215
825.371	-121
825.468	-413
825.564	-353
825.660	-197
825.757	-63
825.853	-43
825.949	-514
826.045	-639
826.142	-767
826.238	0
826.334	-269
826.430	-1121
826.526	156
826.622	-956
826.718	-557
826.814	-478
826.910	-394
827.006	-672
827.102	-861
827.198	241
827.294	-822
827.390	754
827.486	169
827.582	-697
827.678	-1577
827.774	443
827.869	-939
827.965	1137
828.061	-936
828.157	-453
828.252	-149
828.348	-793
828.444	459
828.539	-577
828.635	-317
828.731	-88
828.826	-1257
828.922	53
829.017	-811
829.113	-214
829.208	-272
829.304	-504
829.399	71
829.495	-908
829.590	-77
829.685	-98
829.781	-598
829.876	-443
829.971	-659
830.066	-481
830.162	-1096
830.257	-535
830.352	-489
830.447	-254
830.543	-235
830.638	-471
830.733	-359
830.828	-322
830.923	361
831.018	-883
831.113	-566
831.208	-564
831.303	120
831.398	-702
831.493	-940
831.588	169
831.683	-436
831.778	-442
831.873	-281
831.967	271
832.062	-962
832.157	-912
832.252	398
832.346	-503
832.441	101
832.536	247
832.631	1127
832.725	1019
832.820	-466
832.914	-286
833.009	-1737
833.104	-5
833.198	-527
833.293	-190
833.387	-368
833.482	-13
833.576	-1887
833.670	-442
833.765	-841
833.859	-459
833.954	-429
834.048	-310
834.142	-159
834.237	-436
834.331	-748
834.425	-768
834.519	-350
834.613	-126
834.708	-897
834.802	139
834.896	-694
834.990	-328
835.084	-611
835.178	-284
835.272	-390
835.366	-760
835.460	-722
835.554	-817
835.648	-764
835.742	-1601
835.836	-141
835.930	-681
836.024	-682
836.117	248
836.211	-663
836.305	-266
836.399	-79
836.493	-910
836.586	-617
836.680	-851
836.774	-1040
836.867	-138
836.961	-1403
837.055	-702
837.148	-879
837.242	-643
837.335	-991
837.429	-862
837.522	-1015
837.616	-874
837.709	-985
837.803	-258
837.896	-661
837.989	-804
838.083	-548
838.176	298
838.269	-451
838.363	-519
838.456	-956
838.549	-822
838.642	-506
838.735	919
838.829	891
838.922	-942
839.015	-1061
839.108	-651
839.201	-640
839.294	-411
839.387	-1140
839.480	-944
839.573	-933
839.666	-382
839.759	-920
839.852	-428
839.945	-122
840.038	-340
840.131	-571
840.223	-826
840.316	-330
840.409	-1274
840.502	-1615
840.594	-428
840.687	-1280
840.780	330
840.873	-862
840.965	-949
841.058	-293
841.150	-319
841.243	-1015
841.336	-813
841.428	-894
841.521	-839
841.613	-1197
841.706	161
841.798	-1059
841.890	-1006
841.983	-815
842.075	-579
842.167	-1502
842.260	-403
842.352	-873
842.444	-330
842.537	-250
842.629	1135
842.721	-1161
842.813	-632
842.905	-1673
842.997	-500
843.090	-952
843.182	-834
843.274	-1225
843.366	1893
843.458	2424
843.550	2457
843.642	-505
843.734	-852
843.826	-1185
843.918	-194
844.009	-621
844.101	-1191
844.193	-1411
844.285	-851
844.377	-395
844.469	545
844.560	90
844.652	1271
844.744	-752
844.835	-679
844.927	-1223
845.019	-1246
845.110	-1125
845.202	-670
845.293	-1536
845.385	-976
845.476	-1395
845.568	-189
845.659	-1089
845.751	-619
845.842	-1133
845.934	-444
846.025	-908
846.116	-813
846.208	-558
846.299	-1293
846.390	-1463
846.482	-1261
846.573	-1070
846.664	45
846.755	-1086
846.846	18
846.937	-1799
847.029	-777
847.120	-1997
847.211	-1274
847.302	-927
847.393	-1354
847.484	-594
847.575	-1046
847.666	-1084
847.757	-693
847.847	-757
847.938	-252
848.029	-1762
848.120	-1557
848.211	-1407
848.302	-772
848.392	-1741
848.483	-642
848.574	-1356
848.664	-803
848.755	-1350
848.846	-515
848.936	-1517
849.027	-584
849.118	-1392
849.208	-956
849.299	-1257
849.389	-330
849.480	1183
849.570	4546
849.661	6507
849.751	16252
849.841	8816
849.932	-369
850.022	-1176
850.112	-505
850.203	-2290
850.293	-773
850.383	-1701
850.474	-1148
850.564	-1263
850.654	-667
850.744	-1451
850.834	-404
850.924	-1349
851.014	-895
851.104	-1730
851.194	-1070
851.284	-812
851.374	-979
851.464	-1262
851.554	-414
851.644	-972
851.734	-392
851.824	-1177
851.914	-1447
852.004	-563
852.094	-1250
852.183	-1120
852.273	-386
852.363	-769
852.452	-483
852.542	-1219
852.632	-601
852.721	-448
852.811	-1536
852.901	-1355
852.990	-1133
853.080	-495
853.169	-912
853.259	-410
853.348	-956
853.438	-1153
853.527	141
853.617	-314
853.706	2231
853.795	5174
853.885	15366
853.974	30858
854.063	47444
854.152	97618
854.242	57648
854.331	6636
854.420	1252
854.509	540
854.598	589
854.687	-444
854.777	-274
854.866	-837
854.955	-308
855.044	-1180
855.133	-1046
855.222	-822
855.311	-832
855.400	-758
855.488	-974
855.577	-1213
855.666	-493
855.755	-284
855.844	-251
855.933	-858
856.021	-739
856.110	-893
856.199	-1301
856.288	-1413
856.376	-1371
856.465	-1877
856.554	-2
856.642	-805
856.731	-875
856.819	-715
856.908	-1111
856.996	-1203
857.085	-1466
857.173	-1287
857.262	-1093
857.350	-1541
857.438	-1391
857.527	-1278
857.615	-1050
857.703	-705
857.792	-1047
857.880	-1032
857.968	-1398
858.056	-815
858.145	-920
858.233	-1079
858.321	-1081
858.409	-519
858.497	-1846
858.585	-1885
858.673	-1071
858.761	-1154
858.849	-1219
858.937	-1915
859.025	-842
859.113	-1165
859.201	-1281
859.289	-1070
859.377	-1261
859.465	-464
859.552	-1144
859.640	-1125
859.728	-504
859.816	-1045
859.903	-776
859.991	-1365
860.079	-885
860.166	-1332
860.254	-505
860.342	-1216
860.429	-1012
860.517	-1351
860.604	-1161
860.692	-1299
860.779	-907
860.867	-1595
860.954	-1031
861.042	-1481
861.129	-645
861.216	-1559
861.304	-1285
861.391	-922
861.478	-985
861.565	-1655
861.653	-1053
861.740	-1312
861.827	-1072
861.914	-1488
862.001	-1113
862.089	-1037
862.176	-1499
862.263	-678
862.350	-1487
862.437	-557
862.524	-1344
862.611	-1006
862.698	-877
862.785	-1001
862.871	-173
862.958	-1277
863.045	-1045
863.132	-1421
863.219	-1431
863.306	-2240
863.392	-663
863.479	-1365
863.566	-892
863.652	-1218
863.739	-1166
863.826	-1490
863.912	-1902
863.999	-1322
864.086	-992
864.172	-1194
864.259	-607
864.345	-1419
864.432	-559
864.518	-1614
864.604	-1261
864.691	-1200
864.777	-798
864.863	-1017
864.950	-947
865.036	-1821
865.122	-259
865.209	282
865.295	351
865.381	563
865.467	-19
865.553	944
865.639	884
865.726	2431
865.812	6793
865.898	14167
865.984	21831
866.070	35559
866.156	61596
866.242	22462
866.328	2862
866.414	572
866.499	-3
866.585	-440
866.671	65
866.757	-691
866.843	-414
866.928	-928
867.014	-311
867.100	-66
867.186	-847
867.271	-527
867.357	-26
867.442	208
867.528	-528
867.614	-139
867.699	-568
867.785	-44
867.870	813
867.956	1127
868.041	856
868.127	-266
868.212	392
868.297	235
868.383	-574
868.468	61
868.553	1264
868.639	771
868.724	1303
868.809	2566
868.894	549
868.979	-1075
869.065	-490
869.150	-1357
869.235	-983
869.320	-610
869.405	-276
869.490	-1432
869.575	-967
869.660	-1165
869.745	-377
869.830	-1476
869.915	-843
870.000	-934
870.085	-1098
870.169	-240
870.254	157
870.339	-1214
870.424	-1644
870.509	-550
870.593	-499
870.678	-969
870.763	-309
870.847	-683
870.932	-1187
871.016	-893
871.101	-991
871.186	-861
871.270	-90
871.355	-974
871.439	-404
871.523	-1284
871.608	-768
871.692	-1170
871.777	-857
871.861	-538
871.945	-739
872.030	-1554
872.114	-704
872.198	-1061
872.282	-145
872.367	-606
872.451	-1304
872.535	-502
872.619	-336
872.703	-1133
872.787	-1177
872.871	-805
872.955	-1309
873.039	-1413
873.123	-1150
873.207	-764
873.291	-576
873.375	-1071
873.459	-719
873.543	-779
873.627	-438
873.711	-1279
873.794	34
873.878	-1182
873.962	-1171
874.045	-1675
874.129	-1092
874.137	-1079
874.213	-951
874.245	-940
874.296	-923
874.352	-1178
874.380	-1306
874.460	-442
874.464	-408
874.547	-1231
874.568	-981
874.631	-228
874.676	-698
874.714	-1107
874.784	-422
874.798	-291
874.881	236
874.892	61
874.965	-1097
874.999	-1286
875.048	-1589
875.107	-692
875.131	-315
875.215	-457
875.215	-457
875.298	-1237
875.323	-1132
875.381	-822
875.430	-203
875.465	215
875.538	-599
875.548	-717
875.631	-667
875.646	-769
875.714	-1261
875.753	-887
875.798	-416
875.861	-835
875.881	-993
875.964	-481
875.968	-493
876.047	-621
876.076	-585
876.130	-468
876.183	-835
876.213	-1046
876.291	-147
876.296	-93
876.379	-865
876.398	-694
876.462	-126
876.506	-431
876.545	-712
876.613	-710
876.628	-675
876.711	-815
876.721	-737
876.794	-295
876.828	-289
876.877	-207
876.935	-571
876.960	-731
877.043	-458
877.043	-457
877.125	-193
877.150	-239
877.208	-211
877.258	-44
877.291	-22
877.365	-322
877.374	-342
877.456	-557
877.472	-517
877.539	-367
877.579	-253
877.622	-121
877.687	-165
877.704	-166
877.787	-185
877.794	-218
877.869	-584
877.901	-294
877.952	118
878.008	176
878.034	199
878.115	-802
878.117	-817
878.199	-649
878.222	-536
878.282	-272
878.329	-160
878.364	-57
878.437	475
878.447	527
878.529	-560
878.544	-477
878.611	84
878.651	56
878.694	38
878.758	390
878.776	480
878.858	-67
878.865	-27
878.941	164
878.972	-191
879.023	-490
879.078	-337
879.105	-263
879.185	-40
879.187	-34
879.269	728
879.292	596
879.351	70
879.399	-274
879.433	-402
879.506	-154
879.516	-106
879.598	82
879.613	108
879.680	30
879.720	-99
879.762	-66
879.827	45
879.844	59
879.926	1130
879.933	1126
880.007	974
880.040	756
880.089	486
880.147	809
880.171	1082
880.253	1786
880.254	1787
880.335	3151
880.360	3805
880.417	6284
880.467	7656
880.499	10432
880.574	19112
880.580	18815
880.662	9418
880.680	7691
880.744	3395
880.787	777
880.825	182
880.893	157
880.907	327
880.989	220
881.000	269
881.070	532
881.106	423
881.152	100
881.213	250
881.233	311
881.315	-28
881.319	-13
881.396	399
881.426	229
881.478	-7
881.532	359
881.559	519
881.639	130
881.641	127
881.722	274
881.745	211
881.803	10
881.852	166
881.885	376
881.958	467
881.966	451
882.047	503
882.064	361
882.129	241
882.171	582
882.210	1161
882.277	2062
882.291	2114
882.372	2078
882.383	2061
882.454	1046
882.489	666
882.535	900
882.596	671
882.616	569
882.697	229
882.702	239
882.778	440
882.808	463
882.859	407
882.914	125
882.940	146
883.020	309
883.021	315
883.102	-73
883.127	25
883.183	283
883.233	254
883.264	354
883.339	719
883.345	730
883.426	238
883.445	296
883.507	593
883.551	350
883.587	211
883.657	464
883.668	552
883.749	910
883.763	995
883.830	965
883.869	730
883.910	522
883.975	573
883.991	581
884.072	215
884.081	204
884.152	330
884.187	230
884.233	435
884.292	958
884.314	1088
884.394	1073
884.398	1090
884.475	1036
884.504	894
884.555	746
884.610	749
884.636	805
884.716	717
884.716	726
884.797	1146
884.821	1234
884.877	1050
884.927	855
884.958	782
885.033	662
885.038	659
885.118	570
885.139	500
885.199	440
885.244	523
885.279	688
885.350	908
885.359	946
885.439	1182
885.456	1192
885.520	928
885.561	782
885.600	907
885.667	1205
885.680	1218
885.760	1404
885.773	1358
885.840	1383
885.878	1585
885.920	1346
885.984	568
886.000	566
886.080	973
886.089	988
886.160	490
886.195	293
886.240	741
886.300	1333
886.320	1462
886.400	1852
886.406	1870
886.480	1228
886.511	868
886.560	1526
886.616	2342
886.640	2222
886.720	1944
886.722	1924
886.800	1800
886.827	1755
886.879	1579
886.932	1268
886.959	1378
887.038	1869
887.039	1875
887.119	1407
887.143	1269
887.198	1040
887.248	777
887.278	864
887.354	1169
887.358	1182
887.437	1096
887.459	1105
887.517	1428
887.564	1702
887.596	1615
887.669	1347
887.676	1322
887.755	824
887.774	740
887.835	1415
887.880	1814
887.914	1733
887.985	1598
887.994	1541
888.073	925
888.090	787
888.153	1508
888.195	1945
888.232	1766
888.300	1573
888.311	1580
888.391	1397
888.405	1372
888.470	1043
888.510	777
888.549	1033
888.615	1497
888.628	1499
888.708	1494
888.720	1468
888.787	1254
888.825	1157
888.866	1134
888.930	1086
888.945	1159
889.024	1511
889.035	1550
889.103	1480
889.140	1411
889.182	1491
889.245	1639
889.261	1642
889.340	1586
889.349	1573
889.419	1871
889.454	2006
889.498	1860
889.559	1635
889.577	1529
889.656	1034
889.664	980
889.735	1459
889.768	1677
889.814	1828
889.873	2013
889.978	1386
890.083	1477
890.187	888
890.292	1546
890.397	1652
890.501	2425
890.606	1755
890.710	2228
890.815	1838
890.919	2352
891.024	1595
891.128	2825
891.233	2157
891.337	2047
891.442	1626
891.546	2087
891.650	1223
891.755	2464
891.859	2209
891.963	1857
892.068	1883
892.172	1829
892.276	1279
892.380	1925
892.484	2338
892.589	2252
892.693	2980
892.797	2135
892.901	1544
893.005	1326
893.109	2066
893.213	2145
893.317	1048
893.421	1485
893.525	1178
893.629	798
893.733	1578
893.837	1522
893.941	1045
894.045	1852
894.148	1029
894.252	1696
894.356	2056
894.460	2422
894.564	1435
894.667	1576
894.771	1030
894.875	1367
894.978	1266
895.082	1537
895.186	1019
895.289	2414
895.393	1052
895.496	1715
895.600	969
895.703	1271
895.807	1350
895.910	1824
896.014	1266
896.117	2190
896.221	1748
896.324	2348
896.427	802
896.531	935
896.634	1707
896.737	1333
896.840	824
896.944	1456
897.047	1919
897.150	1582
897.253	663
897.356	975
897.460	1565
897.563	1832
897.666	510
897.769	1692
897.872	1384
897.975	689
898.078	1786
898.181	2089
898.284	1854
898.387	1308
898.490	1637
898.593	1508
898.695	1727
898.798	1433
898.901	1660
899.004	1537
899.107	1586
899.209	1505
899.312	1495
899.415	2036
899.518	1478
899.620	1544
899.723	1526
899.826	3099
899.928	4106
900.031	1681
900.133	1601
900.236	931
900.338	943
900.441	1999
900.543	880
900.646	1800
900.748	1671
900.851	1498
900.953	1812
901.055	1972
901.158	1397
901.260	1584
901.362	1684
901.465	1455
901.567	1371
901.669	1928
901.771	1332
901.873	1713
901.976	1391
902.078	1849
902.180	1173
902.282	1547
902.384	2297
902.486	1877
902.588	1945
902.690	1744
902.792	1598
902.894	1937
902.996	2037
903.098	1072
903.200	643
903.302	1667
903.404	1242
903.505	1818
903.607	1459
903.709	1914
903.811	1590
903.913	1178
904.014	1340
904.116	934
904.218	1646
904.319	1371
904.421	1715
904.523	3258
904.624	1827
904.726	1766
904.827	1305
904.929	2313
905.030	1534
905.132	1672
905.233	1134
905.335	1018
905.436	1369
905.537	1372
905.639	1679
905.740	1477
905.841	1663
905.943	1996
906.044	2085
906.145	1841
906.247	1293
906.348	1578
906.449	939
906.550	1769
906.651	1512
906.752	954
906.854	1207
906.955	1141
907.056	944
907.157	1456
907.258	1811
907.359	1007
907.460	442
907.561	294
907.662	1004
907.762	1616
907.863	1336
907.964	1130
908.065	1042
908.166	2065
908.267	1405
908.367	1410
908.468	1240
908.569	1341
908.670	1307
908.770	2310
908.871	2261
908.971	2025
909.072	1203
909.173	1035
909.273	1335
909.374	1205
909.474	1585
909.575	1381
909.675	883
909.776	1221
909.876	1238
909.977	788
910.077	1335
910.177	1028
910.278	1789
910.378	1217
910.478	1218
910.579	1750
910.679	1058
910.779	1704
910.879	1052
910.980	938
911.080	1217
911.180	654
911.280	1400
911.380	1268
911.480	643
911.580	1668
911.680	1133
911.780	2186
911.880	1319
911.980	1566
912.080	1424
912.180	1375
912.280	1125
912.380	2574
912.480	988
912.580	1044
912.679	599
912.779	907
912.879	1898
912.979	1762
913.078	921
913.178	1414
913.278	838
913.377	1488
913.477	1063
913.577	969
913.676	1092
913.776	1600
913.875	710
913.975	1035
914.074	668
914.174	1447
914.273	1629
914.373	1852
914.472	1072
914.572	1422
914.671	1238
914.770	1533
914.870	1354
914.969	1199
915.068	1689
915.167	1775
915.267	863
915.366	906
915.465	1075
915.564	1537
915.663	832
915.763	831
915.862	1125
915.961	1915
916.060	1670
916.159	287
916.258	1109
916.357	1131
916.456	1439
916.555	1284
916.654	1496
916.752	1315
916.851	1161
916.950	1453
917.049	517
917.148	529
917.247	799
917.345	1719
917.444	527
917.543	1733
917.642	627
917.740	498
917.839	1833
917.937	1578
918.036	2115
918.135	2003
918.233	754
918.332	1110
918.430	753
918.529	1161
918.627	467
918.726	1485
918.824	998
918.923	364
919.021	1672
919.119	1437
919.218	1533
919.316	1458
919.414	1485
919.512	1412
919.611	1539
919.709	1904
919.807	1029
919.905	589
920.003	2097
920.102	1451
920.200	1816
920.298	1378
920.396	849
920.494	1125
920.592	853
920.690	1295
920.788	1676
920.886	1254
920.984	1688
921.082	907
921.180	2034
921.277	2135
921.375	1092
921.473	1036
921.571	1849
921.669	1519
921.766	2246
921.864	2007
921.962	1422
922.060	1544
922.157	1458
922.255	2854
922.352	1460
922.450	2593
922.548	1041
922.645	2051
922.743	1944
922.840	3222
922.938	3636
923.035	3479
923.133	3166
923.230	3987
923.327	3783
923.425	5165
923.522	4756
923.619	3918
923.717	3613
923.814	3081
923.911	3361
924.008	3854
924.106	3628
924.203	2840
924.300	3226
924.397	4058
924.494	3035
924.591	3689
924.688	3230
924.786	3061
924.883	3026
924.979	3367
925.077	3410
925.173	3599
925.270	3809
925.367	3333
925.464	3595
925.561	4257
925.658	4130
925.755	3633
925.852	4329
925.948	3871
926.045	5298
926.142	5567
926.239	5156
926.335	5579
926.432	4685
926.529	4164
926.625	5618
926.722	4733
926.818	3351
926.915	3710
927.011	3344
927.108	3191
927.204	2982
927.301	3637
927.397	3055
927.494	3563
927.590	3447
927.687	2684
927.783	3048
927.879	3854
927.976	2935
928.072	3013
928.168	2860
928.264	2894
928.361	2614
928.457	2955
928.553	2423
928.649	2910
928.745	2512
928.841	2754
928.937	3290
929.033	3132
929.129	2340
929.225	2858
929.321	2841
929.417	1847
929.513	2613
929.609	3345
929.705	2691
929.801	3593
929.897	3056
929.993	2173
930.089	2268
930.184	2061
930.280	2881
930.376	3347
930.471	3022
930.567	2413
930.663	2336
930.758	2596
930.854	1994
930.950	2327
931.045	1893
931.141	2194
931.236	2731
931.332	3090
931.427	1834
931.523	2543
931.618	2846
931.714	1354
931.809	2231
931.905	2688
932.000	2706
932.095	2084
932.191	1814
932.286	3257
932.381	2825
932.476	2929
932.572	2344
932.667	2560
932.762	1750
932.857	2946
932.952	1792
933.047	3069
933.142	1898
933.237	2684
933.332	2253
933.427	3175
933.522	2363
933.617	1988
933.712	2015
933.807	2050
933.902	2655
933.997	2960
934.092	1835
934.187	2005
934.282	1211
934.376	2185
934.471	2864
934.566	2299
934.661	1592
934.755	2251
934.850	2366
934.945	2558
935.039	1711
935.134	1759
935.228	1643
935.323	2440
935.417	2829
935.512	1921
935.606	2264
935.701	2249
935.795	2483
935.890	2107
935.984	1590
936.079	1991
936.173	1948
936.267	1618
936.362	2216
936.456	1834
936.550	2562
936.644	2316
936.738	1858
936.833	2615
936.927	892
937.021	1128
937.115	1827
937.209	2043
937.303	2530
937.397	1663
937.491	1513
937.585	1332
937.679	2237
937.773	2704
937.867	1151
937.961	2053
938.055	2278
938.149	2584
938.243	1982
938.337	1614
938.430	2058
938.524	2900
938.618	3417
938.712	4582
938.805	1983
938.899	2787
938.993	2581
939.086	3238
939.180	3893
939.274	6105
939.367	3613
939.461	3416
939.554	1319
939.648	2240
939.741	1683
939.835	2119
939.928	2130
940.022	3172
940.115	2307
940.208	2517
940.302	1978
940.395	2946
940.488	1693
940.582	1188
940.675	1890
940.768	1716
940.861	2350
940.954	2646
941.048	1400
941.141	1137
941.234	2393
941.327	3708
941.420	4164
941.513	3293
941.606	1273
941.699	2229
941.792	2038
941.885	1592
941.978	2045
942.071	2561
942.164	1597
942.257	2069
942.349	1467
942.442	1929
942.535	1443
942.628	2058
942.721	1413
942.813	1547
942.906	2233
942.999	2438
943.091	1079
943.184	1415
943.277	1580
943.369	2184
943.462	1402
943.554	862
943.647	1204
943.739	2027
943.832	1766
943.924	745
944.017	1087
944.109	933
944.201	1176
944.294	2454
944.386	739
944.478	1520
944.571	1681
944.663	645
944.755	1127
944.847	982
944.940	1286
945.032	1539
945.124	883
945.216	2428
945.308	1559
945.400	1995
945.492	1780
945.584	966
945.676	2247
945.768	1439
945.860	1655
945.952	1449
946.044	1611
946.136	1295
946.228	1052
946.320	1723
946.412	475
946.503	1572
946.595	1702
946.687	870
946.779	1564
946.870	1095
946.962	1130
947.054	1116
947.145	1512
947.237	1312
947.329	1501
947.420	1502
947.512	623
947.603	847
947.695	1271
947.786	977
947.878	392
947.969	1018
948.061	1585
948.152	1366
948.243	826
948.335	990
948.426	697
948.517	988
948.609	1644
948.700	1637
948.791	1295
948.882	693
948.973	339
949.065	540
949.156	1612
949.247	942
949.338	362
949.429	1336
949.520	548
949.611	484
949.702	1412
949.793	1978
949.884	734
949.975	1565
950.066	1051
950.157	1232
950.247	663
950.338	913
950.429	1004
950.520	1352
950.611	1327
950.701	1292
950.792	1548
950.883	1425
950.973	519
951.064	1447
951.155	720
951.245	1225
951.336	859
951.427	284
951.517	1265
951.608	984
951.698	1391
951.788	668
951.879	1451
951.969	721
952.060	1112
952.150	870
952.240	1251
952.331	1318
952.421	1869
952.511	633
952.602	971
952.692	490
952.782	907
952.872	1158
952.962	836
953.052	1147
953.143	272
953.233	1174
953.323	1035
953.413	482
953.503	1513
953.593	935
953.683	614
953.773	313
953.863	218
953.953	-156
954.042	911
954.132	1147
954.222	723
954.312	134
954.402	182
954.492	708
954.581	1546
954.671	1057
954.761	543
954.850	1207
954.940	447
955.030	512
955.119	607
955.209	632
955.298	507
955.388	1400
955.477	948
955.567	20
955.656	871
955.746	522
955.835	670
955.925	526
956.014	1097
956.103	1213
956.193	832
956.282	1083
956.371	698
956.461	1789
956.550	131
956.639	403
956.728	500
956.817	543
956.906	731
956.995	1519
957.085	449
957.174	789
957.263	2
957.352	1501
957.441	529
957.530	1403
957.619	776
957.708	804
957.796	67
957.885	725
957.974	772
958.063	685
958.152	323
958.241	958
958.329	458
958.418	483
958.507	85
958.596	2001
958.684	700
958.773	482
958.861	453
958.950	717
959.039	409
959.127	1280
959.216	156
959.304	1226
959.393	361
959.481	803
959.570	-264
959.658	83
959.746	269
959.835	245
959.923	1291
960.011	798
960.100	357
960.188	1392
960.276	48
960.365	144
960.453	290
960.541	647
960.629	586
960.717	789
960.805	391
960.893	291
960.981	548
961.069	589
961.158	488
961.245	1171
961.333	1078
961.421	1245
961.509	-497
961.597	638
961.685	1033
961.773	-267
961.861	117
961.949	1437
962.036	631
962.124	627
962.212	425
962.299	595
962.387	479
962.475	597
962.562	-103
962.650	823
962.738	863
962.825	-471
962.913	402
963.000	514
963.088	1248
963.175	805
963.263	756
963.350	-13
963.438	815
963.525	750
963.612	925
963.700	3770
963.787	6218
963.874	6068
963.962	1659
964.049	980
964.136	-317
964.223	632
964.310	-139
964.398	388
964.485	557
964.572	944
964.659	1255
964.746	1468
964.833	714
964.920	13
965.007	356
965.094	391
965.181	137
965.268	761
965.355	245
965.441	684
965.528	619
965.615	747
965.702	261
965.789	553
965.875	-4
965.962	1280
966.049	398
966.136	443
966.222	672
966.309	867
966.395	280
966.482	1075
966.569	600
966.655	1067
966.742	841
966.828	816
966.915	69
967.001	375
967.087	-211
967.174	555
967.260	1377
967.347	1149
967.433	2435
967.519	5084
967.605	3686
967.692	514
967.778	270
967.864	783
967.950	-346
968.036	1155
968.123	251
968.209	129
968.295	-368
968.381	819
968.467	658
968.553	-423
968.639	921
968.725	114
968.811	1321
968.897	1034
968.983	458
969.069	-100
969.154	911
969.240	536
969.326	-623
969.412	419
969.497	460
969.583	-83
969.669	717
969.755	769
969.840	-151
969.926	1585
970.012	759
970.097	695
970.183	1182
970.268	98
970.354	1216
970.439	755
970.525	2967
970.610	1602
970.696	921
970.781	577
970.866	745
970.952	731
971.037	994
971.122	228
971.208	388
971.293	-234
971.378	-465
971.463	-46
971.549	317
971.634	-1
971.719	-347
971.804	272
971.889	933
971.974	-106
972.059	-162
972.144	239
972.229	814
972.314	-687
972.399	522
972.484	880
972.569	855
972.654	430
972.739	1656
972.824	430
972.908	1008
972.993	1161
973.078	228
973.163	808
973.247	536
973.332	-386
973.417	1040
973.501	96
973.586	1212
973.671	619
973.755	237
973.840	835
973.924	651
974.009	648
974.093	-519
974.178	1569
974.262	1182
974.346	840
974.431	1121
974.515	210
974.600	-463
974.684	365
974.768	-251
974.852	661
974.937	139
975.021	1112
975.105	162
975.189	312
975.273	77
975.358	516
975.442	-773
975.526	-37
975.610	-406
975.694	-421
975.778	903
975.862	365
975.946	-1345
976.030	1056
976.114	-597
976.198	-683
976.281	-91
976.365	610
976.449	-578
976.533	-638
976.617	-40
976.700	114
976.784	65
976.868	109
976.951	878
977.035	801
977.119	38
977.202	706
977.286	-106
977.369	806
977.453	603
977.536	-212
977.620	95
977.703	719
977.787	-353
977.870	891
977.953	891
978.037	-706
978.120	390
978.203	-103
978.287	386
978.370	1055
978.453	333
978.536	460
978.620	696
978.703	1169
978.786	127
978.869	-324
978.952	-406
979.035	310
979.118	140
979.201	-190
979.284	-488
979.367	-344
979.450	640
979.533	218
979.616	42
979.699	-446
979.782	-227
979.865	-61
979.948	184
980.030	-2
980.113	75
980.196	-367
980.279	237
980.361	186
980.444	-1096
980.526	388
980.609	818
980.692	390
980.774	-72
980.857	-33
980.939	497
981.022	402
981.104	157
981.187	-50
981.269	507
981.352	-218
981.434	-279
981.516	220
981.599	200
981.681	-95
981.763	453
981.846	791
981.928	67
982.010	-881
982.092	-202
982.174	649
982.256	-216
982.339	-319
982.421	-177
982.503	260
982.585	-319
982.667	689
982.749	-660
982.831	-720
982.913	-639
982.995	351
983.077	-706
983.158	579
983.240	-802
983.322	973
983.404	153
983.486	352
983.568	478
983.649	-155
983.731	133
983.813	-430
983.894	-32
983.976	-420
984.058	-82
984.139	15
984.221	-643
984.302	776
984.384	-155
984.465	-66
984.547	237
984.628	-15
984.710	-423
984.791	-95
984.872	-901
984.954	-68
985.035	-66
985.116	37
985.198	57
985.279	58
985.360	-610
985.441	-232
985.522	516
985.604	136
985.685	-1628
985.766	831
985.847	197
985.928	-673
986.009	-290
986.090	-26
986.171	535
986.252	-523
986.333	1276
986.414	340
986.495	-152
986.576	332
986.656	-325
986.737	121
986.818	-732
986.899	150
986.980	-1168
987.060	-448
987.141	-274
987.222	71
987.302	-293
987.383	-156
987.464	-315
987.544	327
987.625	-164
987.705	331
987.786	674
987.866	-111
987.947	-539
988.027	-341
988.108	211
988.188	253
988.268	158
988.349	234
988.429	78
988.509	-41
988.589	37
988.670	-89
988.750	522
988.830	-396
988.910	-135
988.990	-881
989.070	-920
989.151	386
989.231	-887
989.311	96
989.391	-649
989.471	-482
989.551	36
989.631	-901
989.711	599
989.791	-237
989.870	211
989.950	116
990.030	-982
990.110	-365
990.190	-386
990.269	-107
990.349	-736
990.429	-223
990.509	-64
990.588	-393
990.668	-399
990.747	-1075
990.827	-515
990.907	-509
990.986	-403
991.066	56
991.145	-604
991.225	339
991.304	-477
991.383	258
991.463	-1226
991.542	-467
991.622	-455
991.701	-747
991.780	-334
991.859	-564
991.939	377
992.018	-277
992.097	-58
992.176	-433
992.256	-610
992.335	-971
992.414	-1007
992.493	-107
992.572	-537
992.651	-170
992.730	-499
992.809	-401
992.888	-100
992.967	-152
993.046	-40
993.125	-202
993.203	-1002
993.282	-306
993.361	-928
993.440	-903
993.519	-430
993.597	-797
993.676	-775
993.755	-311
993.834	-987
993.912	-726
993.991	74
994.069	-1015
994.148	-93
994.226	-481
994.305	-703
994.384	-119
994.462	339
994.540	-452
994.619	-405
994.697	689
994.776	-1388
994.854	292
994.932	147
995.011	-502
995.089	-425
995.167	-537
995.245	-481
995.324	-255
995.402	-415
995.480	-917
995.558	-235
995.636	-939
995.714	-836
995.792	-32
995.870	-350
995.948	-107
996.026	-483
996.104	-214
996.182	-199
996.260	-513
996.338	-141
996.416	-1230
996.494	-943
996.572	169
996.649	-1037
996.727	-1288
996.805	-1274
996.883	-208
996.960	-742
997.038	-98
997.116	-317
997.193	-548
997.271	147
997.348	-556
997.426	-450
997.504	-1235
997.581	-498
997.658	-911
997.736	-708
997.813	-486
997.891	289
997.968	-686
998.046	-522
998.123	-553
998.200	-259
998.277	-770
998.355	-758
998.432	-923
998.509	-316
998.586	-879
998.663	-1219
998.741	-1116
998.818	-382
998.895	-656
998.972	-636
999.049	-1015
999.126	-711
999.203	-468
999.280	-151
999.357	-1261
999.434	-466
999.511	-202
999.587	-613
999.664	-1448
999.741	-573
999.818	-1008
999.895	-1074
999.971	-978
1000.048	-950
1000.125	-22
1000.202	-1497
1000.278	-379
1000.355	-789
1000.431	-480
1000.508	-1700
1000.584	-1103
1000.661	-355
1000.738	-1339
1000.814	-1846
1000.890	-530
1000.967	-1295
1001.043	-886
1001.120	-1271
1001.196	-1083
1001.272	-1375
1001.349	-882
1001.425	-624
1001.501	103
1001.577	-1299
1001.654	-47
1001.730	-455
1001.806	-1008
1001.882	-1676
1001.958	-285
1002.034	-112
1002.110	-1261
1002.186	-1700
1002.262	-1374
1002.338	-952
1002.414	-313
1002.490	-990
1002.566	-1531
1002.642	-1425
1002.718	-196
1002.794	-1400
1002.870	-26
1002.945	-846
1003.021	-977
1003.097	-1318
1003.173	-648
1003.248	-662
1003.324	-683
1003.400	-689
1003.475	-567
1003.551	-1178
1003.626	-1024
1003.702	-977
1003.777	-927
1003.853	-1276
1003.928	-1600
1004.004	-922
1004.079	-893
1004.155	-1261
1004.230	-945
1004.305	-1339
1004.381	-1592
1004.456	-1100
1004.531	-729
1004.607	-1135
1004.682	-1053
1004.757	-647
1004.832	-1002
1004.907	-1092
1004.982	-1125
1005.057	-780
1005.133	-613
1005.208	-940
1005.283	-1559
1005.358	-445
1005.433	-899
1005.508	-893
1005.583	-1023
1005.657	-1556
1005.732	-1011
1005.807	-580
1005.882	-831
1005.957	-721
1006.032	-153
1006.106	-1370
1006.181	-712
1006.256	-870
1006.331	-1227
1006.405	-1345
1006.480	-267
1006.554	-1122
1006.629	-802
1006.704	-1193
1006.778	-1509
1006.853	-1010
1006.927	-1389
1007.002	-961
1007.076	-695
1007.150	-1427
1007.225	-1280
1007.299	-1174
1007.373	-1276
1007.448	-920
1007.522	-1017
1007.596	-1279
1007.671	-1857
1007.745	-1332
1007.819	-1729
1007.893	-652
1007.967	-105
1008.041	-2194
1008.115	-935
1008.190	-778
1008.264	-1541
1008.338	-2497
1008.412	-1667
1008.486	-815
1008.560	-1332
1008.633	-1325
1008.707	-1085
1008.781	-971
1008.855	-973
1008.929	-1390
1009.003	-1253
1009.076	-1393
1009.150	-1373
1009.224	-1448
1009.298	-1549
1009.371	-1098
1009.445	-1062
1009.519	-762
1009.592	-2143
1009.666	-1788
1009.739	-615
1009.813	-2304
1009.886	-895
1009.960	-1193
1010.033	-649
1010.107	-773
1010.180	-1411
1010.253	-1141
1010.327	-2000
1010.400	-1082
1010.473	-752
1010.547	-748
1010.620	-834
1010.693	-759
1010.766	-1215
1010.840	-1248
1010.913	-858
1010.986	-1440
1011.059	-1282
1011.132	-1354
1011.205	-1783
1011.278	-1449
1011.351	-867
1011.424	-1786
1011.497	-1497
1011.570	-1851
1011.643	-1787
1011.716	-1231
1011.789	-1074
1011.862	-751
1011.934	-875
1012.007	-1810
1012.080	-1109
1012.153	-895
1012.225	-2006
1012.298	-2390
1012.371	-1305
1012.443	-919
1012.516	-2617
1012.588	-834
1012.661	-1854
1012.733	-1729
1012.806	-1719
1012.879	-1476
1012.951	-1267
1013.023	-1728
1013.096	-1316
1013.168	-1867
1013.241	-1447
1013.313	-2147
1013.385	-1999
1013.458	-1777
1013.530	-1384
1013.602	-1719
1013.674	-1750
1013.746	-1879
1013.819	-1002
1013.891	-1188
1013.963	-1626
1014.035	-1276
1014.107	-819
1014.179	-1136
1014.251	-1419
1014.323	-1175
1014.395	-1579
1014.467	-2063
1014.539	-1124
1014.611	-2224
1014.683	-972
1014.754	-1713
1014.826	-1723
1014.898	-2040
1014.970	-1960
1015.042	-1689
1015.113	-1425
1015.185	-2145
1015.257	-1157
1015.328	-1874
1015.400	-2015
1015.471	-2501
1015.543	-1825
1015.615	-2023
1015.686	-1797
1015.757	-2061
1015.829	-1245
1015.901	-1837
1015.972	-1665
1016.043	-2543
1016.115	-1323
1016.186	-1594
1016.257	-1823
1016.328	-1772
1016.400	-801
1016.471	-2523
1016.542	-1529
1016.613	-2247
1016.685	-1913
1016.756	-1884
1016.827	-1750
1016.898	-2222
1016.969	-854
1017.040	-1601
1017.111	-1999
1017.182	-2293
1017.253	-1370
1017.324	-2083
1017.395	-1562
1017.466	-1859
1017.537	-1612
1017.608	-1705
1017.678	-1472
1017.749	-2472
1017.820	-1930
1017.891	-3078
1017.961	-2119
1018.032	-1625
1018.103	-1965
1018.173	-2555
1018.244	-2754
1018.315	-1684
1018.385	-1687
1018.456	-1960
1018.526	-3180
1018.597	-2512
1018.667	-1821
1018.738	-2642
1018.808	-3041
1018.878	-2327
1018.949	-1215
1019.019	-2540
1019.089	-2209
1019.160	-2064
1019.230	-2521
1019.300	-2293
1019.371	-2301
1019.441	-1733
1019.511	-1591
1019.581	-2224
1019.651	-1713
1019.721	-1719
1019.791	-2229
1019.861	-1886
1019.931	-1700
1020.001	-2089
1020.071	-2132
1020.141	-2654
1020.211	-1975
1020.281	-2741
1020.351	-1951
1020.421	-1421
1020.491	-1319
1020.560	-2168
1020.630	-2108
1020.700	-2006
1020.770	-2057
1020.839	-2039
1020.909	-1657
1020.979	-2599
1021.048	-2116
1021.118	-2118
1021.187	-3568
1021.257	-1843
1021.326	-1789
1021.396	-2160
1021.465	-2011
1021.535	-1381
1021.604	-2424
1021.674	-2129
1021.743	-2024
1021.812	-1952
1021.882	-2503
1021.951	-1465
1022.020	-1406
1022.089	-1568
1022.159	-2185
1022.228	-1882
1022.297	-2219
1022.366	-1632
1022.435	-2321
1022.504	-2225
1022.573	-2383
1022.642	-1774
1022.711	-2923
1022.781	-1646
1022.849	-2365
1022.918	-2317
1022.987	-1952
1023.056	-2001
1023.125	-1918
1023.194	-2321
1023.263	-1911
1023.331	-2151
1023.400	-1984
1023.469	-1956
1023.538	-1860
1023.606	-1444
1023.675	-1292
1023.744	-1629
1023.812	-2207
1023.881	-1920
1023.949	-2099
1024.018	-2433
1024.086	-1985
1024.155	-2462
1024.223	-1590
1024.292	-2222
1024.360	-2439
1024.429	-1663
1024.497	-1706
1024.565	-1957
1024.634	-2055
1024.702	-1738
1024.770	-2456
1024.838	-2896
1024.907	-1653
1024.975	-2586
1025.043	-1521
1025.111	-2197
1025.179	-2442
1025.247	-2562
1025.315	-2131
1025.383	-1959
1025.451	-1672
1025.519	-2001
1025.587	-2157
1025.655	-2672
1025.723	-2041
1025.791	-2140
1025.859	-2013
1025.927	-2766
1025.995	-1814
1026.062	-2351
1026.130	-1558
1026.198	-1897
1026.266	-2315
1026.333	-1690
1026.401	-1673
1026.469	-1923
1026.536	-1613
1026.604	-2239
1026.671	-2554
1026.739	-2624
1026.806	-1686
1026.874	-1252
1026.941	-2226
1027.009	-1809
1027.076	-2084
1027.144	-1645
1027.211	-2794
1027.278	-2366
1027.345	-1089
1027.413	-2020
1027.480	-1706
1027.547	-1801
1027.614	-2008
1027.682	-1994
1027.749	-2460
1027.816	-1209
1027.883	-2272
1027.950	-1575
1028.017	-2531
1028.084	-1897
1028.151	-2353
1028.218	-2102
1028.285	-1675
1028.352	-1499
1028.419	-1934
1028.486	-2344
1028.553	-1948
1028.619	-2202
1028.686	-1979
1028.753	-1509
1028.820	-1396
1028.886	-1769
1028.953	-1560
1029.020	-2523
1029.086	-2260
1029.153	-2175
1029.220	-1631
1029.286	-1336
1029.353	-2654
1029.419	-2368
1029.486	-1826
1029.552	-2266
1029.619	-2088
1029.685	-2464
1029.751	-2302
1029.818	-1369
1029.884	-1956
1029.951	-1084
1030.017	-1679
1030.083	-2221
1030.149	-2475
1030.216	-2432
1030.282	-1368
1030.348	-2077
1030.414	-1707
1030.480	-1756
1030.546	-1725
1030.612	-2408
1030.678	-2126
1030.744	-1237
1030.810	-1169
1030.876	-1794
1030.942	-2172
1031.008	-2279
1031.074	-2066
1031.140	-1405
1031.206	-1204
1031.272	-2272
1031.337	-2140
1031.403	-1731
1031.469	-2648
1031.534	-1888
1031.600	-2015
1031.666	-1976
1031.731	-1921
1031.797	-2475
1031.863	-2473
1031.928	-2559
1031.994	-1924
1032.059	-1768
1032.125	-1866
1032.190	-1723
1032.256	-1509
1032.321	-2051
1032.386	-1821
1032.452	-1993
1032.517	-2074
1032.582	-1920
1032.647	-2437
1032.713	-1975
1032.778	-1279
1032.843	-1810
1032.908	-1856
1032.974	-2053
1033.039	-3080
1033.104	-1533
1033.169	-1425
1033.234	-2357
1033.299	-1437
1033.364	-683
1033.429	-1707
1033.494	-692
1033.559	-1577
1033.624	-2000
1033.688	-1411
1033.753	-1834
1033.818	-1062
1033.883	-1163
1033.948	-1561
1034.013	-1288
1034.077	-1822
1034.142	-1346
1034.207	-1217
1034.271	-552
1034.336	265
1034.400	-223
1034.465	-630
1034.530	-66
1034.594	-1190
1034.658	-1460
1034.723	-1296
1034.787	-1697
1034.852	-1670
1034.916	-1896
1034.981	-2722
1035.045	-2734
1035.109	-1645
1035.173	-1362
1035.238	-1838
1035.302	-1661
1035.366	-2167
1035.430	-2707
1035.495	-2149
1035.559	-1546
1035.623	-2217
1035.687	-2447
1035.751	-1961
1035.815	-1743
1035.879	-1992
1035.943	-1948
1036.007	-1535
1036.071	-1553
1036.135	-2398
1036.198	-1748
1036.262	-1866
1036.326	-1307
1036.390	-1239
1036.454	-1161
1036.517	-1739
1036.581	-917
1036.645	-724
1036.709	-487
1036.772	-185
1036.836	-924
1036.900	-1828
1036.963	-2254
1037.026	-1674
1037.090	-2469
1037.154	-2141
1037.217	-1811
1037.280	-2247
1037.344	-1788
1037.407	-2870
1037.471	-1764
1037.534	-2152
1037.597	-1646
1037.661	-1777
1037.724	-1944
1037.787	-1653
1037.850	-1620
1037.913	-2376
1037.977	-1775
1038.040	-2151
1038.103	-2395
1038.166	-2248
1038.229	-2207
1038.292	-1877
1038.355	-1476
1038.418	-1606
1038.481	-1950
1038.544	-2329
1038.607	-2494
1038.670	-1698
1038.732	-1286
1038.795	-1429
1038.858	-2108
1038.921	-2248
1038.984	-967
1039.046	-2047
1039.109	-1951
1039.172	-1703
1039.234	-1620
1039.297	-1530
1039.360	-1597
1039.422	-1913
1039.485	-2008
1039.547	-1715
1039.610	-1663
1039.672	-1666
1039.734	-1867
1039.797	-1907
1039.859	-1724
1039.922	-2027
1039.984	-2295
1040.046	-1710
1040.109	-1586
1040.171	-1929
1040.233	-2477
1040.295	-1954
1040.358	-2035
1040.420	-1525
1040.482	-1528
1040.544	-2262
1040.606	-2426
1040.668	-2443
1040.730	-1637
1040.792	-1547
1040.854	-2203
1040.916	-1964
1040.978	-2271
1041.040	-1102
1041.102	-2109
1041.164	-1516
1041.225	-2023
1041.287	-2526
1041.349	-1981
1041.411	-2066
1041.472	-1772
1041.534	-2388
1041.596	-1364
1041.657	-1876
1041.719	-2191
1041.781	-2044
1041.842	-2125
1041.904	-2147
1041.965	-1722
1042.027	-1873
1042.088	-1320
1042.150	-1627
1042.211	-1775
1042.272	-1893
1042.334	-1875
1042.395	-2165
1042.456	-2428
1042.518	-2619
1042.579	-1542
1042.640	-2749
1042.701	-2150
1042.763	-2437
1042.824	-2133
1042.885	-2391
1042.946	-2537
1043.007	-2402
1043.068	-1644
1043.129	-2118
1043.190	-2252
1043.251	-1550
1043.312	-3143
1043.373	-1750
1043.434	-2090
1043.495	-2161
1043.556	-1421
1043.616	-2241
1043.677	-1781
1043.738	-1464
1043.799	-1902
1043.859	-1734
1043.920	-2278
1043.981	-1791
1044.041	-1498
1044.102	-1975
1044.162	-1975
1044.223	-2557
1044.284	-2901
1044.344	-1645
1044.405	-2656
1044.465	-1743
1044.525	-2321
1044.586	-1872
1044.646	-1882
1044.707	-2266
1044.767	-1591
1044.827	-1520
1044.887	-1726
1044.948	-2587
1045.008	-1619
1045.068	-1327
1045.128	-1866
1045.188	-1365
1045.249	-1323
1045.309	-2205
1045.369	-1371
1045.429	-1973
1045.489	-1981
1045.549	-1107
1045.609	-1473
1045.669	-1790
1045.729	-2050
1045.789	-1964
1045.848	-1331
1045.908	-1542
1045.968	-2104
1046.028	-1289
1046.088	-1722
1046.147	-1792
1046.207	-2535
1046.267	-1844
1046.326	-1618
1046.386	-1381
1046.446	-1536
1046.505	-1600
1046.565	-1285
1046.624	-981
1046.684	-1071
1046.743	-1066
1046.803	-957
1046.862	-932
1046.922	0
