'Start Wavelength	183.907
'End Wavelength	1046.922
'Gate Delay	5.000
'Gate Width (ms)	1.050
'Laser Output Level	0.000
'X Position	0.000
'Y Position	0.000
'Z Position	0.000
'Grid Point Number	1.000
'Shot Number	100.000
183.907	-27.000
183.977	-623.000
184.047	38
184.116	293
184.186	939
184.256	23
184.325	-749
184.395	-837
184.465	614
184.534	693
184.604	485
184.674	10
184.743	514
184.813	-159
184.883	273
184.952	-16
185.022	306
185.092	810
185.161	-364
185.231	153
185.301	617
185.370	320
185.440	394
185.509	-111
185.579	-169
185.649	14
185.718	286
185.788	163
185.857	70
185.927	-256
185.996	-395
186.066	254
186.136	42
186.205	654
186.275	439
186.344	572
186.414	197
186.483	648
186.553	1123
186.622	1195
186.692	810
186.761	537
186.831	761
186.900	-120
186.970	735
187.039	-120
187.109	1073
187.178	558
187.248	673
187.317	638
187.387	234
187.456	872
187.526	736
187.595	480
187.664	14
187.734	617
187.803	463
187.873	550
187.942	355
188.012	267
188.081	935
188.150	80
188.220	948
188.289	1262
188.358	554
188.428	536
188.497	1556
188.567	1079
188.636	287
188.705	253
188.775	757
188.844	-7
188.913	758
188.983	71
189.052	476
189.121	350
189.191	604
189.260	517
189.329	555
189.399	346
189.468	768
189.537	334
189.606	397
189.676	1043
189.745	797
189.814	603
189.883	-716
189.953	410
190.022	1026
190.091	1065
190.161	1573
190.230	-133
190.299	628
190.368	122
190.437	59
190.507	778
190.576	301
190.645	-508
190.714	223
190.783	-163
190.853	959
190.922	778
190.991	483
191.060	767
191.129	923
191.198	743
191.268	7
191.337	754
191.406	761
191.475	265
191.544	29
191.613	225
191.682	1359
191.752	115
191.821	323
191.890	205
191.959	346
192.028	152
192.097	661
192.166	-5
192.235	407
192.304	40
192.373	199
192.442	431
192.511	114
192.580	258
192.650	-23
192.719	-72
192.788	224
192.857	499
192.926	524
192.995	350
193.064	1085
193.133	684
193.202	642
193.271	936
193.340	718
193.409	258
193.478	1023
193.547	1335
193.615	1332
193.684	1019
193.753	-107
193.822	621
193.891	-588
193.960	798
194.029	608
194.098	-41
194.167	1048
194.236	740
194.305	168
194.374	268
194.443	872
194.512	576
194.580	654
194.649	1056
194.718	848
194.787	695
194.856	302
194.925	202
194.994	645
195.062	325
195.131	386
195.200	272
195.269	354
195.338	575
195.407	543
195.475	89
195.544	353
195.613	-65
195.682	452
195.751	558
195.819	741
195.888	18
195.957	782
196.026	-546
196.094	1294
196.163	836
196.232	426
196.301	309
196.369	1326
196.438	604
196.507	420
196.576	615
196.644	698
196.713	-319
196.782	259
196.850	475
196.919	489
196.988	-39
197.056	-128
197.125	-204
197.194	319
197.262	225
197.331	778
197.400	982
197.468	1350
197.537	257
197.606	-180
197.674	802
197.743	948
197.812	601
197.880	872
197.949	312
198.017	1247
198.086	837
198.155	536
198.223	723
198.292	808
198.360	445
198.429	954
198.497	358
198.566	665
198.635	1181
198.703	520
198.772	577
198.840	1178
198.909	1161
198.977	721
199.046	847
199.114	480
199.183	626
199.251	545
199.320	-27
199.388	422
199.457	236
199.525	846
199.594	751
199.662	510
199.731	828
199.799	827
199.867	1029
199.936	1203
200.004	346
200.073	712
200.141	331
200.210	480
200.278	750
200.346	1045
200.415	1723
200.483	1592
200.552	1215
200.620	1409
200.688	317
200.757	666
200.825	687
200.893	956
200.962	1011
201.030	347
201.098	127
201.167	258
201.235	640
201.303	1312
201.372	1767
201.440	1619
201.508	1567
201.577	789
201.645	992
201.713	818
201.781	1514
201.850	1864
201.918	1109
201.986	826
202.055	688
202.123	582
202.191	1123
202.259	713
202.327	978
202.396	1401
202.464	1061
202.532	2480
202.600	3501
202.669	3419
202.737	1187
202.805	947
202.873	765
202.941	1437
203.009	973
203.078	1024
203.146	1481
203.214	457
203.282	1017
203.350	940
203.418	1253
203.487	538
203.555	670
203.623	1289
203.691	1131
203.759	545
203.827	560
203.895	1564
203.963	1176
204.031	1438
204.099	1318
204.168	758
204.236	997
204.304	796
204.372	1124
204.440	846
204.508	782
204.576	865
204.644	908
204.712	664
204.780	641
204.848	725
204.916	572
204.984	233
205.052	424
205.120	752
205.188	877
205.256	933
205.324	601
205.392	883
205.460	1437
205.528	454
205.596	498
205.664	572
205.732	421
205.799	1664
205.867	1366
205.935	209
206.003	1134
206.071	257
206.139	262
206.207	334
206.275	602
206.343	633
206.411	422
206.478	1452
206.546	1377
206.614	876
206.682	750
206.750	975
206.818	1037
206.885	818
206.953	572
207.021	1563
207.089	861
207.157	1157
207.225	367
207.292	1082
207.360	982
207.428	700
207.496	1200
207.563	1027
207.631	387
207.699	980
207.767	493
207.834	717
207.902	1050
207.970	938
208.038	1304
208.105	1104
208.173	1186
208.241	1516
208.309	839
208.376	980
208.444	1493
208.512	1050
208.579	1485
208.647	1755
208.715	1872
208.782	1099
208.850	1059
208.918	1095
208.985	524
209.053	989
209.120	1607
209.188	1340
209.256	914
209.323	210
209.391	742
209.459	1505
209.526	1375
209.594	974
209.661	1556
209.729	1326
209.796	1355
209.864	2060
209.932	907
209.999	1595
210.067	875
210.134	352
210.202	464
210.269	1890
210.337	2588
210.404	703
210.472	959
210.539	1438
210.607	-308
210.674	1054
210.742	1041
210.809	895
210.877	748
210.944	741
211.012	745
211.079	1486
211.146	829
211.214	2279
211.281	2321
211.349	1966
211.416	959
211.484	1652
211.551	1125
211.618	1181
211.686	1391
211.753	375
211.821	1588
211.888	1967
211.955	1647
212.023	1178
212.090	1251
212.157	1565
212.225	823
212.292	1787
212.359	3298
212.427	5574
212.494	2260
212.561	1142
212.629	574
212.696	788
212.763	835
212.831	115
212.898	894
212.965	415
213.032	-49
213.100	544
213.167	1295
213.234	518
213.301	1339
213.369	638
213.436	248
213.503	832
213.570	898
213.638	978
213.705	679
213.772	848
213.839	729
213.906	733
213.973	489
214.041	764
214.108	1426
214.175	886
214.242	1077
214.309	705
214.376	1422
214.444	886
214.511	972
214.578	1140
214.645	1530
214.712	1593
214.779	1521
214.846	2195
214.913	1570
214.980	3083
215.048	3074
215.115	2940
215.182	2399
215.249	2110
215.316	1391
215.383	1710
215.450	963
215.517	1107
215.584	995
215.651	1219
215.718	955
215.785	1527
215.852	1346
215.919	817
215.986	1069
216.053	630
216.120	570
216.187	885
216.254	1767
216.321	1335
216.388	631
216.455	1562
216.522	725
216.589	896
216.656	1866
216.722	1810
216.789	1047
216.856	1007
216.923	1325
216.990	1310
217.057	1379
217.124	1240
217.191	952
217.258	1480
217.324	1039
217.391	1022
217.458	1434
217.525	1792
217.592	853
217.659	1002
217.725	1223
217.792	1651
217.859	1596
217.926	1231
217.993	1054
218.059	1315
218.126	668
218.193	729
218.260	965
218.327	603
218.393	709
218.460	-3
218.527	460
218.594	537
218.660	2204
218.727	1967
218.794	671
218.860	1488
218.927	1014
218.994	627
219.061	965
219.127	1176
219.194	1999
219.261	1146
219.327	1084
219.394	1342
219.461	1009
219.527	681
219.594	1679
219.661	833
219.727	854
219.794	2545
219.860	1708
219.927	3098
219.994	5673
220.060	8680
220.127	7099
220.193	3881
220.260	2834
220.326	2958
220.393	2713
220.460	2574
220.526	1977
220.593	1740
220.659	2614
220.726	1551
220.792	4304
220.859	3193
220.925	4103
220.992	3187
221.058	4785
221.125	4384
221.191	2877
221.258	1176
221.324	1725
221.391	1246
221.457	542
221.524	1308
221.590	1947
221.657	4754
221.723	2022
221.789	3047
221.856	2274
221.922	1714
221.989	1095
222.055	1581
222.121	1450
222.188	2562
222.254	1514
222.321	1763
222.387	1716
222.453	1369
222.520	1384
222.586	1053
222.652	1064
222.719	843
222.785	1053
222.851	1221
222.918	840
222.984	389
223.050	37
223.116	980
223.183	776
223.249	616
223.315	360
223.382	702
223.448	818
223.514	163
223.580	580
223.647	209
223.713	19
223.779	393
223.845	1004
223.911	195
223.978	579
224.044	-185
224.110	979
224.176	1367
224.242	298
224.309	1395
224.375	917
224.441	1142
224.507	414
224.573	584
224.639	793
224.705	937
224.772	808
224.838	560
224.904	1216
224.970	1121
225.036	658
225.102	655
225.168	1120
225.234	1669
225.300	1455
225.366	1892
225.432	742
225.499	1287
225.565	960
225.631	1096
225.697	839
225.763	1208
225.829	394
225.895	998
225.961	1509
226.027	1547
226.093	1403
226.159	2409
226.225	4722
226.291	7741
226.357	7737
226.423	3787
226.489	2942
226.554	2111
226.620	1713
226.686	2635
226.752	3338
226.818	7158
226.884	13627
226.950	8240
227.016	4708
227.082	3682
227.148	2854
227.214	2692
227.279	2216
227.345	3363
227.411	5789
227.477	10153
227.543	13349
227.609	14976
227.674	8855
227.740	5426
227.806	3172
227.872	2333
227.938	2413
228.003	2172
228.069	1194
228.135	1653
228.201	759
228.267	977
228.332	1458
228.398	1174
228.464	976
228.530	1331
228.595	1910
228.661	592
228.727	1498
228.792	1411
228.858	529
228.924	277
228.990	1532
229.055	439
229.121	1230
229.187	1377
229.252	770
229.318	798
229.384	407
229.449	612
229.515	513
229.581	274
229.646	1829
229.712	1255
229.777	2227
229.843	1585
229.909	1457
229.974	1771
230.040	1792
230.105	1538
230.171	945
230.236	1011
230.302	1157
230.368	1499
230.433	-71
230.499	418
230.564	1231
230.630	903
230.695	965
230.761	1932
230.826	840
230.892	1480
230.957	1009
231.023	983
231.088	-29
231.154	890
231.219	1237
231.284	1564
231.350	1148
231.415	1300
231.481	951
231.546	1099
231.612	896
231.677	773
231.742	1139
231.808	1342
231.873	992
231.939	43
232.004	1488
232.069	748
232.135	1661
232.200	1129
232.265	801
232.331	1175
232.396	149
232.461	777
232.527	901
232.592	677
232.657	1598
232.723	747
232.788	924
232.853	727
232.918	733
232.984	1325
233.049	1196
233.114	1092
233.179	3104
233.245	1546
233.310	727
233.375	684
233.440	1178
233.506	360
233.571	-94
233.636	979
233.701	139
233.766	730
233.832	446
233.897	396
233.962	-424
234.027	614
234.092	1087
234.157	986
234.222	2367
234.288	2277
234.353	1738
234.418	1829
234.483	1541
234.548	1165
234.613	1099
234.678	2078
234.743	507
234.808	1930
234.873	780
234.938	1579
235.004	792
235.069	517
235.134	697
235.199	1366
235.264	1299
235.329	253
235.394	750
235.459	1082
235.524	137
235.589	602
235.654	1031
235.719	-68
235.784	986
235.849	1096
235.913	1486
235.978	1907
236.043	932
236.108	1893
236.173	1302
236.238	929
236.303	898
236.368	900
236.433	2104
236.498	1641
236.563	2382
236.627	6464
236.692	21032
236.757	11546
236.822	4342
236.887	2907
236.952	2502
237.017	1342
237.081	3347
237.146	3445
237.211	8184
237.276	23827
237.341	26628
237.405	9751
237.470	4132
237.535	2867
237.600	1911
237.664	1981
237.729	1305
237.794	2388
237.859	4407
237.923	1535
237.988	904
238.053	2018
238.118	1469
238.182	3524
238.247	3274
238.312	373
238.376	1676
238.441	-526
238.506	2330
238.570	257
238.635	1896
238.700	2154
238.764	1055
238.829	1655
238.893	1475
238.958	1825
239.023	1374
239.087	2053
239.152	1806
239.216	1945
239.281	1618
239.346	1448
239.410	1692
239.475	1703
239.539	4634
239.604	2792
239.668	4430
239.733	7312
239.797	19322
239.862	28058
239.926	18261
239.991	8667
240.055	5628
240.120	4380
240.184	3334
240.249	1911
240.313	1135
240.378	2160
240.442	2639
240.507	2610
240.571	1371
240.635	1289
240.700	2287
240.764	1360
240.829	913
240.893	627
240.957	1428
241.022	3004
241.086	2659
241.151	1126
241.215	20
241.279	1090
241.344	863
241.408	1943
241.472	1110
241.537	2021
241.601	1265
241.665	971
241.730	481
241.794	1960
241.858	1294
241.922	1763
241.987	1423
242.051	1508
242.115	843
242.179	1285
242.244	996
242.308	1998
242.372	1776
242.436	1023
242.501	970
242.565	812
242.629	650
242.693	1943
242.757	725
242.822	525
242.886	1410
242.950	1562
243.014	694
243.078	1745
243.142	414
243.206	711
243.271	2253
243.335	1542
243.399	1973
243.463	8570
243.527	13340
243.591	4322
243.655	1686
243.719	1119
243.783	2107
243.847	1845
243.911	2112
243.975	3090
244.040	911
244.104	2099
244.168	1793
244.232	969
244.296	1509
244.360	1383
244.424	1305
244.488	1745
244.552	1288
244.615	477
244.679	2012
244.743	1230
244.807	1280
244.871	869
244.935	2082
244.999	1125
245.063	918
245.127	1459
245.191	1923
245.255	2305
245.319	1959
245.383	455
245.446	2256
245.510	979
245.574	1219
245.638	1678
245.702	1524
245.766	3328
245.829	2438
245.893	1342
245.957	859
246.021	1724
246.085	1647
246.149	2178
246.212	6001
246.276	4703
246.340	2014
246.404	2431
246.467	2443
246.531	1555
246.595	2034
246.659	1805
246.722	1252
246.786	1640
246.850	2433
246.913	3078
246.977	1042
247.041	1918
247.104	1619
247.168	3193
247.232	4822
247.295	7564
247.359	3211
247.423	2540
247.486	3303
247.550	2899
247.614	1723
247.677	1930
247.741	1516
247.804	2068
247.868	3280
247.932	5113
247.995	7091
248.059	2036
248.122	831
248.186	3426
248.249	4102
248.313	15846
248.376	10986
248.440	7101
248.503	2255
248.567	3533
248.630	2606
248.694	3683
248.757	6894
248.821	13472
248.884	7035
248.948	8088
249.011	10851
249.075	17353
249.138	11285
249.202	4217
249.265	2268
249.328	3541
249.392	2599
249.455	2392
249.519	3420
249.582	2881
249.645	5152
249.709	3537
249.772	2174
249.835	2247
249.899	2525
249.962	3705
250.025	1697
250.089	7284
250.152	5525
250.215	3298
250.279	2264
250.342	2380
250.405	2385
250.468	2188
250.532	3797
250.595	5490
250.658	23513
250.721	22434
250.785	7236
250.848	5866
250.911	2901
250.974	3428
251.038	5618
251.101	8509
251.164	3367
251.227	4461
251.290	4354
251.354	7357
251.417	30898
251.480	17107
251.543	18260
251.606	50703
251.669	22108
251.732	9763
251.795	11705
251.859	13770
251.922	28337
251.985	10649
252.048	5583
252.111	4293
252.174	3738
252.237	9675
252.300	14809
252.363	21122
252.426	35076
252.489	9922
252.552	5685
252.615	3927
252.678	6163
252.741	13754
252.804	20635
252.867	34919
252.930	15785
252.993	8453
253.056	5725
253.119	3247
253.182	2434
253.245	4110
253.308	3968
253.371	2774
253.434	2581
253.497	4264
253.559	7997
253.622	4546
253.685	4332
253.748	3410
253.811	2857
253.874	3915
253.937	2891
254.000	3049
254.062	6989
254.125	7433
254.188	5798
254.251	3880
254.314	2613
254.376	3820
254.439	3544
254.502	3672
254.565	6507
254.628	7859
254.690	3303
254.753	1314
254.816	2347
254.878	3088
254.941	7981
255.004	5347
255.067	2840
255.129	1869
255.192	2285
255.255	1785
255.317	2709
255.380	1558
255.443	2632
255.505	3354
255.568	1735
255.631	2051
255.693	4120
255.756	2620
255.819	3826
255.881	3381
255.944	2375
256.006	1951
256.069	2211
256.132	1549
256.194	2968
256.257	3299
256.319	2877
256.382	5660
256.444	6054
256.507	4330
256.569	3384
256.632	3137
256.694	3858
256.757	16011
256.819	27637
256.882	7791
256.944	4171
257.007	4091
257.069	2710
257.132	2721
257.194	3849
257.257	2425
257.319	2933
257.381	3619
257.444	10960
257.506	42580
257.569	25625
257.631	9656
257.693	6002
257.756	4216
257.818	2795
257.880	3297
257.943	2672
258.005	2563
258.067	2236
258.130	3391
258.192	2104
258.254	3077
258.317	2044
258.379	2838
258.441	5449
258.503	4846
258.566	3574
258.628	3587
258.690	1808
258.753	3812
258.815	2853
258.877	2719
258.939	2568
259.001	3260
259.064	2330
259.126	1229
259.188	2507
259.250	3313
259.312	2942
259.375	3454
259.437	2843
259.499	3013
259.561	3127
259.623	3011
259.685	2619
259.747	3474
259.809	4204
259.872	5364
259.934	9398
259.996	7416
260.058	3130
260.120	3012
260.182	2770
260.244	2281
260.306	2558
260.368	2817
260.430	1919
260.492	3763
260.554	5319
260.616	3691
260.678	6743
260.740	4319
260.802	3370
260.864	3429
260.926	1917
260.988	3226
261.050	3152
261.112	4889
261.174	6603
261.236	4391
261.298	3028
261.359	4000
261.421	4568
261.483	2954
261.545	3010
261.607	2803
261.669	3308
261.731	3875
261.793	4728
261.854	2345
261.916	3436
261.978	2770
262.040	2772
262.102	3826
262.164	3227
262.225	3136
262.287	3332
262.349	3658
262.411	3141
262.472	3338
262.534	3263
262.596	3195
262.658	2849
262.719	2503
262.781	4067
262.843	3672
262.904	4082
262.966	3119
263.028	3756
263.090	10781
263.151	14295
263.213	6287
263.275	4681
263.336	3792
263.398	4057
263.459	2898
263.521	4047
263.583	5290
263.644	3716
263.706	3595
263.767	2263
263.829	3692
263.891	3149
263.952	3108
264.014	1905
264.075	3704
264.137	4436
264.198	2487
264.260	2417
264.321	3514
264.383	3996
264.444	5393
264.506	3002
264.567	3867
264.629	5594
264.690	4681
264.752	3744
264.813	4025
264.875	3019
264.936	3815
264.998	3204
265.059	4180
265.120	3757
265.182	4736
265.243	16776
265.305	11433
265.366	4661
265.427	3801
265.489	4410
265.550	2732
265.611	4167
265.673	3816
265.734	3353
265.795	3578
265.857	3706
265.918	3101
265.979	8759
266.040	28509
266.102	14495
266.163	6583
266.224	5238
266.286	4199
266.347	3581
266.408	3921
266.469	4086
266.530	3956
266.592	3826
266.653	5538
266.714	4801
266.775	4257
266.836	4223
266.898	4641
266.959	4304
267.020	4162
267.081	5055
267.142	4997
267.203	4314
267.264	3572
267.326	5237
267.387	4407
267.448	3538
267.509	4746
267.570	4669
267.631	3588
267.692	3266
267.753	3311
267.814	2189
267.875	5277
267.936	5253
267.997	4132
268.058	2953
268.119	3051
268.180	2843
268.241	2972
268.302	2531
268.363	2837
268.424	2960
268.485	2735
268.546	2500
268.607	2897
268.668	2030
268.729	2895
268.790	2628
268.851	2565
268.912	4236
268.972	3814
269.033	2744
269.094	2380
269.155	3107
269.216	2925
269.277	2666
269.338	2591
269.398	2412
269.459	2662
269.520	3847
269.581	3115
269.642	3576
269.702	2600
269.763	2862
269.824	3450
269.885	2869
269.945	3991
270.006	2443
270.067	2561
270.128	2435
270.188	2005
270.249	3103
270.310	2872
270.370	3223
270.431	2362
270.492	1911
270.553	3099
270.613	3510
270.674	5280
270.734	2827
270.795	3174
270.856	3388
270.916	2517
270.977	3282
271.038	3393
271.098	3299
271.159	3596
271.219	3109
271.280	3625
271.340	2497
271.401	3070
271.462	3496
271.522	4080
271.583	2878
271.643	3955
271.704	3566
271.764	4765
271.825	5889
271.885	16398
271.946	13660
272.006	7237
272.066	13112
272.127	17530
272.187	18084
272.248	8216
272.308	6910
272.369	13275
272.429	6984
272.489	6234
272.550	5466
272.610	5678
272.671	4759
272.731	5313
272.791	5447
272.852	5771
272.912	5508
272.972	5643
273.033	5634
273.093	5493
273.153	7256
273.214	6462
273.274	6983
273.334	13606
273.394	14988
273.455	9228
273.515	12253
273.575	13634
273.635	10708
273.696	15539
273.756	18168
273.816	10342
273.876	9081
273.936	10282
273.997	10391
274.057	7429
274.117	6577
274.177	8398
274.237	19963
274.297	10550
274.358	8575
274.418	12507
274.478	7721
274.538	5604
274.598	4300
274.658	7398
274.718	6166
274.778	4981
274.838	3983
274.898	4856
274.958	7860
275.018	14838
275.078	7322
275.138	5068
275.198	3698
275.258	4610
275.318	4695
275.378	4916
275.438	4267
275.498	5001
275.558	5888
275.618	9859
275.678	7285
275.738	6810
275.798	5563
275.858	3337
275.918	3389
275.978	5163
276.038	4088
276.098	4933
276.157	6335
276.217	8718
276.277	5197
276.337	4893
276.397	4340
276.457	5662
276.517	4156
276.576	4650
276.636	4741
276.696	5614
276.756	7017
276.815	5708
276.875	6896
276.935	4696
276.995	5198
277.055	7256
277.114	5972
277.174	6056
277.234	8057
277.293	6080
277.353	4931
277.413	4818
277.472	5808
277.532	6458
277.592	11302
277.651	39958
277.711	36016
277.771	23305
277.830	57407
277.890	32390
277.950	52369
278.009	75194
278.069	31417
278.128	50311
278.188	41166
278.248	33051
278.307	61418
278.367	24282
278.426	11962
278.486	8252
278.545	7853
278.605	8396
278.664	7059
278.724	7273
278.783	12732
278.843	16281
278.902	8750
278.962	8144
279.021	9232
279.081	14093
279.140	12129
279.199	12052
279.259	12434
279.318	15299
279.378	20653
279.437	33188
279.496	83590
279.556	162330
279.615	98377
279.675	43426
279.734	28447
279.793	31696
279.853	30435
279.912	18042
279.971	14937
280.031	14900
280.090	23238
280.149	28592
280.208	48025
280.268	128190
280.327	83689
280.386	33331
280.445	20943
280.505	14728
280.564	12293
280.623	10410
280.682	11029
280.742	11878
280.801	8063
280.860	7775
280.919	7725
280.978	8164
281.037	7597
281.097	7195
281.156	10011
281.215	7963
281.274	7661
281.333	14007
281.392	7964
281.451	6191
281.510	6801
281.569	6610
281.628	6203
281.688	6596
281.747	6973
281.806	6299
281.865	7032
281.924	6377
281.983	6437
282.042	5857
282.101	5193
282.160	6758
282.219	6367
282.278	6475
282.337	8244
282.396	6782
282.454	7079
282.513	6862
282.572	9908
282.631	7072
282.690	7051
282.749	6480
282.808	6948
282.867	7510
282.926	6626
282.985	7443
283.043	7515
283.102	8052
283.161	8384
283.220	10996
283.279	12562
283.338	9651
283.396	8958
283.455	9785
283.514	10048
283.573	9938
283.631	9908
283.690	10111
283.749	10722
283.808	13236
283.866	11620
283.925	12005
283.984	13269
284.043	13204
284.101	14304
284.160	14891
284.219	17756
284.277	19191
284.336	21195
284.395	26726
284.453	26847
284.512	27857
284.570	31966
284.629	36879
284.688	43084
284.746	51039
284.805	61275
284.863	75620
284.922	94627
284.981	118341
285.039	150454
285.098	175824
285.156	140473
285.215	75361
285.273	109771
285.332	166626
285.390	165679
285.449	138250
285.507	111736
285.566	90057
285.624	72352
285.683	60634
285.741	50108
285.799	42628
285.858	36198
285.916	32294
285.975	28255
286.033	25315
286.091	23726
286.150	20612
286.208	19326
286.267	17440
286.325	16540
286.383	16365
286.442	13840
286.500	13777
286.558	13213
286.616	11875
286.675	12676
286.733	11497
286.791	9810
286.850	11056
286.908	10550
286.966	10622
287.024	8673
287.083	9530
287.141	8480
287.199	8622
287.257	8595
287.315	8937
287.374	8002
287.432	8793
287.490	7911
287.548	6778
287.606	7218
287.664	7603
287.723	7352
287.781	8507
287.839	7398
287.897	8257
287.955	7575
288.013	8740
288.071	14651
288.129	52066
288.187	77265
288.245	28092
288.303	13311
288.361	9726
288.419	8064
288.477	7395
288.535	6553
288.593	5955
288.651	6380
288.709	5530
288.767	5208
288.825	5004
288.883	6435
288.941	5536
288.999	4506
289.057	5095
289.115	4441
289.173	5271
289.231	5624
289.289	5122
289.346	4542
289.404	5703
289.462	5421
289.520	5483
289.578	4777
289.636	4685
289.694	4718
289.751	5116
289.809	5335
289.867	4963
289.925	5199
289.983	5167
290.040	4719
290.098	5146
290.156	3825
290.214	5324
290.271	4640
290.329	5484
290.387	5341
290.444	4995
290.502	4473
290.560	4537
290.617	4509
290.675	3833
290.733	4415
290.790	5061
290.848	4124
290.906	4616
290.963	4359
291.021	4913
291.078	3934
291.136	4199
291.194	6667
291.251	7488
291.309	4468
291.366	4373
291.424	4484
291.481	5469
291.539	7628
291.596	6887
291.654	4473
291.711	5187
291.769	5647
291.826	5572
291.884	4990
291.941	4786
291.999	3904
292.056	5400
292.114	3775
292.171	4931
292.228	5836
292.286	5581
292.343	4924
292.401	4786
292.458	4792
292.515	5104
292.573	6127
292.630	4404
292.687	4628
292.745	4325
292.802	4957
292.859	7433
292.917	9540
292.974	6239
293.031	5034
293.089	5511
293.146	4359
293.203	4487
293.260	3970
293.318	4640
293.375	4189
293.432	4519
293.489	5748
293.546	5546
293.604	6967
293.661	14678
293.718	18489
293.775	10250
293.832	10823
293.889	12676
293.947	9686
294.004	6680
294.061	6023
294.118	8823
294.175	13667
294.232	16852
294.289	10827
294.346	7975
294.403	6858
294.460	4773
294.517	5085
294.574	5039
294.631	5688
294.688	6045
294.745	8930
294.802	17227
294.859	11058
294.916	6802
294.973	5359
295.030	3831
295.087	4261
295.144	4587
295.201	4532
295.258	3933
295.315	6065
295.372	10613
295.429	10043
295.486	5877
295.542	4694
295.599	9126
295.656	8732
295.713	9308
295.770	9056
295.827	5347
295.883	4381
295.940	4278
295.997	4623
296.054	4023
296.111	4281
296.167	4228
296.224	3862
296.281	3841
296.338	3097
296.394	3960
296.451	3887
296.508	7274
296.564	7858
296.621	8073
296.678	17280
296.734	14808
296.791	7107
296.848	5283
296.904	5463
296.961	8612
297.018	12488
297.074	7281
297.131	6223
297.187	5400
297.244	6928
297.301	19378
297.357	18489
297.414	7393
297.470	4921
297.527	4628
297.583	4843
297.640	4814
297.696	3636
297.753	3641
297.809	3454
297.866	3618
297.922	4636
297.979	3036
298.035	3792
298.092	5585
298.148	9711
298.204	6633
298.261	4677
298.317	9910
298.374	15611
298.430	8682
298.486	5339
298.543	4817
298.599	5345
298.656	4181
298.712	6389
298.768	8987
298.824	5968
298.881	4503
298.937	3646
298.993	4202
299.050	4382
299.106	4608
299.162	3929
299.218	5154
299.275	4932
299.331	6169
299.387	9901
299.443	25963
299.500	37698
299.556	20991
299.612	11092
299.668	15075
299.724	35959
299.780	27230
299.837	11363
299.893	13800
299.949	33194
300.005	31564
300.061	34505
300.117	39130
300.173	15679
300.229	9092
300.285	7915
300.341	7916
300.397	6467
300.453	6326
300.510	7392
300.566	8972
300.622	21053
300.678	55011
300.734	43607
300.790	24628
300.845	23613
300.901	34491
300.957	32864
301.013	15364
301.069	9150
301.125	7035
301.181	6038
301.237	6015
301.293	4775
301.349	5208
301.405	4609
301.461	5371
301.516	4891
301.572	4733
301.628	5205
301.684	5195
301.740	6902
301.796	6969
301.851	5603
301.907	8565
301.963	8427
302.019	19829
302.074	38576
302.130	28318
302.186	12408
302.242	7709
302.297	6383
302.353	6099
302.409	7984
302.464	6347
302.520	7722
302.576	14658
302.631	11432
302.687	6096
302.743	4089
302.798	4354
302.854	4574
302.910	4634
302.965	4553
303.021	5600
303.076	4484
303.132	5871
303.187	5340
303.243	5222
303.299	4519
303.354	3537
303.410	4309
303.465	4405
303.521	4273
303.576	4435
303.632	4501
303.687	7164
303.743	14133
303.798	9386
303.853	5709
303.909	5282
303.964	4117
304.020	5216
304.075	4640
304.130	5259
304.186	6281
304.241	6900
304.297	5582
304.352	4356
304.358	4331
304.407	4124
304.449	4474
304.463	4590
304.518	4137
304.539	4370
304.573	4758
304.629	5080
304.630	5116
304.684	6882
304.720	11280
304.739	13423
304.794	13459
304.811	11615
304.850	7133
304.902	5306
304.905	5205
304.960	4413
304.992	4587
305.015	4681
305.071	5051
305.083	4747
305.126	3713
305.173	3857
305.181	3870
305.236	3751
305.264	3821
305.292	3948
305.347	4294
305.354	4281
305.402	4105
305.445	4477
305.457	4606
305.512	4369
305.535	4336
305.567	4275
305.622	4357
305.626	4486
305.678	7653
305.716	11736
305.733	12920
305.788	11365
305.807	10901
305.843	11137
305.897	15914
305.898	15951
305.953	11500
305.988	7987
306.008	6363
306.063	5547
306.078	5249
306.118	4715
306.168	3900
306.173	3849
306.228	4428
306.259	4400
306.283	4224
306.338	4001
306.349	3978
306.393	4126
306.440	4963
306.448	5096
306.503	4526
306.530	4568
306.558	4944
306.613	6102
306.620	6351
306.668	8485
306.711	10895
306.723	10998
306.778	8502
306.801	7264
306.833	6108
306.888	5463
306.892	5391
306.943	5083
306.982	4759
306.997	4641
307.052	4895
307.072	4768
307.107	4715
307.162	5601
307.163	5601
307.217	5846
307.253	5611
307.272	5552
307.327	5902
307.343	5995
307.381	6227
307.434	6661
307.436	6742
307.491	8454
307.524	9792
307.546	9928
307.600	9758
307.614	9266
307.655	7700
307.704	6388
307.710	6397
307.765	7530
307.795	8194
307.819	8691
307.874	9595
307.885	9775
307.929	10533
307.975	11778
307.984	12504
308.038	17078
308.065	20740
308.093	36590
308.148	78038
308.156	85730
308.202	118230
308.246	125765
308.257	117296
308.312	58518
308.336	36970
308.366	30001
308.421	21054
308.426	20356
308.475	17601
308.517	15825
308.530	15664
308.585	15952
308.607	16253
308.639	16708
308.694	16493
308.697	16544
308.748	19359
308.787	20985
308.803	21261
308.857	21940
308.877	22331
308.912	25646
308.967	32206
308.967	32263
309.021	46962
309.058	59096
309.076	68560
309.130	98209
309.148	108564
309.185	157461
309.238	238569
309.239	239426
309.293	249299
309.328	239429
309.348	214209
309.402	138870
309.418	118560
309.457	99771
309.508	78227
309.511	78713
309.566	91204
309.598	101060
309.620	121275
309.674	177471
309.688	190386
309.729	182761
309.778	162566
309.783	158922
309.837	110864
309.868	84423
309.892	75606
309.946	56857
309.959	53036
310.001	48203
310.049	41780
310.055	40517
310.109	29615
310.139	23705
310.163	21816
310.218	18430
310.229	17721
310.272	15922
310.319	14276
310.326	14111
310.381	12945
310.409	12330
310.435	12003
310.489	11151
310.499	11005
310.543	10752
310.589	10591
310.598	10516
310.652	10005
310.679	9682
310.706	9636
310.760	9279
310.769	9242
310.814	9302
310.859	9532
310.868	9595
310.923	9394
310.948	9421
310.977	9274
311.031	8766
311.038	8704
311.085	8596
311.128	8341
311.139	8328
311.193	8104
311.218	8058
311.247	8243
311.301	8493
311.308	8502
311.356	8008
311.398	7593
311.410	7746
311.464	8339
311.488	8549
311.518	8134
311.572	7478
311.578	7376
311.626	8166
311.668	8857
311.680	8773
311.734	8284
311.758	8033
311.788	8292
311.842	8782
311.847	8809
311.896	9457
311.937	9977
311.950	9863
312.004	9230
312.027	8932
312.058	8558
312.112	7861
312.117	7770
312.165	8291
312.207	8702
312.297	8210
312.386	8452
312.476	7408
312.566	10029
312.656	8126
312.745	8240
312.835	8878
312.925	9430
313.015	8544
313.104	9345
313.194	10999
313.284	11255
313.374	11320
313.463	11998
313.553	11483
313.643	12120
313.732	12008
313.822	13275
313.912	14411
314.001	14889
314.091	14616
314.180	16550
314.270	15255
314.360	15424
314.449	14845
314.539	14628
314.628	14953
314.718	14503
314.808	16038
314.897	17245
314.987	17527
315.076	18704
315.166	18404
315.255	17274
315.345	16998
315.434	16232
315.524	15967
315.613	19015
315.703	22099
315.792	55283
315.881	162514
315.971	54360
316.060	21120
316.150	18240
316.239	16597
316.328	16331
316.418	16810
316.507	18214
316.597	20248
316.686	21705
316.775	20013
316.865	19399
316.954	15295
317.043	15745
317.133	14620
317.222	13972
317.311	12275
317.400	12623
317.490	13652
317.579	15298
317.668	15306
317.757	26273
317.847	86460
317.936	236488
318.025	75826
318.114	67443
318.203	33100
318.293	19820
318.382	28957
318.471	31888
318.560	28926
318.649	32298
318.738	15838
318.828	13836
318.917	10571
319.006	11957
319.095	15382
319.184	30278
319.273	17627
319.362	14280
319.451	10289
319.540	10824
319.629	11888
319.718	15228
319.807	12285
319.896	17259
319.985	36308
320.074	17976
320.163	13101
320.252	13589
320.341	14389
320.430	14801
320.519	16343
320.608	16460
320.697	18741
320.786	20287
320.875	23568
320.964	25982
321.053	27817
321.142	29846
321.230	31599
321.319	35121
321.408	40034
321.497	35486
321.586	32081
321.675	28624
321.764	27356
321.852	28332
321.941	30279
322.030	29628
322.119	31947
322.207	40670
322.296	41188
322.385	44065
322.474	48435
322.562	53206
322.651	39413
322.740	31475
322.829	29093
322.917	26498
323.006	23295
323.095	22857
323.183	19498
323.272	20001
323.361	21399
323.449	28536
323.538	18627
323.626	22553
323.715	16931
323.804	15204
323.892	19404
323.981	15507
324.069	12584
324.158	16312
324.246	14931
324.335	13929
324.424	14028
324.512	12971
324.601	12403
324.689	13559
324.778	13700
324.866	13750
324.954	11531
325.043	10605
325.131	10849
325.220	12593
325.308	12871
325.397	12185
325.485	10681
325.574	11159
325.662	10234
325.750	10610
325.839	10950
325.927	10423
326.015	11045
326.104	11349
326.192	9943
326.280	10032
326.369	9575
326.457	11137
326.545	11613
326.634	10408
326.722	10176
326.810	11200
326.898	12587
326.987	13918
327.075	13692
327.163	12931
327.251	11955
327.340	13215
327.428	17095
327.516	21463
327.604	17702
327.692	13236
327.781	11378
327.869	11622
327.957	9736
328.045	9698
328.133	9023
328.221	8826
328.309	9289
328.397	9993
328.485	11748
328.574	19184
328.662	28786
328.750	19864
328.838	13540
328.926	11913
329.014	9933
329.102	10951
329.190	11918
329.278	10894
329.366	9117
329.454	9427
329.542	9024
329.630	9414
329.718	8494
329.806	9469
329.893	8969
329.981	8841
330.069	9440
330.157	11353
330.245	15616
330.333	12597
330.421	8883
330.509	10106
330.597	14732
330.684	11871
330.772	9609
330.860	10584
330.948	11282
331.036	11134
331.123	9232
331.211	10484
331.299	9453
331.387	11790
331.475	12697
331.562	10572
331.650	9682
331.738	9498
331.825	10020
331.913	10180
332.001	10288
332.089	10319
332.176	10528
332.264	13088
332.352	11639
332.439	10731
332.527	11178
332.614	10709
332.702	11166
332.790	12197
332.877	15682
332.965	36660
333.052	32755
333.140	36997
333.228	91714
333.315	31481
333.403	16176
333.490	18970
333.578	39187
333.665	132622
333.753	63227
333.840	22529
333.928	21399
334.015	23800
334.103	31271
334.190	53593
334.278	47375
334.365	56674
334.452	53911
334.540	42587
334.627	43538
334.715	55506
334.802	74120
334.889	117321
334.977	131837
335.064	83284
335.151	50425
335.239	37761
335.326	32862
335.413	44637
335.501	47105
335.588	35557
335.675	40026
335.762	49225
335.850	64856
335.937	91442
336.024	135117
336.111	190229
336.199	151406
336.286	82974
336.373	51119
336.460	36735
336.547	28971
336.635	25130
336.722	21530
336.809	19898
336.896	19272
336.983	23385
337.070	33251
337.157	42653
337.245	26213
337.332	21985
337.419	16969
337.506	16876
337.593	15456
337.680	20395
337.767	27364
337.854	16413
337.941	15507
338.028	15386
338.115	13763
338.202	15426
338.289	16115
338.376	20492
338.463	15120
338.550	20462
338.637	19600
338.724	13350
338.811	12883
338.898	12400
338.984	10396
339.071	11222
339.158	11267
339.245	13085
339.332	12321
339.419	12630
339.506	11550
339.593	11245
339.679	11701
339.766	11464
339.853	11215
339.940	12805
340.027	10879
340.113	11616
340.200	10522
340.287	10722
340.374	10599
340.460	11352
340.547	10767
340.634	11147
340.720	16326
340.807	13697
340.894	10735
340.980	10968
341.067	10446
341.154	11278
341.240	11268
341.327	13334
341.414	11492
341.500	11469
341.587	11468
341.674	10767
341.760	12263
341.847	12515
341.933	10192
342.020	9482
342.106	9984
342.193	9754
342.279	11048
342.366	11227
342.452	11536
342.539	10897
342.625	11959
342.712	16909
342.798	11957
342.885	10427
342.971	9934
343.058	10096
343.144	9381
343.230	10607
343.317	10791
343.403	10092
343.490	9377
343.576	9426
343.662	10053
343.749	10736
343.835	10548
343.921	13534
344.008	44400
344.094	83883
344.180	21385
344.267	12518
344.353	23215
344.439	20774
344.525	12735
344.612	13918
344.698	12949
344.784	11223
344.870	10458
344.957	9360
345.043	11653
345.129	9972
345.215	12216
345.301	10036
345.387	9325
345.474	9526
345.560	10192
345.646	10070
345.732	9321
345.818	9366
345.904	10663
345.990	9854
346.076	10028
346.162	9633
346.249	10463
346.335	10202
346.421	10072
346.507	16578
346.593	31942
346.679	14469
346.765	13065
346.851	22214
346.937	18839
347.023	13337
347.108	11773
347.194	11010
347.280	11206
347.366	16939
347.452	42107
347.538	72250
347.624	38570
347.710	24929
347.796	13562
347.882	12352
347.967	11799
348.053	11493
348.139	10534
348.225	11147
348.311	10116
348.397	12060
348.482	12081
348.568	13842
348.654	19512
348.740	53183
348.825	63807
348.911	29497
348.997	29818
349.083	39306
349.168	14652
349.254	12017
349.340	11762
349.425	12321
349.511	11406
349.597	12761
349.682	14105
349.768	22297
349.854	16101
349.939	11782
350.025	11259
350.110	11229
350.196	11032
350.282	10821
350.367	11791
350.453	12297
350.538	11737
350.624	11577
350.709	11710
350.795	10946
350.880	10886
350.966	11906
351.051	11380
351.137	10180
351.222	10949
351.308	14180
351.393	17582
351.479	11522
351.564	10179
351.649	11136
351.735	11177
351.820	11164
351.906	10483
351.991	10717
352.076	14271
352.162	17997
352.247	11047
352.332	10668
352.418	11803
352.503	12885
352.588	20902
352.673	17874
352.759	10506
352.844	10831
352.929	10545
353.014	11203
353.100	10862
353.185	12417
353.270	11997
353.355	12366
353.441	10270
353.526	10119
353.611	11680
353.696	11600
353.781	11512
353.866	10465
353.952	10496
354.037	11911
354.122	13987
354.207	13884
354.292	11891
354.377	10079
354.462	11405
354.547	11046
354.632	10586
354.717	12124
354.802	12444
354.887	11232
354.972	10322
355.057	11307
355.142	9909
355.227	11117
355.312	11714
355.397	13663
355.482	17193
355.567	14011
355.652	13430
355.737	14078
355.822	23563
355.907	21374
355.991	12441
356.076	11329
356.161	11075
356.246	11141
356.331	11834
356.416	16098
356.501	42686
356.585	43418
356.670	12935
356.755	13603
356.840	14971
356.924	34984
357.009	86506
357.094	37752
357.179	14566
357.263	14343
357.348	13405
357.433	12848
357.517	13458
357.602	13574
357.687	13469
357.771	14585
357.856	17874
357.941	17611
358.025	33396
358.110	98113
358.195	49362
358.279	15874
358.364	14644
358.448	21575
358.533	35008
358.617	28234
358.702	28012
358.787	17618
358.871	14796
358.956	14398
359.040	13289
359.125	12768
359.209	12774
359.294	16843
359.378	26514
359.462	22446
359.547	13758
359.631	13010
359.716	12327
359.800	11581
359.885	12946
359.969	12740
360.053	12974
360.138	13115
360.222	12768
360.306	13948
360.391	13289
360.475	15533
360.559	19590
360.644	18903
360.728	17511
360.812	29975
360.896	60420
360.981	27907
361.065	18099
361.149	15547
361.233	14677
361.318	15665
361.402	15758
361.486	16899
361.570	16964
361.654	18110
361.739	22625
361.823	47942
361.907	69142
361.991	31584
362.075	31551
362.159	47181
362.243	79409
362.327	162498
362.411	200035
362.495	93571
362.580	52535
362.664	47658
362.748	59274
362.832	89687
362.916	177241
363.000	379724
363.084	455587
363.168	234711
363.252	85634
363.336	49539
363.420	41810
363.503	50051
363.587	52013
363.671	33407
363.755	32603
363.839	38094
363.923	41968
364.007	53302
364.091	72810
364.175	115350
364.258	235717
364.342	457281
364.426	627550
364.510	363934
364.594	141530
364.677	77709
364.761	83330
364.845	62493
364.929	33673
365.013	27361
365.096	24853
365.180	24627
365.264	27572
365.347	49796
365.431	29871
365.515	19122
365.598	17181
365.682	18652
365.766	17598
365.849	18894
365.933	17523
366.017	18743
366.100	17506
366.184	17694
366.267	17487
366.351	16184
366.435	15406
366.518	17074
366.602	15871
366.685	16070
366.769	15339
366.852	17266
366.936	18097
367.019	17145
367.103	16458
367.186	18604
367.270	16415
367.353	17147
367.436	19080
367.520	18642
367.603	19533
367.687	18990
367.770	19692
367.853	20196
367.937	26149
368.020	31474
368.104	17531
368.187	17611
368.270	17335
368.353	16634
368.437	16126
368.520	18831
368.603	17430
368.687	22280
368.770	30672
368.853	17185
368.936	16519
369.020	15380
369.103	14659
369.186	14022
369.269	13519
369.352	14684
369.436	14343
369.519	14477
369.602	12829
369.685	15146
369.768	13590
369.851	14477
369.934	14178
370.018	14765
370.101	14272
370.184	15744
370.267	16622
370.350	16969
370.433	20869
370.516	50513
370.599	101588
370.682	55888
370.765	27608
370.848	29059
370.931	40295
371.014	25760
371.097	16602
371.180	17952
371.263	17592
371.346	16967
371.429	18842
371.511	18536
371.594	19812
371.677	22173
371.760	24041
371.843	27848
371.926	57092
372.009	100121
372.091	54248
372.174	39032
372.257	54472
372.340	39162
372.423	32554
372.505	32610
372.588	24260
372.671	28894
372.754	41784
372.836	32183
372.919	28616
373.002	35970
373.085	26635
373.167	26524
373.250	31229
373.332	46595
373.415	66190
373.498	113802
373.580	69648
373.663	141019
373.746	163236
373.828	42409
373.911	23981
373.993	23555
374.076	32306
374.159	32507
374.241	23249
374.324	34949
374.406	31515
374.489	44959
374.571	88919
374.654	46944
374.736	32751
374.819	62195
374.901	85243
374.983	88117
375.066	31816
375.148	24151
375.231	34045
375.313	45992
375.395	29246
375.478	23140
375.560	22569
375.643	22658
375.725	32097
375.807	70338
375.890	54932
375.972	24055
376.054	21203
376.136	21688
376.219	19637
376.301	31421
376.383	55751
376.465	31894
376.548	20485
376.630	25979
376.712	43326
376.794	29443
376.877	15566
376.959	14979
377.041	14311
377.123	15297
377.205	15906
377.287	14968
377.369	14956
377.452	16153
377.534	14792
377.616	15354
377.698	15035
377.780	15703
377.862	15024
377.944	16015
378.026	14555
378.108	14729
378.190	13962
378.272	14378
378.354	14311
378.436	14333
378.518	15039
378.600	18497
378.682	18604
378.764	24534
378.846	23257
378.928	17234
379.010	16902
379.091	16896
379.173	15450
379.255	14742
379.337	15231
379.419	20015
379.501	30439
379.583	21364
379.664	15797
379.746	17043
379.828	25333
379.910	29676
379.991	29234
380.073	17304
380.155	16329
380.237	15134
380.318	15492
380.400	17011
380.482	17784
380.564	19690
380.645	19783
380.727	20039
380.809	16887
380.890	19094
380.972	17995
381.053	20333
381.135	19386
381.217	22694
381.298	30324
381.380	25678
381.461	25869
381.543	50801
381.624	61138
381.706	29446
381.787	25692
381.869	27846
381.951	45622
382.032	94207
382.113	72357
382.195	34861
382.276	37547
382.358	48085
382.439	71257
382.521	88406
382.602	119666
382.684	107254
382.765	176949
382.846	390139
382.928	667927
383.009	489518
383.090	434026
383.172	803991
383.253	900752
383.334	459258
383.416	243837
383.497	189010
383.578	220990
383.659	392373
383.741	775099
383.822	1055626
383.903	719272
383.984	325716
384.066	190083
384.147	123605
384.228	81597
384.309	68012
384.390	61352
384.471	55220
384.553	48768
384.634	46936
384.715	46676
384.796	42184
384.877	45210
384.958	53247
385.039	51595
385.120	39879
385.201	35143
385.282	36689
385.363	43165
385.444	53699
385.525	55204
385.606	66335
385.687	61240
385.768	39736
385.849	39770
385.930	64980
386.011	90958
386.092	48262
386.173	34964
386.254	31514
386.335	30137
386.416	29509
386.496	34605
386.577	38461
386.658	30737
386.739	29202
386.820	29194
386.901	29522
386.981	31547
387.062	35461
387.143	40035
387.224	46797
387.304	49458
387.385	44027
387.466	40448
387.547	44057
387.627	44682
387.708	48409
387.789	63395
387.869	68671
387.950	46251
388.031	35773
388.111	33196
388.192	37284
388.273	37602
388.353	34131
388.434	26977
388.514	30344
388.595	52728
388.676	59458
388.756	34848
388.837	30988
388.917	26392
388.998	22221
389.078	23166
389.159	21973
389.239	21328
389.320	22708
389.400	20670
389.480	25636
389.561	33185
389.641	28764
389.722	22097
389.802	21783
389.883	26770
389.963	37826
390.043	30582
390.124	20904
390.204	23178
390.284	30447
390.365	26966
390.445	28846
390.525	44511
390.605	43155
390.686	27621
390.766	23356
390.846	21827
390.927	21214
391.007	21720
391.087	23271
391.167	24102
391.247	23207
391.328	24776
391.408	27035
391.488	25932
391.568	25919
391.648	27199
391.728	28738
391.808	30486
391.888	32941
391.969	38073
392.049	44610
392.129	41233
392.209	44409
392.289	57241
392.369	54158
392.449	53040
392.529	55908
392.609	61341
392.689	72756
392.769	92223
392.849	110399
392.929	131075
393.009	184340
393.089	260596
393.169	432684
393.248	788772
393.328	1115544
393.408	1050785
393.488	750963
393.568	422918
393.648	242225
393.728	156842
393.807	114481
393.887	89877
393.967	74665
394.047	63862
394.127	54528
394.206	56204
394.286	103682
394.366	279862
394.446	308051
394.525	98044
394.605	44643
394.685	38724
394.764	44840
394.844	72704
394.924	91960
395.003	51373
395.083	33853
395.163	30952
395.242	29050
395.322	29203
395.402	28567
395.481	33340
395.561	46138
395.640	104677
395.720	183428
395.799	126084
395.879	65412
395.958	56608
396.038	126411
396.117	354425
396.197	400452
396.276	150791
396.356	84076
396.435	91002
396.515	113911
396.594	174460
396.673	332737
396.753	691176
396.832	1014664
396.912	840351
396.991	448274
397.070	214569
397.150	130170
397.229	107135
397.308	164758
397.388	268099
397.467	162601
397.546	64589
397.625	43770
397.705	39539
397.784	34816
397.863	31824
397.942	28051
398.022	27623
398.101	30288
398.180	37985
398.259	29517
398.338	23121
398.417	21300
398.497	19782
398.576	20313
398.655	18739
398.734	18767
398.813	17922
398.892	22912
398.971	32942
399.050	25620
399.129	16990
399.208	15623
399.287	15844
399.366	15230
399.445	14759
399.524	14908
399.603	13557
399.682	15589
399.761	19710
399.840	32773
399.919	29959
399.998	15797
400.077	12850
400.156	12444
400.235	14410
400.313	12649
400.392	11682
400.471	18034
400.550	20230
400.629	13926
400.708	12412
400.786	11635
400.865	13291
400.944	12790
401.023	12889
401.102	10649
401.180	11427
401.259	10995
401.338	10536
401.416	11651
401.495	10523
401.574	11669
401.652	10165
401.731	11236
401.810	10604
401.888	10176
401.967	9458
402.046	10730
402.124	10963
402.203	10579
402.281	10268
402.360	11647
402.438	12581
402.517	11046
402.596	10328
402.674	10057
402.753	11017
402.831	10577
402.910	11092
402.988	16207
403.066	29216
403.145	24829
403.223	17171
403.302	27966
403.380	25367
403.459	23496
403.537	17522
403.615	15306
403.694	11905
403.772	13535
403.850	12664
403.929	12666
404.007	11213
404.085	13999
404.164	13483
404.242	13777
404.320	21506
404.398	45463
404.477	46756
404.555	55750
404.633	56028
404.711	35963
404.789	25954
404.868	13040
404.946	10411
405.024	11329
405.102	9695
405.180	10378
405.258	8179
405.336	10608
405.415	9304
405.493	11444
405.571	10707
405.649	10028
405.727	11019
405.805	13730
405.883	12764
405.961	13275
406.039	11236
406.117	9897
406.195	10634
406.273	17089
406.351	37810
406.429	28896
406.507	10837
406.585	9561
406.663	9339
406.740	10100
406.818	9310
406.896	8458
406.974	9775
407.052	11150
407.130	24395
407.208	32360
407.285	14378
407.363	9521
407.441	9480
407.519	10714
407.596	10365
407.674	17197
407.752	34873
407.830	33156
407.907	13904
407.985	9862
408.063	9858
408.141	8911
408.218	10719
408.296	9662
408.373	11370
408.451	12920
408.529	12736
408.606	12318
408.684	13772
408.762	13467
408.839	13374
408.917	15398
408.994	16661
409.072	19599
409.149	24057
409.227	35103
409.304	49073
409.382	56944
409.459	64960
409.537	76942
409.614	76038
409.692	66258
409.769	65491
409.846	81520
409.924	92584
410.001	78955
410.079	60840
410.156	48116
410.233	37749
410.311	30885
410.388	26813
410.465	25360
410.543	22017
410.620	21855
410.697	20227
410.775	19596
410.852	18622
410.929	21217
411.006	20603
411.083	19450
411.161	19014
411.238	18900
411.315	16663
411.392	17065
411.469	15436
411.547	14819
411.624	12849
411.701	13221
411.778	12879
411.855	13317
411.932	12173
412.009	11906
412.086	11572
412.163	11524
412.240	11261
412.317	11913
412.394	10536
412.471	11452
412.548	10654
412.625	10483
412.702	10196
412.779	11053
412.856	11142
412.933	8932
413.010	9284
413.087	11062
413.164	12697
413.241	15287
413.318	9935
413.395	10042
413.471	8991
413.548	9593
413.625	9283
413.702	8496
413.779	7978
413.855	7996
413.932	7764
414.009	8100
414.086	8619
414.162	9078
414.239	8702
414.316	13570
414.393	18229
414.469	12172
414.546	7396
414.623	8029
414.699	7510
414.776	8093
414.853	7182
414.929	8010
415.006	7532
415.082	8508
415.159	7519
415.236	7523
415.312	7924
415.389	7684
415.465	8212
415.542	8254
415.618	6991
415.695	8733
415.771	7054
415.848	7947
415.924	7661
416.000	8766
416.077	8350
416.153	7719
416.230	6883
416.306	7939
416.383	6851
416.459	8478
416.535	7402
416.612	8455
416.688	8484
416.764	9599
416.841	8604
416.917	9804
416.993	9169
417.069	8374
417.146	8712
417.222	9443
417.298	8436
417.374	7448
417.451	8075
417.527	7525
417.603	7759
417.679	8825
417.755	6878
417.831	7361
417.908	8326
417.984	8442
418.060	7683
418.136	8808
418.212	8914
418.288	8645
418.364	7345
418.440	7278
418.516	9148
418.592	8753
418.668	10375
418.744	10103
418.820	9949
418.896	9179
418.972	8289
419.048	8831
419.124	10265
419.200	9310
419.276	9758
419.352	8689
419.428	10300
419.504	9865
419.579	10632
419.655	11785
419.731	11293
419.807	12671
419.883	13185
419.959	14431
420.034	13126
420.110	14235
420.186	19200
420.262	19855
420.337	14374
420.413	14300
420.489	16963
420.565	18243
420.640	17455
420.716	19365
420.792	18613
420.867	20526
420.943	20866
421.019	23103
421.094	24649
421.170	26356
421.245	26976
421.321	30278
421.397	32215
421.472	40440
421.548	51453
421.623	51881
421.699	50550
421.774	55079
421.850	61706
421.925	74084
422.001	84980
422.076	105931
422.152	132219
422.227	171150
422.302	230870
422.378	324077
422.453	479195
422.529	643316
422.604	621302
422.679	430793
422.755	552556
422.830	629953
422.905	492222
422.981	356242
423.056	259884
423.131	199029
423.207	151970
423.282	120287
423.357	99499
423.432	83775
423.508	72960
423.583	63975
423.658	56636
423.733	50488
423.808	46190
423.883	45875
423.959	47388
424.034	51753
424.109	48456
424.184	37985
424.259	31920
424.334	28601
424.409	25505
424.484	23494
424.559	21704
424.634	20549
424.709	18820
424.784	20512
424.859	17623
424.934	16920
425.009	19093
425.084	22270
425.159	17218
425.234	15321
425.309	14114
425.384	14921
425.459	14696
425.534	13978
425.609	11885
425.683	12374
425.758	11476
425.833	12754
425.908	12560
425.983	13472
426.058	17789
426.132	14233
426.207	10396
426.282	13297
426.357	9959
426.431	10691
426.506	10517
426.581	10815
426.655	9406
426.730	10896
426.805	8853
426.879	10741
426.954	9259
427.029	11014
427.103	17166
427.178	31479
427.253	20349
427.327	10251
427.402	9957
427.476	10422
427.551	10615
427.625	10171
427.700	9994
427.774	8646
427.849	10051
427.923	10765
427.998	11827
428.072	15108
428.147	31889
428.221	113745
428.296	277240
428.370	184210
428.444	40041
428.519	17536
428.593	14576
428.667	17070
428.742	20146
428.816	52153
428.890	177798
428.965	265066
429.039	92677
429.113	23694
429.188	13637
429.262	11653
429.336	11785
429.410	13242
429.485	12639
429.559	13342
429.633	14122
429.707	18046
429.781	47311
429.855	168163
429.930	241461
430.004	93252
430.078	61407
430.152	149189
430.226	362107
430.300	369272
430.374	121017
430.448	39652
430.522	27317
430.596	37545
430.670	78425
430.744	217941
430.818	246680
430.892	65903
430.966	16318
431.040	12030
431.114	8653
431.188	8504
431.262	7841
431.336	8702
431.410	9674
431.484	10784
431.557	12210
431.631	11470
431.705	24687
431.779	94717
431.853	260496
431.927	203458
432.000	43447
432.074	13392
432.148	8640
432.222	6759
432.295	7098
432.369	6137
432.443	6112
432.516	13829
432.590	27548
432.664	14903
432.737	5649
432.811	4325
432.885	4368
432.958	5286
433.032	3735
433.106	4576
433.179	4361
433.253	5059
433.326	4732
433.400	5290
433.473	4721
433.547	4612
433.620	5571
433.694	5411
433.767	5575
433.841	4947
433.914	5901
433.988	5862
434.061	5652
434.134	5812
434.208	5592
434.281	5412
434.355	4143
434.428	6016
434.501	4822
434.575	4992
434.648	5177
434.721	5485
434.795	5460
434.868	6747
434.941	6183
435.014	7716
435.088	8509
435.161	11485
435.234	14132
435.307	16507
435.381	18884
435.454	24477
435.527	34315
435.600	40608
435.673	34794
435.746	29220
435.819	23201
435.892	18121
435.966	15420
436.039	12687
436.112	11199
436.185	9270
436.258	8610
436.331	6712
436.404	6943
436.477	6259
436.550	6567
436.623	5847
436.696	5209
436.769	5255
436.842	5299
436.915	6023
436.987	4828
437.060	5132
437.133	4635
437.206	4413
437.279	4542
437.352	4208
437.425	4126
437.498	4546
437.570	4855
437.643	5129
437.716	4035
437.789	4629
437.861	4310
437.934	4512
438.007	3762
438.080	4378
438.152	4316
438.225	6013
438.298	19039
438.370	42431
438.443	22107
438.516	6269
438.588	4612
438.661	4398
438.734	3477
438.806	4320
438.879	4245
438.951	4034
439.024	4552
439.096	3487
439.169	3734
439.241	4266
439.314	4326
439.386	4129
439.459	4496
439.531	4024
439.604	4166
439.676	5087
439.749	3445
439.821	4284
439.893	3796
439.966	4312
440.038	3247
440.110	3897
440.183	3754
440.255	3824
440.327	5747
440.400	8929
440.472	21180
440.544	17936
440.617	5833
440.689	6025
440.761	4907
440.833	5675
440.905	4428
440.978	4046
441.050	4211
441.122	5937
441.194	4716
441.266	5636
441.338	4568
441.411	5283
441.483	8738
441.555	12298
441.627	6318
441.699	6722
441.771	5735
441.843	6790
441.915	7073
441.987	8274
442.059	7501
442.131	10344
442.203	11777
442.275	16322
442.347	27780
442.419	67703
442.491	231054
442.563	414942
442.635	205669
442.706	54638
442.778	25039
442.850	18444
442.922	15842
442.994	16516
443.066	17777
443.137	21809
443.209	28946
443.281	46297
443.353	96778
443.425	272539
443.496	584080
443.568	604492
443.640	305912
443.711	92184
443.783	38240
443.855	25362
443.926	17527
443.998	15277
444.070	13095
444.141	11901
444.213	10541
444.285	10627
444.356	9826
444.428	10594
444.499	9605
444.571	10754
444.642	10652
444.714	11550
444.785	12423
444.857	13653
444.928	16832
445.000	18040
445.071	22922
445.143	30793
445.214	45256
445.285	77879
445.357	180277
445.428	439531
445.500	647498
445.571	582458
445.642	415934
445.714	171231
445.785	63055
445.856	33033
445.928	22572
445.999	16664
446.070	14205
446.141	12523
446.213	10237
446.284	8462
446.355	7648
446.426	7832
446.497	6439
446.569	5626
446.640	6088
446.711	5922
446.782	5357
446.853	5364
446.924	4205
446.995	4808
447.066	4016
447.138	4492
447.209	4328
447.280	3878
447.351	2448
447.422	3540
447.493	3750
447.564	3072
447.635	2437
447.706	3788
447.777	2720
447.847	3452
447.918	2084
447.989	3384
448.060	2994
448.131	4477
448.202	3219
448.273	2850
448.344	2010
448.414	2763
448.485	2978
448.556	3402
448.627	2267
448.698	3804
448.768	2661
448.839	2425
448.910	2145
448.981	4061
449.051	2261
449.122	2933
449.193	2044
449.263	2233
449.334	1733
449.405	2298
449.475	3005
449.546	4241
449.616	4555
449.687	4220
449.758	2978
449.828	3013
449.899	2178
449.969	2527
450.040	2193
450.110	3037
450.181	1277
450.251	2211
450.322	2044
450.392	2753
450.463	2238
450.533	2913
450.604	2789
450.674	3687
450.744	4270
450.815	4983
450.885	5011
450.955	5503
451.026	4957
451.096	4627
451.166	4832
451.237	6916
451.307	8850
451.377	6871
451.447	4615
451.518	3726
451.588	3553
451.658	3114
451.728	3121
451.799	4681
451.869	5528
451.939	3029
452.009	3036
452.079	3278
452.149	2963
452.219	4202
452.289	5690
452.360	5913
452.430	5287
452.500	7964
452.570	12541
452.640	28287
452.710	63266
452.780	74646
452.850	44486
452.920	23150
452.990	12914
453.060	8883
453.129	6187
453.199	6194
453.269	8084
453.339	10617
453.409	13195
453.479	13667
453.549	15780
453.619	16439
453.688	7497
453.758	3581
453.828	2599
453.898	2861
453.968	2392
454.037	2191
454.087	2131
454.107	2089
454.168	2151
454.177	2141
454.247	2049
454.249	2051
454.316	1444
454.330	1383
454.386	1043
454.411	1840
454.456	3102
454.492	2827
454.525	2571
454.574	2484
454.595	2424
454.655	2081
454.665	2005
454.734	2980
454.736	3030
454.804	3780
454.817	4024
454.873	4887
454.898	4636
454.943	4171
454.979	3424
455.013	2759
455.060	2905
455.082	2914
455.141	2938
455.152	2964
455.221	4139
455.222	4199
455.291	5524
455.303	5570
455.360	5479
455.384	7603
455.430	11031
455.465	8782
455.499	6880
455.546	5543
455.569	4857
455.627	3509
455.638	3237
455.707	2652
455.708	2674
455.777	2599
455.789	2802
455.846	3700
455.869	3364
455.916	2547
455.950	2802
455.985	3073
456.031	3134
456.054	3150
456.112	3564
456.124	3646
456.193	3626
456.193	3601
456.262	4018
456.274	3980
456.332	3710
456.355	3880
456.401	4123
456.436	3649
456.470	3239
456.516	3947
456.540	4155
456.597	3852
456.609	3803
456.678	4491
456.678	4469
456.747	4177
456.759	4125
456.817	4279
456.840	4367
456.886	4230
456.920	4782
456.955	5353
457.001	5299
457.024	5273
457.082	6057
457.093	6073
457.162	6695
457.163	6718
457.232	6268
457.243	6154
457.301	5608
457.324	5975
457.370	6833
457.405	7305
457.439	7820
457.485	8812
457.508	9607
457.566	11614
457.577	13009
457.646	24039
457.647	24256
457.715	45879
457.727	51114
457.784	76877
457.808	98423
457.853	120749
457.889	137914
457.922	149991
457.969	115110
457.991	110368
458.050	120807
458.060	122223
458.129	189888
458.130	192054
458.198	194728
458.211	174144
458.267	111199
458.292	84912
458.336	61332
458.372	62242
458.405	77581
458.453	109856
458.474	126071
458.533	195735
458.543	197280
458.611	271845
458.614	272040
458.680	195519
458.694	160948
458.749	77402
458.775	56820
458.818	32081
458.855	25042
458.887	20797
458.936	16953
458.955	15483
459.016	12923
459.024	12726
459.093	11605
459.097	11566
459.162	9882
459.177	9672
459.230	9006
459.257	8827
459.299	8824
459.338	8349
459.368	8022
459.418	7977
459.437	7861
459.499	7670
459.505	7657
459.574	7402
459.579	7408
459.643	7054
459.659	7040
459.711	7339
459.740	7495
459.780	7494
459.820	7612
459.849	7668
459.900	7358
459.917	7242
459.981	7432
459.986	7443
460.054	6839
460.061	6854
460.123	6761
460.141	6716
460.191	6847
460.222	7134
460.260	7462
460.302	7579
460.328	7512
460.382	7409
460.397	7715
460.462	9050
460.465	9336
460.534	16404
460.543	17316
460.602	26702
460.623	30824
460.671	43748
460.703	56803
460.739	47453
460.783	29404
460.808	27634
460.864	11333
460.876	8913
460.944	7810
460.945	7782
461.013	6809
461.024	6724
461.081	6844
461.104	6864
461.150	6917
461.184	7222
461.218	7598
461.264	7462
461.286	7216
461.345	7218
461.355	7195
461.423	6837
461.425	6834
461.491	7119
461.505	7185
461.559	7920
461.585	8129
461.628	8469
461.665	9052
461.696	8930
461.745	9175
461.764	8989
461.825	7050
461.832	7027
461.901	7049
461.905	7083
461.969	6610
461.985	6579
462.037	7391
462.065	7643
462.105	7465
462.145	7332
462.173	7476
462.225	7423
462.241	7555
462.305	8698
462.310	8670
462.378	8132
462.385	8072
462.446	8560
462.465	8598
462.514	8033
462.545	7780
462.582	7670
462.625	7368
462.650	7373
462.705	7559
462.718	7482
462.785	7202
462.786	7211
462.854	7316
462.865	7348
462.922	7908
462.945	8173
462.990	7855
463.025	7488
463.058	7610
463.104	7934
463.126	7809
463.184	7147
463.194	7220
463.262	7889
463.264	7910
463.330	7304
463.344	7151
463.398	8122
463.424	8524
463.466	7911
463.504	7504
463.533	7942
463.583	8384
463.601	8139
463.663	7664
463.669	7771
463.737	8698
463.743	8777
463.805	8648
463.823	8599
463.873	9357
463.903	9889
463.940	9794
463.982	9662
464.008	9485
464.062	8740
464.076	8620
464.142	7956
464.144	7957
464.211	8028
464.221	8022
464.279	7883
464.301	7796
464.347	8297
464.381	8625
464.414	8524
464.461	8598
464.482	8638
464.540	8339
464.550	8364
464.617	8535
464.620	8533
464.685	9348
464.699	9547
464.753	9455
464.779	9284
464.820	9959
464.859	10722
464.888	10102
464.938	8805
464.956	9079
465.018	10290
465.023	10263
465.091	9429
465.098	9337
465.158	8711
465.177	8496
465.226	8832
465.257	9080
465.293	9173
465.336	9183
465.361	9348
465.416	9790
465.428	9976
465.495	10800
465.496	10816
465.563	10571
465.575	10541
465.631	11816
465.654	12375
465.698	11299
465.734	10151
465.765	10064
465.813	10048
465.833	9899
465.893	9347
465.900	9386
465.968	9680
465.972	9680
466.035	9115
466.052	8943
466.102	9294
466.131	9465
466.170	9276
466.210	9083
466.237	9341
466.290	9717
466.304	9648
466.369	9311
466.372	9328
466.439	9308
466.449	9294
466.506	9408
466.528	9429
466.573	11252
466.607	12539
466.641	13003
466.687	13669
466.708	13897
466.766	14452
466.775	14074
466.842	10992
466.845	10827
466.909	10804
466.925	10780
466.977	10999
467.004	11100
467.044	11881
467.083	12611
467.111	13088
467.163	13926
467.178	13911
467.242	13701
467.245	13702
467.312	13200
467.321	13110
467.379	13121
467.400	13084
467.446	13112
467.480	13088
467.559	13689
467.638	13840
467.717	13703
467.796	14193
467.875	16239
467.955	18272
468.034	20885
468.113	26861
468.192	32193
468.271	34525
468.350	46787
468.429	55571
468.508	51464
468.588	32102
468.667	23609
468.746	18947
468.825	17619
468.904	14876
468.983	15415
469.062	15070
469.141	15614
469.220	13767
469.299	13726
469.378	13268
469.456	15443
469.535	13875
469.614	14507
469.693	14362
469.772	15364
469.851	15677
469.930	15613
470.009	16833
470.088	20924
470.166	30539
470.245	45771
470.324	52234
470.403	40420
470.482	26866
470.560	20841
470.639	16072
470.718	15750
470.797	14362
470.875	14540
470.954	12889
471.033	13658
471.111	12357
471.190	12602
471.269	11972
471.347	13249
471.426	12666
471.505	12687
471.583	12805
471.662	13535
471.740	12012
471.819	12995
471.898	12735
471.976	13212
472.055	12327
472.133	13143
472.212	13454
472.290	12367
472.369	11361
472.447	12982
472.526	11720
472.604	12812
472.683	12628
472.761	13146
472.839	12310
472.918	13489
472.996	13267
473.075	13816
473.153	13781
473.231	12845
473.310	12835
473.388	13275
473.466	13342
473.545	14228
473.623	14585
473.701	14842
473.780	13667
473.858	11972
473.936	14651
474.014	14154
474.093	13427
474.171	15124
474.249	14378
474.327	13673
474.405	13047
474.484	13824
474.562	13061
474.640	12749
474.718	12586
474.796	12454
474.874	12465
474.952	12552
475.030	12488
475.108	12420
475.187	11838
475.265	13697
475.343	13809
475.421	15198
475.499	11988
475.577	13313
475.655	13714
475.733	15207
475.811	16310
475.889	16133
475.966	12683
476.044	12778
476.122	12428
476.200	13250
476.278	11503
476.356	13014
476.434	11639
476.512	13239
476.590	12511
476.667	12554
476.745	11681
476.823	12961
476.901	12175
476.979	12097
477.056	11916
477.134	12192
477.212	12862
477.290	12220
477.367	11627
477.445	12205
477.523	11014
477.601	11535
477.678	11933
477.756	12268
477.834	12608
477.911	11431
477.989	12040
478.066	12010
478.144	12676
478.222	13146
478.299	13898
478.377	13825
478.454	11469
478.532	11648
478.609	11012
478.687	12818
478.764	11984
478.842	11885
478.919	12488
478.997	12622
479.074	11548
479.152	12471
479.229	12989
479.307	11450
479.384	11505
479.461	12590
479.539	11496
479.616	11776
479.694	11529
479.771	11836
479.848	12394
479.926	11376
480.003	12915
480.080	12795
480.157	12404
480.235	12628
480.312	12788
480.389	13285
480.467	13951
480.544	15885
480.621	15457
480.698	16368
480.775	14248
480.853	14135
480.930	13786
481.007	14068
481.084	14649
481.161	16953
481.238	12885
481.315	13181
481.392	13930
481.470	13876
481.547	14081
481.624	14961
481.701	15338
481.778	15073
481.855	15627
481.932	17883
482.009	19768
482.086	20537
482.163	21538
482.240	24445
482.317	23913
482.393	21743
482.470	19338
482.547	19482
482.624	18463
482.701	18230
482.778	17071
482.855	17831
482.932	18580
483.009	20490
483.085	23504
483.162	25319
483.239	25635
483.316	25615
483.393	23957
483.469	21036
483.546	19939
483.623	18771
483.699	16322
483.776	15960
483.853	16024
483.930	17677
484.006	19907
484.083	24491
484.160	23784
484.236	29435
484.313	24913
484.389	25680
484.466	28390
484.543	34488
484.619	38429
484.696	37581
484.772	26228
484.849	23123
484.925	20164
485.002	20559
485.078	19055
485.155	18493
485.231	17109
485.308	17560
485.384	17385
485.461	19809
485.537	20414
485.614	20113
485.690	16136
485.766	16871
485.843	16230
485.919	17184
485.995	17229
486.072	16476
486.148	16166
486.224	16513
486.301	16198
486.377	17165
486.453	16817
486.530	17984
486.606	21162
486.682	21849
486.758	21269
486.835	22247
486.911	22053
486.987	27917
487.063	27999
487.139	30880
487.215	32741
487.292	32828
487.368	39188
487.444	50703
487.520	74690
487.596	139090
487.672	360365
487.748	790180
487.824	959253
487.900	341276
487.976	120795
488.052	64917
488.128	45835
488.204	35700
488.280	30404
488.356	28062
488.432	27096
488.508	28017
488.584	21667
488.660	20860
488.736	19437
488.812	19605
488.888	19109
488.964	21353
489.039	25147
489.115	27360
489.191	20565
489.267	18218
489.343	16397
489.418	17570
489.494	16590
489.570	16733
489.646	17248
489.722	16968
489.797	17222
489.873	20519
489.949	22276
490.024	19637
490.100	16079
490.176	18407
490.251	17932
490.327	18664
490.403	16013
490.478	17386
490.554	16492
490.629	17140
490.705	15163
490.781	16553
490.856	15703
490.932	17075
491.007	14702
491.083	15223
491.158	16025
491.234	17128
491.309	18917
491.385	17796
491.460	14250
491.536	15495
491.611	15209
491.686	14995
491.762	15923
491.837	19275
491.913	21924
491.988	24567
492.063	25721
492.139	16102
492.214	15077
492.289	15159
492.365	13878
492.440	15327
492.515	13856
492.590	14282
492.666	13470
492.741	15334
492.816	15127
492.891	13748
492.967	13413
493.042	14269
493.117	14245
493.192	16064
493.267	20428
493.342	29615
493.418	30123
493.493	15942
493.568	14064
493.643	14180
493.718	13959
493.793	15658
493.868	14851
493.943	14136
494.018	14611
494.093	14254
494.168	12922
494.243	14140
494.318	14278
494.393	14554
494.468	14562
494.543	14718
494.618	15182
494.693	15022
494.768	15448
494.842	14543
494.917	14258
494.992	15976
495.067	14322
495.142	14996
495.217	15628
495.292	13745
495.366	15290
495.441	14584
495.516	15970
495.591	18513
495.665	28128
495.740	38803
495.815	20971
495.890	16397
495.964	14691
496.039	17842
496.114	18479
496.188	20604
496.263	17327
496.338	15704
496.412	15101
496.487	17165
496.561	16089
496.636	16650
496.710	15574
496.785	16042
496.860	15289
496.934	16037
497.009	15913
497.083	16952
497.158	15798
497.232	18719
497.307	18975
497.381	21273
497.455	19951
497.530	17437
497.604	14545
497.679	15989
497.753	16791
497.827	16811
497.902	16470
497.976	20827
498.050	40398
498.125	82814
498.199	60312
498.273	20647
498.348	18564
498.422	20919
498.496	22800
498.570	23525
498.645	14132
498.719	13087
498.793	14106
498.867	17800
498.941	22968
499.016	45717
499.090	76601
499.164	25528
499.238	16779
499.312	17254
499.386	19145
499.460	21020
499.534	24100
499.609	26704
499.683	19600
499.757	16868
499.831	27922
499.905	56143
499.979	38487
500.053	16379
500.127	16786
500.201	15891
500.275	17470
500.349	18107
500.422	19790
500.496	23388
500.570	34202
500.644	53269
500.718	59180
500.792	15308
500.866	11987
500.940	14075
501.013	12892
501.087	14221
501.161	15127
501.235	17741
501.309	27845
501.382	46576
501.456	32051
501.530	16765
501.603	18342
501.677	12279
501.751	11216
501.825	13786
501.898	17228
501.972	22757
502.046	14632
502.119	12422
502.193	16508
502.266	23259
502.340	15127
502.413	18030
502.487	20501
502.561	15481
502.634	13521
502.708	12910
502.781	12351
502.855	13165
502.928	12445
503.002	12671
503.075	13265
503.149	13968
503.222	13621
503.295	14444
503.369	15986
503.442	18728
503.516	28812
503.589	42443
503.662	34005
503.736	33556
503.809	48560
503.882	64135
503.956	111448
504.029	230692
504.102	495447
504.175	552742
504.249	231564
504.322	101289
504.395	56923
504.468	39358
504.542	28260
504.615	22384
504.688	19747
504.761	16695
504.834	15863
504.907	15731
504.980	14405
505.053	12611
505.127	11095
505.200	13643
505.273	12444
505.346	11804
505.419	10396
505.492	12248
505.565	9559
505.638	11646
505.711	9711
505.784	9394
505.857	9277
505.930	11268
506.003	8318
506.076	11240
506.149	8940
506.221	9885
506.294	11248
506.367	15619
506.440	25426
506.513	13410
506.586	9241
506.659	8680
506.731	7699
506.804	9260
506.877	9220
506.950	9141
507.022	9148
507.095	9424
507.168	9166
507.241	9104
507.313	8402
507.386	8953
507.459	9656
507.531	8079
507.604	7821
507.677	9179
507.749	7965
507.822	9817
507.894	11519
507.967	12843
508.040	10292
508.112	11006
508.185	9593
508.257	9894
508.330	10320
508.402	10057
508.475	9945
508.547	10078
508.620	9715
508.692	11000
508.765	9246
508.837	9268
508.909	8353
508.982	9025
509.054	9647
509.127	9157
509.199	9199
509.271	9453
509.344	8921
509.416	9392
509.488	9263
509.560	9454
509.633	9308
509.705	9723
509.777	9475
509.849	10822
509.922	9375
509.994	10402
510.066	9766
510.138	10760
510.210	13951
510.283	12497
510.355	11151
510.427	11145
510.499	9894
510.571	9893
510.643	9958
510.715	11698
510.787	9615
510.859	11596
510.931	10319
511.003	10777
511.076	10907
511.148	10567
511.219	10325
511.291	12666
511.363	11202
511.435	9988
511.507	9743
511.579	10787
511.651	9815
511.723	9777
511.795	9802
511.867	10233
511.939	10216
512.010	11496
512.082	10300
512.154	9744
512.226	10506
512.298	13506
512.369	13763
512.441	13088
512.513	11686
512.585	11050
512.656	10938
512.728	10584
512.800	10451
512.871	11051
512.943	10478
513.015	10045
513.086	11060
513.158	10127
513.230	9974
513.301	11318
513.373	11814
513.444	10958
513.516	9514
513.588	10586
513.659	10878
513.731	11868
513.802	10903
513.874	13868
513.945	13750
514.016	11444
514.088	10729
514.159	10997
514.231	12267
514.302	12570
514.374	12978
514.445	11713
514.516	15195
514.588	12778
514.659	11638
514.730	13717
514.802	12594
514.873	11628
514.944	12280
515.016	12276
515.087	11177
515.158	13198
515.229	13875
515.301	12848
515.372	12604
515.443	12568
515.514	12831
515.585	12793
515.656	13638
515.728	14553
515.799	13782
515.870	15723
515.941	16138
516.012	18170
516.083	19246
516.154	21252
516.225	23460
516.296	26864
516.367	29869
516.438	37874
516.509	55392
516.580	129214
516.651	431178
516.722	877952
516.793	258934
516.864	66837
516.935	59881
517.006	77187
517.077	136124
517.148	393885
517.219	1174369
517.289	1090370
517.360	218606
517.431	73317
517.502	46846
517.573	39646
517.643	37362
517.714	37664
517.785	39323
517.856	44192
517.926	51956
517.997	64450
518.068	87285
518.138	139861
518.209	319865
518.280	990004
518.350	1679089
518.421	639055
518.492	185754
518.562	133867
518.633	150290
518.703	236598
518.774	487571
518.845	885278
518.915	611188
518.986	219884
519.056	106905
519.127	73020
519.197	59478
519.268	58194
519.338	38180
519.408	28706
519.479	25865
519.549	22239
519.620	20752
519.690	19067
519.760	17956
519.831	17345
519.901	16859
519.971	16778
520.042	15973
520.112	15830
520.182	15712
520.253	14896
520.323	13657
520.393	14658
520.463	16239
520.534	13153
520.604	16580
520.674	13648
520.744	14103
520.814	16581
520.885	16261
520.955	21522
521.025	36068
521.095	16037
521.165	12535
521.235	12296
521.305	12450
521.375	12501
521.445	12203
521.515	12670
521.585	13479
521.655	12079
521.725	12931
521.795	13553
521.865	11780
521.935	14280
522.005	11982
522.075	12202
522.145	12685
522.215	12589
522.285	13407
522.355	15095
522.424	17054
522.494	15033
522.564	13224
522.634	18030
522.704	24880
522.774	14362
522.843	12568
522.913	13566
522.983	13074
523.053	12072
523.122	12731
523.192	14104
523.262	19230
523.331	16386
523.401	12826
523.471	12865
523.540	12718
523.610	12482
523.680	13340
523.749	15053
523.819	15714
523.888	14970
523.958	13994
524.027	14034
524.097	13340
524.166	13686
524.236	12880
524.305	14508
524.375	13781
524.444	13602
524.514	14827
524.583	15144
524.653	13886
524.722	15160
524.791	14285
524.861	16451
524.930	14983
524.999	16365
525.069	17375
525.138	16946
525.207	18174
525.277	20115
525.346	19655
525.415	22700
525.484	25962
525.554	29672
525.623	33647
525.692	41876
525.761	47311
525.830	61404
525.900	87228
525.969	165984
526.038	332972
526.107	767973
526.176	1463457
526.245	865625
526.314	403462
526.383	904133
526.452	983542
526.522	1387050
526.591	821261
526.660	192389
526.729	128812
526.797	153574
526.867	294462
526.935	853886
527.004	1729218
527.073	780927
527.142	172878
527.211	80244
527.280	52674
527.349	40809
527.418	31347
527.487	28427
527.555	22535
527.624	21571
527.693	19892
527.762	19101
527.831	18562
527.899	18184
527.968	16896
528.037	15644
528.106	15933
528.174	16445
528.243	16725
528.312	17449
528.380	15514
528.449	13970
528.518	14887
528.586	13057
528.655	14201
528.723	14334
528.792	14702
528.861	14445
528.929	13406
528.998	16079
529.066	18215
529.135	22186
529.203	20426
529.272	26568
529.340	28446
529.409	26550
529.477	24138
529.545	24944
529.614	27362
529.682	30445
529.751	31204
529.819	36794
529.887	36674
529.956	34057
530.024	32309
530.092	31089
530.161	30694
530.229	33695
530.297	33962
530.365	33670
530.434	36993
530.502	35767
530.570	32201
530.638	28468
530.707	29288
530.775	29919
530.843	29301
530.911	32512
530.979	32355
531.047	35410
531.115	32565
531.183	29697
531.252	29659
531.320	28706
531.388	28710
531.456	34113
531.524	33294
531.592	35851
531.660	38578
531.728	34958
531.796	32948
531.864	33614
531.932	32985
532.000	34813
532.067	37140
532.135	40311
532.203	43180
532.271	43510
532.339	43400
532.407	45808
532.475	41495
532.542	38909
532.610	39060
532.678	43464
532.746	60684
532.814	68663
532.881	44848
532.949	41922
533.017	38281
533.084	38029
533.152	36468
533.220	35970
533.287	37096
533.355	38722
533.423	40190
533.490	40451
533.558	39325
533.625	39738
533.693	36480
533.761	36988
533.828	37368
533.896	37358
533.963	43278
534.031	45139
534.098	51265
534.166	49319
534.233	46838
534.300	49815
534.368	48881
534.435	46910
534.503	48881
534.570	55371
534.637	61281
534.705	71613
534.772	104088
534.840	252020
534.907	814641
534.974	562255
535.041	93488
535.109	53406
535.176	46320
535.243	45169
535.310	42645
535.378	41612
535.445	40851
535.512	40261
535.579	39136
535.646	39105
535.714	39412
535.781	42010
535.848	42859
535.915	42538
535.982	41669
536.049	40482
536.116	40380
536.183	36660
536.250	36290
536.317	37173
536.384	38285
536.451	40009
536.518	39231
536.585	38991
536.652	41378
536.719	40077
536.786	36916
536.853	37224
536.920	39255
536.987	39024
537.053	38543
537.120	55424
537.187	46622
537.254	40360
537.321	39713
537.388	41154
537.454	37138
537.521	38001
537.588	36651
537.654	38715
537.721	41443
537.788	40321
537.855	38510
537.921	39329
537.988	37365
538.055	35858
538.121	33566
538.188	33486
538.254	34174
538.321	34940
538.388	37403
538.454	41290
538.521	39456
538.587	39993
538.654	38551
538.720	38097
538.787	37172
538.853	37216
538.920	34485
538.986	34062
539.053	32862
539.119	35187
539.185	35611
539.252	37826
539.318	38722
539.385	41674
539.451	38415
539.517	37564
539.583	37398
539.650	41815
539.716	42897
539.782	35386
539.849	34926
539.915	35060
539.981	34891
540.047	35724
540.114	35144
540.180	37047
540.246	39250
540.312	40875
540.378	40087
540.444	40094
540.510	42999
540.576	49358
540.643	36432
540.709	34768
540.775	36848
540.841	35585
540.907	35120
540.973	37004
541.039	36283
541.105	37468
541.171	40158
541.237	39576
541.303	38706
541.369	39395
541.435	38258
541.500	36852
541.566	34177
541.632	34736
541.698	34539
541.764	38057
541.830	36427
541.896	34568
541.961	34541
542.027	35843
542.093	40237
542.159	38899
542.224	36425
542.290	38957
542.356	37415
542.421	36968
542.487	33705
542.553	34280
542.618	35105
542.684	35395
542.750	35233
542.815	37101
542.881	39057
542.947	49310
543.012	41369
543.078	34688
543.143	33548
543.209	36168
543.274	33230
543.340	36399
543.405	39497
543.471	41608
543.536	36808
543.602	37764
543.667	36083
543.732	38120
543.798	37213
543.863	37809
543.928	38045
543.994	37613
544.059	38462
544.124	39418
544.190	38514
544.255	41408
544.320	39235
544.386	40563
544.451	42631
544.516	41401
544.581	41955
544.646	49563
544.712	49169
544.777	42651
544.842	41554
544.907	41462
544.972	42584
545.037	43313
545.102	44550
545.168	45750
545.233	45794
545.298	47876
545.363	47592
545.428	50052
545.493	52986
545.558	55507
545.623	48868
545.688	49130
545.753	51578
545.818	53033
545.883	57362
545.947	57336
546.012	60371
546.077	61088
546.142	65313
546.207	67112
546.272	69482
546.337	70761
546.401	74716
546.466	77421
546.531	79113
546.596	87442
546.661	88454
546.725	94336
546.790	99607
546.855	109318
546.919	120051
546.984	132199
547.049	144863
547.113	165238
547.178	182034
547.243	205361
547.307	240779
547.372	252516
547.436	257453
547.501	276974
547.565	280208
547.630	256117
547.695	251537
547.759	256980
547.823	258181
547.888	264145
547.952	269479
548.017	283608
548.081	283466
548.146	282091
548.210	295554
548.274	315906
548.339	295880
548.403	273696
548.468	260446
548.532	261689
548.596	265492
548.660	272446
548.725	299682
548.789	314016
548.853	298859
548.917	291813
548.982	272911
549.046	247068
549.110	227994
549.174	249400
549.238	290887
549.303	308424
549.367	310166
549.431	290123
549.495	276084
549.559	286678
549.623	337475
549.687	346624
549.751	361044
549.815	418692
549.879	405291
549.943	401069
550.007	417729
550.071	396378
550.135	361698
550.199	354718
550.263	334236
550.327	323927
550.391	342370
550.455	381371
550.519	398962
550.582	429995
550.646	477396
550.710	473332
550.774	470305
550.838	482592
550.901	501713
550.965	535624
551.029	570389
551.093	622270
551.156	690395
551.220	771643
551.284	736678
551.347	583919
551.411	519928
551.475	500833
551.538	505842
551.602	456817
551.666	435263
551.729	409641
551.793	405929
551.856	392759
551.920	390872
551.983	388475
552.047	383040
552.110	388254
552.174	394277
552.237	393324
552.301	364342
552.364	352605
552.428	347258
552.491	364193
552.554	364630
552.618	368036
552.681	375289
552.745	380356
552.808	446272
552.871	479981
552.934	417928
552.998	375509
553.061	356507
553.124	337823
553.187	343645
553.251	350008
553.314	348762
553.377	356812
553.440	381292
553.503	403962
553.567	394149
553.630	373534
553.693	369459
553.756	368722
553.819	352997
553.882	339569
553.945	346188
554.008	346648
554.071	351989
554.134	347830
554.197	325367
554.260	318890
554.323	325765
554.386	336997
554.449	349473
554.512	344763
554.575	330423
554.638	327507
554.701	326830
554.764	318787
554.827	309695
554.889	294464
554.952	277388
555.015	278474
555.078	285524
555.141	286731
555.203	277550
555.266	280288
555.329	274533
555.391	266705
555.454	262949
555.517	255006
555.580	244540
555.642	239029
555.705	234906
555.768	234676
555.830	224134
555.893	213572
555.955	208827
556.018	209764
556.080	212676
556.143	216366
556.206	209819
556.268	206962
556.330	200390
556.393	198199
556.455	194541
556.518	189365
556.580	182003
556.643	174052
556.705	174001
556.767	170085
556.830	168372
556.892	165281
556.955	165586
557.017	159260
557.079	159203
557.142	155664
557.204	155418
557.266	157254
557.328	142428
557.391	135158
557.453	131669
557.515	134871
557.577	137164
557.639	136716
557.701	136009
557.764	136226
557.826	136254
557.888	145147
557.950	152965
558.012	179157
558.074	270553
558.136	670248
558.198	925141
558.260	273358
558.322	156186
558.384	152646
558.446	157971
558.508	171668
558.570	193739
558.632	237513
558.694	339295
558.756	661146
558.818	1609434
558.880	1890645
558.942	1048007
559.003	1067659
559.065	388049
559.127	212424
559.189	204445
559.251	243824
559.312	408916
559.374	1013705
559.436	1653115
559.498	653141
559.559	242643
559.621	208217
559.683	261171
559.744	506185
559.806	1292176
559.868	1062602
559.929	305200
559.991	265524
560.052	539788
560.114	1035725
560.176	527666
560.237	781322
560.299	719504
560.360	156475
560.422	86971
560.483	76307
560.545	70855
560.606	67867
560.667	65295
560.729	62324
560.790	57758
560.852	58103
560.913	53855
560.974	53222
561.036	53045
561.097	54290
561.158	51524
561.220	52009
561.281	48504
561.342	48054
561.403	48847
561.465	49089
561.526	51753
561.587	49884
561.648	44410
561.709	44855
561.771	43280
561.832	43355
561.893	42983
561.954	42932
562.015	40927
562.076	40497
562.137	40188
562.198	40180
562.259	40072
562.320	41302
562.381	40839
562.442	40359
562.503	37469
562.564	38320
562.625	37019
562.686	37204
562.747	36837
562.808	37411
562.869	35932
562.930	36265
562.991	35508
563.051	35784
563.112	35219
563.173	34531
563.234	33673
563.294	34216
563.355	32543
563.416	34158
563.477	33191
563.537	34149
563.598	33104
563.659	32776
563.720	31520
563.780	33049
563.841	33032
563.901	33593
563.962	31967
564.023	31999
564.083	30506
564.144	31374
564.204	30625
564.265	31218
564.325	30572
564.386	33960
564.446	31155
564.507	29969
564.567	29200
564.628	29331
564.688	28557
564.749	29771
564.809	29894
564.869	30134
564.930	28959
564.990	29721
565.050	28776
565.111	29453
565.171	29401
565.231	29799
565.292	29687
565.352	28223
565.412	28810
565.472	29621
565.532	28011
565.593	28482
565.653	27557
565.713	29129
565.773	29520
565.833	30417
565.893	29669
565.953	27616
566.013	27833
566.074	27135
566.134	26964
566.194	28495
566.254	27587
566.314	27003
566.374	25949
566.434	26300
566.494	26889
566.554	26635
566.614	27423
566.673	28872
566.733	28408
566.793	28556
566.853	27779
566.913	28170
566.973	28245
567.033	29132
567.092	27499
567.152	29018
567.212	28991
567.272	28902
567.331	29173
567.391	30072
567.451	31337
567.511	31778
567.570	30463
567.630	30115
567.690	28455
567.749	27733
567.809	28473
567.868	28416
567.928	27648
567.988	29515
568.047	29138
568.107	28539
568.166	29108
568.226	30218
568.285	31284
568.345	30733
568.404	29850
568.464	29981
568.523	28996
568.582	29593
568.642	29398
568.701	29261
568.761	27892
568.820	29593
568.879	29786
568.939	31086
568.998	28962
569.057	29002
569.116	27867
569.176	29659
569.235	28284
569.294	27624
569.353	26885
569.413	27071
569.472	26372
569.531	26906
569.590	25858
569.649	26759
569.708	25747
569.767	27437
569.827	26118
569.886	25807
569.945	27116
570.004	27241
570.063	26756
570.122	28979
570.181	28308
570.240	28608
570.299	28980
570.358	28780
570.417	27522
570.475	28449
570.534	29491
570.593	28073
570.652	29501
570.711	29883
570.770	27971
570.829	29253
570.887	29366
570.946	30925
571.005	29188
571.064	33149
571.122	34718
571.181	31802
571.240	29060
571.299	27795
571.357	26862
571.416	27223
571.475	26666
571.533	30960
571.592	29994
571.650	31042
571.709	32741
571.768	36373
571.826	36684
571.885	32663
571.943	29627
572.002	27368
572.060	26789
572.119	27010
572.177	27190
572.236	27054
572.294	27752
572.352	30717
572.411	29872
572.469	28320
572.528	26182
572.586	27727
572.644	25843
572.703	26283
572.761	25358
572.819	25682
572.877	24082
572.936	23778
572.994	23770
573.052	24807
573.110	26049
573.169	28214
573.227	27433
573.285	26534
573.343	25399
573.401	26559
573.459	27171
573.517	27963
573.576	28477
573.634	28071
573.692	27681
573.750	28686
573.808	26542
573.866	25435
573.924	24812
573.982	25819
574.040	25776
574.098	25397
574.155	24296
574.213	25916
574.271	26907
574.329	28869
574.387	26456
574.445	25916
574.503	24449
574.560	24363
574.618	24342
574.676	24248
574.734	24376
574.792	24974
574.849	22007
574.907	20764
574.965	20119
575.022	20847
575.080	19690
575.138	20050
575.195	18643
575.253	19287
575.311	18460
575.368	19493
575.426	18492
575.483	20818
575.541	20165
575.598	20367
575.656	20339
575.713	21149
575.771	22267
575.828	21451
575.886	19753
575.943	19985
576.001	17978
576.058	18998
576.115	19006
576.173	19600
576.230	20382
576.287	21702
576.345	20865
576.402	20997
576.459	20061
576.517	19663
576.574	19001
576.631	18546
576.688	17634
576.746	18080
576.803	17273
576.860	17205
576.917	17718
576.974	19286
577.031	17505
577.089	17756
577.146	16315
577.203	16750
577.260	16718
577.317	18011
577.374	16560
577.431	17536
577.488	16633
577.545	17328
577.602	16958
577.659	17093
577.716	17452
577.773	18406
577.830	17021
577.886	17227
577.943	16418
578.000	16865
578.057	16916
578.114	18583
578.171	19567
578.227	21743
578.284	20065
578.341	18620
578.398	17432
578.454	18673
578.511	16969
578.568	17924
578.625	16607
578.681	17500
578.738	16841
578.794	17870
578.851	17769
578.908	17556
578.964	17483
579.021	17992
579.077	17333
579.134	18459
579.190	17043
579.247	17994
579.303	18064
579.360	17377
579.416	16943
579.473	16853
579.529	16997
579.586	17317
579.642	17988
579.698	18812
579.755	18626
579.811	18106
579.867	17749
579.924	18533
579.980	19530
580.036	20789
580.093	23670
580.149	27893
580.205	25724
580.261	23837
580.317	21906
580.374	22796
580.430	21502
580.486	20883
580.542	20330
580.598	20678
580.619	20593
580.654	20465
580.692	21325
580.710	21787
580.765	20128
580.767	20092
580.823	22087
580.838	21598
580.879	20358
580.911	21049
580.935	21586
580.984	20740
580.991	20644
581.047	22077
581.057	21884
581.103	21095
581.130	21864
581.159	22695
581.203	22152
581.215	22036
581.270	22179
581.276	22055
581.326	20954
581.349	21099
581.382	21375
581.422	21248
581.438	21187
581.494	21734
581.494	21714
581.550	20745
581.567	20777
581.606	20883
581.640	20186
581.661	19760
581.713	21772
581.717	21946
581.773	20814
581.786	21076
581.829	21895
581.859	21500
581.885	21191
581.932	21897
581.940	22058
581.996	22781
582.004	22774
582.052	22551
582.077	21972
582.107	21391
582.150	22059
582.163	22276
582.219	21338
582.223	21448
582.274	22734
582.296	22320
582.330	21698
582.368	22332
582.386	22656
582.441	23320
582.441	23323
582.497	22777
582.514	22603
582.552	22334
582.587	22933
582.608	23306
582.659	23795
582.663	23845
582.719	24111
582.732	24131
582.774	23938
582.805	24149
582.830	24556
582.877	25492
582.885	25603
582.941	26990
582.950	27311
582.996	29309
583.023	30377
583.052	31451
583.095	31082
583.107	30970
583.162	31594
583.168	31472
583.218	29992
583.240	29231
583.273	28069
583.313	27189
583.328	26851
583.384	26052
583.385	26013
583.439	25152
583.458	25008
583.494	24647
583.531	24306
583.549	24315
583.603	25493
583.605	25515
583.660	23991
583.676	24070
583.715	24454
583.748	24555
583.770	24554
583.820	24990
583.825	25050
583.881	24601
583.893	24721
583.936	24925
583.965	24559
583.991	24491
584.038	25521
584.046	25658
584.101	24910
584.110	25033
584.156	25588
584.183	26010
584.211	26551
584.255	26899
584.266	27009
584.321	27759
584.328	27758
584.376	27584
584.400	27755
584.431	28070
584.472	28302
584.486	28448
584.541	30100
584.545	30150
584.596	30641
584.617	30657
584.651	30722
584.689	31368
584.706	31837
584.761	32942
584.762	32956
584.816	34612
584.834	34825
584.871	35408
584.906	36988
584.926	37768
584.978	38040
584.980	38083
585.035	40812
585.051	41483
585.090	43268
585.123	45674
585.145	47627
585.195	51364
585.200	51836
585.254	59501
585.267	61799
585.309	70179
585.340	77142
585.364	83289
585.412	98995
585.419	101652
585.473	129783
585.484	138746
585.528	182807
585.556	231612
585.583	301380
585.628	481093
585.637	541026
585.692	1057450
585.700	1098705
585.747	1295748
585.772	1203925
585.801	826376
585.845	417571
585.856	355241
585.910	165886
585.917	146479
585.965	106566
585.989	90319
586.019	80267
586.061	69359
586.074	67157
586.128	60248
586.133	59717
586.183	56419
586.205	55124
586.237	53865
586.277	51599
586.292	50991
586.346	50086
586.349	49969
586.401	48203
586.421	47966
586.455	48335
586.493	48635
586.509	48517
586.564	48191
586.565	48191
586.618	52818
586.637	54566
586.672	58631
586.709	65003
586.727	69367
586.781	76985
586.781	77022
586.835	64264
586.853	61242
586.889	54584
586.925	49131
586.944	48010
586.996	46457
586.998	46489
587.052	45335
587.068	45315
587.106	45936
587.140	45679
587.161	45496
587.212	46458
587.215	46557
587.269	46663
587.284	46780
587.323	48054
587.356	48758
587.377	48726
587.427	49223
587.431	49379
587.485	49959
587.499	50386
587.539	51681
587.571	52318
587.593	53472
587.643	56302
587.648	56565
587.702	57380
587.715	57839
587.755	58573
587.786	58689
587.810	59093
587.858	59215
587.864	59341
587.917	59886
587.930	60147
587.971	60263
588.001	60118
588.025	60497
588.073	60101
588.079	60118
588.133	60341
588.145	60362
588.187	61602
588.217	62260
588.241	63194
588.288	65007
588.295	65252
588.348	66859
588.360	67010
588.402	68497
588.431	69446
588.456	70728
588.503	73525
588.510	74179
588.564	79504
588.575	80561
588.617	86303
588.646	90462
588.671	94143
588.718	103589
588.725	105851
588.778	127386
588.789	133957
588.832	185500
588.861	230739
588.886	321844
588.932	529431
588.939	562219
588.993	721113
589.004	734581
589.047	438847
589.075	277449
589.100	214581
589.147	112806
589.154	110878
589.207	97383
589.218	94845
589.261	94715
589.290	94971
589.314	97921
589.361	106915
589.368	109841
589.421	138144
589.433	146360
589.475	228879
589.504	301880
589.528	416348
589.576	609898
589.582	597678
589.635	391787
589.647	357884
589.689	204681
589.718	103456
589.742	94988
589.790	78413
589.795	78105
589.849	74487
589.861	73673
589.902	73022
589.932	71924
589.955	70979
590.004	68669
590.009	68768
590.062	68577
590.075	68588
590.115	68153
590.146	67145
590.168	67493
590.218	68158
590.222	68300
590.275	68694
590.289	68600
590.328	69693
590.360	70347
590.381	70764
590.431	71490
590.435	71723
590.488	73181
590.503	73466
590.541	73470
590.574	73212
590.594	74017
590.645	76018
590.647	76278
590.700	79041
590.716	79770
590.753	81883
590.787	83383
590.806	84371
590.859	86619
590.859	86813
590.912	87675
590.930	87820
590.965	88596
591.001	88931
591.018	89222
591.071	89278
591.072	89088
591.124	88069
591.143	87498
591.177	87720
591.214	87593
591.230	88530
591.283	91173
591.285	91066
591.336	90923
591.356	90676
591.389	90336
591.427	89483
591.442	89678
591.495	89625
591.498	89427
591.547	89422
591.569	89246
591.600	91013
591.640	92610
591.653	92952
591.706	93654
591.711	93535
591.759	95487
591.782	96185
591.811	98855
591.853	102189
591.864	102799
591.917	104511
591.924	104527
591.969	102566
591.995	101067
592.022	102545
592.066	104437
592.075	105099
592.127	107738
592.137	107966
592.180	110600
592.208	111949
592.233	112749
592.279	113482
592.285	114314
592.338	119148
592.350	119962
592.390	118917
592.421	117667
592.443	118583
592.491	119693
592.495	120225
592.548	123665
592.562	124308
592.600	124223
592.633	123612
592.653	123733
592.704	122569
592.705	123309
592.775	125122
592.846	128951
592.916	131877
592.987	130845
593.058	132423
593.128	135340
593.199	135403
593.270	138376
593.341	139743
593.411	144402
593.482	147986
593.553	153858
593.623	155172
593.694	158816
593.764	163713
593.835	159963
593.906	160575
593.976	164538
594.047	170575
594.117	176119
594.188	181797
594.258	182224
594.329	180778
594.399	184359
594.470	192072
594.540	197362
594.611	202609
594.681	200902
594.751	202539
594.822	209056
594.892	218328
594.963	221402
595.033	227669
595.103	236664
595.174	236905
595.244	243161
595.314	250544
595.384	256222
595.455	263476
595.525	271200
595.595	282003
595.665	283951
595.736	275600
595.806	281920
595.876	288404
595.946	287583
596.016	297359
596.087	309541
596.157	311761
596.227	309467
596.297	326144
596.367	346494
596.437	366773
596.507	368136
596.577	367744
596.647	377681
596.717	394832
596.787	406745
596.857	404023
596.927	406010
596.997	407356
597.067	409785
597.137	418242
597.207	419892
597.277	424909
597.347	410232
597.417	397622
597.487	391794
597.557	402740
597.626	414360
597.696	421493
597.766	416373
597.836	401284
597.906	378296
597.975	371053
598.045	373367
598.115	389007
598.185	411119
598.254	455091
598.324	497452
598.394	512695
598.464	500541
598.533	490628
598.603	469239
598.672	447875
598.742	454555
598.812	455385
598.881	469493
598.951	469409
599.020	475208
599.090	488607
599.159	501497
599.229	484390
599.299	472960
599.368	481515
599.437	481468
599.507	448065
599.576	428036
599.646	425072
599.715	415539
599.785	417075
599.854	406252
599.924	402001
599.993	397673
600.062	408127
600.132	420533
600.201	437171
600.270	492002
600.340	535869
600.409	524197
600.478	518677
600.547	527720
600.617	505571
600.686	409647
600.755	367441
600.824	350614
600.894	343497
600.963	340451
601.032	340434
601.101	333150
601.170	322317
601.239	313811
601.308	312984
601.378	311347
601.447	318737
601.516	319663
601.585	323626
601.654	327121
601.723	329895
601.792	340204
601.861	351785
601.930	362823
601.999	375580
602.068	370278
602.137	374391
602.206	377481
602.275	386712
602.343	388660
602.412	391201
602.481	395535
602.550	395641
602.619	408608
602.688	412537
602.756	418218
602.825	420099
602.894	426813
602.963	435091
603.032	439090
603.100	444228
603.169	438953
603.238	444207
603.307	447193
603.375	445569
603.444	461215
603.513	456467
603.581	465328
603.650	480229
603.719	456178
603.787	455775
603.856	471464
603.924	478639
603.993	492810
604.061	511600
604.130	533314
604.198	544859
604.267	552706
604.335	561866
604.404	567419
604.472	582580
604.541	581974
604.609	591346
604.678	599133
604.746	598430
604.815	620060
604.883	625023
604.951	617955
605.020	628617
605.088	635146
605.156	637949
605.225	646928
605.293	645802
605.361	646236
605.429	653388
605.498	664244
605.566	677709
605.634	701070
605.702	727266
605.771	745411
605.839	754573
605.907	735127
605.975	719215
606.043	699897
606.111	693654
606.180	702464
606.248	690703
606.316	675325
606.384	684967
606.452	674066
606.520	666500
606.588	690826
606.656	698415
606.724	692818
606.792	658723
606.860	602310
606.928	551573
606.996	522407
607.064	512240
607.132	520083
607.200	548501
607.267	573505
607.335	578482
607.403	595244
607.471	583357
607.539	552271
607.607	568246
607.674	507886
607.742	496773
607.810	496330
607.878	493412
607.946	501742
608.013	523116
608.081	537814
608.149	539118
608.216	553699
608.284	575276
608.352	570290
608.419	573560
608.487	557729
608.555	547443
608.622	562065
608.690	586993
608.757	640362
608.825	671468
608.893	653542
608.960	625787
609.028	590832
609.095	583355
609.163	591152
609.230	546733
609.298	483735
609.365	507829
609.432	546048
609.500	584493
609.567	655361
609.635	742745
609.702	797216
609.769	773575
609.837	644181
609.904	533416
609.971	544982
610.039	579948
610.106	669718
610.173	955967
610.241	1763838
610.308	1657348
610.375	759074
610.442	596966
610.509	554229
610.577	545506
610.644	551848
610.711	568738
610.778	581501
610.845	599800
610.912	635490
610.980	659943
611.047	667637
611.114	656380
611.181	637286
611.248	629883
611.315	654177
611.382	678955
611.449	699570
611.516	713750
611.583	701367
611.650	708576
611.717	716849
611.784	732115
611.851	754660
611.918	788803
611.984	869068
612.051	1038965
612.118	1448489
612.185	2438622
612.252	2453926
612.319	1257431
612.386	961483
612.452	870883
612.519	812796
612.586	789549
612.653	791552
612.719	818143
612.786	804672
612.853	750820
612.919	721342
612.986	733330
613.053	699319
613.120	667853
613.186	631140
613.253	635215
613.319	636017
613.386	642211
613.453	651322
613.519	653118
613.586	643659
613.652	650409
613.719	642970
613.785	648585
613.852	662192
613.918	657466
613.985	658062
614.051	684791
614.118	683622
614.184	664374
614.250	650482
614.317	671961
614.383	657492
614.449	670879
614.516	669180
614.582	672240
614.648	662487
614.715	654907
614.781	644509
614.847	636436
614.914	640070
614.980	624230
615.046	619617
615.112	636408
615.179	641915
615.245	650007
615.311	641844
615.377	644067
615.443	660296
615.509	661544
615.575	684189
615.642	683627
615.708	692398
615.774	721172
615.840	758895
615.906	798824
615.972	885250
616.038	1101729
616.104	1651997
616.170	2596787
616.236	2812060
616.302	1647342
616.368	1215716
616.434	972756
616.500	836240
616.565	854865
616.631	1039204
616.697	986739
616.763	912455
616.829	1112457
616.895	1737506
616.961	1983701
617.026	1209769
617.092	797156
617.158	707399
617.224	685618
617.289	634375
617.355	603813
617.421	589019
617.487	590449
617.552	564162
617.618	551033
617.684	554454
617.749	555240
617.815	537403
617.880	527701
617.946	519405
618.012	527676
618.077	543917
618.143	525712
618.208	516851
618.274	547634
618.339	569294
618.405	487549
618.470	463183
618.536	467859
618.601	455973
618.667	437532
618.732	409230
618.798	403733
618.863	402022
618.928	398017
618.994	403604
619.059	401345
619.124	404826
619.190	403835
619.255	398999
619.320	397014
619.386	400426
619.451	399384
619.516	388151
619.581	387206
619.647	397790
619.712	403510
619.777	381823
619.842	383005
619.907	389666
619.972	393154
620.038	398651
620.103	384494
620.168	385430
620.233	389993
620.298	393995
620.363	398498
620.428	407582
620.493	417406
620.558	423240
620.623	427552
620.688	431347
620.753	423477
620.818	432254
620.883	432714
620.948	434038
621.013	427827
621.078	421881
621.143	421880
621.207	428956
621.272	421860
621.337	413641
621.402	404782
621.467	400897
621.532	398557
621.596	402781
621.661	392659
621.726	388066
621.791	392215
621.855	394252
621.920	389284
621.985	393451
622.049	399237
622.114	403784
622.179	407064
622.243	412851
622.308	427520
622.373	441070
622.437	439290
622.502	415632
622.566	410701
622.631	409416
622.695	414134
622.760	413346
622.824	410765
622.889	416626
622.953	413353
623.018	429790
623.082	446483
623.147	438916
623.211	428767
623.276	427436
623.340	418401
623.404	401097
623.469	398726
623.533	402963
623.597	399566
623.662	392649
623.726	372971
623.790	347497
623.854	337336
623.919	340675
623.983	346618
624.047	353979
624.111	354265
624.176	361102
624.240	361968
624.304	374393
624.368	367460
624.432	360286
624.496	365568
624.560	384560
624.625	396348
624.689	388148
624.753	405102
624.817	396607
624.881	378655
624.945	355303
625.009	333428
625.073	339032
625.137	346961
625.201	361172
625.265	369416
625.329	353937
625.393	353348
625.456	355476
625.520	365659
625.584	371047
625.648	383776
625.712	388843
625.776	393809
625.839	373793
625.903	332090
625.967	293117
626.031	305321
626.095	353217
626.158	361291
626.222	287778
626.286	255170
626.349	246792
626.413	233728
626.477	225344
626.540	228009
626.604	230131
626.668	223815
626.731	222125
626.795	223293
626.858	222565
626.922	221665
626.986	216054
627.049	218367
627.113	226973
627.176	221907
627.240	214234
627.303	213060
627.366	212131
627.430	214701
627.493	214168
627.557	207213
627.620	208418
627.684	219428
627.747	222566
627.810	211847
627.874	186753
627.937	178758
628.000	183536
628.064	182820
628.127	166101
628.190	159025
628.253	152751
628.317	151039
628.380	141532
628.443	136899
628.506	135917
628.569	132752
628.632	124722
628.696	124224
628.759	124097
628.822	120042
628.885	115959
628.948	115333
629.011	112726
629.074	111267
629.137	108156
629.200	104418
629.263	103330
629.326	101719
629.389	102230
629.452	100918
629.515	98760
629.578	98732
629.641	98406
629.704	100633
629.767	98368
629.830	96281
629.892	94869
629.955	93371
630.018	94652
630.081	95478
630.144	95462
630.207	93493
630.269	92264
630.332	90429
630.395	89515
630.458	89585
630.520	84740
630.583	85729
630.646	87250
630.708	88620
630.771	90641
630.834	94769
630.896	92642
630.959	93629
631.021	90573
631.084	90154
631.146	90643
631.209	91618
631.272	91091
631.334	93580
631.397	94904
631.459	95382
631.522	98352
631.584	101792
631.646	106697
631.709	112294
631.771	111791
631.834	108718
631.896	103790
631.958	99069
632.021	95668
632.083	91755
632.145	89997
632.208	88568
632.270	87357
632.332	87139
632.395	86681
632.457	88527
632.519	85913
632.581	84648
632.643	84280
632.706	86972
632.768	83239
632.830	83776
632.892	85693
632.954	87749
633.016	88518
633.078	87635
633.141	87134
633.203	87002
633.265	87011
633.327	85201
633.389	85771
633.451	88940
633.513	86251
633.575	89923
633.637	89011
633.698	91381
633.760	92682
633.822	98385
633.884	98891
633.946	101782
634.008	104586
634.070	108576
634.132	112560
634.193	119807
634.255	129186
634.317	134371
634.379	131719
634.441	121657
634.502	112672
634.564	103253
634.626	95509
634.687	90878
634.749	85714
634.811	85418
634.873	85249
634.934	85353
634.996	85620
635.057	85589
635.119	85796
635.181	89521
635.242	88099
635.304	86931
635.365	90720
635.427	88052
635.488	88105
635.550	88690
635.611	87749
635.673	88696
635.734	94059
635.796	97574
635.857	106080
635.918	113599
635.980	121347
636.041	130303
636.102	138980
636.164	140022
636.225	137388
636.286	122900
636.348	110591
636.409	99619
636.470	92138
636.531	87680
636.593	86291
636.654	83330
636.715	79916
636.776	79730
636.838	77573
636.899	74943
636.960	73264
637.021	74130
637.082	71620
637.143	71614
637.204	68429
637.265	69183
637.326	70320
637.387	70986
637.448	71494
637.509	71102
637.570	71304
637.631	69841
637.692	67424
637.753	66658
637.814	65805
637.875	65942
637.936	65051
637.997	64461
638.058	63441
638.119	65300
638.179	65762
638.240	65270
638.301	65403
638.362	63328
638.423	61066
638.483	60981
638.544	60366
638.605	60462
638.666	60047
638.726	62172
638.787	59740
638.848	60079
638.908	59299
638.969	58160
639.030	55605
639.090	57547
639.151	56837
639.211	58803
639.272	60166
639.332	60415
639.393	59912
639.453	62142
639.514	66594
639.574	61218
639.635	55642
639.695	55435
639.756	53083
639.816	54345
639.877	52161
639.937	53265
639.997	55007
640.058	53453
640.118	53639
640.178	54027
640.239	53838
640.299	54147
640.359	56455
640.420	58791
640.480	62342
640.540	71183
640.600	74840
640.661	68061
640.721	62452
640.781	64065
640.841	57458
640.901	56261
640.961	55327
641.021	55742
641.082	60526
641.142	59174
641.202	54149
641.262	51271
641.322	51341
641.382	51621
641.442	49527
641.502	50391
641.562	51750
641.622	52449
641.682	55081
641.742	61528
641.802	63296
641.861	53951
641.921	48894
641.981	49172
642.041	46712
642.101	46120
642.161	46388
642.221	46908
642.280	46943
642.340	47693
642.400	48076
642.460	48970
642.519	50114
642.579	49716
642.639	49576
642.698	48485
642.758	52945
642.818	50561
642.877	50960
642.937	50917
642.997	49941
643.056	51449
643.116	48800
643.175	51839
643.235	52941
643.294	55161
643.354	58574
643.414	62903
643.473	70239
643.532	83835
643.592	105498
643.651	146794
643.711	217751
643.770	356960
643.830	677816
643.889	1407999
643.948	900077
644.008	224826
644.067	115524
644.126	83784
644.186	69972
644.245	62061
644.304	55467
644.363	55598
644.423	53216
644.482	53257
644.541	55431
644.600	58524
644.659	69696
644.719	84389
644.778	111153
644.837	165012
644.896	282630
644.955	649610
645.014	472587
645.073	109555
645.132	71769
645.191	62425
645.250	59996
645.309	62057
645.368	65306
645.427	79466
645.486	113047
645.545	238370
645.604	128680
645.663	56479
645.722	52916
645.781	58293
645.840	63562
645.898	76217
645.957	96492
646.016	133233
646.075	203324
646.134	334995
646.192	678598
646.251	1270154
646.310	550638
646.369	150350
646.427	98912
646.486	82767
646.545	60004
646.603	55003
646.662	50282
646.721	47319
646.779	48297
646.838	52147
646.896	60173
646.955	76309
647.014	104579
647.072	170940
647.131	424152
647.189	438216
647.248	84226
647.306	49260
647.365	43086
647.423	39260
647.481	39504
647.540	37289
647.598	37544
647.657	37149
647.715	37009
647.773	35714
647.832	35263
647.890	31620
647.948	32236
648.007	31580
648.065	29593
648.123	30180
648.181	31305
648.240	30033
648.298	29089
648.356	29942
648.414	29238
648.472	29710
648.531	28627
648.589	28003
648.647	27801
648.705	29947
648.763	28853
648.821	30438
648.879	32243
648.937	36638
648.995	42275
649.053	53673
649.111	71585
649.169	103228
649.227	159817
649.285	287334
649.343	713650
649.401	739413
649.459	149078
649.516	63509
649.574	47446
649.632	47304
649.690	52864
649.748	60524
649.806	78826
649.863	129524
649.921	295280
649.979	402585
650.037	82099
650.094	36334
650.152	28889
650.210	27412
650.268	26434
650.325	25123
650.383	23714
650.440	21678
650.498	21723
650.556	21488
650.613	20791
650.671	22241
650.728	22277
650.786	23300
650.843	30336
650.901	31911
650.958	20626
651.016	20411
651.073	18581
651.131	19219
651.188	16669
651.246	18652
651.303	17538
651.360	18245
651.418	17557
651.475	17824
651.532	17409
651.590	18249
651.647	16595
651.704	17921
651.762	17311
651.819	16905
651.876	16296
651.933	16479
651.990	16716
652.048	16130
652.105	14582
652.162	15791
652.219	16213
652.276	15986
652.333	15811
652.390	14390
652.448	14321
652.505	15570
652.562	15114
652.619	15245
652.676	15654
652.733	16565
652.790	14263
652.847	14199
652.904	14542
652.961	13175
653.017	13295
653.074	15139
653.131	13778
653.188	13763
653.245	13600
653.302	14561
653.359	13960
653.415	15522
653.472	13928
653.529	13649
653.586	13207
653.642	14488
653.699	14092
653.756	13816
653.813	13305
653.869	15515
653.926	14567
653.983	14558
654.039	13975
654.096	13540
654.152	14310
654.209	12111
654.266	13401
654.322	12240
654.379	12762
654.435	14095
654.492	13682
654.548	13298
654.605	12808
654.661	14375
654.717	13420
654.774	13788
654.830	13933
654.887	14129
654.943	12674
655.000	13454
655.056	13432
655.112	13442
655.168	12776
655.225	13838
655.281	14031
655.337	13456
655.394	14563
655.450	12907
655.506	12408
655.562	12611
655.618	13560
655.675	12183
655.731	12831
655.787	12393
655.843	12476
655.899	12114
655.955	13143
656.011	13369
656.067	11124
656.123	13506
656.179	13055
656.235	13731
656.291	12536
656.347	14947
656.403	13471
656.459	12319
656.515	12600
656.571	12569
656.627	11880
656.683	11867
656.739	12863
656.795	12265
656.850	13020
656.906	13678
656.962	13789
657.018	15194
657.074	17762
657.129	22088
657.185	30447
657.241	62564
657.297	72275
657.352	19172
657.408	12887
657.464	13744
657.519	11299
657.575	11183
657.630	10941
657.686	12432
657.742	10236
657.797	10857
657.853	10790
657.908	12982
657.964	10475
658.019	10962
658.075	11002
658.130	11818
658.186	10179
658.241	11417
658.297	9869
658.352	10522
658.407	10652
658.463	10609
658.518	10424
658.573	11062
658.629	9938
658.684	10846
658.739	10808
658.795	9811
658.850	10144
658.905	10198
658.960	10568
659.016	9223
659.071	10175
659.126	10499
659.181	9801
659.236	10231
659.291	10441
659.346	9796
659.401	10484
659.457	10250
659.512	10452
659.567	11662
659.622	9232
659.677	10207
659.732	8769
659.787	9907
659.842	8620
659.897	10313
659.952	9493
660.007	9680
660.061	8959
660.116	9133
660.171	8936
660.226	9700
660.281	10500
660.336	9000
660.391	10153
660.445	8897
660.500	9161
660.555	9116
660.610	8342
660.664	10176
660.719	9293
660.774	9209
660.828	9201
660.883	9926
660.938	8570
660.992	8900
661.047	9466
661.101	9013
661.156	8993
661.211	8507
661.265	8167
661.320	8505
661.374	9057
661.429	8736
661.483	8970
661.538	9529
661.592	8190
661.647	9394
661.701	9080
661.755	9720
661.810	8596
661.864	8528
661.919	8008
661.973	9198
662.027	8952
662.081	8818
662.136	8400
662.190	9086
662.244	9157
662.299	8948
662.353	8800
662.407	9680
662.461	7933
662.515	9521
662.569	7349
662.624	8770
662.678	8362
662.732	8447
662.786	8163
662.840	8999
662.894	9002
662.948	8073
663.002	9319
663.056	8641
663.110	8217
663.164	8903
663.218	8879
663.272	8949
663.326	8543
663.380	9127
663.434	8568
663.488	8539
663.542	8509
663.595	8904
663.649	9030
663.703	9782
663.757	8184
663.811	7824
663.864	8662
663.918	9221
663.972	8412
664.026	8612
664.079	8506
664.133	9331
664.187	8877
664.240	9022
664.294	8325
664.348	9351
664.401	7983
664.455	9551
664.508	7923
664.562	9357
664.615	8946
664.669	8449
664.722	7965
664.776	8505
664.829	7598
664.883	8544
664.936	8217
664.990	8991
665.043	9015
665.097	8852
665.150	8205
665.203	9117
665.257	9182
665.310	9642
665.363	9552
665.417	9699
665.470	8947
665.523	9549
665.576	9480
665.630	9667
665.683	9143
665.736	9769
665.789	9706
665.842	9369
665.895	9069
665.949	9696
666.002	8972
666.055	9880
666.108	10187
666.161	10180
666.214	9180
666.267	9596
666.320	9877
666.373	10487
666.426	9413
666.479	10522
666.532	10686
666.585	10462
666.638	11346
666.691	9720
666.744	11532
666.796	9201
666.849	10519
666.902	10372
666.955	9860
667.008	9933
667.060	9717
667.113	9913
667.166	10780
667.219	11264
667.271	11110
667.324	11761
667.377	9947
667.430	10900
667.482	9858
667.535	10584
667.587	10150
667.640	10412
667.693	9768
667.745	9840
667.798	10933
667.850	10453
667.903	9461
667.955	10904
668.008	10666
668.060	11561
668.113	9680
668.165	10271
668.218	9306
668.270	10492
668.322	8688
668.375	10382
668.427	9798
668.479	9168
668.532	10092
668.584	10795
668.636	8542
668.689	9536
668.741	8949
668.793	9899
668.845	9805
668.898	10773
668.950	9548
669.002	10692
669.054	10070
669.106	9114
669.158	10478
669.211	9549
669.263	9549
669.315	10794
669.367	10030
669.419	8903
669.471	9590
669.523	9479
669.575	11067
669.627	10003
669.679	8999
669.731	9360
669.783	9517
669.835	9603
669.886	9389
669.938	9600
669.990	9366
670.042	8873
670.094	9178
670.146	9838
670.197	10598
670.249	11469
670.301	11539
670.353	14660
670.404	16668
670.456	20721
670.508	26746
670.560	38327
670.611	55805
670.663	84264
670.715	153713
670.766	349982
670.818	225209
670.869	43144
670.921	19039
670.972	18049
671.024	14644
671.075	12252
671.127	12824
671.178	12007
671.230	14199
671.281	15697
671.333	15966
671.384	20116
671.436	24568
671.487	32771
671.538	45284
671.590	63157
671.641	92435
671.692	149564
671.744	281379
671.795	338055
671.846	164719
671.897	70532
671.949	41620
672.000	29698
672.051	21154
672.102	17585
672.153	15347
672.204	14310
672.256	11674
672.307	12742
672.358	11236
672.409	11326
672.460	8986
672.511	10202
672.562	8830
672.613	8602
672.664	7853
672.715	8386
672.766	8719
672.817	7691
672.868	7367
672.919	7809
672.970	7232
673.021	7750
673.071	7006
673.122	8256
673.173	6769
673.224	7376
673.275	7034
673.326	7963
673.376	7196
673.427	6710
673.478	6129
673.528	7517
673.579	8109
673.630	7601
673.680	7465
673.731	7797
673.782	7618
673.832	7313
673.883	7492
673.934	6769
673.984	7226
674.035	6803
674.085	7322
674.136	7488
674.186	7154
674.237	8593
674.287	7764
674.338	7843
674.388	7817
674.438	8581
674.489	8071
674.539	7915
674.589	9345
674.640	8970
674.690	8236
674.740	7545
674.791	8355
674.841	7735
674.891	7784
674.942	6609
674.992	5994
675.042	5902
675.092	6304
675.142	5974
675.193	6066
675.243	6415
675.293	6644
675.343	6560
675.393	6389
675.443	6854
675.493	6447
675.543	7306
675.593	6191
675.643	6927
675.693	6339
675.743	6804
675.793	6034
675.843	5277
675.893	5758
675.943	5798
675.993	5272
676.043	5645
676.093	5684
676.142	5511
676.192	5366
676.242	6019
676.292	5961
676.341	5696
676.391	5255
676.441	5361
676.491	4703
676.540	5435
676.590	5240
676.640	5008
676.689	5198
676.739	4839
676.789	4734
676.838	4766
676.888	5478
676.937	4841
676.987	4965
677.037	5297
677.086	4222
677.136	5312
677.185	4063
677.235	4852
677.284	5166
677.333	4754
677.383	5061
677.432	4781
677.482	4219
677.531	4921
677.580	4044
677.630	4593
677.679	4652
677.728	4592
677.778	4814
677.827	4914
677.876	4199
677.925	4969
677.975	5100
678.024	5276
678.073	5602
678.122	5388
678.171	5588
678.220	6330
678.269	7057
678.319	7539
678.368	7717
678.417	8292
678.466	6112
678.515	4854
678.564	4492
678.613	4443
678.662	4324
678.711	4247
678.760	4508
678.809	4745
678.857	4582
678.906	5089
678.955	5120
679.004	4792
679.053	4169
679.102	4178
679.151	4442
679.199	5095
679.248	3467
679.297	4725
679.346	3890
679.394	4012
679.443	3138
679.492	4430
679.540	4084
679.589	4332
679.638	4601
679.686	5172
679.735	4999
679.784	6256
679.832	6974
679.881	6394
679.929	5362
679.978	4952
680.026	4054
680.075	4691
680.123	3651
680.172	3663
680.220	3891
680.268	4477
680.317	3296
680.365	3814
680.414	3334
680.462	4644
680.510	4362
680.559	4149
680.607	3367
680.655	4085
680.703	3822
680.752	4271
680.800	4854
680.848	3784
680.896	3507
680.945	3022
680.993	3481
681.041	3081
681.089	3467
681.137	3300
681.185	2442
681.233	2932
681.258	3313
681.281	3661
681.329	3747
681.377	2798
681.380	2855
681.425	3633
681.473	4079
681.502	4330
681.521	4482
681.569	4394
681.617	4710
681.624	4624
681.665	3974
681.713	4769
681.745	4363
681.761	4151
681.809	4628
681.857	3817
681.867	4030
681.904	4703
681.952	4197
681.989	3716
682.000	3556
682.048	3897
682.096	4811
682.111	4594
682.143	4075
682.191	3964
682.233	4211
682.239	4240
682.286	4759
682.334	3919
682.354	3983
682.382	4022
682.430	4620
682.476	5194
682.477	5195
682.525	3603
682.572	4511
682.598	4257
682.620	4016
682.667	4307
682.715	4730
682.720	4740
682.763	4690
682.810	3493
682.841	4080
682.857	4364
682.905	3837
682.952	4470
682.963	4376
683.000	3999
683.047	4142
683.085	4870
683.095	5067
683.142	4821
683.190	4467
683.206	4582
683.237	4715
683.284	4445
683.328	4792
683.332	4806
683.379	4710
683.426	3840
683.449	3968
683.473	4151
683.521	5170
683.568	4622
683.571	4640
683.615	4680
683.662	4665
683.693	4918
683.709	5018
683.757	4516
683.804	4685
683.814	4572
683.851	4165
683.898	4664
683.936	4763
683.945	4798
683.992	4912
684.039	4608
684.057	4780
684.086	4944
684.133	4647
684.179	5158
684.180	5167
684.227	4521
684.274	4654
684.300	4987
684.321	5223
684.368	4487
684.415	5131
684.422	5086
684.462	4912
684.509	4525
684.543	5079
684.556	5220
684.603	5463
684.649	5443
684.665	5543
684.696	5795
684.743	5264
684.786	5591
684.790	5605
684.837	5700
684.883	4732
684.908	4889
684.930	5016
684.977	5365
685.023	5826
685.029	5771
685.070	5317
685.117	4834
685.150	5077
685.164	5165
685.210	5299
685.257	5291
685.272	5531
685.303	6125
685.350	6418
685.393	6756
685.396	6744
685.443	5390
685.490	5542
685.514	4856
685.536	4439
685.583	5699
685.629	4881
685.636	4964
685.675	5280
685.722	5379
685.757	5508
685.768	5560
685.815	5338
685.861	5577
685.878	5393
685.908	5091
685.954	6047
686.000	5711
686.000	5701
686.047	5375
686.093	6181
686.121	6062
686.139	6023
686.185	6515
686.232	6366
686.242	6423
686.278	6470
686.324	6427
686.363	5892
686.370	5802
686.416	6367
686.463	6186
686.484	6243
686.509	6299
686.555	5808
686.601	5971
686.606	5993
686.647	6109
686.693	6303
686.727	5701
686.739	5518
686.785	6306
686.831	6101
686.848	6177
686.877	6186
686.923	5577
686.969	5818
686.969	5820
687.015	6030
687.061	6594
687.090	6832
687.107	6938
687.153	7561
687.199	6714
687.211	6848
687.245	6925
687.291	6562
687.332	6319
687.336	6332
687.382	6615
687.428	7042
687.453	6889
687.474	6672
687.520	6772
687.565	6496
687.574	6554
687.611	7014
687.657	7064
687.695	7846
687.702	7960
687.748	7063
687.794	7723
687.816	7606
687.839	7464
687.885	7364
687.931	7387
687.937	7392
687.976	7328
688.022	7188
688.058	7169
688.067	7176
688.113	6910
688.158	6781
688.179	6647
688.204	6639
688.249	7162
688.295	6780
688.300	6829
688.340	7186
688.386	7546
688.421	7610
688.431	7581
688.477	7266
688.522	7091
688.542	7285
688.567	7713
688.613	8137
688.658	7704
688.663	7736
688.703	7795
688.749	7666
688.784	7787
688.794	7840
688.839	7607
688.884	8109
688.905	7930
688.930	7686
688.975	7640
689.020	7407
689.026	7415
689.065	7477
689.110	7169
689.146	7395
689.155	7515
689.201	7510
689.246	7736
689.267	7956
689.291	8018
689.336	8282
689.381	7401
689.388	7404
689.426	7670
689.471	7273
689.509	7530
689.516	7596
689.561	7870
689.606	8044
689.630	8198
689.651	8252
689.696	7699
689.741	7761
689.750	7816
689.785	8112
689.830	7818
689.871	8243
689.875	8291
689.920	8034
689.965	8269
689.992	7864
690.010	7566
690.054	7934
690.099	7572
690.112	7633
690.144	7976
690.189	7982
690.233	8048
690.233	8056
690.278	7767
690.323	8315
690.354	7911
690.367	7861
690.412	8955
690.457	8630
690.474	9034
690.501	9339
690.546	8407
690.590	8470
690.595	8398
690.635	7987
690.680	7962
690.716	7911
690.724	8000
690.769	8406
690.813	9003
690.836	9279
690.857	9670
690.902	10324
690.946	11179
690.957	11469
690.991	13627
691.035	16209
691.077	19573
691.080	19691
691.124	20006
691.168	19074
691.198	18728
691.213	17495
691.257	14462
691.301	11592
691.318	10532
691.346	10284
691.390	9529
691.434	8761
691.439	8708
691.478	8606
691.522	8252
691.559	8096
691.567	8239
691.611	8653
691.655	9054
691.680	9339
691.699	9187
691.743	9363
691.787	8993
691.800	8887
691.831	8792
691.875	8718
691.919	8753
691.921	8727
691.964	8503
692.008	8980
692.041	8714
692.052	8660
692.096	8924
692.139	8926
692.162	9035
692.183	9111
692.227	9091
692.271	9167
692.282	9099
692.315	8730
692.359	8474
692.402	8338
692.403	8355
692.447	8319
692.490	8089
692.523	8683
692.534	8857
692.578	8843
692.622	8966
692.643	8862
692.666	8826
692.709	8784
692.753	8873
692.763	8975
692.797	9416
692.840	9183
692.884	9192
692.884	9206
692.928	9033
692.971	8780
693.004	8558
693.015	8606
693.059	8994
693.102	8791
693.124	8923
693.146	9039
693.189	9081
693.233	8990
693.245	8978
693.276	8993
693.320	9361
693.363	9178
693.365	9164
693.407	9398
693.450	9630
693.485	9821
693.493	9952
693.537	10488
693.580	10920
693.605	11275
693.624	11986
693.667	13765
693.710	15075
693.725	15791
693.753	19918
693.797	26229
693.840	33489
693.845	34168
693.883	34975
693.926	34203
693.966	33998
693.970	33295
694.013	26095
694.056	18658
694.086	13832
694.099	13590
694.142	12240
694.185	11497
694.206	10949
694.229	10801
694.272	10531
694.315	10574
694.326	10496
694.358	10559
694.401	10334
694.444	10451
694.446	10427
694.487	10157
694.530	10039
694.566	9642
694.573	9627
694.616	9872
694.659	9821
694.686	9902
694.702	9992
694.745	9732
694.787	10250
694.806	10143
694.830	10151
694.873	10465
694.916	10576
694.926	10584
694.959	10449
695.002	10293
695.044	10475
695.046	10451
695.087	10892
695.130	11269
695.166	11437
695.172	11406
695.215	11290
695.258	10967
695.286	10997
695.301	11293
695.343	11652
695.386	12327
695.406	12393
695.428	12452
695.471	12935
695.514	13415
695.526	13571
695.556	14836
695.599	16497
695.641	17993
695.646	18103
695.684	17419
695.726	16756
695.766	16039
695.769	16010
695.811	15206
695.854	14422
695.886	13750
695.896	13884
695.938	14274
695.981	14847
696.005	15030
696.023	15204
696.065	15767
696.108	16227
696.125	16381
696.150	17028
696.192	18079
696.235	19236
696.245	19414
696.277	19360
696.319	19342
696.361	19397
696.365	19363
696.404	19112
696.446	18608
696.485	18296
696.488	18342
696.530	18276
696.572	18261
696.604	18317
696.614	18304
696.656	17997
696.698	17673
696.724	17425
696.740	17569
696.783	17743
696.825	18130
696.844	18195
696.867	18299
696.909	18564
696.951	18640
696.964	18670
696.992	18842
697.034	18948
697.076	19146
697.083	19126
697.118	19602
697.160	20287
697.202	20639
697.203	20609
697.244	20945
697.286	21201
697.323	21372
697.327	21403
697.369	21234
697.411	21090
697.442	20963
697.453	20940
697.494	20581
697.536	20205
697.562	19967
697.578	20092
697.620	20269
697.661	20461
697.682	20515
697.703	20998
697.744	21955
697.786	22785
697.801	23051
697.828	23202
697.869	23296
697.911	23506
697.921	23477
697.952	23102
697.994	22601
698.035	22053
698.040	21939
698.077	22219
698.118	22526
698.160	22785
698.160	22735
698.201	23156
698.243	23540
698.279	23775
698.284	23919
698.325	24828
698.367	25673
698.399	26300
698.408	26437
698.449	26743
698.491	27142
698.518	27311
698.532	27379
698.573	27395
698.614	27413
698.638	27376
698.656	27422
698.697	27369
698.738	27322
698.757	27222
698.779	27258
698.820	27243
698.862	27220
698.877	27145
698.903	27291
698.944	27437
698.985	27584
698.996	27561
699.026	27445
699.067	27202
699.116	26849
699.235	27040
699.354	26209
699.474	25750
699.593	24364
699.713	25511
699.832	24097
699.951	26261
700.070	26528
700.190	24082
700.309	23328
700.428	22120
700.547	23603
700.667	22165
700.786	22157
700.905	21635
701.024	22364
701.143	22786
701.262	22610
701.381	24104
701.500	24055
701.619	23738
701.738	23116
701.857	22829
701.976	22466
702.095	22188
702.214	24116
702.333	22261
702.452	23443
702.571	22694
702.690	23967
702.809	23764
702.928	22233
703.047	21637
703.165	20763
703.284	23362
703.403	20201
703.522	20905
703.640	20551
703.759	20304
703.878	19805
703.997	19367
704.115	21663
704.234	20281
704.353	22152
704.471	19507
704.590	18966
704.708	18899
704.827	18381
704.946	18914
705.064	18407
705.183	18431
705.301	18492
705.420	18416
705.538	17639
705.656	17761
705.775	16473
705.893	17950
706.012	19666
706.130	16887
706.249	17527
706.367	17546
706.485	17732
706.604	16929
706.722	16799
706.840	17397
706.958	18601
707.077	16713
707.195	16507
707.313	16662
707.431	15116
707.549	15891
707.668	13852
707.786	17467
707.904	15382
708.022	15908
708.140	15996
708.258	14166
708.376	16465
708.494	13670
708.612	15793
708.730	16513
708.848	15029
708.966	15111
709.084	15787
709.202	15751
709.320	14003
709.438	14026
709.556	14672
709.674	13453
709.791	13676
709.909	13874
710.027	13025
710.145	13523
710.263	13648
710.380	13078
710.498	13831
710.616	12739
710.733	13165
710.851	12607
710.969	13067
711.086	11929
711.204	12343
711.322	13115
711.439	12891
711.557	11563
711.674	12480
711.792	13055
711.909	11466
712.027	12354
712.144	12067
712.262	12167
712.379	12804
712.497	12281
712.614	12192
712.732	12316
712.849	12104
712.966	11672
713.084	13230
713.201	12200
713.318	12077
713.436	14183
713.553	12156
713.670	13715
713.787	14800
713.905	13105
714.022	14366
714.139	15381
714.256	18143
714.373	25817
714.490	50191
714.608	120297
714.725	487508
714.842	838798
714.959	115198
715.076	28969
715.193	20497
715.310	18877
715.427	14333
715.544	13233
715.661	13532
715.778	12299
715.895	11961
716.011	12140
716.128	12802
716.245	12481
716.362	10885
716.479	9888
716.596	10295
716.713	10216
716.829	9576
716.946	9254
717.063	10164
717.180	8949
717.296	9051
717.413	8810
717.530	9261
717.646	8626
717.763	9135
717.880	9314
717.996	8680
718.113	9521
718.229	8541
718.346	8399
718.462	8030
718.579	8295
718.695	10229
718.812	8691
718.928	8735
719.045	8945
719.161	9022
719.277	9162
719.394	9296
719.510	8654
719.626	10182
719.743	14644
719.859	22871
719.975	48313
720.092	172956
720.208	558816
720.324	142315
720.440	19618
720.557	13188
720.673	12293
720.789	10529
720.905	10064
721.021	9991
721.137	8061
721.253	7532
721.369	7402
721.486	8792
721.602	7799
721.718	7175
721.834	7242
721.950	6647
722.066	7317
722.181	7780
722.297	7473
722.413	6803
722.529	7150
722.645	6878
722.761	6984
722.877	7974
722.993	7681
723.108	12576
723.224	10923
723.340	8671
723.456	6163
723.571	6624
723.687	6513
723.803	6792
723.918	6962
724.034	5841
724.150	6598
724.265	6195
724.381	6731
724.497	7258
724.612	6975
724.728	7328
724.843	5959
724.959	6276
725.074	7475
725.190	7281
725.305	6266
725.421	6916
725.536	6746
725.651	6940
725.767	6594
725.882	6324
725.997	6310
726.113	6741
726.228	5973
726.343	6401
726.459	6113
726.574	6758
726.689	5833
726.804	5695
726.920	6145
727.035	5878
727.150	6089
727.265	6023
727.380	6816
727.495	7439
727.610	5800
727.725	5922
727.841	5727
727.956	7629
728.071	7062
728.186	5858
728.301	5727
728.416	6776
728.531	5923
728.645	6307
728.760	5292
728.875	5943
728.990	5877
729.105	5457
729.220	6333
729.335	6476
729.449	5918
729.564	6303
729.679	5547
729.794	6122
729.908	6643
730.023	6192
730.138	6012
730.253	6544
730.367	5799
730.482	6477
730.596	6943
730.711	7435
730.826	11229
730.940	10694
731.055	9690
731.169	9020
731.284	9463
731.398	9904
731.513	10373
731.627	11085
731.742	13335
731.856	18835
731.970	18094
732.085	22898
732.199	33348
732.313	57886
732.428	139477
732.542	443413
732.656	421381
732.771	76821
732.885	34564
732.999	26953
733.113	28052
733.227	26896
733.342	25937
733.456	24601
733.570	23768
733.684	22677
733.798	21740
733.912	21668
734.026	22062
734.140	20358
734.254	21600
734.368	19986
734.482	20180
734.596	20279
734.710	20540
734.824	19854
734.938	18674
735.052	20527
735.166	18874
735.280	19360
735.393	18390
735.507	18568
735.621	19462
735.735	18266
735.849	18957
735.962	17361
736.076	17587
736.190	18010
736.303	16876
736.417	19168
736.531	16022
736.644	17542
736.758	16239
736.872	17150
736.985	15995
737.099	17635
737.212	16091
737.326	16382
737.439	16128
737.553	15975
737.666	15841
737.780	14822
737.893	17030
738.007	14942
738.120	16297
738.233	13636
738.347	16534
738.460	12841
738.573	16000
738.687	14177
738.800	14298
738.913	15201
739.026	15699
739.140	14252
739.253	15380
739.366	13600
739.479	13570
739.592	14924
739.705	12790
739.818	15669
739.932	13952
740.045	13380
740.158	14422
740.271	13544
740.384	14842
740.497	11169
740.610	13560
740.723	13016
740.836	13205
740.949	12602
741.062	14165
741.174	12635
741.287	11852
741.400	13727
741.513	10841
741.626	13818
741.739	13412
741.851	12209
741.964	12765
742.077	11796
742.189	10887
742.302	11893
742.415	12509
742.527	12098
742.640	12594
742.753	10314
742.865	11069
742.978	12351
743.090	11019
743.203	12036
743.316	10403
743.428	10322
743.541	11776
743.653	9702
743.766	10769
743.878	11846
743.990	9457
744.103	11480
744.215	10276
744.327	9224
744.440	12016
744.552	10946
744.664	9667
744.777	11022
744.889	11476
745.001	9887
745.113	11310
745.226	11563
745.338	8386
745.450	11263
745.562	11032
745.674	9163
745.786	12011
745.898	11093
746.010	8963
746.122	10127
746.234	11444
746.347	10298
746.459	11156
746.570	8263
746.682	9901
746.794	11793
746.906	8999
747.018	8576
747.130	9576
747.242	8032
747.354	8449
747.466	9968
747.577	8797
747.689	9369
747.801	9120
747.913	8439
748.024	8154
748.136	8811
748.248	8073
748.359	7777
748.471	9601
748.583	8758
748.694	7442
748.806	8801
748.918	8300
749.029	7933
749.141	8544
749.252	9245
749.364	7445
749.475	8367
749.587	7704
749.698	7091
749.809	7734
749.921	8122
750.032	7738
750.144	7222
750.255	7165
750.366	8424
750.478	7008
750.589	7097
750.700	7199
750.811	8477
750.923	7285
751.034	6159
751.145	8432
751.256	7518
751.367	6567
751.479	7759
751.590	6672
751.701	7259
751.812	6101
751.923	6139
752.034	7806
752.145	8148
752.256	8486
752.367	7182
752.478	7492
752.589	7322
752.700	7530
752.811	6452
752.922	7071
753.032	7478
753.143	7764
753.254	7249
753.365	7493
753.476	8066
753.586	7320
753.697	6797
753.808	6941
753.919	6553
754.029	7001
754.140	6402
754.251	6429
754.361	6755
754.472	7298
754.582	5753
754.693	6378
754.804	7516
754.914	6895
755.025	5716
755.135	6435
755.246	7792
755.356	6556
755.466	5354
755.577	6447
755.687	7152
755.798	5760
755.908	6376
756.018	6210
756.129	7068
756.239	6972
756.349	7065
756.460	6931
756.570	8405
756.680	6439
756.790	6862
756.900	6617
757.011	6448
757.121	6000
757.231	5834
757.341	6659
757.451	6030
757.561	5506
757.671	6701
757.781	7523
757.891	6709
758.001	5870
758.111	6166
758.221	7553
758.331	8737
758.441	7401
758.551	6940
758.661	8149
758.771	7391
758.880	7230
758.990	7507
759.100	6669
759.210	6221
759.320	7333
759.429	8213
759.539	7745
759.649	8895
759.758	9900
759.868	10422
759.978	10033
760.087	11636
760.197	11140
760.307	10581
760.416	9988
760.526	9029
760.635	10047
760.745	11101
760.854	11300
760.964	14051
761.073	13435
761.182	12978
761.292	11825
761.401	9630
761.511	8157
761.620	7717
761.729	8135
761.839	7346
761.948	7903
762.057	8140
762.166	6858
762.276	7619
762.385	9317
762.494	7370
762.603	7407
762.712	7854
762.822	8055
762.931	7645
763.040	5917
763.149	7559
763.258	7676
763.367	8316
763.476	7573
763.585	7916
763.694	7981
763.803	8717
763.912	9132
764.021	9124
764.130	9076
764.238	10331
764.347	10667
764.456	10645
764.565	11645
764.674	11986
764.783	11876
764.891	13304
765.000	13943
765.109	15577
765.217	16788
765.326	20498
765.435	24260
765.543	28984
765.652	35390
765.761	43997
765.869	60361
765.978	90432
766.086	145278
766.195	251830
766.303	471531
766.412	688735
766.520	628182
766.629	543931
766.737	281252
766.846	157445
766.954	100495
767.062	72309
767.171	53350
767.279	42417
767.387	33396
767.496	28819
767.604	23781
767.712	22383
767.820	20046
767.928	18864
768.037	16571
768.145	15969
768.253	15164
768.361	14450
768.469	14192
768.577	14779
768.685	14900
768.793	16567
768.901	18233
769.009	19718
769.117	21968
769.225	28289
769.333	38725
769.441	59471
769.549	101368
769.657	200974
769.765	429330
769.873	599889
769.981	493869
770.088	236227
770.196	110484
770.304	67065
770.412	47213
770.519	35963
770.627	28985
770.735	23235
770.842	20548
770.950	18147
771.058	17633
771.165	17377
771.273	17105
771.380	17570
771.488	18730
771.595	23094
771.703	20034
771.810	18877
771.918	17560
772.025	18983
772.133	23598
772.240	21715
772.348	23764
772.455	23767
772.562	21086
772.670	20618
772.777	19937
772.884	19759
772.991	19069
773.099	20920
773.206	18560
773.313	19532
773.420	18599
773.528	18975
773.635	17413
773.742	18899
773.849	17522
773.956	18275
774.063	16995
774.170	17873
774.277	17079
774.384	16989
774.491	15726
774.598	17097
774.705	16740
774.812	16135
774.919	16192
775.026	16346
775.133	15413
775.239	16207
775.346	15546
775.453	15545
775.560	15794
775.667	14747
775.773	15446
775.880	14303
775.987	14508
776.093	13594
776.200	16512
776.307	12556
776.413	12607
776.520	15751
776.627	14931
776.733	12542
776.840	11242
776.946	16720
777.053	15686
777.159	13477
777.266	13606
777.372	13852
777.478	14369
777.585	14499
777.691	11667
777.798	13294
777.904	13232
778.010	10525
778.117	12116
778.223	12457
778.329	11628
778.435	10406
778.542	12446
778.648	12776
778.754	11330
778.860	11953
778.966	12706
779.072	11489
779.178	11926
779.284	10377
779.391	10041
779.497	13429
779.603	12519
779.708	11106
779.815	12673
779.920	21541
780.026	43130
780.132	18159
780.238	11514
780.344	9770
780.450	12239
780.556	10255
780.661	8156
780.767	12304
780.873	8284
780.979	8448
781.085	10973
781.190	9685
781.296	8917
781.402	9269
781.507	9922
781.613	7875
781.719	8355
781.824	11179
781.930	9415
782.035	9203
782.141	10969
782.246	7938
782.352	6617
782.457	8524
782.563	9786
782.668	9002
782.773	9009
782.879	6637
782.984	8323
783.090	8471
783.195	8470
783.300	10114
783.405	8184
783.511	6377
783.616	7858
783.721	8850
783.826	8428
783.932	6686
784.037	9391
784.142	8091
784.247	7655
784.352	9072
784.457	7031
784.562	7913
784.667	9297
784.772	6937
784.877	5737
784.982	8315
785.087	8852
785.192	6893
785.297	6302
785.402	7818
785.507	7758
785.611	7473
785.716	6166
785.821	6853
785.926	7625
786.031	6738
786.135	6128
786.240	7460
786.345	6478
786.450	6755
786.554	6368
786.659	5173
786.763	6317
786.868	7116
786.973	6936
787.077	6358
787.182	5731
787.286	5966
787.391	7772
787.495	6316
787.600	4266
787.704	5376
787.809	6812
787.913	5947
788.017	5803
788.122	7481
788.226	6115
788.330	4176
788.435	5534
788.539	7215
788.643	5649
788.747	4045
788.852	5575
788.956	6267
789.060	5605
789.164	6880
789.268	5038
789.372	6291
789.476	5370
789.580	4638
789.684	3473
789.788	5683
789.892	5201
789.996	4738
790.100	3441
790.204	4469
790.308	5666
790.412	5079
790.516	4043
790.620	3975
790.724	6208
790.828	6182
790.931	3808
791.035	4855
791.139	4541
791.242	5232
791.346	5089
791.450	4577
791.554	4704
791.657	2356
791.761	5097
791.864	5102
791.968	5699
792.072	5665
792.175	3710
792.279	5031
792.382	3847
792.486	3588
792.589	3059
792.693	5414
792.796	3889
792.899	4411
793.003	4454
793.106	3559
793.209	4918
793.313	3751
793.416	1994
793.519	3692
793.623	4543
793.726	5450
793.829	4651
793.932	2615
794.035	2141
794.138	4318
794.242	5578
794.345	3622
794.448	3249
794.551	4700
794.654	8849
794.757	19396
794.860	7243
794.963	3397
795.066	3256
795.169	3850
795.272	4473
795.375	4136
795.477	3330
795.580	2993
795.683	2324
795.786	3784
795.889	3495
795.991	3756
796.094	3298
796.197	3004
796.300	4206
796.402	5035
796.505	2858
796.608	2275
796.710	3010
796.813	4682
796.915	4018
797.018	3823
797.120	2698
797.223	3818
797.326	4349
797.428	3653
797.530	1913
797.633	2876
797.735	4413
797.838	3256
797.940	4721
798.042	3700
798.145	3141
798.247	3076
798.349	2037
798.452	3313
798.554	3263
798.656	3393
798.758	4819
798.860	3525
798.962	3070
799.065	1892
799.167	1766
799.269	2951
799.371	3617
799.473	5376
799.575	4789
799.677	3129
799.779	2524
799.881	2337
799.983	4037
800.085	3389
800.187	3332
800.289	1517
800.390	2808
800.492	3683
800.594	3750
800.696	2180
800.798	2098
800.899	2614
801.001	3485
801.103	2912
801.205	3024
801.306	2341
801.408	2800
801.509	2709
801.611	3240
801.713	3118
801.814	2063
801.916	1938
802.017	2229
802.119	1898
802.220	3431
802.322	1671
802.423	3156
802.525	2622
802.626	1228
802.727	2567
802.829	3422
802.930	900
803.031	3122
803.133	2702
803.234	2688
803.335	3028
803.436	2351
803.538	2670
803.639	2645
803.740	2263
803.841	3120
803.942	3370
804.043	2659
804.144	2384
804.245	2046
804.346	2301
804.447	2066
804.548	1774
804.649	3083
804.750	1805
804.851	1120
804.952	1787
805.053	1677
805.154	1608
805.255	2442
805.355	2142
805.456	1571
805.557	1966
805.658	1514
805.758	2962
805.859	1854
805.960	2230
806.061	2017
806.161	1639
806.262	1849
806.362	984
806.463	1315
806.564	3008
806.664	2647
806.765	2064
806.865	1517
806.966	1327
807.066	1273
807.166	2362
807.267	2229
807.367	978
807.468	2000
807.568	1053
807.668	1762
807.769	2270
807.869	2069
807.969	1295
808.069	1825
808.170	1828
808.270	1092
808.370	1837
808.470	2086
808.570	1135
808.670	1699
808.770	1927
808.870	1242
808.970	1783
809.070	1530
809.170	1596
809.271	1810
809.370	1631
809.470	1449
809.570	1335
809.670	707
809.770	1126
809.870	1633
809.970	1936
810.070	1577
810.169	2373
810.269	668
810.369	1621
810.469	1934
810.568	1574
810.668	1837
810.768	779
810.867	1459
810.967	681
811.066	1818
811.166	1034
811.265	1612
811.365	1208
811.464	1328
811.564	1991
811.663	1906
811.763	1131
811.862	1267
811.962	1783
812.061	1541
812.160	1833
812.260	1562
812.359	1326
812.458	787
812.557	2150
812.657	2142
812.756	2406
812.855	2367
812.954	2035
813.053	2232
813.153	1984
813.252	984
813.351	1317
813.450	1484
813.549	1944
813.648	1901
813.747	1019
813.846	2099
813.945	2499
814.044	2315
814.143	2313
814.242	2209
814.341	2088
814.439	2184
814.538	2103
814.637	1405
814.736	3636
814.835	3235
814.933	3083
815.032	2998
815.131	5133
815.229	8805
815.328	15453
815.427	11974
815.525	9667
815.624	9089
815.722	9458
815.821	9677
815.919	9757
816.018	9644
816.116	9930
816.215	9845
816.313	10084
816.412	12531
816.510	12489
816.609	13126
816.707	14538
816.805	13298
816.904	12346
817.002	13329
817.100	13228
817.198	13381
817.296	12676
817.395	11565
817.493	12381
817.591	11326
817.689	12282
817.787	10995
817.885	11408
817.983	10033
818.081	12012
818.179	12477
818.277	17295
818.375	15749
818.473	11618
818.571	10336
818.669	10102
818.767	12333
818.865	10261
818.963	9004
819.061	10456
819.158	10824
819.256	13012
819.354	14106
819.452	20881
819.549	19868
819.647	12804
819.745	10241
819.842	8631
819.940	10383
820.038	9142
820.135	8346
820.233	9859
820.330	9176
820.428	8480
820.525	9798
820.623	9223
820.720	7846
820.818	8587
820.915	9204
821.012	9029
821.110	7695
821.207	8505
821.304	8088
821.402	9002
821.499	8729
821.596	8049
821.693	7825
821.791	9358
821.888	7889
821.985	8823
822.082	8214
822.179	8171
822.276	8586
822.373	8260
822.470	6685
822.567	7784
822.664	6988
822.761	7579
822.858	8009
822.955	7921
823.052	6194
823.149	8171
823.246	8325
823.343	5975
823.440	6864
823.536	7211
823.633	8255
823.730	5959
823.827	7486
823.923	7269
824.020	6487
824.117	7354
824.213	8051
824.310	7616
824.407	6014
824.503	6640
824.600	6913
824.696	4936
824.793	7167
824.889	6850
824.986	7324
825.082	3859
825.179	5532
825.275	6476
825.371	8761
825.468	6333
825.564	3812
825.660	5858
825.757	9511
825.853	6753
825.949	4762
826.045	4870
826.142	5285
826.238	6796
826.334	6175
826.430	6565
826.526	4083
826.622	3563
826.718	6106
826.814	7620
826.910	6780
827.006	3141
827.102	3637
827.198	5732
827.294	6193
827.390	6528
827.486	5847
827.582	3555
827.678	3957
827.774	6483
827.869	5627
827.965	4497
828.061	3495
828.157	5973
828.252	6827
828.348	5932
828.444	4880
828.539	2966
828.635	5484
828.731	4762
828.826	4476
828.922	4173
829.017	5748
829.113	6865
829.208	4210
829.304	5052
829.399	6449
829.495	6333
829.590	4620
829.685	5136
829.781	5410
829.876	6116
829.971	3281
830.066	2692
830.162	3515
830.257	6444
830.352	4955
830.447	3687
830.543	3172
830.638	4589
830.733	5909
830.828	4356
830.923	4643
831.018	4485
831.113	4961
831.208	4629
831.303	2636
831.398	3084
831.493	3945
831.588	6465
831.683	4443
831.778	2955
831.873	2408
831.967	5074
832.062	5092
832.157	4494
832.252	3904
832.346	3671
832.441	4424
832.536	4646
832.631	4603
832.725	2840
832.820	3077
832.914	3642
833.009	2815
833.104	3334
833.198	2652
833.293	3382
833.387	3858
833.482	3969
833.576	3293
833.670	4013
833.765	3472
833.859	5044
833.954	4728
834.048	3185
834.142	4086
834.237	2036
834.331	3235
834.425	4659
834.519	3161
834.613	3450
834.708	2675
834.802	2362
834.896	3998
834.990	4225
835.084	2822
835.178	2065
835.272	2141
835.366	4305
835.460	4807
835.554	3529
835.648	2168
835.742	1735
835.836	2020
835.930	1663
836.024	4640
836.117	4357
836.211	3653
836.305	2432
836.399	2585
836.493	1605
836.586	3402
836.680	2275
836.774	2545
836.867	2379
836.961	1471
837.055	2744
837.148	2443
837.242	2781
837.335	2327
837.429	2515
837.522	2087
837.616	1908
837.709	2140
837.803	2496
837.896	2924
837.989	3609
838.083	2830
838.176	1371
838.269	609
838.363	2454
838.456	1593
838.549	2612
838.642	3495
838.735	2066
838.829	2535
838.922	2343
839.015	2163
839.108	1797
839.201	2285
839.294	2102
839.387	2578
839.480	1630
839.573	1571
839.666	1793
839.759	1856
839.852	1609
839.945	2423
840.038	1859
840.131	2217
840.223	1345
840.316	2525
840.409	2926
840.502	2735
840.594	3343
840.687	1414
840.780	915
840.873	1118
840.965	1466
841.058	1764
841.150	2250
841.243	1847
841.336	1095
841.428	1988
841.521	1889
841.613	2404
841.706	2517
841.798	1405
841.890	2040
841.983	883
842.075	957
842.167	1405
842.260	1270
842.352	2961
842.444	1349
842.537	1399
842.629	1148
842.721	731
842.813	1818
842.905	1352
842.997	2294
843.090	1574
843.182	1780
843.274	268
843.366	1717
843.458	1695
843.550	2976
843.642	1990
843.734	1761
843.826	1301
843.918	1020
844.009	1097
844.101	1328
844.193	936
844.285	1273
844.377	2849
844.469	1616
844.560	610
844.652	585
844.744	1153
844.835	1315
844.927	1597
845.019	1833
845.110	1249
845.202	1604
845.293	959
845.385	1067
845.476	1938
845.568	1952
845.659	764
845.751	1614
845.842	1156
845.934	1672
846.025	1083
846.116	2467
846.208	1483
846.299	1146
846.390	780
846.482	404
846.573	944
846.664	1554
846.755	828
846.846	1581
846.937	733
847.029	912
847.120	605
847.211	559
847.302	2475
847.393	1124
847.484	1755
847.575	545
847.666	-222
847.757	588
847.847	973
847.938	1362
848.029	1926
848.120	1505
848.211	560
848.302	781
848.392	1056
848.483	2109
848.574	1267
848.664	1626
848.755	1709
848.846	1289
848.936	1096
849.027	1584
849.118	957
849.208	2380
849.299	2996
849.389	4629
849.480	9519
849.570	18880
849.661	30039
849.751	60575
849.841	38815
849.932	8028
850.022	2337
850.112	2424
850.203	2145
850.293	1877
850.383	1598
850.474	711
850.564	1225
850.654	666
850.744	353
850.834	196
850.924	679
851.014	2055
851.104	969
851.194	1108
851.284	43
851.374	862
851.464	258
851.554	1382
851.644	601
851.734	1176
851.824	1494
851.914	697
852.004	1421
852.094	1131
852.183	878
852.273	872
852.363	1079
852.452	1380
852.542	1251
852.632	1056
852.721	807
852.811	1435
852.901	2098
852.990	2044
853.080	1726
853.169	1823
853.259	2171
853.348	1981
853.438	3223
853.527	4809
853.617	5856
853.706	11512
853.795	19955
853.885	39622
853.974	73872
854.063	113023
854.152	191296
854.242	123995
854.331	34631
854.420	12106
854.509	7782
854.598	5923
854.687	4734
854.777	3942
854.866	2289
854.955	2251
855.044	2890
855.133	2297
855.222	2314
855.311	1523
855.400	1225
855.488	1012
855.577	770
855.666	1653
855.755	1625
855.844	1248
855.933	661
856.021	1688
856.110	1109
856.199	471
856.288	21
856.376	364
856.465	654
856.554	366
856.642	1277
856.731	1228
856.819	1473
856.908	969
856.996	1127
857.085	940
857.173	172
857.262	163
857.350	301
857.438	688
857.527	990
857.615	1786
857.703	480
857.792	414
857.880	673
857.968	625
858.056	160
858.145	286
858.233	1080
858.321	813
858.409	1380
858.497	869
858.585	502
858.673	-144
858.761	-90
858.849	212
858.937	370
859.025	1175
859.113	834
859.201	670
859.289	1564
859.377	1072
859.465	292
859.552	581
859.640	379
859.728	810
859.816	784
859.903	573
859.991	775
860.079	587
860.166	1038
860.254	-207
860.342	927
860.429	511
860.517	846
860.604	-32
860.692	1012
860.779	-588
860.867	1555
860.954	989
861.042	1021
861.129	1446
861.216	1158
861.304	988
861.391	893
861.478	611
861.565	800
861.653	1220
861.740	468
861.827	364
861.914	836
862.001	685
862.089	460
862.176	1600
862.263	1035
862.350	573
862.437	488
862.524	833
862.611	1274
862.698	1238
862.785	1728
862.871	1629
862.958	1534
863.045	1285
863.132	1228
863.219	1413
863.306	366
863.392	1745
863.479	1111
863.566	837
863.652	1770
863.739	994
863.826	1573
863.912	1501
863.999	1063
864.086	2116
864.172	1653
864.259	2725
864.345	2137
864.432	3054
864.518	2668
864.604	1844
864.691	1952
864.777	2873
864.863	2821
864.950	5075
865.036	6284
865.122	11675
865.209	15322
865.295	12069
865.381	12137
865.467	12323
865.553	12826
865.639	14423
865.726	19035
865.812	29737
865.898	46480
865.984	65677
866.070	95755
866.156	139138
866.242	68982
866.328	24797
866.414	14280
866.499	12569
866.585	12247
866.671	11409
866.757	9900
866.843	10899
866.928	9046
867.014	8970
867.100	9476
867.186	9621
867.271	9077
867.357	9197
867.442	9356
867.528	9394
867.614	9269
867.699	8811
867.785	8980
867.870	8748
867.956	8593
868.041	9406
868.127	7768
868.212	8492
868.297	8603
868.383	8647
868.468	7621
868.553	8757
868.639	7708
868.724	8436
868.809	8116
868.894	7506
868.979	7622
869.065	7773
869.150	6364
869.235	7271
869.320	7310
869.405	6325
869.490	6979
869.575	8119
869.660	6013
869.745	6237
869.830	8625
869.915	7864
870.000	7107
870.085	6147
870.169	7486
870.254	9355
870.339	5222
870.424	5672
870.509	7236
870.593	7869
870.678	8398
870.763	7252
870.847	5539
870.932	6637
871.016	7757
871.101	5947
871.186	5958
871.270	8689
871.355	6653
871.439	5147
871.523	7549
871.608	6294
871.692	4109
871.777	6555
871.861	7271
871.945	6496
872.030	6693
872.114	6424
872.198	6026
872.282	4604
872.367	6498
872.451	6379
872.535	6265
872.619	6626
872.703	5033
872.787	5765
872.871	6016
872.955	5760
873.039	4186
873.123	5666
873.207	7483
873.291	4645
873.375	3949
873.459	6031
873.543	6041
873.627	5154
873.711	4454
873.794	5411
873.878	4851
873.962	5053
874.045	4041
874.129	4719
874.137	4736
874.213	4911
874.245	5143
874.296	5513
874.352	4429
874.380	3905
874.460	4726
874.464	4760
874.547	4375
874.568	4609
874.631	5307
874.676	5380
874.714	5436
874.784	6218
874.798	6367
874.881	5608
874.892	5213
874.965	2553
874.999	3286
875.048	4269
875.107	5275
875.131	5667
875.215	4309
875.215	4308
875.298	3479
875.323	3535
875.381	3723
875.430	4987
875.465	5824
875.538	5939
875.548	5937
875.631	4471
875.646	4191
875.714	2974
875.753	2967
875.798	3025
875.861	4572
875.881	5004
875.964	5256
875.968	5162
876.047	3524
876.076	3772
876.130	4414
876.183	4404
876.213	4347
876.291	5431
876.296	5497
876.379	5137
876.398	4920
876.462	4123
876.506	3841
876.545	3650
876.613	3688
876.628	3715
876.711	4587
876.721	4700
876.794	5732
876.828	5406
876.877	4650
876.935	4564
876.960	4591
877.043	3749
877.043	3752
877.125	4844
877.150	5020
877.208	5222
877.258	5113
877.291	4886
877.365	3283
877.374	3143
877.456	4001
877.472	3886
877.539	3300
877.579	3856
877.622	4722
877.687	5370
877.704	5396
877.787	4690
877.794	4698
877.869	5294
877.901	5511
877.952	5325
878.008	3945
878.034	3435
878.115	2617
878.117	2607
878.199	3506
878.222	3640
878.282	4364
878.329	5244
878.364	5643
878.437	5417
878.447	5332
878.529	3785
878.544	3705
878.611	3547
878.651	3601
878.694	4085
878.758	5518
878.776	5816
878.858	5190
878.865	5200
878.941	4732
878.972	4069
879.023	3322
879.078	3173
879.105	3334
879.185	5592
879.187	5625
879.269	4925
879.292	4775
879.351	4606
879.399	4906
879.433	4882
879.506	3663
879.516	3610
879.598	4213
879.613	4227
879.680	3657
879.720	3790
879.762	4463
879.827	4919
879.844	4786
879.926	4167
879.933	4141
880.007	4661
880.040	4769
880.089	4756
880.147	5160
880.171	5669
880.253	8727
880.254	8730
880.335	8739
880.360	9179
880.417	12262
880.467	15367
880.499	17995
880.574	25710
880.580	25664
880.662	16236
880.680	14308
880.744	8069
880.787	5162
880.825	4244
880.893	4520
880.907	4712
880.989	4203
881.000	4298
881.070	4778
881.106	5126
881.152	5317
881.213	4464
881.233	4153
881.315	3320
881.319	3313
881.396	4234
881.426	4292
881.478	4255
881.532	4932
881.559	5325
881.639	5772
881.641	5757
881.722	4407
881.745	4079
881.803	4261
881.852	4625
881.885	4838
881.958	4823
881.966	4779
882.047	4672
882.064	4585
882.129	4128
882.171	3718
882.210	3382
882.277	3102
882.291	3177
882.372	3927
882.383	4065
882.454	5734
882.489	6269
882.535	6012
882.596	5392
882.616	5409
882.697	5997
882.702	5964
882.778	4241
882.808	3661
882.859	3034
882.914	2970
882.940	3260
883.020	3784
883.021	3797
883.102	4596
883.127	4826
883.183	5953
883.233	6689
883.264	6018
883.339	4209
883.345	4140
883.426	3125
883.445	3043
883.507	3431
883.551	3622
883.587	4235
883.657	5399
883.668	5502
883.749	6055
883.763	6071
883.830	5101
883.869	4572
883.910	3936
883.975	3151
883.991	3305
884.072	3946
884.081	4038
884.152	5062
884.187	5574
884.233	6556
884.292	7185
884.314	6543
884.394	4164
884.398	4042
884.475	2800
884.504	2417
884.555	2672
884.610	2943
884.636	3183
884.716	3963
884.716	3983
884.797	5878
884.821	6408
884.877	6447
884.927	6252
884.958	5572
885.033	4082
885.038	4055
885.118	3448
885.139	3229
885.199	3094
885.244	3260
885.279	3644
885.350	4268
885.359	4556
885.439	7283
885.456	7712
885.520	6802
885.561	6144
885.600	5196
885.667	3862
885.680	4120
885.760	5453
885.773	5648
885.840	4191
885.878	3430
885.920	3521
885.984	3810
886.000	4142
886.080	5321
886.089	5461
886.160	5764
886.195	5818
886.240	5609
886.300	5151
886.320	5024
886.400	5033
886.406	4982
886.480	4472
886.511	4429
886.560	4558
886.616	4480
886.640	4476
886.720	4665
886.722	4655
886.800	4028
886.827	3774
886.879	4134
886.932	4548
886.959	4926
887.038	6077
887.039	6088
887.119	5538
887.143	5485
887.198	5485
887.248	5293
887.278	5048
887.354	4497
887.358	4526
887.437	4779
887.459	4900
887.517	5187
887.564	5196
887.596	4960
887.669	4552
887.676	4429
887.755	2737
887.774	2345
887.835	3079
887.880	3590
887.914	3800
887.985	4126
887.994	4326
888.073	6214
888.090	6569
888.153	8027
888.195	8874
888.232	7554
888.300	5200
888.311	5140
888.391	4574
888.405	4484
888.470	4049
888.510	3639
888.549	3786
888.615	4246
888.628	4502
888.708	5864
888.720	6053
888.787	6428
888.825	6623
888.866	5425
888.930	3578
888.945	3598
889.024	3663
889.035	3660
889.103	5317
889.140	6158
889.182	5735
889.245	5156
889.261	5244
889.340	5565
889.349	5589
889.419	5078
889.454	4800
889.498	4845
889.559	4882
889.577	4872
889.656	4795
889.664	4778
889.735	5868
889.768	6368
889.814	6181
889.873	5888
889.978	5264
890.083	4459
890.187	5209
890.292	6564
890.397	4759
890.501	3590
890.606	4910
890.710	5108
890.815	6408
890.919	6125
891.024	5542
891.128	3865
891.233	3611
891.337	5311
891.442	6273
891.546	5345
891.650	4402
891.755	3609
891.859	5038
891.963	6538
892.068	5740
892.172	4622
892.276	2607
892.380	3699
892.484	5598
892.589	6929
892.693	4849
892.797	3750
892.901	3145
893.005	3566
893.109	6429
893.213	6868
893.317	4909
893.421	2596
893.525	2643
893.629	2828
893.733	4907
893.837	4579
893.941	4316
894.045	3751
894.148	2262
894.252	2531
894.356	5498
894.460	7973
894.564	4522
894.667	4168
894.771	2073
894.875	2695
894.978	4007
895.082	5577
895.186	6139
895.289	4474
895.393	3238
895.496	6146
895.600	4536
895.703	2326
895.807	4182
895.910	3482
896.014	3566
896.117	3895
896.221	4505
896.324	5259
896.427	3584
896.531	2818
896.634	3512
896.737	3232
896.840	4460
896.944	5009
897.047	5705
897.150	4862
897.253	3154
897.356	2271
897.460	2017
897.563	3010
897.666	4768
897.769	5766
897.872	2759
897.975	2627
898.078	4077
898.181	3029
898.284	3589
898.387	4712
898.490	5580
898.593	3700
898.695	2690
898.798	2978
898.901	3294
899.004	3851
899.107	3817
899.209	3052
899.312	5866
899.415	4403
899.518	1834
899.620	2193
899.723	2782
899.826	3527
899.928	3454
900.031	3240
900.133	5430
900.236	4658
900.338	1960
900.441	2555
900.543	3753
900.646	3836
900.748	3916
900.851	4222
900.953	4203
901.055	2493
901.158	3229
901.260	2234
901.362	2600
901.465	2543
901.567	3996
901.669	4625
901.771	2979
901.873	3408
901.976	3408
902.078	3718
902.180	2772
902.282	1771
902.384	2996
902.486	5253
902.588	4181
902.690	1850
902.792	1702
902.894	2243
902.996	4160
903.098	3830
903.200	2932
903.302	2396
903.404	2618
903.505	2542
903.607	2886
903.709	4809
903.811	5421
903.913	3314
904.014	2013
904.116	1817
904.218	2110
904.319	2996
904.421	4589
904.523	5144
904.624	2779
904.726	3416
904.827	1711
904.929	2317
905.030	2148
905.132	4363
905.233	4611
905.335	2429
905.436	1770
905.537	2695
905.639	2963
905.740	3093
905.841	4673
905.943	3670
906.044	2402
906.145	2103
906.247	1775
906.348	2673
906.449	2521
906.550	3896
906.651	3583
906.752	2311
906.854	2220
906.955	2024
907.056	3438
907.157	4053
907.258	4855
907.359	2715
907.460	2433
907.561	1740
907.662	1874
907.762	1995
907.863	3251
907.964	4124
908.065	3719
908.166	3438
908.267	2888
908.367	1919
908.468	2592
908.569	2482
908.670	3733
908.770	3172
908.871	3325
908.971	2845
909.072	2891
909.173	2362
909.273	2702
909.374	3594
909.474	3062
909.575	2980
909.675	2523
909.776	2698
909.876	2312
909.977	2805
910.077	3202
910.177	4339
910.278	3805
910.378	1534
910.478	2591
910.579	3545
910.679	3247
910.779	3207
910.879	3735
910.980	3295
911.080	3332
911.180	2453
911.280	2068
911.380	1622
911.480	1984
911.580	2222
911.680	2847
911.780	2621
911.880	3554
911.980	1921
912.080	2447
912.180	2327
912.280	3261
912.380	2644
912.480	971
912.580	1863
912.679	2801
912.779	3461
912.879	3934
912.979	3131
913.078	2491
913.178	2009
913.278	2274
913.377	1289
913.477	2128
913.577	2119
913.676	3344
913.776	4461
913.875	3470
913.975	1742
914.074	3865
914.174	2955
914.273	2449
914.373	2260
914.472	2809
914.572	2162
914.671	2427
914.770	2547
914.870	2342
914.969	2063
915.068	2886
915.167	3129
915.267	2233
915.366	3188
915.465	2258
915.564	3177
915.663	2672
915.763	2708
915.862	4300
915.961	4296
916.060	1820
916.159	2617
916.258	2501
916.357	2560
916.456	2852
916.555	3572
916.654	3065
916.752	4318
916.851	4782
916.950	2937
917.049	2429
917.148	2217
917.247	2350
917.345	1490
917.444	1777
917.543	2317
917.642	3154
917.740	3067
917.839	4985
917.937	5245
918.036	3808
918.135	3711
918.233	3365
918.332	2450
918.430	2388
918.529	2783
918.627	2606
918.726	3736
918.824	4188
918.923	2861
919.021	2777
919.119	2609
919.218	2690
919.316	3264
919.414	3534
919.512	3912
919.611	4261
919.709	3100
919.807	4959
919.905	4257
920.003	4575
920.102	4352
920.200	5214
920.298	5027
920.396	5307
920.494	3467
920.592	3850
920.690	4649
920.788	4269
920.886	4263
920.984	5470
921.082	5958
921.180	6498
921.277	6496
921.375	6014
921.473	8228
921.571	9570
921.669	8305
921.766	7828
921.864	7991
921.962	8710
922.060	7525
922.157	8308
922.255	7748
922.352	8092
922.450	8687
922.548	9326
922.645	10498
922.743	12904
922.840	19609
922.938	25613
923.035	22378
923.133	21142
923.230	22892
923.327	29454
923.425	26525
923.522	26797
923.619	25349
923.717	22165
923.814	22372
923.911	21525
924.008	21098
924.106	21538
924.203	19898
924.300	22260
924.397	20805
924.494	21606
924.591	21102
924.688	19573
924.786	21083
924.883	20650
924.979	20132
925.077	20220
925.173	19927
925.270	19448
925.367	20252
925.464	21295
925.561	21310
925.658	22798
925.755	18154
925.852	21179
925.948	20126
926.045	20703
926.142	20772
926.239	21243
926.335	16672
926.432	18889
926.529	20256
926.625	21443
926.722	18815
926.818	17069
926.915	20198
927.011	18669
927.108	18422
927.204	19726
927.301	17650
927.397	19063
927.494	21613
927.590	16759
927.687	14463
927.783	20777
927.879	20576
927.976	17814
928.072	15443
928.168	18294
928.264	19360
928.361	16684
928.457	19702
928.553	17344
928.649	16648
928.745	18452
928.841	14845
928.937	16076
929.033	16930
929.129	15021
929.225	18792
929.321	17957
929.417	13694
929.513	18174
929.609	16244
929.705	14738
929.801	17033
929.897	15125
929.993	15140
930.089	16416
930.184	15037
930.280	15615
930.376	20097
930.471	16300
930.567	12875
930.663	14925
930.758	13541
930.854	15173
930.950	14790
931.045	14089
931.141	13631
931.236	17749
931.332	17227
931.427	11934
931.523	16306
931.618	16879
931.714	11474
931.809	12177
931.905	15798
932.000	12310
932.095	9651
932.191	14820
932.286	17613
932.381	15604
932.476	10986
932.572	13582
932.667	11421
932.762	11977
932.857	13474
932.952	15497
933.047	13812
933.142	10553
933.237	12723
933.332	14822
933.427	15917
933.522	13672
933.617	11964
933.712	11781
933.807	14349
933.902	16366
933.997	16548
934.092	11873
934.187	11599
934.282	13177
934.376	12350
934.471	14848
934.566	10999
934.661	11398
934.755	14170
934.850	15866
934.945	12785
935.039	10125
935.134	9656
935.228	10358
935.323	16637
935.417	12715
935.512	7855
935.606	8080
935.701	11283
935.795	13535
935.890	12098
935.984	10169
936.079	8708
936.173	10673
936.267	10854
936.362	9202
936.456	11418
936.550	15166
936.644	13059
936.738	9409
936.833	8907
936.927	7940
937.021	9368
937.115	11788
937.209	12221
937.303	10646
937.397	8023
937.491	10036
937.585	11872
937.679	10542
937.773	9087
937.867	8155
937.961	7485
938.055	11853
938.149	12334
938.243	7862
938.337	7068
938.430	8629
938.524	12164
938.618	10861
938.712	7416
938.805	8522
938.899	10036
938.993	13234
939.086	9520
939.180	5920
939.274	7236
939.367	9093
939.461	11768
939.554	8770
939.648	7387
939.741	7698
939.835	9494
939.928	11790
940.022	11534
940.115	9707
940.208	10612
940.302	12054
940.395	12628
940.488	9126
940.582	8675
940.675	7764
940.768	6282
940.861	10561
940.954	10930
941.048	7767
941.141	5319
941.234	6793
941.327	8887
941.420	9774
941.513	9589
941.606	7529
941.699	7017
941.792	9585
941.885	9239
941.978	9048
942.071	9633
942.164	7498
942.257	5877
942.349	7519
942.442	9448
942.535	6171
942.628	6160
942.721	7133
942.813	8281
942.906	7603
942.999	8255
943.091	6344
943.184	7033
943.277	7746
943.369	6385
943.462	4718
943.554	6909
943.647	7981
943.739	8420
943.832	9973
943.924	5871
944.017	4878
944.109	5239
944.201	7300
944.294	6862
944.386	7603
944.478	6289
944.571	6719
944.663	6408
944.755	7268
944.847	7787
944.940	6818
945.032	5755
945.124	4350
945.216	6009
945.308	6868
945.400	7138
945.492	6116
945.584	7034
945.676	9147
945.768	7459
945.860	7557
945.952	8793
946.044	7951
946.136	5837
946.228	6242
946.320	6523
946.412	6923
946.503	7844
946.595	8802
946.687	6508
946.779	5194
946.870	4597
946.962	5747
947.054	6046
947.145	7894
947.237	6546
947.329	5522
947.420	7467
947.512	6934
947.603	4677
947.695	4940
947.786	5320
947.878	5358
947.969	6853
948.061	7495
948.152	6739
948.243	3828
948.335	3507
948.426	5089
948.517	5279
948.609	6976
948.700	5298
948.791	6171
948.882	3666
948.973	3810
949.065	5633
949.156	5612
949.247	4080
949.338	5365
949.429	3748
949.520	3825
949.611	4878
949.702	6032
949.793	5275
949.884	5718
949.975	5022
950.066	4162
950.157	3768
950.247	4148
950.338	3773
950.429	3835
950.520	5258
950.611	4588
950.701	4342
950.792	6435
950.883	5671
950.973	5469
951.064	5925
951.155	6013
951.245	6045
951.336	6229
951.427	6237
951.517	6914
951.608	4964
951.698	4827
951.788	4337
951.879	3935
951.969	4291
952.060	4292
952.150	5267
952.240	6795
952.331	6130
952.421	5746
952.511	4133
952.602	3038
952.692	2800
952.782	3024
952.872	3656
952.962	5078
953.052	4367
953.143	4131
953.233	3257
953.323	4895
953.413	4419
953.503	6200
953.593	4652
953.683	3927
953.773	3318
953.863	3374
953.953	3119
954.042	3792
954.132	4813
954.222	5249
954.312	3455
954.402	3966
954.492	4285
954.581	4971
954.671	4397
954.761	4876
954.850	4365
954.940	3401
955.030	1724
955.119	2974
955.209	3814
955.298	3921
955.388	4403
955.477	5438
955.567	3288
955.656	3331
955.746	3489
955.835	3431
955.925	3127
956.014	4129
956.103	5440
956.193	6139
956.282	5152
956.371	3790
956.461	3853
956.550	3669
956.639	2964
956.728	4192
956.817	3251
956.906	3647
956.995	5283
957.085	3704
957.174	3796
957.263	2994
957.352	3068
957.441	4421
957.530	3848
957.619	3191
957.708	3626
957.796	3528
957.885	2705
957.974	2957
958.063	3142
958.152	2429
958.241	2732
958.329	2665
958.418	2331
958.507	3482
958.596	4613
958.684	4006
958.773	3487
958.861	3210
958.950	1614
959.039	2912
959.127	2072
959.216	4336
959.304	3253
959.393	4158
959.481	3917
959.570	3754
959.658	2860
959.746	2633
959.835	3019
959.923	3624
960.011	2847
960.100	3453
960.188	4760
960.276	3672
960.365	2771
960.453	2503
960.541	2151
960.629	1958
960.717	2064
960.805	1664
960.893	2487
960.981	3956
961.069	4079
961.158	4603
961.245	4966
961.333	4787
961.421	3456
961.509	3968
961.597	3483
961.685	3331
961.773	3070
961.861	3007
961.949	4443
962.036	2963
962.124	1853
962.212	1312
962.299	2249
962.387	2618
962.475	2554
962.562	2966
962.650	3276
962.738	2832
962.825	1828
962.913	2005
963.000	2712
963.088	3065
963.175	3279
963.263	1991
963.350	2664
963.438	3161
963.525	2439
963.612	2428
963.700	2375
963.787	3375
963.874	2307
963.962	2220
964.049	2365
964.136	2370
964.223	1909
964.310	1546
964.398	1711
964.485	1886
964.572	2467
964.659	2409
964.746	2395
964.833	1368
964.920	1561
965.007	2488
965.094	1903
965.181	1880
965.268	2400
965.355	3051
965.441	2819
965.528	1755
965.615	2535
965.702	2839
965.789	2368
965.875	2464
965.962	3171
966.049	2736
966.136	3272
966.222	3600
966.309	3978
966.395	3378
966.482	3004
966.569	3335
966.655	3024
966.742	2646
966.828	1993
966.915	1566
967.001	1366
967.087	1646
967.174	877
967.260	1863
967.347	2064
967.433	3286
967.519	2021
967.605	3063
967.692	3070
967.778	2850
967.864	2391
967.950	2919
968.036	1575
968.123	1956
968.209	2571
968.295	1337
968.381	1779
968.467	2230
968.553	1961
968.639	2467
968.725	2663
968.811	3529
968.897	3069
968.983	2272
969.069	1068
969.154	1696
969.240	1555
969.326	884
969.412	2259
969.497	948
969.583	1573
969.669	2594
969.755	2261
969.840	2458
969.926	4220
970.012	5708
970.097	6583
970.183	5193
970.268	3274
970.354	2882
970.439	1899
970.525	3217
970.610	2040
970.696	3235
970.781	2707
970.866	1616
970.952	2492
971.037	1770
971.122	3202
971.208	2227
971.293	2088
971.378	1850
971.463	2708
971.549	1708
971.634	1284
971.719	2060
971.804	2225
971.889	2470
971.974	1738
972.059	2554
972.144	2283
972.229	1552
972.314	2261
972.399	1976
972.484	1841
972.569	1255
972.654	821
972.739	1753
972.824	1798
972.908	848
972.993	1037
973.078	1768
973.163	1907
973.247	1387
973.332	1542
973.417	2709
973.501	2125
973.586	1657
973.671	1352
973.755	2061
973.840	2417
973.924	2118
974.009	4454
974.093	4025
974.178	4730
974.262	3388
974.346	2726
974.431	2273
974.515	1926
974.600	2213
974.684	2514
974.768	2176
974.852	2525
974.937	2229
975.021	2446
975.105	2235
975.189	1879
975.273	2031
975.358	1833
975.442	2058
975.526	1462
975.610	1429
975.694	1495
975.778	1645
975.862	1612
975.946	1533
976.030	2949
976.114	1839
976.198	1034
976.281	1582
976.365	2375
976.449	2094
976.533	1870
976.617	1625
976.700	761
976.784	1446
976.868	1697
976.951	1651
977.035	1441
977.119	1844
977.202	1891
977.286	2268
977.369	4016
977.453	5665
977.536	4140
977.620	4812
977.703	3382
977.787	2285
977.870	3057
977.953	3908
978.037	1648
978.120	2284
978.203	1569
978.287	2973
978.370	1959
978.453	2237
978.536	1776
978.620	2077
978.703	1897
978.786	1905
978.869	2130
978.952	1346
979.035	2519
979.118	2672
979.201	1823
979.284	2157
979.367	2015
979.450	1521
979.533	2170
979.616	1568
979.699	1602
979.782	1975
979.865	1520
979.948	2248
980.030	1440
980.113	1978
980.196	1258
980.279	2415
980.361	1436
980.444	2785
980.526	3325
980.609	4858
980.692	5688
980.774	5606
980.857	3507
980.939	3805
981.022	2454
981.104	3097
981.187	2830
981.269	2499
981.352	2154
981.434	2086
981.516	2206
981.599	3098
981.681	2909
981.763	2263
981.846	3090
981.928	2811
982.010	2401
982.092	1996
982.174	2607
982.256	2362
982.339	2473
982.421	2689
982.503	2094
982.585	2610
982.667	1966
982.749	2480
982.831	1959
982.913	1927
982.995	2822
983.077	2896
983.158	3868
983.240	3057
983.322	3690
983.404	5465
983.486	5714
983.568	5228
983.649	4451
983.731	4927
983.813	4021
983.894	3523
983.976	3175
984.058	3908
984.139	2890
984.221	2673
984.302	4017
984.384	3200
984.465	3514
984.547	3747
984.628	3326
984.710	4256
984.791	3987
984.872	3322
984.954	3384
985.035	2950
985.116	3147
985.198	3340
985.279	4084
985.360	2871
985.441	2515
985.522	3118
985.604	3588
985.685	2829
985.766	4381
985.847	4278
985.928	4050
986.009	3685
986.090	2978
986.171	3749
986.252	3036
986.333	3721
986.414	3409
986.495	3549
986.576	3211
986.656	3975
986.737	4137
986.818	4420
986.899	4134
986.980	3179
987.060	4021
987.141	3577
987.222	4526
987.302	5947
987.383	6144
987.464	6365
987.544	5274
987.625	4883
987.705	5774
987.786	6173
987.866	5789
987.947	4656
988.027	6740
988.108	5042
988.188	4241
988.268	4480
988.349	4793
988.429	4683
988.509	5181
988.589	4754
988.670	4008
988.750	4271
988.830	4420
988.910	4374
988.990	4140
989.070	4375
989.151	3576
989.231	3982
989.311	4734
989.391	3850
989.471	3670
989.551	4114
989.631	3625
989.711	3507
989.791	3846
989.870	3650
989.950	4276
990.030	3933
990.110	3822
990.190	2263
990.269	2566
990.349	3110
990.429	4110
990.509	3587
990.588	2157
990.668	3359
990.747	2868
990.827	4096
990.907	3485
990.986	3657
991.066	3758
991.145	2677
991.225	3681
991.304	3453
991.383	3518
991.463	3236
991.542	2909
991.622	2722
991.701	2906
991.780	2776
991.859	2027
991.939	2130
992.018	2206
992.097	3607
992.176	3224
992.256	2564
992.335	1740
992.414	3722
992.493	1990
992.572	2648
992.651	3005
992.730	2954
992.809	2435
992.888	2385
992.967	2245
993.046	2864
993.125	1148
993.203	2184
993.282	2331
993.361	2443
993.440	2085
993.519	2062
993.597	2196
993.676	1735
993.755	2489
993.834	2353
993.912	1419
993.991	1939
994.069	2264
994.148	3313
994.226	2097
994.305	2225
994.384	1752
994.462	3177
994.540	2160
994.619	1793
994.697	1216
994.776	2484
994.854	2044
994.932	1714
995.011	1862
995.089	1518
995.167	1644
995.245	1152
995.324	1602
995.402	2019
995.480	1580
995.558	1868
995.636	1361
995.714	1235
995.792	2062
995.870	2237
995.948	945
996.026	1630
996.104	966
996.182	2001
996.260	1064
996.338	1080
996.416	664
996.494	1573
996.572	1796
996.649	1363
996.727	783
996.805	1207
996.883	1421
996.960	1043
997.038	1177
997.116	1408
997.193	91
997.271	1527
997.348	303
997.426	800
997.504	299
997.581	2169
997.658	1299
997.736	87
997.813	548
997.891	1137
997.968	825
998.046	1049
998.123	640
998.200	1532
998.277	859
998.355	1920
998.432	-597
998.509	354
998.586	1467
998.663	1039
998.741	-147
998.818	682
998.895	695
998.972	285
999.049	764
999.126	706
999.203	689
999.280	-197
999.357	94
999.434	989
999.511	486
999.587	845
999.664	-455
999.741	760
999.818	622
999.895	42
999.971	383
1000.048	55
1000.125	352
1000.202	-196
1000.278	330
1000.355	655
1000.431	122
1000.508	-794
1000.584	-549
1000.661	129
1000.738	-41
1000.814	608
1000.890	581
1000.967	262
1001.043	623
1001.120	285
1001.196	266
1001.272	-150
1001.349	167
1001.425	687
1001.501	-332
1001.577	-532
1001.654	186
1001.730	628
1001.806	-525
1001.882	-674
1001.958	532
1002.034	1854
1002.110	435
1002.186	-355
1002.262	-359
1002.338	-796
1002.414	110
1002.490	400
1002.566	203
1002.642	356
1002.718	108
1002.794	-267
1002.870	-121
1002.945	318
1003.021	-307
1003.097	-726
1003.173	831
1003.248	448
1003.324	26
1003.400	37
1003.475	-1118
1003.551	223
1003.626	-1075
1003.702	-264
1003.777	-12
1003.853	-870
1003.928	-162
1004.004	176
1004.079	506
1004.155	-434
1004.230	-450
1004.305	299
1004.381	-1193
1004.456	-45
1004.531	-1376
1004.607	-1005
1004.682	-455
1004.757	-102
1004.832	160
1004.907	-350
1004.982	-859
1005.057	-225
1005.133	-97
1005.208	-80
1005.283	-779
1005.358	129
1005.433	-590
1005.508	-2
1005.583	-1339
1005.657	-237
1005.732	321
1005.807	-653
1005.882	-555
1005.957	-76
1006.032	-1056
1006.106	-570
1006.181	-1474
1006.256	-843
1006.331	-279
1006.405	-343
1006.480	-1072
1006.554	-1518
1006.629	-434
1006.704	-1266
1006.778	-616
1006.853	-654
1006.927	-711
1007.002	-557
1007.076	-717
1007.150	-962
1007.225	-785
1007.299	-872
1007.373	-1532
1007.448	-1045
1007.522	-759
1007.596	-32
1007.671	-1130
1007.745	-480
1007.819	-1435
1007.893	-872
1007.967	-468
1008.041	-610
1008.115	-1102
1008.190	-990
1008.264	-842
1008.338	-1817
1008.412	-937
1008.486	-1225
1008.560	-1118
1008.633	-836
1008.707	-576
1008.781	-174
1008.855	-153
1008.929	-368
1009.003	-1471
1009.076	-1031
1009.150	-668
1009.224	-975
1009.298	-266
1009.371	-848
1009.445	-378
1009.519	-1369
1009.592	-1131
1009.666	-600
1009.739	-1075
1009.813	-1361
1009.886	-437
1009.960	-1624
1010.033	-736
1010.107	-652
1010.180	-1614
1010.253	-874
1010.327	-2102
1010.400	-505
1010.473	-2032
1010.547	-257
1010.620	-1202
1010.693	-1229
1010.766	-1075
1010.840	-389
1010.913	-444
1010.986	-1761
1011.059	-614
1011.132	-1148
1011.205	-1366
1011.278	-355
1011.351	-1213
1011.424	-1431
1011.497	-1200
1011.570	-1204
1011.643	-1444
1011.716	-1064
1011.789	-1607
1011.862	-769
1011.934	-1249
1012.007	-1304
1012.080	-829
1012.153	-1064
1012.225	-686
1012.298	-1346
1012.371	-1397
1012.443	-724
1012.516	-1498
1012.588	-431
1012.661	-1010
1012.733	-1941
1012.806	-202
1012.879	-878
1012.951	-1736
1013.023	-1550
1013.096	-1500
1013.168	-1356
1013.241	-992
1013.313	-1001
1013.385	-1960
1013.458	-846
1013.530	-674
1013.602	-1812
1013.674	-1285
1013.746	-1112
1013.819	-1449
1013.891	-486
1013.963	-2444
1014.035	-1153
1014.107	-839
1014.179	-317
1014.251	-1209
1014.323	-616
1014.395	-1176
1014.467	-1641
1014.539	-1404
1014.611	-1323
1014.683	-1603
1014.754	-1275
1014.826	-1219
1014.898	-1046
1014.970	-1993
1015.042	-1133
1015.113	-1376
1015.185	-953
1015.257	-886
1015.328	-1099
1015.400	-1386
1015.471	-1224
1015.543	-1981
1015.615	-1231
1015.686	-1380
1015.757	-1786
1015.829	-1877
1015.901	-1396
1015.972	-2026
1016.043	-1745
1016.115	-1483
1016.186	-1220
1016.257	-2189
1016.328	-1356
1016.400	-875
1016.471	-1922
1016.542	-1787
1016.613	-1343
1016.685	-1467
1016.756	-901
1016.827	-1636
1016.898	-1886
1016.969	-1670
1017.040	-1739
1017.111	-2617
1017.182	-674
1017.253	-1621
1017.324	-2242
1017.395	-2683
1017.466	-933
1017.537	-1577
1017.608	-685
1017.678	-966
1017.749	-1853
1017.820	-2163
1017.891	-1976
1017.961	-1800
1018.032	-1772
1018.103	-1868
1018.173	-1485
1018.244	-1416
1018.315	-1415
1018.385	-924
1018.456	-1370
1018.526	-2604
1018.597	-1100
1018.667	-1734
1018.738	-2531
1018.808	-1973
1018.878	-2170
1018.949	-1212
1019.019	-1081
1019.089	-1440
1019.160	-1869
1019.230	-2374
1019.300	-1649
1019.371	-1539
1019.441	-819
1019.511	-1302
1019.581	-1206
1019.651	-1259
1019.721	-1654
1019.791	-1907
1019.861	-1890
1019.931	-2070
1020.001	-1617
1020.071	-1162
1020.141	-1701
1020.211	-2249
1020.281	-2826
1020.351	-1856
1020.421	-1285
1020.491	-1360
1020.560	-1593
1020.630	-2157
1020.700	-1932
1020.770	-2060
1020.839	-2030
1020.909	-1755
1020.979	-2384
1021.048	-2218
1021.118	-1506
1021.187	-2049
1021.257	-2035
1021.326	-2094
1021.396	-1680
1021.465	-1569
1021.535	-1873
1021.604	-1981
1021.674	-2100
1021.743	-2089
1021.812	-1875
1021.882	-1950
1021.951	-1747
1022.020	-1539
1022.089	-1684
1022.159	-2237
1022.228	-1411
1022.297	-1946
1022.366	-1480
1022.435	-2230
1022.504	-1829
1022.573	-817
1022.642	-1090
1022.711	-2148
1022.781	-1862
1022.849	-825
1022.918	-2566
1022.987	-2115
1023.056	-1910
1023.125	-1784
1023.194	-1588
1023.263	-2097
1023.331	-1431
1023.400	-1965
1023.469	-1785
1023.538	-1671
1023.606	-2303
1023.675	-1559
1023.744	-2091
1023.812	-2325
1023.881	-1590
1023.949	-3040
1024.018	-2440
1024.086	-2148
1024.155	-1869
1024.223	-2082
1024.292	-1068
1024.360	-1436
1024.429	-1723
1024.497	-3006
1024.565	-602
1024.634	-1709
1024.702	-1466
1024.770	-2388
1024.838	-1210
1024.907	-2036
1024.975	-2565
1025.043	-1397
1025.111	-2939
1025.179	-1853
1025.247	-1823
1025.315	-1647
1025.383	-1990
1025.451	-1856
1025.519	-1976
1025.587	-2407
1025.655	-990
1025.723	-2005
1025.791	-2055
1025.859	-1832
1025.927	-1240
1025.995	-2529
1026.062	-1819
1026.130	-1719
1026.198	-1843
1026.266	-2287
1026.333	-2368
1026.401	-1109
1026.469	-1938
1026.536	-2436
1026.604	-2016
1026.671	-2639
1026.739	-1663
1026.806	-2391
1026.874	-2232
1026.941	-1716
1027.009	-1936
1027.076	-2494
1027.144	-1645
1027.211	-3362
1027.278	-1209
1027.345	-2453
1027.413	-1700
1027.480	-2543
1027.547	-2026
1027.614	-1650
1027.682	-1683
1027.749	-2003
1027.816	-2272
1027.883	-1905
1027.950	-1968
1028.017	-2601
1028.084	-1414
1028.151	-1946
1028.218	-2926
1028.285	-2292
1028.352	-2144
1028.419	-2194
1028.486	-2316
1028.553	-2075
1028.619	-1936
1028.686	-1509
1028.753	-2442
1028.820	-2545
1028.886	-1377
1028.953	-2023
1029.020	-2860
1029.086	-2683
1029.153	-2161
1029.220	-2812
1029.286	-2501
1029.353	-1929
1029.419	-2426
1029.486	-2878
1029.552	-2060
1029.619	-1761
1029.685	-2208
1029.751	-2195
1029.818	-1531
1029.884	-2441
1029.951	-1079
1030.017	-2188
1030.083	-2035
1030.149	-2296
1030.216	-2542
1030.282	-2638
1030.348	-2855
1030.414	-2124
1030.480	-1240
1030.546	-2255
1030.612	-2355
1030.678	-2575
1030.744	-1977
1030.810	-2991
1030.876	-1429
1030.942	-2380
1031.008	-2244
1031.074	-2606
1031.140	-2499
1031.206	-2580
1031.272	-2279
1031.337	-1902
1031.403	-2315
1031.469	-2168
1031.534	-2273
1031.600	-2542
1031.666	-2127
1031.731	-2732
1031.797	-2186
1031.863	-2133
1031.928	-1999
1031.994	-2343
1032.059	-2088
1032.125	-2028
1032.190	-2347
1032.256	-1849
1032.321	-2275
1032.386	-2240
1032.452	-2150
1032.517	-2586
1032.582	-2166
1032.647	-2223
1032.713	-1638
1032.778	-2488
1032.843	-2246
1032.908	-1930
1032.974	-1040
1033.039	-1574
1033.104	-2184
1033.169	-3032
1033.234	-1811
1033.299	-1953
1033.364	-2090
1033.429	-2464
1033.494	-1864
1033.559	-2602
1033.624	-2107
1033.688	-2090
1033.753	-2366
1033.818	-1760
1033.883	-1684
1033.948	-774
1034.013	-1603
1034.077	-888
1034.142	-175
1034.207	115
1034.271	916
1034.336	2835
1034.400	2571
1034.465	-13
1034.530	-411
1034.594	-1931
1034.658	-1820
1034.723	-1894
1034.787	-2129
1034.852	-2218
1034.916	-3040
1034.981	-2421
1035.045	-1642
1035.109	-2461
1035.173	-2151
1035.238	-2330
1035.302	-2323
1035.366	-2613
1035.430	-1410
1035.495	-2563
1035.559	-2156
1035.623	-2293
1035.687	-2675
1035.751	-2159
1035.815	-2223
1035.879	-2520
1035.943	-2333
1036.007	-2669
1036.071	-1616
1036.135	-1838
1036.198	-1647
1036.262	-2887
1036.326	-2371
1036.390	-2455
1036.454	-1797
1036.517	-2378
1036.581	-2463
1036.645	-1373
1036.709	-1071
1036.772	-1855
1036.836	-1357
1036.900	-1855
1036.963	-2266
1037.026	-2878
1037.090	-2261
1037.154	-3312
1037.217	-1421
1037.280	-2168
1037.344	-2095
1037.407	-2227
1037.471	-1725
1037.534	-2600
1037.597	-3149
1037.661	-1922
1037.724	-1108
1037.787	-2593
1037.850	-1233
1037.913	-2974
1037.977	-2077
1038.040	-1793
1038.103	-1628
1038.166	-2959
1038.229	-3021
1038.292	-2319
1038.355	-2544
1038.418	-2474
1038.481	-2355
1038.544	-2037
1038.607	-2320
1038.670	-2720
1038.732	-2594
1038.795	-2481
1038.858	-2940
1038.921	-2082
1038.984	-2043
1039.046	-1826
1039.109	-1687
1039.172	-2589
1039.234	-2128
1039.297	-2021
1039.360	-1773
1039.422	-2985
1039.485	-1941
1039.547	-3553
1039.610	-2377
1039.672	-2854
1039.734	-2430
1039.797	-2602
1039.859	-2105
1039.922	-2098
1039.984	-2389
1040.046	-3158
1040.109	-2298
1040.171	-2936
1040.233	-1995
1040.295	-2325
1040.358	-2593
1040.420	-2455
1040.482	-2384
1040.544	-2087
1040.606	-1841
1040.668	-3013
1040.730	-2471
1040.792	-2048
1040.854	-3155
1040.916	-2039
1040.978	-2311
1041.040	-1314
1041.102	-2612
1041.164	-2668
1041.225	-2348
1041.287	-2151
1041.349	-1834
1041.411	-2972
1041.472	-2149
1041.534	-2636
1041.596	-3266
1041.657	-1760
1041.719	-3350
1041.781	-2843
1041.842	-1800
1041.904	-2653
1041.965	-3009
1042.027	-1996
1042.088	-3139
1042.150	-2032
1042.211	-2005
1042.272	-2675
1042.334	-2776
1042.395	-2116
1042.456	-2114
1042.518	-2210
1042.579	-1957
1042.640	-1952
1042.701	-2235
1042.763	-2487
1042.824	-2335
1042.885	-2197
1042.946	-2061
1043.007	-2000
1043.068	-2341
1043.129	-2374
1043.190	-2425
1043.251	-2570
1043.312	-2321
1043.373	-1981
1043.434	-2135
1043.495	-2788
1043.556	-1960
1043.616	-2661
1043.677	-2795
1043.738	-2404
1043.799	-3068
1043.859	-2425
1043.920	-2230
1043.981	-3313
1044.041	-2908
1044.102	-2703
1044.162	-2668
1044.223	-3469
1044.284	-2555
1044.344	-2220
1044.405	-2565
1044.465	-2480
1044.525	-2666
1044.586	-1870
1044.646	-2226
1044.707	-1815
1044.767	-2558
1044.827	-2086
1044.887	-2204
1044.948	-2085
1045.008	-2134
1045.068	-2819
1045.128	-2286
1045.188	-1761
1045.249	-2609
1045.309	-3280
1045.369	-2856
1045.429	-2928
1045.489	-2686
1045.549	-2042
1045.609	-2187
1045.669	-2177
1045.729	-1995
1045.789	-2382
1045.848	-2219
1045.908	-1856
1045.968	-1947
1046.028	-1914
1046.088	-1717
1046.147	-2547
1046.207	-2170
1046.267	-2096
1046.326	-2585
1046.386	-1768
1046.446	-1368
1046.505	-1252
1046.565	-1259
1046.624	-1601
1046.684	-1596
1046.743	-1894
1046.803	-787
1046.862	-1221
1046.922	0
