'Start Wavelength	183.907
'End Wavelength	1046.922
'Gate Delay	5.000
'Gate Width (ms)	1.050
'Laser Output Level	0.000
'X Position	0.000
'Y Position	0.000
'Z Position	0.000
'Grid Point Number	1.000
'Shot Number	100.000
183.907	908.000
183.977	487.000
184.047	965
184.116	920
184.186	351
184.256	32
184.325	330
184.395	-429
184.465	904
184.534	-302
184.604	646
184.674	-350
184.743	-138
184.813	66
184.883	488
184.952	368
185.022	383
185.092	293
185.161	470
185.231	-247
185.301	413
185.370	279
185.440	592
185.509	58
185.579	464
185.649	348
185.718	528
185.788	985
185.857	498
185.927	436
185.996	366
186.066	-660
186.136	181
186.205	-154
186.275	308
186.344	-68
186.414	702
186.483	-98
186.553	1651
186.622	745
186.692	620
186.761	-70
186.831	354
186.900	-265
186.970	671
187.039	-395
187.109	1205
187.178	50
187.248	824
187.317	343
187.387	456
187.456	290
187.526	601
187.595	292
187.664	665
187.734	-100
187.803	296
187.873	387
187.942	336
188.012	116
188.081	1069
188.150	-119
188.220	1168
188.289	-155
188.358	271
188.428	-411
188.497	691
188.567	577
188.636	664
188.705	199
188.775	-135
188.844	8
188.913	464
188.983	-628
189.052	442
189.121	494
189.191	649
189.260	171
189.329	620
189.399	202
189.468	788
189.537	116
189.606	726
189.676	165
189.745	314
189.814	456
189.883	-40
189.953	181
190.022	1154
190.091	2460
190.161	2625
190.230	158
190.299	610
190.368	-80
190.437	765
190.507	393
190.576	572
190.645	92
190.714	153
190.783	247
190.853	936
190.922	-43
190.991	625
191.060	178
191.129	1216
191.198	-37
191.268	764
191.337	246
191.406	953
191.475	511
191.544	300
191.613	60
191.682	-12
191.752	-666
191.821	530
191.890	175
191.959	217
192.028	671
192.097	938
192.166	765
192.235	1164
192.304	219
192.373	24
192.442	-80
192.511	1216
192.580	-228
192.650	523
192.719	20
192.788	66
192.857	442
192.926	902
192.995	179
193.064	1970
193.133	407
193.202	1497
193.271	1618
193.340	1678
193.409	279
193.478	1239
193.547	1489
193.615	2037
193.684	124
193.753	1221
193.822	197
193.891	593
193.960	-60
194.029	749
194.098	554
194.167	693
194.236	-1042
194.305	460
194.374	411
194.443	606
194.512	553
194.580	496
194.649	165
194.718	588
194.787	346
194.856	75
194.925	326
194.994	747
195.062	-71
195.131	1314
195.200	167
195.269	790
195.338	216
195.407	1829
195.475	715
195.544	1364
195.613	687
195.682	1033
195.751	649
195.819	228
195.888	246
195.957	1378
196.026	-319
196.094	867
196.163	469
196.232	1403
196.301	708
196.369	710
196.438	282
196.507	821
196.576	174
196.644	180
196.713	-68
196.782	1103
196.850	302
196.919	1190
196.988	51
197.056	530
197.125	964
197.194	1434
197.262	153
197.331	847
197.400	555
197.468	865
197.537	111
197.606	409
197.674	1785
197.743	2788
197.812	1313
197.880	4211
197.949	1019
198.017	2761
198.086	1362
198.155	1496
198.223	1955
198.292	4433
198.360	1368
198.429	1284
198.497	846
198.566	3458
198.635	2898
198.703	1009
198.772	1243
198.840	6353
198.909	2811
198.977	1586
199.046	1382
199.114	1304
199.183	826
199.251	1121
199.320	704
199.388	708
199.457	485
199.525	550
199.594	791
199.662	921
199.731	-160
199.799	613
199.867	410
199.936	819
200.004	221
200.073	1016
200.141	424
200.210	635
200.278	383
200.346	1423
200.415	478
200.483	1519
200.552	371
200.620	617
200.688	354
200.757	827
200.825	162
200.893	1360
200.962	448
201.030	528
201.098	-499
201.167	1068
201.235	204
201.303	524
201.372	241
201.440	1325
201.508	590
201.577	1502
201.645	383
201.713	518
201.781	511
201.850	563
201.918	-27
201.986	710
202.055	208
202.123	431
202.191	-243
202.259	196
202.327	101
202.396	324
202.464	81
202.532	1280
202.600	2835
202.669	1158
202.737	628
202.805	551
202.873	1057
202.941	1371
203.009	94
203.078	613
203.146	-16
203.214	464
203.282	11
203.350	848
203.418	371
203.487	955
203.555	-45
203.623	956
203.691	193
203.759	360
203.827	-242
203.895	779
203.963	-161
204.031	761
204.099	947
204.168	983
204.236	470
204.304	1140
204.372	-351
204.440	1171
204.508	177
204.576	1424
204.644	513
204.712	854
204.780	656
204.848	742
204.916	-217
204.984	1058
205.052	707
205.120	829
205.188	220
205.256	1037
205.324	-20
205.392	886
205.460	359
205.528	1009
205.596	576
205.664	852
205.732	449
205.799	5637
205.867	3414
205.935	1219
206.003	477
206.071	1759
206.139	488
206.207	1007
206.275	20
206.343	701
206.411	209
206.478	1242
206.546	413
206.614	734
206.682	768
206.750	1662
206.818	2167
206.885	1468
206.953	474
207.021	1367
207.089	70
207.157	1321
207.225	354
207.292	611
207.360	794
207.428	1508
207.496	476
207.563	833
207.631	371
207.699	524
207.767	781
207.834	1161
207.902	350
207.970	1140
208.038	468
208.105	739
208.173	802
208.241	2085
208.309	759
208.376	1634
208.444	1698
208.512	1000
208.579	-124
208.647	1893
208.715	-25
208.782	1041
208.850	755
208.918	994
208.985	767
209.053	1439
209.120	969
209.188	798
209.256	298
209.323	412
209.391	862
209.459	1843
209.526	763
209.594	1107
209.661	514
209.729	463
209.796	1246
209.864	1406
209.932	967
209.999	1413
210.067	402
210.134	1123
210.202	1217
210.269	1347
210.337	1842
210.404	1003
210.472	438
210.539	590
210.607	457
210.674	1905
210.742	1173
210.809	1369
210.877	1802
210.944	1397
211.012	-141
211.079	1829
211.146	623
211.214	1664
211.281	2197
211.349	2216
211.416	734
211.484	1467
211.551	824
211.618	1734
211.686	1206
211.753	1433
211.821	1015
211.888	1364
211.955	555
212.023	1542
212.090	1270
212.157	1697
212.225	727
212.292	4312
212.359	11847
212.427	23768
212.494	5234
212.561	2991
212.629	1474
212.696	1831
212.763	1362
212.831	1879
212.898	1860
212.965	1476
213.032	1162
213.100	1050
213.167	787
213.234	1829
213.301	865
213.369	2076
213.436	1572
213.503	2211
213.570	1150
213.638	2018
213.705	1123
213.772	902
213.839	1928
213.906	1643
213.973	946
214.041	1592
214.108	1050
214.175	1423
214.242	695
214.309	1345
214.376	1255
214.444	1498
214.511	1041
214.578	1560
214.645	959
214.712	1783
214.779	857
214.846	1539
214.913	1907
214.980	2158
215.048	2088
215.115	2344
215.182	1602
215.249	2276
215.316	346
215.383	1400
215.450	822
215.517	1474
215.584	711
215.651	1393
215.718	83
215.785	1613
215.852	986
215.919	2019
215.986	1394
216.053	1537
216.120	1187
216.187	1696
216.254	1351
216.321	1832
216.388	584
216.455	1671
216.522	1265
216.589	2663
216.656	3036
216.722	2992
216.789	1936
216.856	2414
216.923	2150
216.990	1646
217.057	1605
217.124	2205
217.191	1121
217.258	3066
217.324	2309
217.391	3250
217.458	2217
217.525	2293
217.592	564
217.659	1000
217.725	894
217.792	3389
217.859	2598
217.926	1526
217.993	681
218.059	1371
218.126	873
218.193	1227
218.260	929
218.327	1184
218.393	758
218.460	1266
218.527	955
218.594	1755
218.660	2299
218.727	2559
218.794	340
218.860	1329
218.927	1125
218.994	890
219.061	618
219.127	1663
219.194	2355
219.261	1477
219.327	1094
219.394	1578
219.461	904
219.527	799
219.594	2701
219.661	1570
219.727	434
219.794	1325
219.860	407
219.927	1593
219.994	1565
220.060	3393
220.127	2041
220.193	1626
220.260	987
220.326	2814
220.393	4174
220.460	5578
220.526	2623
220.593	2128
220.659	1635
220.726	4067
220.792	11209
220.859	6077
220.925	6637
220.992	10073
221.058	16589
221.125	14268
221.191	9607
221.258	3370
221.324	1577
221.391	1845
221.457	864
221.524	1860
221.590	4052
221.657	19963
221.723	6600
221.789	10499
221.856	5422
221.922	3137
221.989	1131
222.055	1768
222.121	205
222.188	2064
222.254	1237
222.321	964
222.387	332
222.453	490
222.520	694
222.586	1121
222.652	972
222.719	1813
222.785	927
222.851	868
222.918	1146
222.984	713
223.050	707
223.116	1009
223.183	1784
223.249	1647
223.315	813
223.382	1377
223.448	434
223.514	542
223.580	-80
223.647	365
223.713	1395
223.779	809
223.845	534
223.911	1297
223.978	242
224.044	909
224.110	522
224.176	751
224.242	72
224.309	774
224.375	611
224.441	1018
224.507	-317
224.573	795
224.639	305
224.705	578
224.772	-152
224.838	1039
224.904	341
224.970	727
225.036	209
225.102	1317
225.168	97
225.234	367
225.300	397
225.366	1452
225.432	235
225.499	1111
225.565	23
225.631	1311
225.697	791
225.763	1448
225.829	1546
225.895	2236
225.961	2169
226.027	2712
226.093	2115
226.159	3269
226.225	3805
226.291	11072
226.357	11857
226.423	5787
226.489	3184
226.554	2270
226.620	1838
226.686	2824
226.752	4032
226.818	8579
226.884	23324
226.950	13170
227.016	4251
227.082	2694
227.148	1684
227.214	1965
227.279	1175
227.345	1699
227.411	1179
227.477	1956
227.543	4543
227.609	3242
227.674	1401
227.740	1237
227.806	996
227.872	1206
227.938	1752
228.003	2369
228.069	941
228.135	1426
228.201	-30
228.267	1161
228.332	452
228.398	1640
228.464	1066
228.530	1116
228.595	138
228.661	1092
228.727	1243
228.792	1333
228.858	-462
228.924	1405
228.990	1364
229.055	839
229.121	1161
229.187	1300
229.252	564
229.318	995
229.384	939
229.449	711
229.515	153
229.581	214
229.646	1465
229.712	1004
229.777	3162
229.843	2308
229.909	1353
229.974	2626
230.040	1150
230.105	750
230.171	939
230.236	2837
230.302	4188
230.368	1142
230.433	1265
230.499	949
230.564	1420
230.630	1648
230.695	707
230.761	1280
230.826	199
230.892	1991
230.957	384
231.023	17
231.088	960
231.154	471
231.219	1140
231.284	1431
231.350	779
231.415	762
231.481	300
231.546	673
231.612	471
231.677	1159
231.742	-456
231.808	907
231.873	322
231.939	565
232.004	1988
232.069	1879
232.135	832
232.200	988
232.265	627
232.331	204
232.396	-254
232.461	1102
232.527	569
232.592	615
232.657	1545
232.723	3145
232.788	834
232.853	618
232.918	-55
232.984	1468
233.049	67
233.114	2841
233.179	1791
233.245	5746
233.310	4023
233.375	735
233.440	659
233.506	1749
233.571	1307
233.636	1522
233.701	696
233.766	4988
233.832	2458
233.897	931
233.962	-13
234.027	1201
234.092	853
234.157	1262
234.222	1421
234.288	6129
234.353	13624
234.418	8274
234.483	4013
234.548	2210
234.613	1421
234.678	1719
234.743	3174
234.808	11064
234.873	3705
234.938	2000
235.004	802
235.069	1657
235.134	953
235.199	1811
235.264	1562
235.329	1281
235.394	1743
235.459	2459
235.524	1322
235.589	2023
235.654	1568
235.719	1282
235.784	1802
235.849	2629
235.913	4702
235.978	6598
236.043	4839
236.108	2142
236.173	2548
236.238	2471
236.303	1670
236.368	1564
236.433	5276
236.498	6414
236.563	3009
236.627	9893
236.692	29611
236.757	13212
236.822	7160
236.887	5941
236.952	3561
237.017	3632
237.081	2947
237.146	5376
237.211	9857
237.276	36253
237.341	38502
237.405	12314
237.470	6068
237.535	5024
237.600	2658
237.664	2846
237.729	1778
237.794	4342
237.859	4833
237.923	5098
237.988	2309
238.053	5625
238.118	5863
238.182	28509
238.247	12039
238.312	5722
238.376	3575
238.441	2832
238.506	3102
238.570	1319
238.635	1227
238.700	2642
238.764	414
238.829	9477
238.893	5341
238.958	2988
239.023	1536
239.087	2322
239.152	1640
239.216	1810
239.281	1491
239.346	1318
239.410	1535
239.475	4910
239.539	23999
239.604	9232
239.668	3000
239.733	2567
239.797	3984
239.862	9517
239.926	11268
239.991	3614
240.055	2115
240.120	2012
240.184	1163
240.249	1028
240.313	1071
240.378	2140
240.442	13269
240.507	14155
240.571	2772
240.635	9058
240.700	5329
240.764	1714
240.829	1623
240.893	1045
240.957	1639
241.022	12723
241.086	12514
241.151	3970
241.215	1072
241.279	5041
241.344	5077
241.408	2454
241.472	654
241.537	2248
241.601	1009
241.665	1009
241.730	761
241.794	1899
241.858	187
241.922	1856
241.987	1204
242.051	1753
242.115	370
242.179	1560
242.244	767
242.308	1996
242.372	2445
242.436	2554
242.501	867
242.565	1069
242.629	827
242.693	1721
242.757	-3
242.822	798
242.886	1015
242.950	2001
243.014	1259
243.078	1687
243.142	1253
243.206	2198
243.271	1420
243.335	2079
243.399	3583
243.463	32044
243.527	43706
243.591	8752
243.655	3734
243.719	2442
243.783	2461
243.847	5657
243.911	4349
243.975	4236
244.040	1301
244.104	2350
244.168	1204
244.232	2819
244.296	4042
244.360	3870
244.424	2175
244.488	2590
244.552	2000
244.615	1431
244.679	981
244.743	2066
244.807	371
244.871	2028
244.935	1435
244.999	865
245.063	1016
245.127	2886
245.191	4101
245.255	2413
245.319	1745
245.383	645
245.446	1676
245.510	1311
245.574	1744
245.638	1578
245.702	1756
245.766	3444
245.829	1602
245.893	1924
245.957	1040
246.021	1720
246.085	1747
246.149	2262
246.212	7386
246.276	8969
246.340	2055
246.404	2714
246.467	3274
246.531	2417
246.595	2154
246.659	2605
246.722	977
246.786	2484
246.850	2087
246.913	2936
246.977	1399
247.041	2386
247.104	753
247.168	2410
247.232	8244
247.295	14260
247.359	3714
247.423	2626
247.486	3533
247.550	2846
247.614	2026
247.677	3138
247.741	2025
247.804	2786
247.868	3945
247.932	8710
247.995	12052
248.059	3585
248.122	2714
248.186	4196
248.249	7292
248.313	32357
248.376	17843
248.440	11463
248.503	3669
248.567	4973
248.630	4326
248.694	5329
248.757	13116
248.821	26976
248.884	8993
248.948	14998
249.011	20004
249.075	33983
249.138	18633
249.202	6994
249.265	6065
249.328	8699
249.392	4240
249.455	4106
249.519	3460
249.582	5216
249.645	5199
249.709	5249
249.772	4983
249.835	4813
249.899	4940
249.962	4438
250.025	3629
250.089	13872
250.152	9529
250.215	6538
250.279	4428
250.342	5932
250.405	5306
250.468	4800
250.532	6809
250.595	14546
250.658	88564
250.721	69104
250.785	16434
250.848	11853
250.911	8287
250.974	7952
251.038	11799
251.101	16235
251.164	8645
251.227	8776
251.290	8379
251.354	22685
251.417	105312
251.480	48276
251.543	59155
251.606	175993
251.669	60834
251.732	24821
251.795	26888
251.859	42356
251.922	95395
251.985	28956
252.048	13022
252.111	11005
252.174	9628
252.237	21277
252.300	32621
252.363	67664
252.426	102760
252.489	26826
252.552	16827
252.615	11691
252.678	14460
252.741	30070
252.804	70796
252.867	108947
252.930	35780
252.993	17817
253.056	11450
253.119	10434
253.182	8881
253.245	14202
253.308	7886
253.371	9266
253.434	7942
253.497	8498
253.559	13620
253.622	7835
253.685	9536
253.748	6246
253.811	4667
253.874	8587
253.937	5325
254.000	5399
254.062	10780
254.125	11797
254.188	10301
254.251	6223
254.314	4306
254.376	6825
254.439	5333
254.502	5478
254.565	11930
254.628	12608
254.690	4840
254.753	3745
254.816	3252
254.878	4636
254.941	12738
255.004	7407
255.067	4246
255.129	2396
255.192	2246
255.255	2205
255.317	2609
255.380	1856
255.443	1603
255.505	2276
255.568	1860
255.631	1977
255.693	2445
255.756	1896
255.819	2232
255.881	1860
255.944	1685
256.006	2093
256.069	1534
256.132	1173
256.194	4082
256.257	10512
256.319	6789
256.382	4959
256.444	2620
256.507	3088
256.569	1851
256.632	2675
256.694	4675
256.757	20146
256.819	28928
256.882	8259
256.944	3918
257.007	4460
257.069	3469
257.132	3144
257.194	2945
257.257	2201
257.319	2081
257.381	3671
257.444	13654
257.506	54470
257.569	32123
257.631	19672
257.693	7600
257.756	5785
257.818	4402
257.880	3229
257.943	2188
258.005	2033
258.067	1473
258.130	2681
258.192	2647
258.254	5938
258.317	2538
258.379	2616
258.441	8164
258.503	5786
258.566	22177
258.628	13552
258.690	2967
258.753	3172
258.815	3275
258.877	2315
258.939	1800
259.001	2314
259.064	1926
259.126	4232
259.188	3648
259.250	2609
259.312	5641
259.375	14643
259.437	4460
259.499	3197
259.561	1764
259.623	2583
259.685	1249
259.747	4143
259.809	23582
259.872	26164
259.934	61825
259.996	22000
260.058	6137
260.120	3811
260.182	2801
260.244	3034
260.306	1494
260.368	2661
260.430	2233
260.492	4216
260.554	11918
260.616	7301
260.678	21979
260.740	18675
260.802	2905
260.864	3426
260.926	821
260.988	3485
261.050	2090
261.112	9193
261.174	34439
261.236	14503
261.298	5042
261.359	16468
261.421	11165
261.483	2854
261.545	2067
261.607	1611
261.669	1993
261.731	10320
261.793	10551
261.854	2434
261.916	2045
261.978	1696
262.040	2269
262.102	3537
262.164	5966
262.225	3279
262.287	1998
262.349	3800
262.411	2660
262.472	2908
262.534	11150
262.596	11985
262.658	2897
262.719	2303
262.781	6452
262.843	13130
262.904	3389
262.966	3028
263.028	6131
263.090	54881
263.151	61656
263.213	13475
263.275	6219
263.336	4185
263.398	2691
263.459	1790
263.521	1546
263.583	3692
263.644	1849
263.706	1554
263.767	877
263.829	1942
263.891	1082
263.952	1069
264.014	-117
264.075	3163
264.137	2553
264.198	2115
264.260	348
264.321	1346
264.383	4155
264.444	5092
264.506	1294
264.567	1440
264.629	4570
264.690	4101
264.752	2022
264.813	1613
264.875	1011
264.936	2787
264.998	251
265.059	742
265.120	1195
265.182	3721
265.243	19904
265.305	8686
265.366	1887
265.427	1957
265.489	1768
265.550	524
265.611	317
265.673	1579
265.734	858
265.795	1470
265.857	30
265.918	1421
265.979	6928
266.040	33965
266.102	10914
266.163	4219
266.224	2980
266.286	2005
266.347	1020
266.408	1623
266.469	1122
266.530	1278
266.592	112
266.653	2891
266.714	2306
266.775	1153
266.836	-82
266.898	1065
266.959	836
267.020	915
267.081	1358
267.142	1231
267.203	533
267.264	1113
267.326	1060
267.387	483
267.448	-263
267.509	629
267.570	223
267.631	701
267.692	-61
267.753	287
267.814	277
267.875	2388
267.936	2777
267.997	1675
268.058	348
268.119	803
268.180	239
268.241	503
268.302	529
268.363	911
268.424	79
268.485	1757
268.546	-642
268.607	509
268.668	17
268.729	-16
268.790	186
268.851	1799
268.912	2822
268.972	2432
269.033	324
269.094	432
269.155	848
269.216	713
269.277	268
269.338	264
269.398	488
269.459	-68
269.520	1226
269.581	1231
269.642	1284
269.702	322
269.763	28
269.824	240
269.885	939
269.945	1496
270.006	106
270.067	458
270.128	-451
270.188	844
270.249	374
270.310	-224
270.370	1243
270.431	1104
270.492	376
270.553	1365
270.613	2254
270.674	3648
270.734	757
270.795	1556
270.856	1522
270.916	445
270.977	1032
271.038	1630
271.098	823
271.159	2382
271.219	1427
271.280	1214
271.340	438
271.401	2823
271.462	6147
271.522	2054
271.583	770
271.643	1447
271.704	519
271.764	2314
271.825	4836
271.885	31460
271.946	21592
272.006	6436
272.066	20450
272.127	19612
272.187	4602
272.248	3288
272.308	5606
272.369	15420
272.429	3716
272.489	4912
272.550	2641
272.610	3391
272.671	2862
272.731	6506
272.791	6127
272.852	2342
272.912	2241
272.972	1874
273.033	1943
273.093	3446
273.153	2133
273.214	1965
273.274	2192
273.334	13870
273.394	12514
273.455	4592
273.515	7712
273.575	10434
273.635	5360
273.696	14414
273.756	16594
273.816	5726
273.876	4829
273.936	24091
273.997	19048
274.057	4355
274.117	3878
274.177	6598
274.237	28757
274.297	20269
274.358	14393
274.418	14973
274.478	5673
274.538	4270
274.598	6854
274.658	27333
274.718	21267
274.778	6962
274.838	4864
274.898	22916
274.958	36962
275.018	26204
275.078	9792
275.138	5712
275.198	2501
275.258	2709
275.318	3880
275.378	4554
275.438	3567
275.498	5100
275.558	30006
275.618	28379
275.678	9641
275.738	6948
275.798	3924
275.858	2825
275.918	1567
275.978	2376
276.038	1831
276.098	2320
276.157	4553
276.217	7915
276.277	3374
276.337	2660
276.397	1868
276.457	2824
276.517	1715
276.576	1571
276.636	2006
276.696	2765
276.756	7044
276.815	2768
276.875	1698
276.935	2630
276.995	1957
277.055	2116
277.114	2035
277.174	4616
277.234	6493
277.293	2664
277.353	1780
277.413	1907
277.472	1747
277.532	1770
277.592	2158
277.651	9673
277.711	8207
277.771	4960
277.830	15483
277.890	9115
277.950	16590
278.009	27928
278.069	7751
278.128	11182
278.188	8539
278.248	6228
278.307	14017
278.367	7688
278.426	3887
278.486	2783
278.545	1887
278.605	2103
278.664	2126
278.724	3188
278.783	14329
278.843	20152
278.902	4231
278.962	4758
279.021	3747
279.081	8732
279.140	5330
279.199	4544
279.259	3526
279.318	5041
279.378	7254
279.437	20596
279.496	86091
279.556	271447
279.615	101167
279.675	27217
279.734	19057
279.793	32352
279.853	35695
279.912	11576
279.971	7091
280.031	7329
280.090	19572
280.149	22888
280.208	39579
280.268	210999
280.327	98495
280.386	23907
280.445	17462
280.505	12449
280.564	7450
280.623	6855
280.682	7242
280.742	7628
280.801	3478
280.860	3297
280.919	2945
280.978	3186
281.037	3090
281.097	2139
281.156	2176
281.215	2707
281.274	5073
281.333	16598
281.392	6674
281.451	3053
281.510	2782
281.569	3103
281.628	2473
281.688	2558
281.747	3317
281.806	2844
281.865	1757
281.924	2047
281.983	1393
282.042	896
282.101	1745
282.160	2087
282.219	623
282.278	3056
282.337	5789
282.396	2552
282.454	1966
282.513	3863
282.572	7568
282.631	3722
282.690	1337
282.749	1794
282.808	2652
282.867	2985
282.926	1608
282.985	708
283.043	804
283.102	1719
283.161	2185
283.220	9614
283.279	9957
283.338	3411
283.396	2030
283.455	2080
283.514	1445
283.573	3569
283.631	2064
283.690	2649
283.749	2102
283.808	4680
283.866	2676
283.925	1502
283.984	2218
284.043	2888
284.101	2596
284.160	2612
284.219	4752
284.277	3650
284.336	5551
284.395	14423
284.453	8751
284.512	4632
284.570	4722
284.629	4192
284.688	2654
284.746	3717
284.805	3842
284.863	4929
284.922	5544
284.981	6414
285.039	9193
285.098	22300
285.156	81735
285.215	250384
285.273	145118
285.332	48036
285.390	25288
285.449	16938
285.507	10822
285.566	8698
285.624	6081
285.683	5555
285.741	4381
285.799	3955
285.858	4171
285.916	3781
285.975	2214
286.033	2771
286.091	2212
286.150	2675
286.208	2759
286.267	4046
286.325	2082
286.383	4288
286.442	2919
286.500	3219
286.558	1870
286.616	2305
286.675	2590
286.733	2874
286.791	2598
286.850	4532
286.908	4477
286.966	5511
287.024	3007
287.083	2960
287.141	1962
287.199	3866
287.257	3689
287.315	3132
287.374	2809
287.432	5991
287.490	4160
287.548	4170
287.606	2937
287.664	3319
287.723	6293
287.781	6803
287.839	4978
287.897	5360
287.955	7905
288.013	15128
288.071	46293
288.129	241808
288.187	377615
288.245	123921
288.303	45509
288.361	29157
288.419	21261
288.477	14685
288.535	9309
288.593	6770
288.651	5599
288.709	4130
288.767	3962
288.825	3761
288.883	3352
288.941	3537
288.999	2383
289.057	2860
289.115	2629
289.173	3173
289.231	2516
289.289	3118
289.346	1643
289.404	2871
289.462	4011
289.520	4890
289.578	1455
289.636	2190
289.694	1660
289.751	2062
289.809	1544
289.867	1995
289.925	2670
289.983	2977
290.040	1838
290.098	2292
290.156	1946
290.214	2955
290.271	1114
290.329	2580
290.387	1300
290.444	1242
290.502	858
290.560	2023
290.617	1376
290.675	2051
290.733	1251
290.790	2033
290.848	816
290.906	2449
290.963	1526
291.021	2047
291.078	2058
291.136	2477
291.194	9566
291.251	13171
291.309	3589
291.366	1564
291.424	1453
291.481	1435
291.539	1212
291.596	2386
291.654	857
291.711	1844
291.769	1394
291.826	3947
291.884	1826
291.941	1167
291.999	1718
292.056	1681
292.114	835
292.171	1468
292.228	771
292.286	2623
292.343	4333
292.401	4875
292.458	3161
292.515	2249
292.573	3178
292.630	3224
292.687	3050
292.745	2618
292.802	5068
292.859	12115
292.917	14426
292.974	7636
293.031	2182
293.089	2122
293.146	1996
293.203	1913
293.260	2113
293.318	4469
293.375	4094
293.432	2308
293.489	1712
293.546	2050
293.604	5075
293.661	22022
293.718	32508
293.775	13774
293.832	6937
293.889	6131
293.947	7551
294.004	5298
294.061	4386
294.118	10297
294.175	18300
294.232	20206
294.289	6997
294.346	4178
294.403	4408
294.460	4371
294.517	2695
294.574	2493
294.631	2211
294.688	4309
294.745	17399
294.802	46138
294.859	34727
294.916	18092
294.973	9414
295.030	6557
295.087	5167
295.144	3961
295.201	3623
295.258	3261
295.315	6095
295.372	21330
295.429	25950
295.486	11716
295.542	8112
295.599	22652
295.656	26548
295.713	21998
295.770	21361
295.827	9411
295.883	5316
295.940	5226
295.997	6910
296.054	5601
296.111	2456
296.167	3025
296.224	1478
296.281	2156
296.338	1479
296.394	2741
296.451	4270
296.508	13126
296.564	18014
296.621	17919
296.678	47269
296.734	43347
296.791	16064
296.848	8552
296.904	9234
296.961	17958
297.018	29541
297.074	18939
297.131	8302
297.187	6673
297.244	13761
297.301	50561
297.357	55714
297.414	20919
297.470	8049
297.527	5316
297.583	4202
297.640	4561
297.696	3454
297.753	3751
297.809	1745
297.866	2563
297.922	2109
297.979	2451
298.035	2635
298.092	7823
298.148	16553
298.204	12528
298.261	9267
298.317	24985
298.374	44494
298.430	24364
298.486	11846
298.543	8945
298.599	6217
298.656	8894
298.712	19686
298.768	43760
298.824	26841
298.881	10392
298.937	5170
298.993	4501
299.050	4852
299.106	4815
299.162	4132
299.218	4378
299.275	2986
299.331	5424
299.387	16896
299.443	46943
299.500	38630
299.556	18746
299.612	8132
299.668	8539
299.724	13021
299.780	13029
299.837	8187
299.893	13372
299.949	32479
300.005	34181
300.061	42723
300.117	56224
300.173	26230
300.229	12528
300.285	11882
300.341	10883
300.397	7183
300.453	4900
300.510	4049
300.566	6256
300.622	10766
300.678	31667
300.734	37742
300.790	37526
300.845	35601
300.901	29421
300.957	30955
301.013	19559
301.069	9102
301.125	7725
301.181	6350
301.237	5036
301.293	3609
301.349	3873
301.405	2745
301.461	3233
301.516	4284
301.572	5393
301.628	6377
301.684	7812
301.740	12684
301.796	15395
301.851	11756
301.907	18524
301.963	23868
302.019	66030
302.074	134912
302.130	107189
302.186	45509
302.242	19900
302.297	12069
302.353	13766
302.409	19649
302.464	16590
302.520	18730
302.576	39541
302.631	34787
302.687	18514
302.743	8633
302.798	5282
302.854	3910
302.910	6312
302.965	8035
303.021	10652
303.076	9514
303.132	12500
303.187	10315
303.243	7558
303.299	4234
303.354	4559
303.410	3563
303.465	3700
303.521	2944
303.576	4445
303.632	6005
303.687	17861
303.743	40002
303.798	27686
303.853	12863
303.909	6678
303.964	5302
304.020	8199
304.075	9280
304.130	10427
304.186	13945
304.241	13688
304.297	10382
304.352	6951
304.358	6669
304.407	4384
304.449	5016
304.463	5233
304.518	4674
304.539	4831
304.573	5085
304.629	6932
304.630	7095
304.684	14648
304.720	29870
304.739	37604
304.794	41285
304.811	35262
304.850	20807
304.902	10131
304.905	9449
304.960	6760
304.992	7952
305.015	8840
305.071	6290
305.083	6048
305.126	5168
305.173	3713
305.181	3474
305.236	3311
305.264	3274
305.292	3240
305.347	4816
305.354	4859
305.402	5208
305.445	6953
305.457	7410
305.512	7574
305.535	7233
305.567	6852
305.622	8399
305.626	8980
305.678	19184
305.716	34893
305.733	41081
305.788	38877
305.807	36308
305.843	32253
305.897	42095
305.898	42198
305.953	34406
305.988	24986
306.008	19715
306.063	9815
306.078	8932
306.118	7095
306.168	4982
306.173	4786
306.228	4839
306.259	4340
306.283	4076
306.338	4794
306.349	4998
306.393	5621
306.440	6836
306.448	7081
306.503	7789
306.530	9698
306.558	12407
306.613	25900
306.620	26918
306.668	31978
306.711	32324
306.723	31954
306.778	21965
306.801	17300
306.833	11703
306.888	7451
306.892	7292
306.943	5647
306.982	5161
306.997	5004
307.052	5056
307.072	5602
307.107	6884
307.162	10376
307.163	10458
307.217	17914
307.253	22245
307.272	23611
307.327	22796
307.343	20389
307.381	14906
307.434	13933
307.436	14074
307.491	26771
307.524	35054
307.546	37893
307.600	28595
307.614	25305
307.655	16174
307.704	10272
307.710	9892
307.765	13248
307.795	19196
307.819	25146
307.874	39420
307.885	38446
307.929	27709
307.975	19397
307.984	18802
308.038	21185
308.065	30259
308.093	49388
308.148	115874
308.156	131269
308.202	220892
308.246	243284
308.257	234024
308.312	126732
308.336	85350
308.366	57749
308.421	32402
308.426	31088
308.475	21447
308.517	17272
308.530	16194
308.585	13426
308.607	12847
308.639	12489
308.694	14577
308.697	15123
308.748	30271
308.787	44621
308.803	46254
308.857	33437
308.877	28464
308.912	21932
308.967	15804
308.967	15815
309.021	17857
309.058	22525
309.076	27291
309.130	50843
309.148	65777
309.185	137303
309.238	276913
309.239	277893
309.293	310794
309.328	273414
309.348	228201
309.402	101640
309.418	72054
309.457	45187
309.508	27563
309.511	26636
309.566	21069
309.598	19453
309.620	19449
309.674	21101
309.688	21693
309.729	20397
309.778	16123
309.783	15608
309.837	11968
309.868	10438
309.892	10986
309.946	15703
309.959	17291
310.001	22665
310.049	26040
310.055	25400
310.109	16582
310.139	11899
310.163	9524
310.218	6191
310.229	5766
310.272	5266
310.319	5168
310.326	5109
310.381	5393
310.409	5228
310.435	4981
310.489	5083
310.499	5020
310.543	4999
310.589	5603
310.598	5610
310.652	5590
310.679	5463
310.706	4662
310.760	2713
310.769	2509
310.814	2796
310.859	3023
310.868	2956
310.923	3003
310.948	2875
310.977	2957
311.031	3688
311.038	3747
311.085	3646
311.128	3538
311.139	3444
311.193	2959
311.218	2858
311.247	2827
311.301	2569
311.308	2572
311.356	2634
311.398	2602
311.410	2444
311.464	1908
311.488	1615
311.518	1550
311.572	1525
311.578	1537
311.626	2023
311.668	2553
311.680	2793
311.734	3887
311.758	4408
311.788	4256
311.842	3905
311.847	3895
311.896	4168
311.937	4476
311.950	4420
312.004	4292
312.027	4231
312.058	3689
312.112	2801
312.117	2729
312.165	2197
312.207	1778
312.297	2583
312.386	1926
312.476	2481
312.566	3512
312.656	2687
312.745	2038
312.835	2146
312.925	3034
313.015	3227
313.104	3566
313.194	2075
313.284	2213
313.374	1928
313.463	2203
313.553	2400
313.643	1677
313.732	1791
313.822	961
313.912	2308
314.001	1887
314.091	2282
314.180	2897
314.270	3203
314.360	4275
314.449	3428
314.539	2198
314.628	1796
314.718	2224
314.808	4469
314.897	2272
314.987	2434
315.076	2657
315.166	4034
315.255	4573
315.345	4085
315.434	3589
315.524	4794
315.613	5520
315.703	5851
315.792	17780
315.881	82572
315.971	26131
316.060	9402
316.150	13112
316.239	14649
316.328	5884
316.418	2552
316.507	2590
316.597	3604
316.686	3337
316.775	7310
316.865	16829
316.954	4119
317.043	2221
317.133	2623
317.222	1900
317.311	2307
317.400	2014
317.490	4188
317.579	4442
317.668	5627
317.757	9887
317.847	34837
317.936	149041
318.025	39425
318.114	23785
318.203	11599
318.293	4799
318.382	7013
318.471	6514
318.560	9047
318.649	19802
318.738	4743
318.828	3482
318.917	3663
319.006	5690
319.095	16565
319.184	25526
319.273	13087
319.362	5458
319.451	3245
319.540	2466
319.629	4518
319.718	6802
319.807	3430
319.896	8971
319.985	31905
320.074	12017
320.163	4951
320.252	9445
320.341	5379
320.430	3344
320.519	3963
320.608	3292
320.697	2786
320.786	2486
320.875	3414
320.964	3792
321.053	5128
321.142	6920
321.230	8058
321.319	5972
321.408	12356
321.497	7190
321.586	6549
321.675	12978
321.764	11847
321.852	7424
321.941	7282
322.030	5484
322.119	6035
322.207	14827
322.296	19141
322.385	8526
322.474	8215
322.562	15530
322.651	9465
322.740	7322
322.829	12493
322.917	20811
323.006	8817
323.095	5351
323.183	6037
323.272	8169
323.361	19365
323.449	77145
323.538	24998
323.626	47749
323.715	33136
323.804	10372
323.892	41525
323.981	19578
324.069	6406
324.158	23844
324.246	24358
324.335	4350
324.424	4767
324.512	3226
324.601	2666
324.689	3640
324.778	7614
324.866	15251
324.954	4280
325.043	2213
325.131	8085
325.220	16883
325.308	19847
325.397	12527
325.485	7238
325.574	2191
325.662	2662
325.750	1311
325.839	2335
325.927	2251
326.015	2985
326.104	7158
326.192	11827
326.280	2601
326.369	1988
326.457	2283
326.545	3969
326.634	2454
326.722	2339
326.810	960
326.898	1707
326.987	1886
327.075	3987
327.163	7608
327.251	4397
327.340	2619
327.428	2728
327.516	2215
327.604	2198
327.692	3064
327.781	4101
327.869	7566
327.957	4199
328.045	2514
328.133	2483
328.221	3377
328.309	2919
328.397	1217
328.485	1987
328.574	2459
328.662	7653
328.750	8152
328.838	5096
328.926	2302
329.014	1726
329.102	2090
329.190	5936
329.278	3135
329.366	1595
329.454	855
329.542	1168
329.630	1055
329.718	2601
329.806	2061
329.893	2324
329.981	1742
330.069	2930
330.157	10811
330.245	39736
330.333	21047
330.421	3443
330.509	3297
330.597	9265
330.684	6070
330.772	3114
330.860	4258
330.948	4873
331.036	2135
331.123	1959
331.211	1190
331.299	2438
331.387	3678
331.475	7512
331.562	3317
331.650	2355
331.738	2370
331.825	4782
331.913	1500
332.001	1962
332.089	2276
332.176	7003
332.264	21652
332.352	15923
332.439	2242
332.527	2321
332.614	2466
332.702	4380
332.790	2508
332.877	7786
332.965	19098
333.052	4278
333.140	3180
333.228	8092
333.315	1822
333.403	2845
333.490	11974
333.578	8920
333.665	4557
333.753	3762
333.840	2472
333.928	3737
334.015	11825
334.103	16842
334.190	53519
334.278	13754
334.365	6036
334.452	5542
334.540	3350
334.627	5107
334.715	6614
334.802	13219
334.889	90429
334.977	104123
335.064	11503
335.151	4693
335.239	3665
335.326	3914
335.413	16339
335.501	25033
335.588	4587
335.675	3697
335.762	3859
335.850	5643
335.937	5198
336.024	18677
336.111	89799
336.199	40082
336.286	7113
336.373	4032
336.460	2419
336.547	2536
336.635	2727
336.722	2886
336.809	2391
336.896	3664
336.983	8763
337.070	21869
337.157	39521
337.245	53148
337.332	45361
337.419	4753
337.506	2354
337.593	2561
337.680	6159
337.767	20479
337.854	5396
337.941	7943
338.028	14949
338.115	5825
338.202	3697
338.289	11294
338.376	53520
338.463	15044
338.550	11386
338.637	13426
338.724	7794
338.811	15790
338.898	3358
338.984	2243
339.071	1640
339.158	3038
339.245	5257
339.332	4217
339.419	8469
339.506	9293
339.593	1035
339.679	1238
339.766	1202
339.853	2279
339.940	3377
340.027	1678
340.113	1249
340.200	2310
340.287	1682
340.374	1774
340.460	3151
340.547	1753
340.634	1895
340.720	8039
340.807	4763
340.894	1496
340.980	1905
341.067	1881
341.154	1063
341.240	1614
341.327	4492
341.414	1703
341.500	1339
341.587	1578
341.674	1692
341.760	2637
341.847	3080
341.933	1215
342.020	375
342.106	1568
342.193	1179
342.279	2348
342.366	792
342.452	2348
342.539	1242
342.625	3355
342.712	8635
342.798	3654
342.885	1049
342.971	855
343.058	1010
343.144	556
343.230	694
343.317	1219
343.403	1350
343.490	725
343.576	680
343.662	1073
343.749	1447
343.835	2094
343.921	3399
344.008	32509
344.094	86351
344.180	17574
344.267	3787
344.353	12856
344.439	17625
344.525	5526
344.612	2172
344.698	1645
344.784	1771
344.870	577
344.957	687
345.043	2580
345.129	1924
345.215	2650
345.301	1539
345.387	870
345.474	626
345.560	1700
345.646	2001
345.732	1717
345.818	1585
345.904	673
345.990	1490
346.076	2648
346.162	5775
346.249	2600
346.335	610
346.421	2256
346.507	5803
346.593	21317
346.679	5654
346.765	2104
346.851	975
346.937	1280
347.023	1332
347.108	1514
347.194	1086
347.280	1443
347.366	2269
347.452	6182
347.538	29020
347.624	18188
347.710	14282
347.796	3205
347.882	1124
347.967	1918
348.053	1785
348.139	1591
348.225	1107
348.311	1632
348.397	1066
348.482	1344
348.568	1875
348.654	1718
348.740	2619
348.825	2809
348.911	3147
348.997	11904
349.083	28245
349.168	5604
349.254	1534
349.340	1345
349.425	1092
349.511	1440
349.597	2743
349.682	3600
349.768	10467
349.854	5909
349.939	1385
350.025	1128
350.110	948
350.196	358
350.282	950
350.367	1062
350.453	4040
350.538	4349
350.624	1724
350.709	1931
350.795	758
350.880	1302
350.966	1607
351.051	3610
351.137	3733
351.222	1079
351.308	2799
351.393	8543
351.479	1867
351.564	1469
351.649	1324
351.735	537
351.820	472
351.906	1072
351.991	1860
352.076	5708
352.162	8665
352.247	1951
352.332	977
352.418	2580
352.503	2391
352.588	10852
352.673	10502
352.759	2667
352.844	1585
352.929	1647
353.014	2064
353.100	1461
353.185	3414
353.270	4095
353.355	3849
353.441	1899
353.526	1824
353.611	3249
353.696	2998
353.781	2117
353.866	1046
353.952	1705
354.037	2498
354.122	6212
354.207	5482
354.292	2796
354.377	1059
354.462	1854
354.547	1667
354.632	1871
354.717	2236
354.802	4462
354.887	2490
354.972	1455
355.057	58
355.142	1306
355.227	1391
355.312	1588
355.397	3626
355.482	9365
355.567	4836
355.652	3580
355.737	4484
355.822	12296
355.907	12380
355.991	2261
356.076	1274
356.161	1609
356.246	1330
356.331	2203
356.416	3590
356.501	28235
356.585	37105
356.670	4254
356.755	2838
356.840	3374
356.924	19343
357.009	90283
357.094	36629
357.179	4493
357.263	3909
357.348	3417
357.433	3261
357.517	2683
357.602	2974
357.687	2353
357.771	3337
357.856	6398
357.941	5513
358.025	17956
358.110	109338
358.195	59608
358.279	5412
358.364	3444
358.448	8693
358.533	21991
358.617	17156
358.702	16632
358.787	7330
358.871	3164
358.956	3326
359.040	1355
359.125	737
359.209	1469
359.294	3163
359.378	5737
359.462	2980
359.547	2787
359.631	2383
359.716	899
359.800	867
359.885	2040
359.969	1179
360.053	2192
360.138	1643
360.222	2151
360.306	2844
360.391	2482
360.475	3791
360.559	9124
360.644	8970
360.728	7339
360.812	14571
360.896	50240
360.981	18734
361.065	7642
361.149	2981
361.233	2037
361.318	2236
361.402	2865
361.486	2349
361.570	2304
361.654	2209
361.739	4620
361.823	27517
361.907	56210
361.991	9634
362.075	4125
362.159	6399
362.243	5862
362.327	7125
362.411	11295
362.495	6515
362.580	3231
362.664	1666
362.748	2011
362.832	3230
362.916	4696
363.000	15994
363.084	47390
363.168	68919
363.252	16639
363.336	4709
363.420	5541
363.503	19467
363.587	29128
363.671	5042
363.755	3058
363.839	4039
363.923	3367
364.007	4152
364.091	6103
364.175	8949
364.258	38661
364.342	32582
364.426	40159
364.510	25330
364.594	8769
364.677	8468
364.761	39375
364.845	33894
364.929	6401
365.013	4334
365.096	3992
365.180	4820
365.264	8991
365.347	37793
365.431	18982
365.515	3434
365.598	1284
365.682	1890
365.766	3038
365.849	4139
365.933	2681
366.017	3075
366.100	2374
366.184	1040
366.267	2257
366.351	1126
366.435	1528
366.518	576
366.602	1278
366.685	1210
366.769	1446
366.852	2908
366.936	4365
367.019	2588
367.103	2022
367.186	3130
367.270	1479
367.353	830
367.436	1374
367.520	575
367.603	1847
367.687	1600
367.770	3730
367.853	2440
367.937	7480
368.020	14598
368.104	4667
368.187	2487
368.270	3443
368.353	3172
368.437	9591
368.520	32367
368.603	17009
368.687	9271
368.770	18236
368.853	5289
368.936	4115
369.020	4808
369.103	2160
369.186	1529
369.269	1719
369.352	2457
369.436	3650
369.519	2867
369.602	742
369.685	1922
369.768	1317
369.851	1301
369.934	1090
370.018	1586
370.101	3650
370.184	3534
370.267	1847
370.350	3155
370.433	4950
370.516	20265
370.599	45074
370.682	18963
370.765	9109
370.848	11191
370.931	24476
371.014	10987
371.097	3224
371.180	1084
371.263	1956
371.346	963
371.429	1914
371.511	1779
371.594	3079
371.677	4276
371.760	4651
371.843	3950
371.926	31288
372.009	97789
372.091	31716
372.174	10264
372.257	26127
372.340	12505
372.423	6304
372.505	7158
372.588	3239
372.671	6682
372.754	21958
372.836	14709
372.919	9326
373.002	18807
373.085	6768
373.167	3480
373.250	8777
373.332	22556
373.415	43743
373.498	119183
373.580	49825
373.663	74080
373.746	115787
373.828	20257
373.911	5091
373.993	4889
374.076	17685
374.159	20794
374.241	8165
374.324	17078
374.406	14675
374.489	23511
374.571	75175
374.654	32679
374.736	11303
374.819	39938
374.901	67438
374.983	84907
375.066	16155
375.148	3761
375.231	15278
375.313	31183
375.395	11706
375.478	3548
375.560	2335
375.643	3585
375.725	11768
375.807	56203
375.890	61107
375.972	30724
376.054	12701
376.136	26428
376.219	12868
376.301	11931
376.383	42408
376.465	20211
376.548	6499
376.630	9736
376.712	29348
376.794	18183
376.877	1748
376.959	910
377.041	1392
377.123	3209
377.205	3744
377.287	973
377.369	1143
377.452	2340
377.534	1875
377.616	773
377.698	1319
377.780	349
377.862	949
377.944	530
378.026	1401
378.108	369
378.190	1555
378.272	1054
378.354	913
378.436	1063
378.518	1928
378.600	6053
378.682	5967
378.764	9983
378.846	10636
378.928	2836
379.010	2875
379.091	2800
379.173	1433
379.255	511
379.337	2085
379.419	4825
379.501	16630
379.583	8291
379.664	2421
379.746	3002
379.828	10519
379.910	13673
379.991	13742
380.073	3680
380.155	2355
380.237	1389
380.318	1245
380.400	1355
380.482	2543
380.564	3462
380.645	4358
380.727	4110
380.809	2955
380.890	1421
380.972	1880
381.053	1339
381.135	1494
381.217	3787
381.298	11730
381.380	6623
381.461	6097
381.543	29403
381.624	45649
381.706	9013
381.787	3273
381.869	3870
381.951	16077
382.032	78490
382.113	58184
382.195	7661
382.276	5161
382.358	9372
382.439	27130
382.521	36754
382.602	69456
382.684	29958
382.765	32259
382.846	31991
382.928	29400
383.009	18400
383.090	11192
383.172	38566
383.253	73525
383.334	31694
383.416	42629
383.497	26975
383.578	7213
383.659	10596
383.741	35967
383.822	106918
383.903	67741
383.984	21317
384.066	43908
384.147	31457
384.228	7268
384.309	4194
384.390	3773
384.471	2969
384.553	3058
384.634	2836
384.715	4199
384.796	2390
384.877	3068
384.958	9817
385.039	13460
385.120	4653
385.201	3198
385.282	3433
385.363	4128
385.444	3426
385.525	5935
385.606	20544
385.687	23184
385.768	5143
385.849	5775
385.930	29853
386.011	71462
386.092	23693
386.173	4057
386.254	3194
386.335	3471
386.416	2858
386.496	6097
386.577	11513
386.658	6585
386.739	3183
386.820	4493
386.901	2820
386.981	3478
387.062	2246
387.143	3846
387.224	10685
387.304	13287
387.385	5147
387.466	3061
387.547	4483
387.627	3526
387.708	4684
387.789	20608
387.869	29707
387.950	10911
388.031	2909
388.111	1227
388.192	5932
388.273	7848
388.353	4867
388.434	3016
388.514	4953
388.595	27157
388.676	38702
388.756	14956
388.837	9920
388.917	7681
388.998	1926
389.078	3022
389.159	2724
389.239	2101
389.320	3261
389.400	2014
389.480	5190
389.561	13012
389.641	8488
389.722	3426
389.802	4474
389.883	6239
389.963	15780
390.043	15206
390.124	5241
390.204	5731
390.284	12596
390.365	11485
390.445	16879
390.525	60510
390.605	63174
390.686	13120
390.766	4579
390.846	2929
390.927	2486
391.007	2474
391.087	3424
391.167	2829
391.247	2136
391.328	6390
391.408	7093
391.488	5663
391.568	2779
391.648	2924
391.728	4781
391.808	4587
391.888	4689
391.969	8558
392.049	13039
392.129	8847
392.209	8527
392.289	18247
392.369	13516
392.449	10366
392.529	9204
392.609	9086
392.689	11383
392.769	19966
392.849	23160
392.929	19280
393.009	33803
393.089	38393
393.169	50935
393.248	167562
393.328	736966
393.408	1014910
393.488	282441
393.568	59327
393.648	30140
393.728	18860
393.807	13413
393.887	12107
393.967	10692
394.047	9971
394.127	9578
394.206	14024
394.286	42272
394.366	226679
394.446	310004
394.525	67771
394.605	12825
394.685	10028
394.764	13288
394.844	20970
394.924	18968
395.003	8322
395.083	5800
395.163	6514
395.242	5740
395.322	6194
395.402	5065
395.481	7150
395.561	9741
395.640	23368
395.720	23791
395.799	28781
395.879	26904
395.958	17911
396.038	58618
396.117	302316
396.197	418245
396.276	103738
396.356	23399
396.435	17981
396.515	16298
396.594	20992
396.673	42537
396.753	183763
396.832	703453
396.912	623179
396.991	114959
397.070	28331
397.150	14466
397.229	11795
397.308	12022
397.388	17240
397.467	12022
397.546	6751
397.625	3613
397.705	6399
397.784	4716
397.863	2749
397.942	2851
398.022	3571
398.101	6802
398.180	20949
398.259	13331
398.338	5142
398.417	2455
398.497	2908
398.576	2412
398.655	1867
398.734	1969
398.813	2613
398.892	6816
398.971	21865
399.050	14266
399.129	1697
399.208	1348
399.287	2378
399.366	830
399.445	1308
399.524	1422
399.603	1429
399.682	2069
399.761	6146
399.840	21910
399.919	23115
399.998	3263
400.077	815
400.156	-385
400.235	2694
400.313	491
400.392	671
400.471	5066
400.550	9360
400.629	2978
400.708	1411
400.786	1494
400.865	3260
400.944	3162
401.023	2577
401.102	644
401.180	651
401.259	1093
401.338	968
401.416	850
401.495	1813
401.574	1154
401.652	721
401.731	990
401.810	670
401.888	341
401.967	800
402.046	-237
402.124	937
402.203	1461
402.281	420
402.360	1028
402.438	4306
402.517	2879
402.596	1233
402.674	280
402.753	144
402.831	1295
402.910	1476
402.988	4585
403.066	16719
403.145	13288
403.223	5643
403.302	13959
403.380	11730
403.459	9642
403.537	4089
403.615	1333
403.694	-457
403.772	668
403.850	349
403.929	296
404.007	296
404.085	2106
404.164	1886
404.242	240
404.320	1570
404.398	3755
404.477	9160
404.555	39125
404.633	44477
404.711	8276
404.789	2547
404.868	1259
404.946	581
405.024	-291
405.102	367
405.180	234
405.258	-1073
405.336	296
405.415	-512
405.493	1404
405.571	1265
405.649	-8
405.727	255
405.805	632
405.883	1397
405.961	1657
406.039	1423
406.117	-472
406.195	1249
406.273	6150
406.351	28499
406.429	23333
406.507	3271
406.585	451
406.663	494
406.740	789
406.818	629
406.896	538
406.974	963
407.052	1506
407.130	14677
407.208	25440
407.285	6982
407.363	-443
407.441	906
407.519	416
407.596	1768
407.674	9871
407.752	53084
407.830	55550
407.907	9747
407.985	1214
408.063	1706
408.141	-475
408.218	1376
408.296	1251
408.373	1138
408.451	67
408.529	531
408.606	-441
408.684	509
408.762	-10
408.839	182
408.917	-398
408.994	1185
409.072	-659
409.149	113
409.227	959
409.304	1776
409.382	1424
409.459	2625
409.537	2853
409.614	2555
409.692	933
409.769	1329
409.846	3041
409.924	4341
410.001	2124
410.079	1532
410.156	770
410.233	1461
410.311	960
410.388	411
410.465	962
410.543	272
410.620	-16
410.697	94
410.775	778
410.852	-694
410.929	37
411.006	1648
411.083	314
411.161	931
411.238	1482
411.315	1382
411.392	-57
411.469	157
411.547	-293
411.624	-733
411.701	64
411.778	1020
411.855	554
411.932	426
412.009	-451
412.086	176
412.163	372
412.240	863
412.317	988
412.394	-225
412.471	229
412.548	-101
412.625	-154
412.702	359
412.779	517
412.856	691
412.933	-67
413.010	-549
413.087	801
413.164	4036
413.241	6390
413.318	1685
413.395	558
413.471	974
413.548	840
413.625	423
413.702	-412
413.779	759
413.855	-209
413.932	-687
414.009	-587
414.086	248
414.162	-927
414.239	496
414.316	4212
414.393	11075
414.469	4445
414.546	-422
414.623	-1005
414.699	-1361
414.776	-387
414.853	-406
414.929	316
415.006	45
415.082	183
415.159	-301
415.236	246
415.312	-90
415.389	53
415.465	942
415.542	651
415.618	-982
415.695	1157
415.771	-292
415.848	219
415.924	406
416.000	-641
416.077	541
416.153	-890
416.230	-897
416.306	-937
416.383	-437
416.459	-466
416.535	-872
416.612	-1094
416.688	-171
416.764	-230
416.841	-422
416.917	-268
416.993	152
417.069	-123
417.146	181
417.222	400
417.298	246
417.374	-792
417.451	352
417.527	-92
417.603	502
417.679	-420
417.755	859
417.831	-637
417.908	-133
417.984	-339
418.060	-160
418.136	272
418.212	868
418.288	126
418.364	36
418.440	-935
418.516	1345
418.592	36
418.668	2319
418.744	2266
418.820	2856
418.896	-147
418.972	-422
419.048	-380
419.124	1597
419.200	15
419.276	-461
419.352	-383
419.428	-700
419.504	48
419.579	420
419.655	-707
419.731	250
419.807	1994
419.883	4312
419.959	2343
420.034	1267
420.110	202
420.186	6308
420.262	7163
420.337	1329
420.413	474
420.489	527
420.565	139
420.640	-41
420.716	-31
420.792	-407
420.867	150
420.943	730
421.019	933
421.094	890
421.170	558
421.245	498
421.321	1232
421.397	1591
421.472	7981
421.548	31536
421.623	26832
421.699	3906
421.774	1963
421.850	1274
421.925	2943
422.001	3802
422.076	3007
422.152	2875
422.227	4539
422.302	6762
422.378	9521
422.453	17039
422.529	42224
422.604	155154
422.679	371375
422.755	262371
422.830	70453
422.905	23482
422.981	11519
423.056	7880
423.131	5704
423.207	3653
423.282	3052
423.357	3574
423.432	3660
423.508	2605
423.583	2988
423.658	4454
423.733	1612
423.808	1253
423.883	1160
423.959	1494
424.034	825
424.109	1969
424.184	297
424.259	708
424.334	-543
424.409	122
424.484	224
424.559	424
424.634	-487
424.709	44
424.784	977
424.859	669
424.934	37
425.009	4315
425.084	8792
425.159	3948
425.234	883
425.309	-83
425.384	372
425.459	1128
425.534	1567
425.609	-5
425.683	21
425.758	-472
425.833	-54
425.908	650
425.983	1941
426.058	9628
426.132	5359
426.207	922
426.282	1524
426.357	1241
426.431	-726
426.506	665
426.581	398
426.655	307
426.730	0
426.805	-330
426.879	205
426.954	-576
427.029	1117
427.103	7812
427.178	26515
427.253	18974
427.327	2398
427.402	886
427.476	2768
427.551	2470
427.625	132
427.700	571
427.774	-476
427.849	1314
427.923	245
427.998	93
428.072	333
428.147	2466
428.221	12592
428.296	51720
428.370	45828
428.444	6711
428.519	2027
428.593	4599
428.667	4898
428.742	4498
428.816	7216
428.890	26052
428.965	60627
429.039	26126
429.113	6991
429.188	3425
429.262	385
429.336	1860
429.410	4151
429.485	4987
429.559	4281
429.633	3914
429.707	1746
429.781	3966
429.855	24902
429.930	58358
430.004	30693
430.078	26132
430.152	32926
430.226	75506
430.300	116054
430.374	30044
430.448	4526
430.522	7069
430.596	24576
430.670	24723
430.744	43252
430.818	85991
430.892	27542
430.966	2486
431.040	1875
431.114	199
431.188	-406
431.262	16
431.336	148
431.410	2528
431.484	4927
431.557	6733
431.631	796
431.705	789
431.779	8023
431.853	48510
431.927	58321
432.000	10785
432.074	891
432.148	50
432.222	379
432.295	784
432.369	-38
432.443	422
432.516	9510
432.590	34453
432.664	22497
432.737	2030
432.811	-433
432.885	-456
432.958	-144
433.032	-503
433.106	-474
433.179	-544
433.253	-605
433.326	-217
433.400	-601
433.473	325
433.547	-901
433.620	-607
433.694	-284
433.767	1008
433.841	-439
433.914	-20
433.988	-539
434.061	-772
434.134	-637
434.208	-832
434.281	-726
434.355	-161
434.428	13
434.501	-380
434.575	-849
434.648	-399
434.721	-265
434.795	-1371
434.868	-869
434.941	-1272
435.014	-812
435.088	145
435.161	81
435.234	163
435.307	922
435.381	524
435.454	273
435.527	2371
435.600	2096
435.673	2090
435.746	578
435.819	352
435.892	235
435.966	139
436.039	-264
436.112	69
436.185	-729
436.258	-99
436.331	-1578
436.404	-771
436.477	-1709
436.550	-564
436.623	-870
436.696	-1073
436.769	-414
436.842	-506
436.915	-416
436.987	406
437.060	-365
437.133	-630
437.206	-355
437.279	-148
437.352	-598
437.425	-515
437.498	126
437.570	1236
437.643	197
437.716	361
437.789	-429
437.861	276
437.934	2020
438.007	1907
438.080	-421
438.152	409
438.225	984
438.298	15465
438.370	63805
438.443	47647
438.516	6062
438.588	707
438.661	-1074
438.734	269
438.806	-540
438.879	354
438.951	-679
439.024	1149
439.096	459
439.169	187
439.241	-529
439.314	-468
439.386	392
439.459	2822
439.531	3584
439.604	2367
439.676	-178
439.749	-74
439.821	-1036
439.893	-195
439.966	489
440.038	332
440.110	626
440.183	-99
440.255	-924
440.327	1248
440.400	5072
440.472	29829
440.544	39561
440.617	7804
440.689	1510
440.761	1055
440.833	2613
440.905	2254
440.978	436
441.050	564
441.122	-969
441.194	-564
441.266	-153
441.338	289
441.411	-14
441.483	6128
441.555	17584
441.627	7609
441.699	1842
441.771	2729
441.843	2059
441.915	177
441.987	632
442.059	66
442.131	1368
442.203	2673
442.275	2576
442.347	4205
442.419	5100
442.491	25547
442.563	92418
442.635	77828
442.706	21180
442.778	13109
442.850	3906
442.922	1307
442.994	2143
443.066	3190
443.137	4274
443.209	3772
443.281	4911
443.353	10430
443.425	36271
443.496	150910
443.568	230258
443.640	124006
443.711	30302
443.783	6914
443.855	4271
443.926	2470
443.998	1504
444.070	2070
444.141	1690
444.213	2341
444.285	2964
444.356	4228
444.428	4651
444.499	2282
444.571	497
444.642	1767
444.714	1796
444.785	2556
444.857	3528
444.928	7531
445.000	9920
445.071	7438
445.143	10863
445.214	9016
445.285	10759
445.357	29139
445.428	95602
445.500	289671
445.571	278535
445.642	149090
445.714	60747
445.785	27674
445.856	13045
445.928	5831
445.999	4317
446.070	3445
446.141	1968
446.213	3741
446.284	2285
446.355	2190
446.426	1518
446.497	1566
446.569	1237
446.640	4781
446.711	3993
446.782	1699
446.853	2298
446.924	4267
446.995	1341
447.066	1377
447.138	1991
447.209	3427
447.280	121
447.351	214
447.422	-612
447.493	181
447.564	1904
447.635	1935
447.706	1552
447.777	13
447.847	-289
447.918	-353
447.989	450
448.060	1988
448.131	4734
448.202	6704
448.273	3594
448.344	1963
448.414	1000
448.485	755
448.556	-293
448.627	-674
448.698	-13
448.768	-463
448.839	-15
448.910	1700
448.981	3420
449.051	1695
449.122	963
449.193	-98
449.263	-228
449.334	214
449.405	-15
449.475	2784
449.546	3224
449.616	3042
449.687	4316
449.758	2103
449.828	195
449.899	-98
449.969	547
450.040	206
450.110	1053
450.181	3405
450.251	1745
450.322	501
450.392	368
450.463	344
450.533	230
450.604	-63
450.674	304
450.744	345
450.815	318
450.885	1640
450.955	378
451.026	579
451.096	-13
451.166	658
451.237	3127
451.307	10226
451.377	9150
451.447	1207
451.518	-145
451.588	158
451.658	168
451.728	963
451.799	7530
451.869	16349
451.939	6834
452.009	642
452.079	56
452.149	670
452.219	1661
452.289	9522
452.360	15274
452.430	5415
452.500	1596
452.570	3098
452.640	4524
452.710	13707
452.780	25405
452.850	21524
452.920	14155
452.990	7779
453.060	2880
453.129	2933
453.199	3676
453.269	11113
453.339	48654
453.409	86246
453.479	58328
453.549	84453
453.619	97680
453.688	66831
453.758	12958
453.828	2485
453.898	1607
453.968	1351
454.037	1107
454.087	948
454.107	862
454.168	707
454.177	662
454.247	370
454.249	380
454.316	-103
454.330	286
454.386	1306
454.411	2250
454.456	3384
454.492	7877
454.525	11916
454.574	8076
454.595	6491
454.655	1652
454.665	865
454.734	2096
454.736	2247
454.804	4226
454.817	5959
454.873	11207
454.898	14784
454.943	21156
454.979	17652
455.013	14990
455.060	9189
455.082	6831
455.141	5699
455.152	5553
455.221	12122
455.222	12560
455.291	27552
455.303	29987
455.360	37153
455.384	49195
455.430	65433
455.465	62447
455.499	62705
455.546	34887
455.569	21419
455.627	14781
455.638	13767
455.707	4730
455.708	4733
455.777	1653
455.789	1722
455.846	1847
455.869	1726
455.916	1488
455.950	1914
455.985	2237
456.031	1830
456.054	1582
456.112	1400
456.124	1405
456.193	1887
456.193	1857
456.262	2405
456.274	2847
456.332	4311
456.355	4575
456.401	4115
456.436	3665
456.470	3736
456.516	2178
456.540	1390
456.597	1295
456.609	1259
456.678	1207
456.678	1189
456.747	1561
456.759	1438
456.817	892
456.840	1122
456.886	1429
456.920	1452
456.955	1896
457.001	2834
457.024	3431
457.082	4693
457.093	4941
457.162	7833
457.163	7902
457.232	8105
457.243	7656
457.301	7069
457.324	5373
457.370	2737
457.405	2766
457.439	2763
457.485	2817
457.508	2958
457.566	4270
457.577	4697
457.646	7082
457.647	7135
457.715	13124
457.727	14648
457.784	23690
457.808	29362
457.853	29840
457.889	33219
457.922	37510
457.969	34408
457.991	37636
458.050	40709
458.060	40936
458.129	56262
458.130	57031
458.198	48284
458.211	43305
458.267	39135
458.292	30494
458.336	21506
458.372	19755
458.405	23820
458.453	34811
458.474	41980
458.533	68105
458.543	66679
458.611	73440
458.614	73766
458.680	61706
458.694	51674
458.749	34925
458.775	26123
458.818	13216
458.855	9788
458.887	7110
458.936	6046
458.955	5685
459.016	5254
459.024	5151
459.093	5170
459.097	5123
459.162	4052
459.177	4023
459.230	4497
459.257	4903
459.299	5178
459.338	5394
459.368	5429
459.418	5045
459.437	4719
459.499	4628
459.505	4682
459.574	3660
459.579	3690
459.643	3869
459.659	3866
459.711	4225
459.740	4311
459.780	4456
459.820	5214
459.849	5440
459.900	5229
459.917	5201
459.981	5707
459.986	5696
460.054	5009
460.061	4916
460.123	4955
460.141	5061
460.191	5524
460.222	6115
460.260	6538
460.302	7145
460.328	7241
460.382	6956
460.397	7542
460.462	9527
460.465	10255
460.534	28098
460.543	30488
460.602	65713
460.623	78651
460.671	117634
460.703	151177
460.739	108404
460.783	58913
460.808	60285
460.864	28511
460.876	24672
460.944	7298
460.945	7087
461.013	5622
461.024	5533
461.081	5570
461.104	5810
461.150	5691
461.184	5274
461.218	5287
461.264	5505
461.286	5640
461.345	5224
461.355	5147
461.423	5897
461.425	5910
461.491	7568
461.505	7932
461.559	15815
461.585	19323
461.628	27415
461.665	35589
461.696	31839
461.745	28649
461.764	25901
461.825	13035
461.832	13247
461.901	8064
461.905	8045
461.969	5732
461.985	5497
462.037	6500
462.065	6767
462.105	8198
462.145	9904
462.173	13120
462.225	19335
462.241	19847
462.305	23387
462.310	22672
462.378	11868
462.385	10249
462.446	8138
462.465	7307
462.514	6111
462.545	6244
462.582	6101
462.625	6095
462.650	6099
462.705	6001
462.718	6418
462.785	8513
462.786	8569
462.854	11566
462.865	12148
462.922	11714
462.945	11740
462.990	9399
463.025	6827
463.058	6514
463.104	5692
463.126	5423
463.184	5373
463.194	5406
463.262	5480
463.264	5493
463.330	6429
463.344	6612
463.398	7395
463.424	7759
463.466	7249
463.504	6624
463.533	6823
463.583	7288
463.601	7721
463.663	9101
463.669	9455
463.737	13885
463.743	14269
463.805	22087
463.823	24354
463.873	35461
463.903	42318
463.940	36393
463.982	30850
464.008	25249
464.062	11814
464.076	11739
464.142	8173
464.144	8102
464.211	6926
464.221	6952
464.279	7499
464.301	7663
464.347	8691
464.381	9483
464.414	10627
464.461	12285
464.482	11599
464.540	9790
464.550	9770
464.617	9219
464.620	9185
464.685	10555
464.699	10861
464.753	12814
464.779	13848
464.820	14469
464.859	14940
464.888	14972
464.938	15124
464.956	14730
465.018	13030
465.023	12951
465.091	11704
465.098	11535
465.158	10681
465.177	10452
465.226	10881
465.257	11159
465.293	11655
465.336	12063
465.361	13218
465.416	16011
465.428	17416
465.495	24902
465.496	25045
465.563	41128
465.575	43904
465.631	37872
465.654	35536
465.698	23927
465.734	13618
465.765	13164
465.813	11601
465.833	11271
465.893	11307
465.900	11265
465.968	10798
465.972	10755
466.035	11355
466.052	11495
466.102	12289
466.131	12615
466.170	12782
466.210	13012
466.237	12919
466.290	12721
466.304	13116
466.369	14626
466.372	14687
466.439	15825
466.449	15942
466.506	18665
466.528	19674
466.573	28617
466.607	35290
466.641	46489
466.687	61930
466.708	60098
466.766	54800
466.775	51102
466.842	22776
466.845	21389
466.909	17665
466.925	16772
466.977	17187
467.004	17502
467.044	17887
467.083	18275
467.111	20247
467.163	23819
467.178	23471
467.242	21819
467.245	21796
467.312	20496
467.321	20289
467.379	20961
467.400	21142
467.446	22403
467.480	23242
467.559	17298
467.638	17405
467.717	17537
467.796	19084
467.875	19580
467.955	22306
468.034	39632
468.113	72843
468.192	71166
468.271	21647
468.350	24230
468.429	29797
468.508	27690
468.588	20157
468.667	19750
468.746	20169
468.825	17299
468.904	14925
468.983	19609
469.062	28837
469.141	26162
469.220	13771
469.299	14864
469.378	16061
469.456	18393
469.535	16997
469.614	16837
469.693	19088
469.772	22938
469.851	30424
469.930	16296
470.009	15112
470.088	14431
470.166	15950
470.245	20285
470.324	19330
470.403	15097
470.482	13610
470.560	13756
470.639	14918
470.718	16176
470.797	16251
470.875	20317
470.954	27235
471.033	20865
471.111	12790
471.190	12488
471.269	11636
471.347	11612
471.426	12960
471.505	15665
471.583	15486
471.662	14348
471.740	13831
471.819	14087
471.898	13691
471.976	12923
472.055	14534
472.133	17499
472.212	22854
472.290	18314
472.369	12872
472.447	12468
472.526	12064
472.604	13391
472.683	14772
472.761	13408
472.839	12776
472.918	12711
472.996	14178
473.075	15596
473.153	13995
473.231	13181
473.310	16525
473.388	12982
473.466	14807
473.545	15755
473.623	18548
473.701	14442
473.780	13780
473.858	13750
473.936	15494
474.014	14414
474.093	18378
474.171	25420
474.249	31717
474.327	14351
474.405	12115
474.484	11034
474.562	13008
474.640	11929
474.718	15223
474.796	12670
474.874	11981
474.952	11337
475.030	12582
475.108	13093
475.187	15467
475.265	16374
475.343	21717
475.421	18727
475.499	12770
475.577	14510
475.655	23077
475.733	44186
475.811	60739
475.889	55710
475.966	20500
476.044	13461
476.122	17316
476.200	20347
476.278	12196
476.356	11848
476.434	12978
476.512	15836
476.590	20019
476.667	13978
476.745	11363
476.823	12110
476.901	11587
476.979	11956
477.056	12397
477.134	11368
477.212	13243
477.290	10785
477.367	10265
477.445	10230
477.523	11042
477.601	10309
477.678	11761
477.756	14910
477.834	13599
477.911	10889
477.989	11142
478.066	10114
478.144	14964
478.222	16912
478.299	25970
478.377	15716
478.454	11232
478.532	9443
478.609	10100
478.687	10199
478.764	9328
478.842	11215
478.919	11372
478.997	10062
479.074	10108
479.152	13971
479.229	17064
479.307	8486
479.384	8626
479.461	9608
479.539	12143
479.616	12360
479.694	10457
479.771	12079
479.848	14880
479.926	19452
480.003	14335
480.080	9398
480.157	10013
480.235	9311
480.312	10327
480.389	14803
480.467	24454
480.544	21837
480.621	11446
480.698	11528
480.775	14456
480.853	12511
480.930	11015
481.007	12000
481.084	18354
481.161	22710
481.238	12940
481.315	9214
481.392	10266
481.470	10652
481.547	11683
481.624	10261
481.701	9705
481.778	11052
481.855	15220
481.932	22374
482.009	35664
482.086	15018
482.163	14754
482.240	20470
482.317	31070
482.393	15324
482.470	11842
482.547	10375
482.624	11020
482.701	10584
482.778	9962
482.855	8485
482.932	9745
483.009	10514
483.085	14421
483.162	19216
483.239	14724
483.316	12997
483.393	12698
483.469	10433
483.546	13880
483.623	11341
483.699	10991
483.776	10318
483.853	13743
483.930	27952
484.006	61951
484.083	71566
484.160	41407
484.236	53337
484.313	36845
484.389	29686
484.466	29020
484.543	28785
484.619	32908
484.696	33274
484.772	31581
484.849	30421
484.925	25761
485.002	25350
485.078	27055
485.155	24565
485.231	23816
485.308	24393
485.384	27891
485.461	39836
485.537	61101
485.614	46191
485.690	23196
485.766	21967
485.843	25938
485.919	30722
485.995	25318
486.072	20773
486.148	21434
486.224	21132
486.301	22465
486.377	25644
486.453	24753
486.530	26483
486.606	37144
486.682	38041
486.758	50705
486.835	47494
486.911	48287
486.987	70054
487.063	53643
487.139	56216
487.215	44633
487.292	26790
487.368	27671
487.444	31014
487.520	41550
487.596	56690
487.672	118276
487.748	283081
487.824	263971
487.900	57070
487.976	32569
488.052	30334
488.128	29420
488.204	26240
488.280	26375
488.356	38844
488.432	76177
488.508	72800
488.584	23339
488.660	20925
488.736	20336
488.812	21871
488.888	28308
488.964	36239
489.039	67696
489.115	75881
489.191	32685
489.267	21373
489.343	20601
489.418	17605
489.494	17146
489.570	17418
489.646	18741
489.722	19117
489.797	22699
489.873	43601
489.949	80208
490.024	34356
490.100	17378
490.176	18035
490.251	21226
490.327	22816
490.403	16433
490.478	15946
490.554	14344
490.629	14659
490.705	15276
490.781	16913
490.856	16553
490.932	17757
491.007	17271
491.083	17226
491.158	18432
491.234	31065
491.309	59103
491.385	32643
491.460	15986
491.536	16776
491.611	14840
491.686	18009
491.762	23872
491.837	44937
491.913	62245
491.988	91524
492.063	70213
492.139	32942
492.214	18829
492.289	11330
492.365	15067
492.440	15577
492.515	16203
492.590	14565
492.666	14211
492.741	24349
492.816	27474
492.891	13376
492.967	13460
493.042	13681
493.117	16718
493.192	25781
493.267	72644
493.342	208879
493.418	143395
493.493	15745
493.568	11687
493.643	13328
493.718	17049
493.793	24393
493.868	19084
493.943	11791
494.018	12476
494.093	11760
494.168	11506
494.243	10632
494.318	10115
494.393	9918
494.468	10042
494.543	10317
494.618	12362
494.693	9225
494.768	11609
494.842	9437
494.917	9592
494.992	10831
495.067	7861
495.142	8955
495.217	10443
495.292	9223
495.366	11757
495.441	14984
495.516	17751
495.591	32828
495.665	96942
495.740	141594
495.815	27610
495.890	13412
495.964	12022
496.039	13902
496.114	16051
496.188	22502
496.263	14993
496.338	11449
496.412	16287
496.487	16003
496.561	17546
496.636	16200
496.710	14921
496.785	18339
496.860	16697
496.934	13544
497.009	14661
497.083	14111
497.158	15367
497.232	19551
497.307	22223
497.381	19269
497.455	27871
497.530	30020
497.604	20615
497.679	27646
497.753	45454
497.827	48620
497.902	50438
497.976	75416
498.050	229242
498.125	634684
498.199	252820
498.273	56605
498.348	46287
498.422	38515
498.496	34584
498.570	28349
498.645	25455
498.719	26864
498.793	35502
498.867	56926
498.941	92975
499.016	309120
499.090	484487
499.164	49475
499.238	16637
499.312	15689
499.386	19771
499.460	16411
499.534	17199
499.609	24550
499.683	35675
499.757	43584
499.831	145749
499.905	422001
499.979	146688
500.053	39681
500.127	30112
500.201	19178
500.275	15249
500.349	16384
500.422	20652
500.496	34157
500.570	85968
500.644	242378
500.718	256780
500.792	22350
500.866	17558
500.940	21308
501.013	15755
501.087	19250
501.161	31901
501.235	53105
501.309	147579
501.382	334511
501.456	115350
501.530	56478
501.603	76781
501.677	17052
501.751	14480
501.825	22354
501.898	54263
501.972	117216
502.046	29969
502.119	24864
502.193	67517
502.266	112630
502.340	33788
502.413	71306
502.487	87783
502.561	37798
502.634	13260
502.708	12002
502.781	10384
502.855	8502
502.928	8836
503.002	8688
503.075	9284
503.149	9641
503.222	11099
503.295	12226
503.369	17513
503.442	37203
503.516	128286
503.589	204206
503.662	75408
503.736	49649
503.809	108234
503.882	66717
503.956	133929
504.029	87637
504.102	147110
504.175	124314
504.249	33451
504.322	22233
504.395	15201
504.468	11782
504.542	11321
504.615	8644
504.688	9073
504.761	8661
504.834	10718
504.907	13060
504.980	14917
505.053	8738
505.127	11985
505.200	14381
505.273	17012
505.346	7845
505.419	7919
505.492	7315
505.565	6369
505.638	5453
505.711	6512
505.784	5831
505.857	6551
505.930	7989
506.003	6272
506.076	8751
506.149	14763
506.221	12851
506.294	20488
506.367	66130
506.440	144599
506.513	27825
506.586	13799
506.659	7448
506.731	8540
506.804	10986
506.877	12891
506.950	8534
507.022	7893
507.095	12775
507.168	10433
507.241	7060
507.313	6034
507.386	8146
507.459	9193
507.531	5765
507.604	5644
507.677	6476
507.749	6557
507.822	12369
507.894	20356
507.967	15421
508.040	10919
508.112	10555
508.185	9994
508.257	9417
508.330	12068
508.402	9325
508.475	10298
508.547	9264
508.620	12514
508.692	18094
508.765	9490
508.837	6745
508.909	8034
508.982	7859
509.054	9006
509.127	8229
509.199	6799
509.271	7653
509.344	6913
509.416	7605
509.488	7947
509.560	8182
509.633	9013
509.705	9017
509.777	10256
509.849	11994
509.922	7856
509.994	8109
510.066	9306
510.138	11784
510.210	20180
510.283	15500
510.355	12583
510.427	10683
510.499	11081
510.571	10129
510.643	12016
510.715	14821
510.787	10951
510.859	12241
510.931	13535
511.003	13350
511.076	11263
511.148	9431
511.219	11833
511.291	21878
511.363	15417
511.435	9029
511.507	9358
511.579	8629
511.651	9659
511.723	9316
511.795	9354
511.867	10002
511.939	15962
512.010	30697
512.082	12772
512.154	10454
512.226	10150
512.298	17694
512.369	20621
512.441	15417
512.513	15193
512.585	11091
512.656	12937
512.728	11704
512.800	10608
512.871	13253
512.943	11249
513.015	9512
513.086	10397
513.158	10854
513.230	12685
513.301	17464
513.373	14992
513.444	9973
513.516	9953
513.588	10169
513.659	10465
513.731	12876
513.802	12558
513.874	25066
513.945	25464
514.016	10019
514.088	10094
514.159	11422
514.231	15133
514.302	17073
514.374	14838
514.445	18076
514.516	32940
514.588	15482
514.659	18109
514.730	26327
514.802	16164
514.873	16567
514.944	15089
515.016	12556
515.087	14234
515.158	22833
515.229	22321
515.301	21099
515.372	21234
515.443	12153
515.514	10773
515.585	10173
515.656	9993
515.728	9338
515.799	8943
515.870	10313
515.941	10389
516.012	12259
516.083	15008
516.154	15380
516.225	16820
516.296	14261
516.367	12905
516.438	15020
516.509	19865
516.580	32394
516.651	105806
516.722	201914
516.793	37794
516.864	21659
516.935	22000
517.006	28574
517.077	44535
517.148	108855
517.219	351643
517.289	258505
517.360	124077
517.431	21762
517.502	13298
517.573	13892
517.643	13932
517.714	15901
517.785	15910
517.856	15497
517.926	18270
517.997	21406
518.068	27865
518.138	38811
518.209	79767
518.280	314873
518.350	569367
518.421	76009
518.492	25671
518.562	26834
518.633	32667
518.703	45215
518.774	107946
518.845	238618
518.915	117323
518.986	35219
519.056	30330
519.127	43831
519.197	75537
519.268	153625
519.338	40505
519.408	20461
519.479	20004
519.549	13130
519.620	12617
519.690	9505
519.760	10472
519.831	10812
519.901	9471
519.971	9722
520.042	11859
520.112	13715
520.182	12945
520.253	11762
520.323	9633
520.393	14889
520.463	15969
520.534	18125
520.604	23105
520.674	12500
520.744	18765
520.814	32355
520.885	29321
520.955	85822
521.025	164122
521.095	21525
521.165	11195
521.235	10713
521.305	8831
521.375	8019
521.445	10961
521.515	11122
521.585	14102
521.655	9726
521.725	11270
521.795	10309
521.865	9841
521.935	17010
522.005	9658
522.075	7770
522.145	11379
522.215	14509
522.285	18835
522.355	30306
522.424	48354
522.494	26781
522.564	17304
522.634	39878
522.704	56532
522.774	12473
522.843	9423
522.913	9762
522.983	11201
523.053	9057
523.122	10232
523.192	17163
523.262	46461
523.331	19085
523.401	8364
523.471	7502
523.540	7768
523.610	6447
523.680	7352
523.749	8483
523.819	14138
523.888	9491
523.958	7740
524.027	8322
524.097	8611
524.166	7742
524.236	8896
524.305	8461
524.375	8428
524.444	6784
524.514	8527
524.583	9898
524.653	12617
524.722	10944
524.791	7729
524.861	7815
524.930	7696
524.999	8887
525.069	12122
525.138	11071
525.207	10605
525.277	8493
525.346	9450
525.415	8517
525.484	10618
525.554	13706
525.623	12523
525.692	14832
525.761	13917
525.830	18000
525.900	25847
525.969	45758
526.038	80215
526.107	224834
526.176	420592
526.245	189869
526.314	102394
526.383	272630
526.452	253987
526.522	578636
526.591	217634
526.660	53647
526.729	43559
526.797	64875
526.867	154684
526.935	490976
527.004	970416
527.073	193760
527.142	26807
527.211	15842
527.280	16204
527.349	10981
527.418	8678
527.487	8227
527.555	8134
527.624	7067
527.693	7111
527.762	8020
527.831	6937
527.899	6656
527.968	7837
528.037	6950
528.106	11087
528.174	13928
528.243	12268
528.312	22241
528.380	14170
528.449	7125
528.518	6680
528.586	3514
528.655	6126
528.723	5404
528.792	5757
528.861	5686
528.929	4501
528.998	5173
529.066	5576
529.135	6015
529.203	5813
529.272	6394
529.340	7489
529.409	7983
529.477	8260
529.545	8939
529.614	9832
529.682	14117
529.751	11055
529.819	13820
529.887	8609
529.956	6931
530.024	7646
530.092	6338
530.161	9410
530.229	9614
530.297	6418
530.365	7552
530.434	7366
530.502	5652
530.570	6461
530.638	4540
530.707	7387
530.775	7232
530.843	6573
530.911	5748
530.979	6883
531.047	6866
531.115	6908
531.183	6337
531.252	7309
531.320	6558
531.388	6057
531.456	7228
531.524	6071
531.592	6979
531.660	8222
531.728	6250
531.796	6769
531.864	6710
531.932	7393
532.000	6492
532.067	7648
532.135	8018
532.203	9444
532.271	9967
532.339	18978
532.407	30827
532.475	12574
532.542	10497
532.610	13747
532.678	20552
532.746	81688
532.814	83728
532.881	14765
532.949	9005
533.017	8302
533.084	6902
533.152	7715
533.220	8187
533.287	7687
533.355	7290
533.423	6980
533.490	7387
533.558	8297
533.625	8853
533.693	8671
533.761	8871
533.828	9527
533.896	9055
533.963	17074
534.031	15611
534.098	19199
534.166	9698
534.233	9522
534.300	9653
534.368	10954
534.435	8997
534.503	10677
534.570	11859
534.637	13933
534.705	18091
534.772	26640
534.840	63429
534.907	255734
534.974	118328
535.041	17258
535.109	12333
535.176	9231
535.243	7892
535.310	9397
535.378	7646
535.445	7956
535.512	7632
535.579	8095
535.646	6914
535.714	10062
535.781	10596
535.848	10061
535.915	9307
535.982	9583
536.049	8777
536.116	9713
536.183	8816
536.250	7622
536.317	9596
536.384	10526
536.451	14422
536.518	12526
536.585	9331
536.652	14988
536.719	15766
536.786	11365
536.853	10829
536.920	19165
536.987	22951
537.053	24378
537.120	70570
537.187	23579
537.254	8719
537.321	8812
537.388	9397
537.454	8120
537.521	7188
537.588	7849
537.654	11127
537.721	11598
537.788	10123
537.855	9321
537.921	9566
537.988	8921
538.055	8949
538.121	8717
538.188	9274
538.254	15955
538.321	21003
538.388	11058
538.454	9634
538.521	9354
538.587	8215
538.654	7655
538.720	8077
538.787	8791
538.853	9698
538.920	11212
538.986	9958
539.053	9173
539.119	8295
539.185	9769
539.252	11638
539.318	12995
539.385	11834
539.451	11163
539.517	10606
539.583	13748
539.650	30367
539.716	35217
539.782	9500
539.849	9457
539.915	10049
539.981	9760
540.047	10491
540.114	9180
540.180	9727
540.246	10943
540.312	15495
540.378	23794
540.444	17699
540.510	29398
540.576	39085
540.643	11554
540.709	8555
540.775	9259
540.841	8845
540.907	15436
540.973	16321
541.039	15915
541.105	12802
541.171	9582
541.237	9410
541.303	10621
541.369	11600
541.435	15169
541.500	18858
541.566	10030
541.632	8843
541.698	7705
541.764	8337
541.830	9266
541.896	8260
541.961	8606
542.027	8791
542.093	10192
542.159	10363
542.224	11485
542.290	14733
542.356	22372
542.421	17242
542.487	10085
542.553	9350
542.618	10968
542.684	8837
542.750	8994
542.815	12478
542.881	23046
542.947	45395
543.012	15693
543.078	8078
543.143	8144
543.209	9111
543.274	9482
543.340	12045
543.405	24006
543.471	17665
543.536	8677
543.602	9461
543.667	7541
543.732	8833
543.798	7850
543.863	8613
543.928	7861
543.994	7310
544.059	8687
544.124	8344
544.190	8177
544.255	8952
544.320	9282
544.386	9249
544.451	13966
544.516	12796
544.581	15902
544.646	38186
544.712	26501
544.777	11135
544.842	12144
544.907	11681
544.972	10821
545.037	10231
545.102	12095
545.168	10706
545.233	12138
545.298	13794
545.363	15047
545.428	15678
545.493	27041
545.558	29865
545.623	13142
545.688	11359
545.753	12203
545.818	12006
545.883	12041
545.947	12370
546.012	15182
546.077	13316
546.142	14386
546.207	13519
546.272	18189
546.337	15366
546.401	15419
546.466	14659
546.531	16363
546.596	16361
546.661	15712
546.725	16399
546.790	16944
546.855	18090
546.919	19900
546.984	22918
547.049	24455
547.113	28320
547.178	28765
547.243	33316
547.307	38457
547.372	41759
547.436	41029
547.501	39965
547.565	41761
547.630	40383
547.695	40244
547.759	43608
547.823	38639
547.888	38522
547.952	39838
548.017	45202
548.081	50170
548.146	48256
548.210	45502
548.274	45030
548.339	42256
548.403	37678
548.468	36680
548.532	38618
548.596	39478
548.660	39361
548.725	45724
548.789	48792
548.853	44780
548.917	43312
548.982	47287
549.046	38956
549.110	33922
549.174	35973
549.238	42055
549.303	42348
549.367	44563
549.431	40961
549.495	40051
549.559	40952
549.623	51011
549.687	50924
549.751	56669
549.815	60028
549.879	58639
549.943	55786
550.007	60643
550.071	56393
550.135	53971
550.199	50296
550.263	48488
550.327	51970
550.391	57968
550.455	55672
550.519	57617
550.582	63044
550.646	70874
550.710	67616
550.774	67235
550.838	67766
550.901	71778
550.965	78143
551.029	81245
551.093	91351
551.156	111776
551.220	155767
551.284	138982
551.347	96551
551.411	117462
551.475	87708
551.538	72272
551.602	63625
551.666	63178
551.729	56031
551.793	57147
551.856	56038
551.920	56746
551.983	54662
552.047	54755
552.110	56617
552.174	59134
552.237	55328
552.301	50715
552.364	50712
552.428	49040
552.491	51083
552.554	53464
552.618	52502
552.681	53006
552.745	52985
552.808	63120
552.871	61076
552.934	55236
552.998	52209
553.061	51507
553.124	49499
553.187	51067
553.251	52774
553.314	54878
553.377	57663
553.440	72782
553.503	129441
553.567	101195
553.630	56877
553.693	53955
553.756	54314
553.819	51437
553.882	50472
553.945	51897
554.008	50790
554.071	52510
554.134	51177
554.197	47745
554.260	47720
554.323	50668
554.386	50753
554.449	52982
554.512	50267
554.575	48355
554.638	48683
554.701	48746
554.764	47282
554.827	46099
554.889	43829
554.952	42535
555.015	40921
555.078	43715
555.141	42173
555.203	42405
555.266	41467
555.329	41412
555.391	39531
555.454	38613
555.517	38194
555.580	37126
555.642	34824
555.705	35086
555.768	35172
555.830	34109
555.893	31161
555.955	31457
556.018	31647
556.080	31084
556.143	32569
556.206	31775
556.268	30315
556.330	31478
556.393	30070
556.455	31531
556.518	38362
556.580	30141
556.643	26172
556.705	27360
556.767	25322
556.830	27047
556.892	27880
556.955	29278
557.017	26229
557.079	24117
557.142	24914
557.204	28012
557.266	34625
557.328	24920
557.391	20616
557.453	20656
557.515	21334
557.577	24521
557.639	21327
557.701	22348
557.764	21901
557.826	23653
557.888	28096
557.950	29174
558.012	36487
558.074	59889
558.136	165881
558.198	207672
558.260	39560
558.322	27453
558.384	29638
558.446	37372
558.508	46272
558.570	63126
558.632	90038
558.694	128155
558.756	241032
558.818	802198
558.880	917244
558.942	217260
559.003	242137
559.065	63905
559.127	48610
559.189	53873
559.251	74064
559.312	134044
559.374	401004
559.436	727372
559.498	135949
559.559	50760
559.621	52267
559.683	77583
559.744	153064
559.806	499513
559.868	316031
559.929	54547
559.991	61872
560.052	136374
560.114	260472
560.176	98945
560.237	198399
560.299	153249
560.360	22977
560.422	16286
560.483	13798
560.545	13685
560.606	12921
560.667	12265
560.729	10671
560.790	12829
560.852	11873
560.913	11543
560.974	10313
561.036	10385
561.097	10478
561.158	11053
561.220	10186
561.281	11044
561.342	11417
561.403	13576
561.465	15929
561.526	31816
561.587	23977
561.648	10640
561.709	9232
561.771	10074
561.832	9317
561.893	9543
561.954	8601
562.015	9372
562.076	8960
562.137	9403
562.198	8240
562.259	9473
562.320	9262
562.381	11093
562.442	11883
562.503	10165
562.564	8801
562.625	8681
562.686	8028
562.747	9989
562.808	9011
562.869	8512
562.930	10933
562.991	10860
563.051	8984
563.112	8746
563.173	9131
563.234	8074
563.294	9287
563.355	8642
563.416	9151
563.477	9017
563.537	8174
563.598	9850
563.659	8127
563.720	8800
563.780	8266
563.841	10434
563.901	9228
563.962	8669
564.023	8203
564.083	9621
564.144	9138
564.204	10135
564.265	9664
564.325	14304
564.386	25068
564.446	13956
564.507	8357
564.567	9181
564.628	7687
564.688	7584
564.749	7451
564.809	11753
564.869	10738
564.930	8144
564.990	8132
565.050	7507
565.111	7564
565.171	7518
565.231	7676
565.292	8712
565.352	7513
565.412	7410
565.472	8287
565.532	8581
565.593	7765
565.653	8457
565.713	8393
565.773	9443
565.833	11171
565.893	11614
565.953	8857
566.013	9112
566.074	10156
566.134	14645
566.194	21442
566.254	16648
566.314	10741
566.374	9564
566.434	8848
566.494	10575
566.554	10081
566.614	10901
566.673	11285
566.733	11869
566.793	11405
566.853	12467
566.913	12251
566.973	12217
567.033	13124
567.092	12709
567.152	12690
567.212	13038
567.272	13806
567.331	14220
567.391	14282
567.451	17869
567.511	21952
567.570	17257
567.630	12782
567.690	13311
567.749	13940
567.809	14759
567.868	16927
567.928	20072
567.988	24512
568.047	27145
568.107	35266
568.166	51527
568.226	84138
568.285	95519
568.345	71989
568.404	57015
568.464	48281
568.523	46761
568.582	51197
568.642	61313
568.701	82326
568.761	130780
568.820	180388
568.879	145216
568.939	97915
568.998	67204
569.057	50161
569.116	40004
569.176	31726
569.235	26057
569.294	22715
569.353	19385
569.413	18436
569.472	17274
569.531	14965
569.590	14022
569.649	13072
569.708	12772
569.767	13626
569.827	13505
569.886	11532
569.945	11279
570.004	11471
570.063	11790
570.122	11547
570.181	12037
570.240	12241
570.299	11789
570.358	10881
570.417	9426
570.475	9024
570.534	11499
570.593	10039
570.652	11064
570.711	10021
570.770	11702
570.829	12126
570.887	11143
570.946	10870
571.005	8938
571.064	8890
571.122	10424
571.181	10852
571.240	9852
571.299	7830
571.357	10311
571.416	8874
571.475	12019
571.533	9689
571.592	10743
571.650	10176
571.709	8982
571.768	9445
571.826	9915
571.885	8113
571.943	8461
572.002	8368
572.060	8510
572.119	6950
572.177	7753
572.236	7638
572.294	7541
572.352	8061
572.411	7373
572.469	7076
572.528	7185
572.586	7336
572.644	8006
572.703	9472
572.761	7270
572.819	6114
572.877	7636
572.936	7049
572.994	6794
573.052	6310
573.110	7948
573.169	7155
573.227	7533
573.285	6737
573.343	7422
573.401	7573
573.459	7106
573.517	7588
573.576	8236
573.634	7846
573.692	8308
573.750	7437
573.808	7613
573.866	8203
573.924	11465
573.982	9245
574.040	8315
574.098	6740
574.155	7443
574.213	6751
574.271	7581
574.329	8562
574.387	6854
574.445	6029
574.503	7162
574.560	5679
574.618	6554
574.676	6852
574.734	5772
574.792	6772
574.849	6628
574.907	5158
574.965	6175
575.022	5995
575.080	5834
575.138	5697
575.195	6601
575.253	6758
575.311	6997
575.368	5823
575.426	6099
575.483	5740
575.541	5440
575.598	5899
575.656	6312
575.713	6868
575.771	6647
575.828	6705
575.886	6288
575.943	6188
576.001	6882
576.058	6324
576.115	8759
576.173	9058
576.230	10156
576.287	9307
576.345	8003
576.402	7562
576.459	7457
576.517	6526
576.574	8741
576.631	7276
576.688	6924
576.746	5379
576.803	6310
576.860	6058
576.917	6319
576.974	5404
577.031	6525
577.089	6457
577.146	6517
577.203	6493
577.260	8678
577.317	8472
577.374	10104
577.431	6988
577.488	7691
577.545	6324
577.602	7156
577.659	6462
577.716	8327
577.773	7283
577.830	7310
577.886	6339
577.943	6477
578.000	6112
578.057	7509
578.114	6458
578.171	7733
578.227	7812
578.284	6744
578.341	7494
578.398	8046
578.454	8362
578.511	9606
578.568	8819
578.625	7616
578.681	6704
578.738	6934
578.794	5734
578.851	7145
578.908	5909
578.964	6816
579.021	7083
579.077	6363
579.134	5978
579.190	6837
579.247	6026
579.303	6109
579.360	5875
579.416	7398
579.473	5637
579.529	5981
579.586	6123
579.642	7319
579.698	6496
579.755	7475
579.811	7019
579.867	7287
579.924	6116
579.980	7168
580.036	7402
580.093	9038
580.149	10277
580.205	9839
580.261	9092
580.317	9277
580.374	10104
580.430	10955
580.486	9075
580.542	7882
580.598	8184
580.619	8309
580.654	8536
580.692	7364
580.710	6796
580.765	7818
580.767	7860
580.823	7803
580.838	7748
580.879	7637
580.911	7129
580.935	6769
580.984	7120
580.991	7179
581.047	6977
581.057	7102
581.103	7697
581.130	7462
581.159	7223
581.203	7875
581.215	8066
581.270	7594
581.276	7578
581.326	7489
581.349	7538
581.382	7621
581.422	7757
581.438	7836
581.494	6985
581.494	6985
581.550	7639
581.567	7418
581.606	6953
581.640	7194
581.661	7338
581.713	7521
581.717	7541
581.773	7587
581.786	7401
581.829	6845
581.859	7310
581.885	7682
581.932	7393
581.940	7349
581.996	8054
582.004	7847
582.052	6817
582.077	6818
582.107	6791
582.150	7527
582.163	7760
582.219	7009
582.223	7025
582.274	7164
582.296	7833
582.330	8994
582.368	8310
582.386	7995
582.441	7447
582.441	7449
582.497	6800
582.514	7188
582.552	8151
582.587	8356
582.608	8407
582.659	8418
582.663	8422
582.719	7675
582.732	7843
582.774	8503
582.805	8179
582.830	7944
582.877	8325
582.885	8335
582.941	7752
582.950	7676
582.996	7679
583.023	8189
583.052	8623
583.095	9031
583.107	9191
583.162	9659
583.168	9747
583.218	10399
583.240	9773
583.273	8803
583.313	8554
583.328	8518
583.384	8269
583.385	8253
583.439	7676
583.458	7796
583.494	7988
583.531	8165
583.549	8263
583.603	7600
583.605	7580
583.660	7655
583.676	7710
583.715	7967
583.748	8389
583.770	8603
583.820	8254
583.825	8212
583.881	8371
583.893	8249
583.936	7973
583.965	8101
583.991	8114
584.038	7929
584.046	7922
584.101	8491
584.110	8415
584.156	8056
584.183	8189
584.211	8205
584.255	8287
584.266	8300
584.321	8549
584.328	8521
584.376	8498
584.400	8627
584.431	8750
584.472	8503
584.486	8428
584.541	8691
584.545	8727
584.596	9103
584.617	9254
584.651	9505
584.689	9584
584.706	9622
584.761	9453
584.762	9465
584.816	10335
584.834	10367
584.871	10299
584.906	9960
584.926	9858
584.978	11020
584.980	11052
585.035	11877
585.051	12152
585.090	13202
585.123	14466
585.145	15149
585.195	16452
585.200	16586
585.254	19423
585.267	21040
585.309	26625
585.340	29925
585.364	32378
585.412	34663
585.419	34824
585.473	42447
585.484	45073
585.528	56898
585.556	68522
585.583	81868
585.628	130911
585.637	144068
585.692	301648
585.700	312322
585.747	373257
585.772	294581
585.801	158168
585.845	68920
585.856	54340
585.910	27302
585.917	24735
585.965	20354
585.989	18481
586.019	16874
586.061	15725
586.074	15377
586.128	14666
586.133	14667
586.183	15184
586.205	15337
586.237	15415
586.277	15464
586.292	15394
586.346	14699
586.349	14733
586.401	15396
586.421	15885
586.455	16738
586.493	17827
586.509	18421
586.564	21990
586.565	22195
586.618	30831
586.637	29078
586.672	23948
586.709	22537
586.727	21679
586.781	20563
586.781	20538
586.835	18033
586.853	17727
586.889	16658
586.925	16045
586.944	16159
586.996	16583
586.998	16577
587.052	17417
587.068	17577
587.106	17723
587.140	18254
587.161	18656
587.212	19484
587.215	19474
587.269	19642
587.284	19825
587.323	20494
587.356	20772
587.377	21093
587.427	21975
587.431	21977
587.485	23165
587.499	23371
587.539	24072
587.571	24599
587.593	25077
587.643	27354
587.648	27497
587.702	28788
587.715	29104
587.755	30371
587.786	31691
587.810	32594
587.858	34821
587.864	35042
587.917	38321
587.930	39061
587.971	41903
588.001	44509
588.025	46740
588.073	51177
588.079	51697
588.133	58627
588.145	60382
588.187	67235
588.217	72250
588.241	76422
588.288	88063
588.295	89733
588.348	106047
588.360	110229
588.402	126927
588.431	141018
588.456	152812
588.503	180666
588.510	184605
588.564	226563
588.575	237453
588.617	280834
588.646	319322
588.671	356778
588.718	448323
588.725	465501
588.778	640070
588.789	688579
588.832	970510
588.861	1189837
588.886	1491428
588.932	1979896
588.939	2030755
588.993	2292656
589.004	2337520
589.047	1912478
589.075	1563447
589.100	1237303
589.147	706683
589.154	672814
589.207	479426
589.218	446893
589.261	407526
589.290	393935
589.314	402731
589.361	444052
589.368	457160
589.421	616277
589.433	662339
589.475	991772
589.504	1238725
589.528	1543475
589.576	2004348
589.582	1978817
589.635	1629186
589.647	1542640
589.689	927994
589.718	544026
589.742	431738
589.790	243028
589.795	233945
589.849	166288
589.861	152375
589.902	127336
589.932	109898
589.955	100523
590.004	83703
590.009	82206
590.062	69505
590.075	66681
590.115	60450
590.146	56249
590.168	53708
590.218	48587
590.222	48120
590.275	43540
590.289	42490
590.328	40067
590.360	38248
590.381	37047
590.431	34589
590.435	34351
590.488	31866
590.503	31255
590.541	30051
590.574	29088
590.594	28405
590.645	26848
590.647	26747
590.700	25965
590.716	25714
590.753	24590
590.787	23608
590.806	23582
590.859	24024
590.859	23956
590.912	22479
590.930	22039
590.965	22103
591.001	22392
591.018	21915
591.071	20262
591.072	20287
591.124	20215
591.143	20177
591.177	19517
591.214	18929
591.230	18989
591.283	19338
591.285	19393
591.336	19224
591.356	19143
591.389	19048
591.427	18973
591.442	18642
591.495	17627
591.498	17587
591.547	17396
591.569	17365
591.600	17124
591.640	16803
591.653	16655
591.706	16234
591.711	16238
591.759	16771
591.782	17059
591.811	17430
591.853	18051
591.864	17780
591.917	16477
591.924	16337
591.969	15753
591.995	15487
592.022	15612
592.066	15943
592.075	15898
592.127	15859
592.137	15941
592.180	17013
592.208	17542
592.233	17136
592.279	16692
592.285	16558
592.338	15701
592.350	15554
592.390	15260
592.421	15082
592.443	14941
592.491	14783
592.495	14748
592.548	14799
592.562	14857
592.600	14889
592.633	14986
592.653	14736
592.704	14118
592.705	14212
592.775	14975
592.846	14466
592.916	15323
592.987	14760
593.058	15504
593.128	14559
593.199	14918
593.270	14183
593.341	13447
593.411	14916
593.482	14566
593.553	15315
593.623	14628
593.694	15062
593.764	15615
593.835	15493
593.906	14857
593.976	15780
594.047	15906
594.117	17417
594.188	18446
594.258	16032
594.329	15954
594.399	16695
594.470	16865
594.540	17293
594.611	17103
594.681	16448
594.751	18349
594.822	19233
594.892	18529
594.963	19562
595.033	19362
595.103	19054
595.174	20053
595.244	21802
595.314	25923
595.384	22077
595.455	20268
595.525	21449
595.595	21744
595.665	22380
595.736	20855
595.806	21326
595.876	22002
595.946	21857
596.016	22008
596.087	23785
596.157	23773
596.227	22741
596.297	23839
596.367	25560
596.437	27472
596.507	28819
596.577	30516
596.647	29277
596.717	28524
596.787	29040
596.857	29084
596.927	28604
596.997	29433
597.067	29894
597.137	31068
597.207	31258
597.277	30429
597.347	29892
597.417	28437
597.487	28864
597.557	29103
597.626	30101
597.696	30723
597.766	31843
597.836	33185
597.906	30941
597.975	26998
598.045	26252
598.115	27307
598.185	28751
598.254	31522
598.324	34540
598.394	35956
598.464	36500
598.533	35194
598.603	33130
598.672	31817
598.742	32383
598.812	31752
598.881	33028
598.951	32838
599.020	33749
599.090	34354
599.159	34808
599.229	35060
599.299	33426
599.368	33401
599.437	33592
599.507	32382
599.576	29983
599.646	31279
599.715	30765
599.785	28639
599.854	29211
599.924	29238
599.993	29130
600.062	28477
600.132	29202
600.201	31050
600.270	34287
600.340	37809
600.409	36979
600.478	36920
600.547	37371
600.617	37167
600.686	30368
600.755	26106
600.824	24968
600.894	24950
600.963	25504
601.032	24611
601.101	24396
601.170	23570
601.239	23165
601.308	22071
601.378	23758
601.447	22564
601.516	23817
601.585	23615
601.654	24524
601.723	24449
601.792	24350
601.861	25608
601.930	27019
601.999	27894
602.068	26218
602.137	27739
602.206	28534
602.275	28114
602.343	27979
602.412	28159
602.481	28472
602.550	27674
602.619	27756
602.688	28517
602.756	28856
602.825	28674
602.894	30382
602.963	30314
603.032	31506
603.100	29900
603.169	31378
603.238	30675
603.307	31309
603.375	31357
603.444	31890
603.513	32393
603.581	31250
603.650	33227
603.719	32362
603.787	31281
603.856	32630
603.924	33326
603.993	34502
604.061	34624
604.130	36983
604.198	38230
604.267	38290
604.335	38209
604.404	38999
604.472	39297
604.541	40308
604.609	40155
604.678	42174
604.746	41212
604.815	42477
604.883	44030
604.951	42661
605.020	42605
605.088	42775
605.156	43636
605.225	45471
605.293	44680
605.361	46225
605.429	46007
605.498	46359
605.566	46711
605.634	48919
605.702	50497
605.771	51632
605.839	52493
605.907	51975
605.975	50072
606.043	48819
606.111	47703
606.180	48885
606.248	48717
606.316	48686
606.384	46785
606.452	47869
606.520	47859
606.588	49493
606.656	48010
606.724	49234
606.792	45712
606.860	42551
606.928	38581
606.996	35479
607.064	35073
607.132	36516
607.200	36513
607.267	37841
607.335	39169
607.403	41596
607.471	40339
607.539	38026
607.607	39871
607.674	36731
607.742	33247
607.810	34731
607.878	34583
607.946	35546
608.013	36410
608.081	37818
608.149	37780
608.216	38209
608.284	39306
608.352	39103
608.419	40450
608.487	40967
608.555	39203
608.622	39051
608.690	40137
608.757	44604
608.825	48328
608.893	45453
608.960	43757
609.028	42373
609.095	43176
609.163	42958
609.230	38394
609.298	34128
609.365	34281
609.432	37659
609.500	39164
609.567	45349
609.635	52375
609.702	57021
609.769	55069
609.837	47597
609.904	38860
609.971	39181
610.039	44055
610.106	56237
610.173	101047
610.241	252133
610.308	273566
610.375	76410
610.442	45496
610.509	39443
610.577	39108
610.644	38673
610.711	40252
610.778	41204
610.845	41588
610.912	45561
610.980	48613
611.047	51666
611.114	48985
611.181	45915
611.248	44087
611.315	46296
611.382	47594
611.449	49496
611.516	50441
611.583	50249
611.650	51191
611.717	52386
611.784	52232
611.851	55417
611.918	60608
611.984	72013
612.051	102175
612.118	201599
612.185	534656
612.252	650734
612.319	133656
612.386	74323
612.452	66032
612.519	60890
612.586	59451
612.653	58298
612.719	58928
612.786	58637
612.853	54148
612.919	51331
612.986	52334
613.053	49081
613.120	46150
613.186	44653
613.253	45782
613.319	45302
613.386	44717
613.453	46213
613.519	45989
613.586	46213
613.652	49584
613.719	47547
613.785	48220
613.852	48441
613.918	47031
613.985	48230
614.051	53975
614.118	70416
614.184	88805
614.250	52714
614.317	48105
614.383	47367
614.449	47582
614.516	47703
614.582	47810
614.648	48515
614.715	45910
614.781	45930
614.847	44259
614.914	45833
614.980	43926
615.046	44904
615.112	44724
615.179	46362
615.245	47642
615.311	48791
615.377	55151
615.443	61924
615.509	53681
615.575	52117
615.642	50040
615.708	51375
615.774	55006
615.840	59482
615.906	67321
615.972	86160
616.038	139404
616.104	272415
616.170	643526
616.236	1006996
616.302	234763
616.368	106339
616.434	78087
616.500	63771
616.565	64998
616.631	84478
616.697	78737
616.763	69459
616.829	93788
616.895	177534
616.961	231313
617.026	109102
617.092	57119
617.158	49462
617.224	46662
617.289	44342
617.355	42181
617.421	40722
617.487	42065
617.552	39494
617.618	38487
617.684	39628
617.749	39801
617.815	37623
617.880	36330
617.946	36284
618.012	36502
618.077	36761
618.143	36719
618.208	35621
618.274	38201
618.339	40471
618.405	34437
618.470	31882
618.536	33048
618.601	31965
618.667	32037
618.732	28465
618.798	28476
618.863	29172
618.928	29458
618.994	29045
619.059	29100
619.124	31051
619.190	29734
619.255	28314
619.320	28443
619.386	28585
619.451	27484
619.516	27539
619.581	27758
619.647	28617
619.712	28547
619.777	27084
619.842	27485
619.907	28883
619.972	27866
620.038	28952
620.103	27996
620.168	27391
620.233	27590
620.298	27051
620.363	27898
620.428	28169
620.493	29397
620.558	29413
620.623	29212
620.688	29828
620.753	29757
620.818	29851
620.883	30775
620.948	29456
621.013	30392
621.078	29289
621.143	28715
621.207	31814
621.272	29745
621.337	29570
621.402	29293
621.467	31007
621.532	31012
621.596	30729
621.661	28271
621.726	28125
621.791	28298
621.855	29137
621.920	28989
621.985	28837
622.049	30256
622.114	30567
622.179	29883
622.243	29795
622.308	29608
622.373	32485
622.437	31200
622.502	30278
622.566	29900
622.631	28646
622.695	29601
622.760	29231
622.824	29102
622.889	29964
622.953	29031
623.018	31420
623.082	35239
623.147	30997
623.211	30754
623.276	30224
623.340	29639
623.404	28415
623.469	28254
623.533	29120
623.597	27991
623.662	28047
623.726	25970
623.790	25084
623.854	23412
623.919	24784
623.983	24260
624.047	24706
624.111	24912
624.176	25757
624.240	25579
624.304	27551
624.368	26795
624.432	25746
624.496	26050
624.560	27426
624.625	28397
624.689	27801
624.753	27301
624.817	28085
624.881	26467
624.945	25631
625.009	22627
625.073	23611
625.137	23627
625.201	25719
625.265	27678
625.329	25486
625.393	24877
625.456	25090
625.520	25865
625.584	25985
625.648	27816
625.712	30847
625.776	40235
625.839	49759
625.903	35648
625.967	22067
626.031	23276
626.095	34755
626.158	30576
626.222	20532
626.286	17941
626.349	17626
626.413	16477
626.477	16452
626.540	16213
626.604	15138
626.668	15484
626.731	15125
626.795	15367
626.858	15892
626.922	15836
626.986	14746
627.049	15959
627.113	15882
627.176	15773
627.240	15087
627.303	14902
627.366	15278
627.430	14512
627.493	15113
627.557	14566
627.620	14944
627.684	14789
627.747	15242
627.810	14388
627.874	13571
627.937	12534
628.000	12655
628.064	13023
628.127	11292
628.190	11160
628.253	11700
628.317	10670
628.380	11115
628.443	10224
628.506	10450
628.569	9954
628.632	9040
628.696	8681
628.759	9159
628.822	8684
628.885	8649
628.948	8317
629.011	9262
629.074	8835
629.137	8772
629.200	7765
629.263	7880
629.326	7423
629.389	7483
629.452	7383
629.515	7136
629.578	7452
629.641	7433
629.704	7373
629.767	7775
629.830	6915
629.892	7228
629.955	6680
630.018	7600
630.081	6930
630.144	8495
630.207	7451
630.269	8788
630.332	7109
630.395	6848
630.458	6789
630.520	6411
630.583	6822
630.646	6667
630.708	6534
630.771	7258
630.834	6888
630.896	6585
630.959	7920
631.021	6360
631.084	6434
631.146	7119
631.209	7409
631.272	6889
631.334	6970
631.397	7333
631.459	8079
631.522	7635
631.584	8302
631.646	8472
631.709	8613
631.771	9989
631.834	9692
631.896	8440
631.958	7481
632.021	7678
632.083	6044
632.145	7326
632.208	5860
632.270	6527
632.332	6493
632.395	5428
632.457	6660
632.519	6487
632.581	6550
632.643	5807
632.706	6346
632.768	5396
632.830	6175
632.892	5509
632.954	6024
633.016	6257
633.078	6027
633.141	6333
633.203	6147
633.265	6479
633.327	6341
633.389	6020
633.451	6311
633.513	6705
633.575	6711
633.637	6655
633.698	6652
633.760	7316
633.822	6882
633.884	7038
633.946	6687
634.008	7375
634.070	8474
634.132	8346
634.193	9597
634.255	10727
634.317	11033
634.379	12024
634.441	10117
634.502	9015
634.564	7667
634.626	8242
634.687	7717
634.749	7163
634.811	6689
634.873	6276
634.934	5798
634.996	6554
635.057	6168
635.119	6169
635.181	6172
635.242	6550
635.304	5114
635.365	7329
635.427	6391
635.488	6747
635.550	6209
635.611	6607
635.673	5824
635.734	7557
635.796	6697
635.857	8178
635.918	8448
635.980	9329
636.041	10413
636.102	10958
636.164	12384
636.225	12249
636.286	10464
636.348	9311
636.409	7655
636.470	6935
636.531	5971
636.593	6594
636.654	5670
636.715	5475
636.776	5344
636.838	5463
636.899	4955
636.960	5246
637.021	5412
637.082	4974
637.143	5547
637.204	4102
637.265	4262
637.326	5218
637.387	4890
637.448	5006
637.509	4566
637.570	4996
637.631	4807
637.692	3773
637.753	4181
637.814	4017
637.875	4661
637.936	5247
637.997	3980
638.058	4518
638.119	5143
638.179	4101
638.240	3835
638.301	4608
638.362	3428
638.423	4691
638.483	4016
638.544	4612
638.605	4509
638.666	3913
638.726	3599
638.787	5202
638.848	3903
638.908	4294
638.969	4694
639.030	4055
639.090	3072
639.151	4432
639.211	3395
639.272	4474
639.332	5392
639.393	5971
639.453	4181
639.514	5379
639.574	4826
639.635	3743
639.695	4662
639.756	3132
639.816	3567
639.877	2930
639.937	4643
639.997	6427
640.058	5218
640.118	3923
640.178	3653
640.239	3819
640.299	3229
640.359	3554
640.420	3691
640.480	4442
640.540	5987
640.600	6030
640.661	5043
640.721	4032
640.781	6722
640.841	6051
640.901	4932
640.961	4330
641.021	3712
641.082	5398
641.142	4081
641.202	5464
641.262	2804
641.322	3792
641.382	3219
641.442	3736
641.502	2783
641.562	3839
641.622	2505
641.682	3551
641.742	4687
641.802	4479
641.861	3778
641.921	3665
641.981	3376
642.041	3469
642.101	3671
642.161	3516
642.221	2721
642.280	2840
642.340	3164
642.400	2654
642.460	3734
642.519	3140
642.579	3167
642.639	4387
642.698	2096
642.758	4620
642.818	3100
642.877	3572
642.937	3320
642.997	3268
643.056	4029
643.116	3652
643.175	3712
643.235	3530
643.294	4248
643.354	4367
643.414	4621
643.473	6884
643.532	9289
643.592	13325
643.651	21003
643.711	39045
643.770	75427
643.830	158762
643.889	499394
643.948	324677
644.008	31003
644.067	11903
644.126	8670
644.186	6822
644.245	6345
644.304	4598
644.363	4980
644.423	3464
644.482	4591
644.541	4615
644.600	4327
644.659	6011
644.719	6518
644.778	11248
644.837	17753
644.896	35042
644.955	96720
645.014	85390
645.073	11803
645.132	6351
645.191	5528
645.250	3672
645.309	4384
645.368	5201
645.427	5900
645.486	8081
645.545	21513
645.604	12580
645.663	4097
645.722	4181
645.781	5170
645.840	5359
645.898	7578
645.957	11708
646.016	18342
646.075	35289
646.134	67483
646.192	147586
646.251	415213
646.310	153093
646.369	17628
646.427	9733
646.486	7965
646.545	5279
646.603	4724
646.662	3821
646.721	3777
646.779	3781
646.838	3093
646.896	5270
646.955	6103
647.014	10782
647.072	18923
647.131	51170
647.189	67530
647.248	8902
647.306	4914
647.365	3767
647.423	2046
647.481	3418
647.540	1635
647.598	2628
647.657	1769
647.715	3374
647.773	1863
647.832	2887
647.890	1402
647.948	2144
648.007	2057
648.065	1827
648.123	1767
648.181	3349
648.240	2579
648.298	2247
648.356	2300
648.414	2063
648.472	2531
648.531	2221
648.589	2425
648.647	1845
648.705	2291
648.763	1784
648.821	2673
648.879	2104
648.937	2670
648.995	3921
649.053	5606
649.111	8506
649.169	15083
649.227	27349
649.285	50873
649.343	148271
649.401	196840
649.459	26700
649.516	11517
649.574	6942
649.632	11632
649.690	23640
649.748	11565
649.806	8491
649.863	16621
649.921	33736
649.979	56103
650.037	9925
650.094	2143
650.152	2039
650.210	1811
650.268	1644
650.325	2281
650.383	2666
650.440	1351
650.498	1617
650.556	1462
650.613	1086
650.671	1348
650.728	1619
650.786	1437
650.843	1480
650.901	1203
650.958	1113
651.016	1216
651.073	741
651.131	838
651.188	491
651.246	759
651.303	1112
651.360	1418
651.418	946
651.475	981
651.532	833
651.590	967
651.647	633
651.704	1404
651.762	280
651.819	971
651.876	65
651.933	-44
651.990	681
652.048	36
652.105	-370
652.162	691
652.219	460
652.276	413
652.333	524
652.390	-104
652.448	615
652.505	1003
652.562	1326
652.619	830
652.676	1673
652.733	3274
652.790	1079
652.847	-350
652.904	1260
652.961	-84
653.017	-207
653.074	1127
653.131	-13
653.188	-159
653.245	304
653.302	490
653.359	362
653.415	1395
653.472	250
653.529	572
653.586	-259
653.642	465
653.699	726
653.756	-62
653.813	298
653.869	692
653.926	-20
653.983	449
654.039	475
654.096	384
654.152	1300
654.209	-214
654.266	575
654.322	-582
654.379	241
654.435	475
654.492	635
654.548	402
654.605	1375
654.661	2242
654.717	540
654.774	503
654.830	717
654.887	950
654.943	522
655.000	1560
655.056	759
655.112	317
655.168	502
655.225	428
655.281	609
655.337	479
655.394	2043
655.450	1266
655.506	1327
655.562	913
655.618	2945
655.675	-97
655.731	681
655.787	318
655.843	1664
655.899	-48
655.955	2190
656.011	1773
656.067	1062
656.123	2943
656.179	3441
656.235	3959
656.291	3035
656.347	3350
656.403	2378
656.459	1944
656.515	1844
656.571	870
656.627	1481
656.683	824
656.739	456
656.795	607
656.850	835
656.906	1047
656.962	1082
657.018	722
657.074	1075
657.129	1564
657.185	2434
657.241	3058
657.297	4468
657.352	964
657.408	540
657.464	722
657.519	394
657.575	-600
657.630	353
657.686	572
657.742	-148
657.797	-255
657.853	451
657.908	1197
657.964	36
658.019	441
658.075	419
658.130	-8
658.186	-373
658.241	72
658.297	-252
658.352	-295
658.407	702
658.463	-436
658.518	300
658.573	293
658.629	-1282
658.684	301
658.739	604
658.795	-203
658.850	-19
658.905	-563
658.960	370
659.016	-579
659.071	1179
659.126	2
659.181	-849
659.236	131
659.291	1408
659.346	-113
659.401	-110
659.457	462
659.512	1746
659.567	217
659.622	902
659.677	203
659.732	427
659.787	-406
659.842	-440
659.897	214
659.952	1271
660.007	-242
660.061	-456
660.116	-844
660.171	-1239
660.226	-287
660.281	986
660.336	-1079
660.391	-88
660.445	9
660.500	306
660.555	19
660.610	-893
660.664	497
660.719	-583
660.774	-26
660.828	216
660.883	-82
660.938	-96
660.992	-1179
661.047	55
661.101	-514
661.156	-609
661.211	-843
661.265	-286
661.320	132
661.374	-417
661.429	-374
661.483	1352
661.538	-443
661.592	-789
661.647	420
661.701	177
661.755	324
661.810	1026
661.864	-870
661.919	-202
661.973	266
662.027	-637
662.081	-1212
662.136	-600
662.190	-138
662.244	579
662.299	-293
662.353	88
662.407	15
662.461	-412
662.515	18
662.569	-380
662.624	-297
662.678	-246
662.732	-189
662.786	-91
662.840	-87
662.894	54
662.948	-450
663.002	18
663.056	-480
663.110	-92
663.164	-385
663.218	-305
663.272	-741
663.326	438
663.380	-42
663.434	589
663.488	-470
663.542	444
663.595	269
663.649	99
663.703	917
663.757	423
663.811	-554
663.864	-902
663.918	538
663.972	-332
664.026	-26
664.079	-353
664.133	-254
664.187	497
664.240	257
664.294	-550
664.348	-558
664.401	-27
664.455	162
664.508	-887
664.562	256
664.615	-192
664.669	-773
664.722	442
664.776	-323
664.829	-89
664.883	110
664.936	-118
664.990	124
665.043	245
665.097	-290
665.150	606
665.203	101
665.257	357
665.310	-565
665.363	-373
665.417	383
665.470	456
665.523	232
665.576	-406
665.630	-107
665.683	-723
665.736	106
665.789	-260
665.842	-275
665.895	-1080
665.949	-854
666.002	-790
666.055	-93
666.108	-155
666.161	-128
666.214	231
666.267	-835
666.320	358
666.373	151
666.426	-379
666.479	-760
666.532	-48
666.585	-285
666.638	1133
666.691	542
666.744	325
666.796	-442
666.849	971
666.902	793
666.955	121
667.008	-169
667.060	-386
667.113	-49
667.166	-209
667.219	-272
667.271	189
667.324	-361
667.377	-344
667.430	405
667.482	-92
667.535	391
667.587	-330
667.640	479
667.693	637
667.745	157
667.798	1513
667.850	-223
667.903	-224
667.955	-282
668.008	-137
668.060	639
668.113	-19
668.165	-341
668.218	-241
668.270	9
668.322	-438
668.375	-193
668.427	852
668.479	-465
668.532	-310
668.584	-1095
668.636	299
668.689	-190
668.741	-177
668.793	-212
668.845	-170
668.898	896
668.950	198
669.002	-9
669.054	-373
669.106	-1114
669.158	402
669.211	-494
669.263	-445
669.315	279
669.367	116
669.419	245
669.471	927
669.523	665
669.575	1135
669.627	884
669.679	297
669.731	490
669.783	802
669.835	331
669.886	386
669.938	550
669.990	710
670.042	-338
670.094	334
670.146	-454
670.197	831
670.249	-367
670.301	1175
670.353	1184
670.404	2267
670.456	3248
670.508	4322
670.560	9549
670.611	18756
670.663	33266
670.715	62838
670.766	175972
670.818	121512
670.869	14664
670.921	4452
670.972	1935
671.024	1252
671.075	1663
671.127	1317
671.178	113
671.230	200
671.281	285
671.333	921
671.384	-110
671.436	611
671.487	2182
671.538	2658
671.590	3284
671.641	6476
671.692	10839
671.744	26418
671.795	32625
671.846	10635
671.897	3459
671.949	1646
672.000	1089
672.051	1384
672.102	600
672.153	-176
672.204	62
672.256	370
672.307	-120
672.358	-31
672.409	109
672.460	468
672.511	-703
672.562	78
672.613	244
672.664	324
672.715	-20
672.766	298
672.817	-282
672.868	-454
672.919	-672
672.970	76
673.021	58
673.071	-991
673.122	-115
673.173	-655
673.224	-643
673.275	-921
673.326	-371
673.376	-220
673.427	-881
673.478	-239
673.528	-692
673.579	-4
673.630	-323
673.680	-263
673.731	-737
673.782	-433
673.832	-903
673.883	-112
673.934	-881
673.984	-202
674.035	-843
674.085	-694
674.136	349
674.186	-319
674.237	330
674.287	37
674.338	973
674.388	-1026
674.438	-1201
674.489	-823
674.539	-497
674.589	940
674.640	263
674.690	231
674.740	-1239
674.791	-659
674.841	-298
674.891	228
674.942	-365
674.992	-839
675.042	-771
675.092	-97
675.142	-810
675.193	-355
675.243	-722
675.293	-350
675.343	-803
675.393	-758
675.443	-345
675.493	-692
675.543	-1157
675.593	-202
675.643	-654
675.693	-325
675.743	-397
675.793	-798
675.843	-1004
675.893	-274
675.943	-758
675.993	-675
676.043	-853
676.093	-203
676.142	-894
676.192	-900
676.242	-592
676.292	-662
676.341	-1414
676.391	-468
676.441	-469
676.491	-1190
676.540	-682
676.590	-401
676.640	-516
676.689	-459
676.739	-1009
676.789	-1096
676.838	-672
676.888	-476
676.937	-1008
676.987	-919
677.037	-385
677.086	-987
677.136	-1276
677.185	-449
677.235	146
677.284	-425
677.333	-1414
677.383	-668
677.432	-1451
677.482	-1114
677.531	-584
677.580	-1026
677.630	-1221
677.679	-1150
677.728	-797
677.778	-467
677.827	-1037
677.876	-88
677.925	-818
677.975	-651
678.024	-837
678.073	-765
678.122	-876
678.171	-645
678.220	-700
678.269	-386
678.319	-834
678.368	-647
678.417	-826
678.466	-972
678.515	-961
678.564	-676
678.613	-1021
678.662	-747
678.711	-1762
678.760	-652
678.809	-488
678.857	-776
678.906	-962
678.955	-667
679.004	-672
679.053	-612
679.102	-1334
679.151	-431
679.199	-628
679.248	-920
679.297	-912
679.346	-698
679.394	-1490
679.443	-879
679.492	-1223
679.540	-788
679.589	-311
679.638	-560
679.686	-478
679.735	-746
679.784	-719
679.832	15
679.881	-1082
679.929	-1022
679.978	-783
680.026	-181
680.075	-1033
680.123	-774
680.172	-642
680.220	-967
680.268	-577
680.317	-1228
680.365	-1268
680.414	-1284
680.462	-1735
680.510	-593
680.559	-1120
680.607	-1034
680.655	-891
680.703	-793
680.752	-1353
680.800	-1041
680.848	-400
680.896	-1259
680.945	-1019
680.993	-1079
681.041	-971
681.089	-395
681.137	-1004
681.185	-1361
681.233	-998
681.258	-616
681.281	-278
681.329	-1569
681.377	-1364
681.380	-1289
681.425	-370
681.473	-761
681.502	-534
681.521	-418
681.569	-343
681.617	-617
681.624	-535
681.665	-185
681.713	-425
681.745	-892
681.761	-1158
681.809	-573
681.857	-11
681.867	-92
681.904	-460
681.952	-120
681.989	-164
682.000	-211
682.048	-253
682.096	-350
682.111	-284
682.143	-214
682.191	-101
682.233	91
682.239	101
682.286	-167
682.334	-374
682.354	-42
682.382	329
682.430	407
682.476	-156
682.477	-189
682.525	582
682.572	-3
682.598	34
682.620	38
682.667	357
682.715	482
682.720	547
682.763	909
682.810	376
682.841	258
682.857	156
682.905	927
682.952	602
682.963	776
683.000	1313
683.047	823
683.085	1303
683.095	1403
683.142	795
683.190	895
683.206	705
683.237	371
683.284	1069
683.328	1060
683.332	1036
683.379	1435
683.426	1020
683.449	1182
683.473	1333
683.521	1036
683.568	1315
683.571	1359
683.615	1627
683.662	1235
683.693	1433
683.709	1543
683.757	1824
683.804	1595
683.814	1705
683.851	2011
683.898	1714
683.936	1848
683.945	1854
683.992	1835
684.039	1511
684.057	1647
684.086	1866
684.133	1708
684.179	2198
684.180	2196
684.227	2165
684.274	2241
684.300	2232
684.321	2164
684.368	2430
684.415	2075
684.422	2156
684.462	2580
684.509	2458
684.543	2360
684.556	2327
684.603	2138
684.649	2407
684.665	2483
684.696	2598
684.743	2535
684.786	2390
684.790	2370
684.837	2256
684.883	3128
684.908	3186
684.930	3233
684.977	3106
685.023	3567
685.029	3522
685.070	2870
685.117	2808
685.150	2779
685.164	2821
685.210	2952
685.257	3483
685.272	3553
685.303	3644
685.350	3384
685.393	3692
685.396	3706
685.443	4016
685.490	4028
685.514	4163
685.536	4193
685.583	3986
685.629	4364
685.636	4247
685.675	3613
685.722	4111
685.757	3640
685.768	3474
685.815	3914
685.861	4132
685.878	4114
685.908	4067
685.954	3958
686.000	4764
686.000	4775
686.047	5020
686.093	4984
686.121	5473
686.139	5782
686.185	5597
686.232	5780
686.242	5744
686.278	4905
686.324	4595
686.363	4141
686.370	4156
686.416	4026
686.463	4581
686.484	4583
686.509	4605
686.555	5028
686.601	4980
686.606	4997
686.647	5007
686.693	4729
686.727	4697
686.739	4673
686.785	4576
686.831	4946
686.848	4619
686.877	4113
686.923	4837
686.969	4641
686.969	4638
687.015	4423
687.061	4341
687.090	4486
687.107	4689
687.153	4982
687.199	5330
687.211	5209
687.245	4631
687.291	5072
687.332	5079
687.336	5116
687.382	5381
687.428	5586
687.453	5907
687.474	5986
687.520	5588
687.565	5599
687.574	5492
687.611	5314
687.657	5869
687.695	6162
687.702	6314
687.748	6871
687.794	7882
687.816	8317
687.839	8723
687.885	9448
687.931	9717
687.937	9865
687.976	8677
688.022	7236
688.058	5446
688.067	5377
688.113	6413
688.158	6228
688.179	6283
688.204	6127
688.249	5569
688.295	5452
688.300	5358
688.340	5215
688.386	6625
688.421	6529
688.431	6416
688.477	6142
688.522	6392
688.542	6449
688.567	6716
688.613	6458
688.658	6700
688.663	6665
688.703	6171
688.749	6568
688.784	6365
688.794	6360
688.839	6361
688.884	6703
688.905	6683
688.930	6513
688.975	6260
689.020	6030
689.026	5971
689.065	5958
689.110	6463
689.146	6338
689.155	6293
689.201	6356
689.246	6941
689.267	6762
689.291	6570
689.336	6783
689.381	6558
689.388	6572
689.426	6700
689.471	6814
689.509	6568
689.516	6522
689.561	6784
689.606	6876
689.630	6631
689.651	6365
689.696	6427
689.741	6457
689.750	6314
689.785	6226
689.830	6450
689.871	6902
689.875	6914
689.920	6792
689.965	6402
689.992	6312
690.010	6398
690.054	6749
690.099	6594
690.112	6731
690.144	6988
690.189	6476
690.233	7016
690.233	7031
690.278	6632
690.323	7097
690.354	7283
690.367	7297
690.412	6727
690.457	6670
690.474	6532
690.501	6483
690.546	6984
690.590	6773
690.595	6803
690.635	7192
690.680	7093
690.716	7493
690.724	7634
690.769	7303
690.813	7899
690.836	7931
690.857	8175
690.902	9211
690.946	9580
690.957	9765
690.991	11557
691.035	13838
691.077	16366
691.080	16606
691.124	19722
691.168	23484
691.198	25531
691.213	24344
691.257	20941
691.301	17392
691.318	16193
691.346	15219
691.390	13117
691.434	11237
691.439	11008
691.478	10365
691.522	9565
691.559	8807
691.567	8805
691.611	8727
691.655	8633
691.680	8471
691.699	8465
691.743	8385
691.787	8932
691.800	8921
691.831	8745
691.875	8519
691.919	8397
691.921	8374
691.964	8692
692.008	8709
692.041	8938
692.052	8951
692.096	8934
692.139	8687
692.162	8803
692.183	9023
692.227	8780
692.271	9044
692.282	9059
692.315	9102
692.359	9018
692.402	8953
692.403	8974
692.447	9011
692.490	9110
692.523	9303
692.534	9360
692.578	9143
692.622	9107
692.643	9124
692.666	9136
692.709	8960
692.753	9077
692.763	9023
692.797	9007
692.840	8954
692.884	8776
692.884	8796
692.928	8856
692.971	8644
693.004	8512
693.015	8596
693.059	8791
693.102	9124
693.124	9147
693.146	9177
693.189	9508
693.233	9573
693.245	9588
693.276	9709
693.320	10243
693.363	9919
693.365	9907
693.407	10554
693.450	10881
693.485	11324
693.493	11497
693.537	12242
693.580	12706
693.605	13133
693.624	13815
693.667	15024
693.710	16530
693.725	17021
693.753	20282
693.797	25151
693.840	30276
693.845	30827
693.883	38101
693.926	46163
693.966	53341
693.970	52560
694.013	43526
694.056	34306
694.086	27921
694.099	26592
694.142	21974
694.185	17408
694.206	15284
694.229	14894
694.272	13812
694.315	12854
694.326	12609
694.358	12409
694.401	11967
694.444	11432
694.446	11384
694.487	11396
694.530	11267
694.566	11200
694.573	11182
694.616	10877
694.659	10347
694.686	10167
694.702	10159
694.745	10140
694.787	9701
694.806	9649
694.830	9617
694.873	9385
694.916	9079
694.926	8983
694.959	8963
695.002	8912
695.044	8864
695.046	8844
695.087	9303
695.130	9568
695.166	9936
695.172	9990
695.215	9998
695.258	9921
695.286	9921
695.301	10011
695.343	10184
695.386	10375
695.406	10444
695.428	10285
695.471	9880
695.514	9394
695.526	9295
695.556	9710
695.599	10147
695.641	10463
695.646	10491
695.684	10619
695.726	10505
695.766	10569
695.769	10604
695.811	10516
695.854	10608
695.886	10553
695.896	10541
695.938	10319
695.981	10131
696.005	10061
696.023	10211
696.065	10317
696.108	10606
696.125	10631
696.150	10687
696.192	10877
696.235	10890
696.245	10908
696.277	11101
696.319	11125
696.361	11348
696.365	11320
696.404	11415
696.446	11615
696.485	11771
696.488	11814
696.530	11893
696.572	11949
696.604	11884
696.614	11812
696.656	11478
696.698	11284
696.724	10969
696.740	10991
696.783	11010
696.825	11188
696.844	11177
696.867	11137
696.909	11018
696.951	10906
696.964	10813
696.992	11047
697.034	11482
697.076	11908
697.083	11943
697.118	12014
697.160	11961
697.202	11960
697.203	11926
697.244	11812
697.286	11570
697.323	11320
697.327	11375
697.369	11593
697.411	11849
697.442	11967
697.453	12022
697.494	12037
697.536	12246
697.562	12225
697.578	12222
697.620	12217
697.661	12151
697.682	12117
697.703	12311
697.744	12533
697.786	12878
697.801	12929
697.828	13195
697.869	13538
697.911	13965
697.921	14014
697.952	13504
697.994	12839
698.035	12107
698.040	11983
698.077	12153
698.118	12309
698.160	12486
698.160	12448
698.201	12637
698.243	12806
698.279	12877
698.284	12906
698.325	12845
698.367	12756
698.399	12658
698.408	12735
698.449	12914
698.491	13084
698.518	13175
698.532	13103
698.573	12733
698.614	12376
698.638	12128
698.656	12337
698.697	12756
698.738	13166
698.757	13325
698.779	13445
698.820	13575
698.862	13728
698.877	13740
698.903	13872
698.944	14024
698.985	14177
698.996	14178
699.026	14298
699.067	14406
699.116	14493
699.235	13640
699.354	13378
699.474	12659
699.593	13340
699.713	15748
699.832	12967
699.951	14669
700.070	13773
700.190	13102
700.309	12980
700.428	14412
700.547	13783
700.667	13563
700.786	13580
700.905	13860
701.024	11319
701.143	13464
701.262	11759
701.381	12605
701.500	11912
701.619	13183
701.738	12575
701.857	12400
701.976	11441
702.095	11629
702.214	11868
702.333	12861
702.452	11824
702.571	12478
702.690	12575
702.809	11914
702.928	11813
703.047	11004
703.165	11263
703.284	12164
703.403	11400
703.522	12004
703.640	13590
703.759	12969
703.878	15857
703.997	15527
704.115	10968
704.234	11933
704.353	11180
704.471	9967
704.590	10552
704.708	10933
704.827	9796
704.946	10661
705.064	11455
705.183	11761
705.301	10606
705.420	12975
705.538	13611
705.656	12892
705.775	11113
705.893	16056
706.012	34602
706.130	19048
706.249	11884
706.367	12212
706.485	11535
706.604	12792
706.722	12049
706.840	13687
706.958	20403
707.077	27924
707.195	12133
707.313	11202
707.431	10419
707.549	10716
707.668	10538
707.786	11016
707.904	10307
708.022	9697
708.140	10756
708.258	9633
708.376	10552
708.494	10520
708.612	10434
708.730	12252
708.848	14660
708.966	13627
709.084	12915
709.202	11641
709.320	11065
709.438	11433
709.556	12097
709.674	12598
709.791	12078
709.909	11386
710.027	9979
710.145	11558
710.263	10756
710.380	11064
710.498	10927
710.616	10770
710.733	10002
710.851	11565
710.969	12317
711.086	11573
711.204	11491
711.322	10849
711.439	11232
711.557	11942
711.674	10915
711.792	10852
711.909	11790
712.027	13745
712.144	11508
712.262	10790
712.379	10437
712.497	12400
712.614	13691
712.732	13077
712.849	11884
712.966	12116
713.084	14703
713.201	14397
713.318	12088
713.436	13189
713.553	12481
713.670	13860
713.787	15112
713.905	16389
714.022	13791
714.139	13378
714.256	16104
714.373	23893
714.490	39148
714.608	83385
714.725	315658
714.842	1170389
714.959	245882
715.076	29605
715.193	18099
715.310	16565
715.427	14058
715.544	12686
715.661	12978
715.778	13236
715.895	12084
716.011	12529
716.128	11866
716.245	10921
716.362	12141
716.479	13817
716.596	10985
716.713	11597
716.829	10539
716.946	11233
717.063	9230
717.180	9960
717.296	9891
717.413	9794
717.530	8591
717.646	10164
717.763	10070
717.880	9208
717.996	8899
718.113	9816
718.229	8493
718.346	8773
718.462	8854
718.579	10456
718.695	13172
718.812	16936
718.928	12100
719.045	13530
719.161	8472
719.277	8915
719.394	8982
719.510	9949
719.626	9893
719.743	13126
719.859	17360
719.975	29873
720.092	91021
720.208	413458
720.324	279690
720.440	20194
720.557	13105
720.673	12947
720.789	17485
720.905	28041
721.021	35140
721.137	9670
721.253	8175
721.369	8271
721.486	8810
721.602	12287
721.718	10402
721.834	7256
721.950	7126
722.066	7064
722.181	7376
722.297	7507
722.413	7547
722.529	7371
722.645	7629
722.761	7709
722.877	7107
722.993	8604
723.108	9799
723.224	10860
723.340	8377
723.456	7991
723.571	7199
723.687	7836
723.803	7056
723.918	7272
724.034	7070
724.150	7229
724.265	6971
724.381	9885
724.497	23091
724.612	11035
724.728	6450
724.843	7414
724.959	7171
725.074	9254
725.190	21890
725.305	11483
725.421	7150
725.536	6354
725.651	5380
725.767	6022
725.882	6417
725.997	6541
726.113	6003
726.228	6940
726.343	5991
726.459	5578
726.574	5710
726.689	6124
726.804	4721
726.920	5990
727.035	4702
727.150	5979
727.265	6111
727.380	6246
727.495	6674
727.610	6177
727.725	6888
727.841	6961
727.956	8822
728.071	18427
728.186	7565
728.301	6507
728.416	5025
728.531	6362
728.645	4869
728.760	5712
728.875	7512
728.990	8674
729.105	7568
729.220	6848
729.335	6545
729.449	5901
729.564	5512
729.679	5553
729.794	4865
729.908	5695
730.023	6093
730.138	4639
730.253	5316
730.367	5392
730.482	4635
730.596	5160
730.711	5606
730.826	7494
730.940	8912
731.055	9242
731.169	5912
731.284	5764
731.398	5562
731.513	7046
731.627	6658
731.742	8011
731.856	9067
731.970	7934
732.085	9716
732.199	13455
732.313	22744
732.428	46736
732.542	149564
732.656	292989
732.771	63291
732.885	17628
732.999	10408
733.113	9973
733.227	9484
733.342	8350
733.456	6668
733.570	7989
733.684	6694
733.798	7715
733.912	6422
734.026	5979
734.140	5418
734.254	5792
734.368	7465
734.482	13643
734.596	8113
734.710	6585
734.824	6008
734.938	4693
735.052	5239
735.166	6244
735.280	6705
735.393	5781
735.507	4787
735.621	6483
735.735	9472
735.849	10887
735.962	5203
736.076	5708
736.190	5916
736.303	5914
736.417	9395
736.531	6616
736.644	5167
736.758	5681
736.872	5960
736.985	5470
737.099	4747
737.212	4807
737.326	5599
737.439	5045
737.553	5516
737.666	4569
737.780	4872
737.893	5357
738.007	4273
738.120	5267
738.233	4431
738.347	5237
738.460	4714
738.573	5001
738.687	4723
738.800	5472
738.913	4893
739.026	6183
739.140	4517
739.253	4883
739.366	4840
739.479	4350
739.592	4516
739.705	4388
739.818	4301
739.932	5117
740.045	3875
740.158	4775
740.271	4947
740.384	4566
740.497	5792
740.610	6346
740.723	7220
740.836	5807
740.949	6483
741.062	5857
741.174	6554
741.287	5943
741.400	5152
741.513	4921
741.626	6323
741.739	7471
741.851	5355
741.964	5844
742.077	5507
742.189	5273
742.302	6199
742.415	9726
742.527	7145
742.640	5985
742.753	4764
742.865	4358
742.978	4375
743.090	4042
743.203	3848
743.316	4182
743.428	3715
743.541	3728
743.653	3969
743.766	4381
743.878	3885
743.990	4550
744.103	6838
744.215	8600
744.327	6996
744.440	5008
744.552	5302
744.664	5673
744.777	2813
744.889	4034
745.001	3238
745.113	3713
745.226	3490
745.338	3304
745.450	3554
745.562	3975
745.674	2798
745.786	3120
745.898	3831
746.010	4417
746.122	3441
746.234	4145
746.347	3629
746.459	3778
746.570	3367
746.682	4638
746.794	8446
746.906	11541
747.018	4300
747.130	3800
747.242	3113
747.354	3467
747.466	3663
747.577	3195
747.689	3198
747.801	3493
747.913	3427
748.024	3112
748.136	3086
748.248	3033
748.359	3422
748.471	3414
748.583	3233
748.694	3711
748.806	4340
748.918	4206
749.029	4930
749.141	3322
749.252	3526
749.364	3005
749.475	4804
749.587	6965
749.698	3680
749.809	3680
749.921	2619
750.032	3997
750.144	2675
750.255	2673
750.366	2888
750.478	3105
750.589	3285
750.700	3899
750.811	3174
750.923	3831
751.034	4772
751.145	8942
751.256	4136
751.367	3228
751.479	2631
751.590	2981
751.701	2562
751.812	2722
751.923	2594
752.034	2974
752.145	3221
752.256	2729
752.367	2460
752.478	2888
752.589	2517
752.700	2977
752.811	2515
752.922	3491
753.032	2380
753.143	3726
753.254	3145
753.365	2331
753.476	4107
753.586	2895
753.697	1707
753.808	2755
753.919	2525
754.029	1764
754.140	2194
754.251	2606
754.361	3225
754.472	3113
754.582	2725
754.693	3276
754.804	3474
754.914	2820
755.025	1492
755.135	2204
755.246	2417
755.356	3189
755.466	2123
755.577	3036
755.687	2614
755.798	2720
755.908	2221
756.018	2707
756.129	2146
756.239	2649
756.349	2684
756.460	2800
756.570	3595
756.680	3940
756.790	2547
756.900	4368
757.011	2603
757.121	2710
757.231	2401
757.341	3164
757.451	2930
757.561	2613
757.671	2191
757.781	2998
757.891	2589
758.001	2602
758.111	2739
758.221	3598
758.331	3041
758.441	4188
758.551	3690
758.661	5721
758.771	4151
758.880	3557
758.990	3576
759.100	2857
759.210	3137
759.320	3576
759.429	3405
759.539	4320
759.649	4273
759.758	5242
759.868	5448
759.978	4497
760.087	5287
760.197	5935
760.307	6216
760.416	5912
760.526	3779
760.635	5312
760.745	5177
760.854	5858
760.964	5994
761.073	7669
761.182	6455
761.292	5880
761.401	4913
761.511	5319
761.620	4072
761.729	4781
761.839	3340
761.948	4532
762.057	3537
762.166	4504
762.276	3980
762.385	4141
762.494	4141
762.603	3354
762.712	4117
762.822	3884
762.931	3940
763.040	4009
763.149	3445
763.258	4156
763.367	4034
763.476	4519
763.585	3981
763.694	5103
763.803	4954
763.912	4665
764.021	4864
764.130	5273
764.238	5953
764.347	6061
764.456	5638
764.565	7209
764.674	6372
764.783	7633
764.891	7549
765.000	8277
765.109	8096
765.217	10440
765.326	11506
765.435	13917
765.543	17101
765.652	19475
765.761	24411
765.869	31853
765.978	48403
766.086	78054
766.195	138583
766.303	289195
766.412	684819
766.520	1057368
766.629	726506
766.737	258906
766.846	118471
766.954	70395
767.062	47063
767.171	35566
767.279	28050
767.387	20284
767.496	16617
767.604	14630
767.712	12585
767.820	11212
767.928	9787
768.037	10134
768.145	9640
768.253	10053
768.361	8516
768.469	8140
768.577	8674
768.685	9199
768.793	9275
768.901	9728
769.009	11739
769.117	11822
769.225	14219
769.333	20882
769.441	31625
769.549	52886
769.657	101299
769.765	251118
769.873	689129
769.981	756613
770.088	251325
770.196	83856
770.304	44549
770.412	29532
770.519	22094
770.627	16191
770.735	13274
770.842	11975
770.950	9351
771.058	9046
771.165	8141
771.273	8103
771.380	6646
771.488	7628
771.595	6263
771.703	6448
771.810	6321
771.918	5680
772.025	5105
772.133	6014
772.240	4775
772.348	4893
772.455	5307
772.562	4944
772.670	4782
772.777	5328
772.884	4734
772.991	4765
773.099	4534
773.206	3980
773.313	3822
773.420	4127
773.528	2928
773.635	3841
773.742	3570
773.849	4096
773.956	3166
774.063	3923
774.170	3875
774.277	4218
774.384	3649
774.491	3408
774.598	2829
774.705	4387
774.812	3393
774.919	4244
775.026	3881
775.133	3428
775.239	3128
775.346	2660
775.453	3466
775.560	3439
775.667	2381
775.773	3514
775.880	3268
775.987	3336
776.093	2667
776.200	3085
776.307	2747
776.413	3186
776.520	2955
776.627	3661
776.733	3194
776.840	3826
776.946	5407
777.053	6563
777.159	13625
777.266	19672
777.372	12294
777.478	18440
777.585	12786
777.691	4744
777.798	3130
777.904	3806
778.010	2911
778.117	5425
778.223	2697
778.329	2768
778.435	2295
778.542	3176
778.648	2359
778.754	1946
778.860	2554
778.966	2003
779.072	2966
779.178	2846
779.284	2524
779.391	2102
779.497	1951
779.603	3482
779.708	2943
779.815	4218
779.920	9868
780.026	39901
780.132	34084
780.238	2915
780.344	1793
780.450	3630
780.556	2117
780.661	1696
780.767	2684
780.873	2730
780.979	2279
781.085	2850
781.190	1948
781.296	2555
781.402	1734
781.507	2395
781.613	1561
781.719	1819
781.824	1695
781.930	2867
782.035	1635
782.141	2560
782.246	1536
782.352	2021
782.457	2078
782.563	2484
782.668	1576
782.773	2237
782.879	1858
782.984	2380
783.090	2022
783.195	3082
783.300	3627
783.405	3089
783.511	1716
783.616	3045
783.721	1696
783.826	2580
783.932	2810
784.037	2774
784.142	1906
784.247	2871
784.352	2016
784.457	2610
784.562	1831
784.667	2475
784.772	2238
784.877	2029
784.982	1233
785.087	2006
785.192	1318
785.297	2005
785.402	1693
785.507	2109
785.611	1747
785.716	2494
785.821	1510
785.926	1309
786.031	1607
786.135	1891
786.240	2205
786.345	815
786.450	426
786.554	1872
786.659	1184
786.763	1419
786.868	1792
786.973	2268
787.077	1888
787.182	1335
787.286	1032
787.391	2229
787.495	1453
787.600	1899
787.704	817
787.809	1222
787.913	1146
788.017	1166
788.122	1379
788.226	1793
788.330	931
788.435	1574
788.539	1454
788.643	1575
788.747	1151
788.852	314
788.956	927
789.060	1504
789.164	1096
789.268	2041
789.372	1105
789.476	1074
789.580	918
789.684	1104
789.788	558
789.892	1184
789.996	1394
790.100	2154
790.204	1295
790.308	1504
790.412	1637
790.516	1822
790.620	1335
790.724	2174
790.828	841
790.931	817
791.035	1717
791.139	2149
791.242	510
791.346	2022
791.450	1872
791.554	1243
791.657	1021
791.761	2109
791.864	513
791.968	1774
792.072	1246
792.175	1481
792.279	1064
792.382	1741
792.486	1507
792.589	879
792.693	1737
792.796	1492
792.899	1251
793.003	952
793.106	1105
793.209	1597
793.313	1433
793.416	763
793.519	723
793.623	2528
793.726	2789
793.829	2342
793.932	687
794.035	980
794.138	2040
794.242	2254
794.345	2139
794.448	2601
794.551	2930
794.654	7404
794.757	18058
794.860	17494
794.963	3180
795.066	1392
795.169	1806
795.272	1530
795.375	1105
795.477	1011
795.580	895
795.683	165
795.786	858
795.889	416
795.991	1252
796.094	1744
796.197	1561
796.300	1326
796.402	1682
796.505	1700
796.608	1005
796.710	918
796.813	732
796.915	1290
797.018	1237
797.120	477
797.223	594
797.326	467
797.428	922
797.530	1735
797.633	1147
797.735	1614
797.838	1125
797.940	3539
798.042	1175
798.145	1120
798.247	367
798.349	961
798.452	789
798.554	523
798.656	754
798.758	2114
798.860	1515
798.962	1513
799.065	1076
799.167	568
799.269	1245
799.371	1084
799.473	976
799.575	1797
799.677	2745
799.779	2472
799.881	836
799.983	2567
800.085	1484
800.187	671
800.289	795
800.390	866
800.492	906
800.594	1871
800.696	-293
800.798	335
800.899	451
801.001	1026
801.103	456
801.205	568
801.306	656
801.408	1020
801.509	1074
801.611	1519
801.713	226
801.814	937
801.916	-75
802.017	1047
802.119	-125
802.220	433
802.322	-738
802.423	1688
802.525	1460
802.626	855
802.727	391
802.829	975
802.930	-943
803.031	1760
803.133	666
803.234	378
803.335	593
803.436	1180
803.538	432
803.639	385
803.740	664
803.841	562
803.942	296
804.043	966
804.144	118
804.245	432
804.346	868
804.447	1297
804.548	1029
804.649	2504
804.750	1057
804.851	128
804.952	229
805.053	622
805.154	-48
805.255	148
805.355	-697
805.456	832
805.557	29
805.658	-335
805.758	-104
805.859	447
805.960	-188
806.061	671
806.161	217
806.262	933
806.362	-558
806.463	337
806.564	322
806.664	1502
806.765	743
806.865	1043
806.966	430
807.066	502
807.166	393
807.267	346
807.367	-612
807.468	428
807.568	125
807.668	-187
807.769	453
807.869	1075
807.969	-78
808.069	891
808.170	15
808.270	142
808.370	596
808.470	742
808.570	401
808.670	1281
808.770	73
808.870	97
808.970	-34
809.070	-200
809.170	-6
809.271	1010
809.370	568
809.470	221
809.570	494
809.670	68
809.770	151
809.870	1136
809.970	379
810.070	-219
810.169	375
810.269	-729
810.369	1360
810.469	439
810.568	-51
810.668	330
810.768	257
810.867	740
810.967	-219
811.066	513
811.166	421
811.265	664
811.365	-151
811.464	629
811.564	60
811.663	488
811.763	-252
811.862	1043
811.962	722
812.061	-361
812.160	515
812.260	65
812.359	485
812.458	55
812.557	1219
812.657	1829
812.756	1090
812.855	1309
812.954	-338
813.053	650
813.153	1017
813.252	661
813.351	11
813.450	326
813.549	-28
813.648	369
813.747	-428
813.846	178
813.945	77
814.044	402
814.143	436
814.242	514
814.341	-222
814.439	250
814.538	142
814.637	391
814.736	-412
814.835	1135
814.933	521
815.032	1557
815.131	1013
815.229	1621
815.328	1886
815.427	2242
815.525	1789
815.624	1236
815.722	983
815.821	1371
815.919	1828
816.018	1977
816.116	2704
816.215	2035
816.313	2670
816.412	2218
816.510	2362
816.609	2561
816.707	2750
816.805	3728
816.904	2878
817.002	3938
817.100	4096
817.198	5934
817.296	4350
817.395	6559
817.493	6289
817.591	6316
817.689	9072
817.787	12287
817.885	17737
817.983	29201
818.081	54674
818.179	119979
818.277	284859
818.375	568662
818.473	332277
818.571	98983
818.669	45465
818.767	33216
818.865	29796
818.963	31137
819.061	37925
819.158	59387
819.256	108098
819.354	230703
819.452	517738
819.549	813748
819.647	416777
819.745	137407
819.842	63119
819.940	40187
820.038	27887
820.135	20628
820.233	15981
820.330	11995
820.428	9964
820.525	8699
820.623	7308
820.720	6447
820.818	5497
820.915	5736
821.012	4985
821.110	4657
821.207	4361
821.304	3782
821.402	3499
821.499	5149
821.596	6197
821.693	8037
821.791	4640
821.888	3400
821.985	3735
822.082	4717
822.179	3936
822.276	4562
822.373	3990
822.470	2417
822.567	1496
822.664	2173
822.761	1995
822.858	1660
822.955	914
823.052	1839
823.149	1142
823.246	1433
823.343	1017
823.440	1790
823.536	742
823.633	2545
823.730	455
823.827	965
823.923	1133
824.020	2664
824.117	632
824.213	1962
824.310	3438
824.407	2060
824.503	721
824.600	1112
824.696	1122
824.793	2026
824.889	1312
824.986	1573
825.082	1135
825.179	1397
825.275	1040
825.371	1006
825.468	1312
825.564	505
825.660	777
825.757	891
825.853	695
825.949	586
826.045	-352
826.142	586
826.238	195
826.334	920
826.430	360
826.526	673
826.622	-83
826.718	-55
826.814	-116
826.910	1524
827.006	854
827.102	522
827.198	1061
827.294	476
827.390	667
827.486	146
827.582	345
827.678	-450
827.774	421
827.869	1186
827.965	718
828.061	104
828.157	85
828.252	940
828.348	361
828.444	1079
828.539	-24
828.635	1299
828.731	435
828.826	380
828.922	-449
829.017	914
829.113	781
829.208	1287
829.304	187
829.399	1521
829.495	701
829.590	1116
829.685	-253
829.781	206
829.876	573
829.971	-166
830.066	146
830.162	806
830.257	81
830.352	535
830.447	1033
830.543	875
830.638	262
830.733	1565
830.828	506
830.923	857
831.018	-180
831.113	1320
831.208	383
831.303	1073
831.398	227
831.493	503
831.588	16
831.683	358
831.778	-278
831.873	868
831.967	671
832.062	428
832.157	210
832.252	974
832.346	269
832.441	2028
832.536	415
832.631	1511
832.725	2565
832.820	991
832.914	105
833.009	-634
833.104	-355
833.198	577
833.293	316
833.387	-42
833.482	689
833.576	45
833.670	1093
833.765	432
833.859	1329
833.954	1147
834.048	417
834.142	611
834.237	-110
834.331	230
834.425	527
834.519	363
834.613	275
834.708	-685
834.802	169
834.896	-401
834.990	194
835.084	2
835.178	72
835.272	-279
835.366	96
835.460	558
835.554	-118
835.648	-234
835.742	-419
835.836	-52
835.930	-1300
836.024	561
836.117	271
836.211	895
836.305	495
836.399	986
836.493	406
836.586	1258
836.680	-13
836.774	-515
836.867	-78
836.961	443
837.055	-479
837.148	-492
837.242	-525
837.335	-156
837.429	-34
837.522	-1015
837.616	157
837.709	591
837.803	655
837.896	477
837.989	-1120
838.083	621
838.176	989
838.269	1944
838.363	1448
838.456	92
838.549	-201
838.642	46
838.735	1269
838.829	2034
838.922	-132
839.015	245
839.108	-380
839.201	513
839.294	-276
839.387	16
839.480	-342
839.573	331
839.666	579
839.759	1240
839.852	-524
839.945	-59
840.038	-675
840.131	-451
840.223	-388
840.316	757
840.409	-649
840.502	170
840.594	457
840.687	75
840.780	-193
840.873	-706
840.965	-312
841.058	627
841.150	688
841.243	1400
841.336	627
841.428	311
841.521	-669
841.613	-904
841.706	-341
841.798	577
841.890	189
841.983	-689
842.075	-465
842.167	-110
842.260	401
842.352	539
842.444	742
842.537	1593
842.629	4034
842.721	2525
842.813	-575
842.905	-330
842.997	-173
843.090	21
843.182	668
843.274	921
843.366	3668
843.458	8570
843.550	12571
843.642	4536
843.734	102
843.826	675
843.918	581
844.009	527
844.101	-42
844.193	246
844.285	-158
844.377	1233
844.469	2310
844.560	3209
844.652	4775
844.744	3028
844.835	94
844.927	-317
845.019	674
845.110	775
845.202	-556
845.293	147
845.385	-523
845.476	689
845.568	412
845.659	-533
845.751	122
845.842	-281
845.934	-161
846.025	322
846.116	269
846.208	-1014
846.299	-967
846.390	462
846.482	-586
846.573	636
846.664	522
846.755	679
846.846	1709
846.937	497
847.029	-522
847.120	42
847.211	-849
847.302	592
847.393	-878
847.484	-170
847.575	-379
847.666	-353
847.757	151
847.847	308
847.938	-46
848.029	141
848.120	-476
848.211	-588
848.302	-709
848.392	-150
848.483	338
848.574	-310
848.664	-1048
848.755	-420
848.846	-199
848.936	-118
849.027	-391
849.118	792
849.208	656
849.299	2051
849.389	3846
849.480	8342
849.570	20329
849.661	39394
849.751	78169
849.841	93380
849.932	20245
850.022	3875
850.112	456
850.203	1405
850.293	1042
850.383	539
850.474	174
850.564	726
850.654	-244
850.744	485
850.834	31
850.924	223
851.014	349
851.104	28
851.194	258
851.284	215
851.374	236
851.464	533
851.554	370
851.644	323
851.734	1267
851.824	1246
851.914	-181
852.004	565
852.094	952
852.183	1131
852.273	173
852.363	324
852.452	-23
852.542	705
852.632	415
852.721	422
852.811	723
852.901	908
852.990	106
853.080	1736
853.169	2037
853.259	1643
853.348	2240
853.438	2860
853.527	4651
853.617	7420
853.706	12142
853.795	24033
853.885	51180
853.974	109855
854.063	187166
854.152	357359
854.242	387606
854.331	111549
854.420	25320
854.509	12343
854.598	8055
854.687	6380
854.777	4010
854.866	4456
854.955	3106
855.044	2506
855.133	1335
855.222	1852
855.311	570
855.400	1072
855.488	488
855.577	485
855.666	380
855.755	1175
855.844	1128
855.933	1568
856.021	909
856.110	1150
856.199	-989
856.288	-166
856.376	149
856.465	254
856.554	-988
856.642	439
856.731	439
856.819	588
856.908	-602
856.996	371
857.085	-587
857.173	-23
857.262	-826
857.350	8
857.438	-1094
857.527	420
857.615	-334
857.703	314
857.792	-1003
857.880	-383
857.968	-1590
858.056	-233
858.145	-395
858.233	-318
858.321	-1575
858.409	180
858.497	-488
858.585	-467
858.673	-167
858.761	-725
858.849	-353
858.937	-1095
859.025	-643
859.113	-54
859.201	-385
859.289	-78
859.377	567
859.465	573
859.552	-546
859.640	-11
859.728	23
859.816	84
859.903	-86
859.991	-765
860.079	-380
860.166	85
860.254	-174
860.342	-588
860.429	-1320
860.517	-291
860.604	37
860.692	120
860.779	-386
860.867	-505
860.954	120
861.042	-438
861.129	-194
861.216	-342
861.304	-1009
861.391	-43
861.478	-986
861.565	33
861.653	16
861.740	453
861.827	-631
861.914	783
862.001	276
862.089	-698
862.176	-193
862.263	369
862.350	-991
862.437	-22
862.524	-491
862.611	531
862.698	529
862.785	803
862.871	1578
862.958	2207
863.045	-859
863.132	425
863.219	-745
863.306	-528
863.392	-152
863.479	-221
863.566	-225
863.652	272
863.739	-238
863.826	504
863.912	457
863.999	-368
864.086	492
864.172	606
864.259	-397
864.345	-198
864.432	-240
864.518	185
864.604	-533
864.691	41
864.777	591
864.863	381
864.950	294
865.036	578
865.122	1252
865.209	2542
865.295	2419
865.381	3235
865.467	2977
865.553	5329
865.639	7235
865.726	13512
865.812	25899
865.898	54397
865.984	98462
866.070	139616
866.156	267285
866.242	199423
866.328	43326
866.414	11557
866.499	6039
866.585	5568
866.671	3802
866.757	3331
866.843	3103
866.928	2502
867.014	1471
867.100	1709
867.186	619
867.271	1362
867.357	879
867.442	1515
867.528	1230
867.614	1828
867.699	2000
867.785	2251
867.870	2716
867.956	5372
868.041	6080
868.127	2790
868.212	3416
868.297	3839
868.383	2536
868.468	1575
868.553	2167
868.639	2973
868.724	2265
868.809	4815
868.894	2008
868.979	805
869.065	903
869.150	234
869.235	-358
869.320	553
869.405	540
869.490	592
869.575	515
869.660	414
869.745	418
869.830	591
869.915	369
870.000	403
870.085	810
870.169	684
870.254	1604
870.339	770
870.424	-276
870.509	-278
870.593	186
870.678	331
870.763	-185
870.847	551
870.932	454
871.016	1911
871.101	1323
871.186	915
871.270	482
871.355	265
871.439	-802
871.523	469
871.608	164
871.692	11
871.777	799
871.861	660
871.945	515
872.030	122
872.114	305
872.198	223
872.282	-482
872.367	-349
872.451	-332
872.535	-288
872.619	-289
872.703	-330
872.787	-497
872.871	865
872.955	-144
873.039	-194
873.123	-291
873.207	831
873.291	-291
873.375	-176
873.459	-451
873.543	-208
873.627	178
873.711	-581
873.794	-622
873.878	216
873.962	15
874.045	199
874.129	880
874.137	805
874.213	50
874.245	-22
874.296	-136
874.352	126
874.380	254
874.460	-368
874.464	-393
874.547	250
874.568	338
874.631	572
874.676	896
874.714	1187
874.784	107
874.798	-108
874.881	1065
874.892	813
874.965	-924
874.999	-316
875.048	497
875.107	161
875.131	31
875.215	162
875.215	161
875.298	-290
875.323	-125
875.381	246
875.430	483
875.465	628
875.538	52
875.548	-26
875.631	-62
875.646	-55
875.714	-0
875.753	-163
875.798	-322
875.861	-12
875.881	63
875.964	-277
875.968	-291
876.047	-530
876.076	-275
876.130	174
876.183	105
876.213	138
876.291	303
876.296	301
876.379	-573
876.398	-498
876.462	-146
876.506	-128
876.545	-118
876.613	-279
876.628	-317
876.711	128
876.721	136
876.794	211
876.828	115
876.877	-15
876.935	370
876.960	502
877.043	218
877.043	216
877.125	-9
877.150	300
877.208	878
877.258	537
877.291	346
877.365	932
877.374	1010
877.456	735
877.472	801
877.539	991
877.579	785
877.622	559
877.687	426
877.704	424
877.787	186
877.794	195
877.869	89
877.901	11
877.952	25
878.008	429
878.034	571
878.115	426
878.117	424
878.199	349
878.222	314
878.282	287
878.329	495
878.364	551
878.437	232
878.447	197
878.529	-406
878.544	-454
878.611	-385
878.651	152
878.694	502
878.758	204
878.776	205
878.858	517
878.865	483
878.941	-373
878.972	-416
879.023	-217
879.078	-423
879.105	-587
879.185	-164
879.187	-152
879.269	90
879.292	96
879.351	-55
879.399	-387
879.433	-461
879.506	-6
879.516	24
879.598	150
879.613	181
879.680	424
879.720	295
879.762	-58
879.827	-176
879.844	-136
879.926	-161
879.933	-122
880.007	438
880.040	466
880.089	311
880.147	69
880.171	47
880.253	389
880.254	391
880.335	537
880.360	683
880.417	1182
880.467	1134
880.499	1233
880.574	3618
880.580	3789
880.662	3251
880.680	2789
880.744	732
880.787	77
880.825	-235
880.893	-145
880.907	-107
880.989	241
881.000	205
881.070	-274
881.106	-291
881.152	-189
881.213	-313
881.233	-330
881.315	-188
881.319	-162
881.396	67
881.426	-142
881.478	-401
881.532	-379
881.559	-347
881.639	-114
881.641	-117
881.722	-613
881.745	-660
881.803	-253
881.852	54
881.885	17
881.958	-60
881.966	-40
882.047	132
882.064	206
882.129	510
882.171	279
882.210	-57
882.277	107
882.291	177
882.372	62
882.383	32
882.454	-336
882.489	-299
882.535	-211
882.596	-448
882.616	-477
882.697	-300
882.702	-288
882.778	-201
882.808	-447
882.859	-784
882.914	-293
882.940	-90
883.020	-144
883.021	-142
883.102	85
883.127	47
883.183	-500
883.233	-614
883.264	-278
883.339	281
883.345	283
883.426	146
883.445	113
883.507	-229
883.551	-460
883.587	-446
883.657	-228
883.668	-184
883.749	-28
883.763	14
883.830	142
883.869	-33
883.910	-342
883.975	-592
883.991	-640
884.072	-420
884.081	-439
884.152	-361
884.187	-374
884.233	-343
884.292	-186
884.314	-174
884.394	-94
884.398	-104
884.475	-835
884.504	-989
884.555	-313
884.610	50
884.636	-129
884.716	-54
884.716	-52
884.797	-285
884.821	-380
884.877	-327
884.927	-327
884.958	-268
885.033	-34
885.038	-38
885.118	-270
885.139	-301
885.199	-173
885.244	94
885.279	58
885.350	-437
885.359	-461
885.439	-465
885.456	-477
885.520	-395
885.561	-430
885.600	-254
885.667	394
885.680	389
885.760	-44
885.773	-87
885.840	194
885.878	308
885.920	18
885.984	-290
886.000	-340
886.080	-919
886.089	-942
886.160	-668
886.195	-671
886.240	-470
886.300	57
886.320	149
886.400	302
886.406	303
886.480	-252
886.511	-436
886.560	-283
886.616	-153
886.640	-63
886.720	125
886.722	134
886.800	134
886.827	-16
886.879	-86
886.932	-5
886.959	-46
887.038	-348
887.039	-339
887.119	296
887.143	428
887.198	173
887.248	-13
887.278	59
887.354	101
887.358	102
887.437	216
887.459	199
887.517	40
887.564	38
887.596	12
887.669	-232
887.676	-202
887.755	157
887.774	252
887.835	-21
887.880	-129
887.914	-93
887.985	-267
887.994	-289
888.073	-361
888.090	-384
888.153	-77
888.195	119
888.232	75
888.300	-2
888.311	12
888.391	136
888.405	146
888.470	37
888.510	-9
888.549	-9
888.615	-41
888.628	-58
888.708	-232
888.720	-241
888.787	97
888.825	238
888.866	-207
888.930	-844
888.945	-758
889.024	-347
889.035	-285
889.103	89
889.140	259
889.182	540
889.245	983
889.261	796
889.340	-122
889.349	-230
889.419	-403
889.454	-481
889.498	-485
889.559	-502
889.577	-418
889.656	-29
889.664	10
889.735	-16
889.768	-26
889.814	63
889.873	184
889.978	-42
890.083	-147
890.187	151
890.292	637
890.397	251
890.501	462
890.606	-612
890.710	-428
890.815	-102
890.919	-97
891.024	-684
891.128	444
891.233	695
891.337	-49
891.442	-113
891.546	109
891.650	-157
891.755	-95
891.859	64
891.963	-123
892.068	-285
892.172	-706
892.276	-1147
892.380	162
892.484	208
892.589	602
892.693	859
892.797	1370
892.901	-58
893.005	330
893.109	-3
893.213	104
893.317	-425
893.421	765
893.525	-727
893.629	558
893.733	-1018
893.837	733
893.941	-161
894.045	975
894.148	-1476
894.252	785
894.356	111
894.460	793
894.564	-145
894.667	276
894.771	-613
894.875	270
894.978	-436
895.082	-547
895.186	437
895.289	-552
895.393	48
895.496	-277
895.600	-132
895.703	-707
895.807	-714
895.910	146
896.014	-240
896.117	267
896.221	254
896.324	840
896.427	110
896.531	-271
896.634	-27
896.737	-126
896.840	-1009
896.944	292
897.047	-109
897.150	0
897.253	37
897.356	401
897.460	-970
897.563	-657
897.666	-498
897.769	189
897.872	-437
897.975	-368
898.078	-438
898.181	619
898.284	-174
898.387	12
898.490	-335
898.593	837
898.695	-162
898.798	326
898.901	-160
899.004	-233
899.107	-389
899.209	434
899.312	-1038
899.415	842
899.518	208
899.620	-111
899.723	-449
899.826	441
899.928	424
900.031	52
900.133	-1009
900.236	-181
900.338	-174
900.441	-95
900.543	13
900.646	-353
900.748	43
900.851	-132
900.953	35
901.055	-320
901.158	-206
901.260	-754
901.362	264
901.465	437
901.567	-462
901.669	360
901.771	-631
901.873	28
901.976	196
902.078	542
902.180	82
902.282	-274
902.384	-727
902.486	-470
902.588	-13
902.690	321
902.792	433
902.894	572
902.996	-85
903.098	98
903.200	-789
903.302	454
903.404	459
903.505	-114
903.607	-585
903.709	612
903.811	-53
903.913	775
904.014	-149
904.116	545
904.218	-731
904.319	232
904.421	-505
904.523	527
904.624	546
904.726	535
904.827	-112
904.929	447
905.030	472
905.132	288
905.233	419
905.335	-150
905.436	-576
905.537	518
905.639	-498
905.740	288
905.841	-242
905.943	586
906.044	396
906.145	489
906.247	-368
906.348	1409
906.449	-159
906.550	254
906.651	-91
906.752	613
906.854	-423
906.955	297
907.056	50
907.157	278
907.258	-4
907.359	503
907.460	5
907.561	-353
907.662	-349
907.762	174
907.863	29
907.964	417
908.065	337
908.166	165
908.267	-491
908.367	308
908.468	35
908.569	-778
908.670	293
908.770	907
908.871	-345
908.971	-181
909.072	74
909.173	-217
909.273	-200
909.374	154
909.474	16
909.575	780
909.675	58
909.776	488
909.876	-291
909.977	372
910.077	-453
910.177	853
910.278	2
910.378	-515
910.478	487
910.579	82
910.679	-435
910.779	58
910.879	-392
910.980	693
911.080	-378
911.180	819
911.280	448
911.380	5
911.480	794
911.580	87
911.680	16
911.780	9
911.880	-411
911.980	583
912.080	-212
912.180	73
912.280	230
912.380	-629
912.480	-113
912.580	761
912.679	315
912.779	459
912.879	-865
912.979	-230
913.078	441
913.178	593
913.278	-311
913.377	82
913.477	-392
913.577	-414
913.676	56
913.776	472
913.875	54
913.975	858
914.074	-725
914.174	-680
914.273	-84
914.373	987
914.472	-194
914.572	-614
914.671	-449
914.770	-318
914.870	-423
914.969	389
915.068	669
915.167	632
915.267	-747
915.366	-69
915.465	-1036
915.564	170
915.663	-302
915.763	914
915.862	125
915.961	319
916.060	-423
916.159	927
916.258	-180
916.357	-221
916.456	-475
916.555	-151
916.654	-399
916.752	851
916.851	597
916.950	649
917.049	-208
917.148	-721
917.247	-254
917.345	84
917.444	-493
917.543	177
917.642	83
917.740	-108
917.839	-224
917.937	679
918.036	-322
918.135	142
918.233	1010
918.332	-619
918.430	220
918.529	-297
918.627	-205
918.726	1010
918.824	-421
918.923	785
919.021	183
919.119	-427
919.218	26
919.316	443
919.414	-360
919.512	-453
919.611	-107
919.709	-546
919.807	-20
919.905	304
920.003	-608
920.102	-55
920.200	-595
920.298	445
920.396	-688
920.494	36
920.592	227
920.690	442
920.788	-117
920.886	427
920.984	-443
921.082	-345
921.180	570
921.277	357
921.375	130
921.473	-569
921.571	-606
921.669	236
921.766	43
921.864	571
921.962	94
922.060	304
922.157	-301
922.255	140
922.352	-422
922.450	294
922.548	-300
922.645	-268
922.743	-471
922.840	543
922.938	0
923.035	807
923.133	334
923.230	579
923.327	-206
923.425	929
923.522	376
923.619	156
923.717	-246
923.814	-591
923.911	-31
924.008	184
924.106	205
924.203	-128
924.300	665
924.397	321
924.494	179
924.591	-228
924.688	107
924.786	635
924.883	620
924.979	138
925.077	223
925.173	67
925.270	-414
925.367	168
925.464	468
925.561	332
925.658	386
925.755	1075
925.852	468
925.948	834
926.045	-296
926.142	1687
926.239	607
926.335	810
926.432	520
926.529	1547
926.625	1978
926.722	910
926.818	475
926.915	533
927.011	285
927.108	888
927.204	829
927.301	238
927.397	-179
927.494	742
927.590	526
927.687	-91
927.783	-299
927.879	230
927.976	83
928.072	361
928.168	306
928.264	830
928.361	-364
928.457	227
928.553	-442
928.649	441
928.745	-153
928.841	109
928.937	-1019
929.033	-152
929.129	656
929.225	536
929.321	129
929.417	52
929.513	-22
929.609	-536
929.705	-473
929.801	171
929.897	48
929.993	217
930.089	401
930.184	-749
930.280	-321
930.376	444
930.471	-482
930.567	420
930.663	185
930.758	-80
930.854	-553
930.950	122
931.045	-463
931.141	370
931.236	-1062
931.332	454
931.427	-626
931.523	75
931.618	-295
931.714	-1062
931.809	-276
931.905	426
932.000	433
932.095	-459
932.191	207
932.286	272
932.381	-321
932.476	-116
932.572	-28
932.667	182
932.762	-1080
932.857	-131
932.952	-480
933.047	206
933.142	-578
933.237	20
933.332	-223
933.427	458
933.522	-485
933.617	-932
933.712	-346
933.807	503
933.902	-102
933.997	42
934.092	-194
934.187	-266
934.282	-384
934.376	-4
934.471	-351
934.566	-188
934.661	-87
934.755	274
934.850	109
934.945	254
935.039	-339
935.134	-173
935.228	-812
935.323	259
935.417	-700
935.512	135
935.606	-252
935.701	566
935.795	-411
935.890	-151
935.984	-659
936.079	377
936.173	-338
936.267	-295
936.362	5
936.456	-347
936.550	-362
936.644	-161
936.738	-524
936.833	-196
936.927	-104
937.021	138
937.115	-286
937.209	-835
937.303	-951
937.397	-451
937.491	-312
937.585	-338
937.679	-78
937.773	193
937.867	97
937.961	-406
938.055	-1112
938.149	-115
938.243	-310
938.337	-575
938.430	383
938.524	986
938.618	886
938.712	1509
938.805	326
938.899	329
938.993	-18
939.086	623
939.180	1317
939.274	2924
939.367	1348
939.461	238
939.554	492
939.648	-214
939.741	-146
939.835	-626
939.928	562
940.022	211
940.115	254
940.208	-263
940.302	-259
940.395	120
940.488	-565
940.582	-653
940.675	-418
940.768	21
940.861	-641
940.954	-788
941.048	-646
941.141	-640
941.234	401
941.327	223
941.420	-118
941.513	308
941.606	-751
941.699	179
941.792	-961
941.885	-15
941.978	-323
942.071	388
942.164	439
942.257	-386
942.349	-51
942.442	-485
942.535	-1109
942.628	-303
942.721	25
942.813	-521
942.906	-963
942.999	-267
943.091	-410
943.184	-494
943.277	-416
943.369	-708
943.462	-513
943.554	680
943.647	-345
943.739	-420
943.832	184
943.924	453
944.017	-721
944.109	-498
944.201	-1353
944.294	-568
944.386	-436
944.478	-1269
944.571	-652
944.663	-27
944.755	121
944.847	-321
944.940	119
945.032	-185
945.124	-930
945.216	100
945.308	-516
945.400	-85
945.492	-886
945.584	129
945.676	-132
945.768	-64
945.860	-87
945.952	113
946.044	-520
946.136	263
946.228	-427
946.320	-470
946.412	-715
946.503	-165
946.595	-405
946.687	-404
946.779	-1341
946.870	-182
946.962	-899
947.054	-291
947.145	-588
947.237	-1002
947.329	-512
947.420	-78
947.512	-297
947.603	-448
947.695	-382
947.786	-281
947.878	-813
947.969	-1428
948.061	-1171
948.152	169
948.243	-1035
948.335	-557
948.426	-379
948.517	-607
948.609	-454
948.700	-150
948.791	-49
948.882	348
948.973	-888
949.065	-775
949.156	-763
949.247	-174
949.338	-794
949.429	-771
949.520	-1012
949.611	-439
949.702	-739
949.793	-335
949.884	-1214
949.975	-1121
950.066	-583
950.157	-677
950.247	-870
950.338	-325
950.429	-913
950.520	-237
950.611	-552
950.701	-744
950.792	-499
950.883	-357
950.973	-1163
951.064	-653
951.155	-932
951.245	-245
951.336	-798
951.427	41
951.517	-881
951.608	-256
951.698	-381
951.788	-750
951.879	-790
951.969	-287
952.060	-541
952.150	-960
952.240	-654
952.331	-575
952.421	-495
952.511	-348
952.602	248
952.692	-906
952.782	-535
952.872	-40
952.962	-504
953.052	-735
953.143	-872
953.233	-665
953.323	-168
953.413	-996
953.503	-1447
953.593	-389
953.683	-805
953.773	-1464
953.863	-1241
953.953	-577
954.042	-1250
954.132	-313
954.222	-762
954.312	-627
954.402	-742
954.492	-737
954.581	-866
954.671	-292
954.761	-940
954.850	-787
954.940	-819
955.030	-935
955.119	-1665
955.209	-714
955.298	-728
955.388	-471
955.477	-483
955.567	-546
955.656	-918
955.746	-128
955.835	-583
955.925	-761
956.014	-1453
956.103	-427
956.193	-1012
956.282	-578
956.371	-1428
956.461	-878
956.550	-1330
956.639	-755
956.728	-1076
956.817	-1458
956.906	-1342
956.995	-98
957.085	-1591
957.174	-398
957.263	-1368
957.352	-1063
957.441	-458
957.530	-603
957.619	-750
957.708	-568
957.796	-1022
957.885	-632
957.974	-736
958.063	-673
958.152	-884
958.241	-996
958.329	-338
958.418	-651
958.507	-1241
958.596	-308
958.684	-1451
958.773	-417
958.861	-1392
958.950	-1231
959.039	-1798
959.127	-687
959.216	-495
959.304	-211
959.393	-547
959.481	-1580
959.570	-288
959.658	-1079
959.746	-1276
959.835	-1299
959.923	-797
960.011	-742
960.100	-481
960.188	-1735
960.276	-1220
960.365	-188
960.453	-1674
960.541	-999
960.629	-1551
960.717	-1365
960.805	-1221
960.893	-923
960.981	-1162
961.069	-446
961.158	-935
961.245	-898
961.333	-1491
961.421	-1556
961.509	-1592
961.597	-809
961.685	-859
961.773	-1262
961.861	-1531
961.949	-663
962.036	-1151
962.124	-1515
962.212	-1605
962.299	-1088
962.387	-1506
962.475	-910
962.562	-2084
962.650	-566
962.738	-885
962.825	-39
962.913	-1692
963.000	-594
963.088	-1635
963.175	-829
963.263	-1668
963.350	-1106
963.438	-1583
963.525	-1063
963.612	-1604
963.700	-1117
963.787	93
963.874	367
963.962	-538
964.049	-787
964.136	-1583
964.223	-1522
964.310	-1636
964.398	-832
964.485	-1433
964.572	-713
964.659	-924
964.746	-112
964.833	-439
964.920	-1056
965.007	-875
965.094	-1054
965.181	-1887
965.268	-768
965.355	-851
965.441	-1152
965.528	-1369
965.615	-1465
965.702	-499
965.789	-1406
965.875	-1344
965.962	31
966.049	-1267
966.136	-629
966.222	-1572
966.309	-1266
966.395	-1710
966.482	206
966.569	-1035
966.655	-810
966.742	-1223
966.828	-903
966.915	-1504
967.001	-1422
967.087	-1400
967.174	-1122
967.260	-1070
967.347	-1074
967.433	-1674
967.519	-381
967.605	-234
967.692	-988
967.778	-1214
967.864	-1505
967.950	-1400
968.036	-1446
968.123	-1204
968.209	-228
968.295	-998
968.381	-777
968.467	-1302
968.553	-1125
968.639	-1438
968.725	-1373
968.811	-771
968.897	-814
968.983	-1446
969.069	-167
969.154	-761
969.240	-1169
969.326	-1543
969.412	-1144
969.497	-849
969.583	-1293
969.669	-1456
969.755	-1600
969.840	-1111
969.926	-471
970.012	-1270
970.097	-807
970.183	-1043
970.268	-958
970.354	-913
970.439	-1066
970.525	-888
970.610	-832
970.696	-831
970.781	-1091
970.866	-2006
970.952	-985
971.037	-1504
971.122	-360
971.208	-905
971.293	-1048
971.378	-1327
971.463	-1005
971.549	-1209
971.634	-800
971.719	-1239
971.804	-490
971.889	-835
971.974	-501
972.059	-1895
972.144	-1123
972.229	-1145
972.314	-826
972.399	-1407
972.484	-1294
972.569	-1042
972.654	-1458
972.739	-35
972.824	337
972.908	-640
972.993	-539
973.078	-867
973.163	-533
973.247	-996
973.332	-1171
973.417	-562
973.501	-1658
973.586	-465
973.671	-644
973.755	-1486
973.840	-605
973.924	-852
974.009	-1077
974.093	-1471
974.178	-608
974.262	-1389
974.346	-542
974.431	-1109
974.515	-676
974.600	-1778
974.684	-48
974.768	-851
974.852	-1287
974.937	-1053
975.021	-98
975.105	-2020
975.189	-1251
975.273	-1228
975.358	-1055
975.442	-593
975.526	-695
975.610	-1639
975.694	-901
975.778	-755
975.862	-154
975.946	-1993
976.030	-907
976.114	-1515
976.198	-480
976.281	-1868
976.365	-778
976.449	-1551
976.533	-1034
976.617	-1812
976.700	-826
976.784	-1426
976.868	-1176
976.951	-1428
977.035	-621
977.119	-1491
977.202	-802
977.286	-1719
977.369	-192
977.453	-1211
977.536	-805
977.620	-605
977.703	-880
977.787	-1805
977.870	-169
977.953	-622
978.037	-1352
978.120	-162
978.203	-696
978.287	-304
978.370	-269
978.453	-101
978.536	-600
978.620	-1157
978.703	-605
978.786	-991
978.869	-794
978.952	-2142
979.035	-95
979.118	-1289
979.201	-1684
979.284	-1052
979.367	-1233
979.450	-818
979.533	-464
979.616	-2001
979.699	-647
979.782	-869
979.865	-1246
979.948	-742
980.030	-1677
980.113	-639
980.196	-1292
980.279	-1244
980.361	-803
980.444	-1685
980.526	-929
980.609	-676
980.692	-714
980.774	-612
980.857	-1197
980.939	-822
981.022	-1907
981.104	-1686
981.187	-945
981.269	-695
981.352	-349
981.434	-1059
981.516	-2254
981.599	-1128
981.681	-842
981.763	-1356
981.846	-583
981.928	-1234
982.010	-981
982.092	-618
982.174	-681
982.256	-1364
982.339	-538
982.421	-1674
982.503	-286
982.585	-944
982.667	-318
982.749	-1411
982.831	-888
982.913	-1304
982.995	-408
983.077	-1191
983.158	-1056
983.240	-799
983.322	-1052
983.404	-1570
983.486	-1010
983.568	-1441
983.649	-1084
983.731	-1459
983.813	-1064
983.894	-648
983.976	-466
984.058	-1254
984.139	-573
984.221	-976
984.302	-23
984.384	-1117
984.465	-1515
984.547	-748
984.628	-777
984.710	-727
984.791	-656
984.872	-904
984.954	-1115
985.035	-1172
985.116	-1382
985.198	-1617
985.279	-642
985.360	-1282
985.441	-1297
985.522	-1268
985.604	-806
985.685	-1815
985.766	-396
985.847	-1739
985.928	-1556
986.009	-1103
986.090	-524
986.171	-1341
986.252	-1782
986.333	-1168
986.414	-1381
986.495	-351
986.576	-1205
986.656	-1368
986.737	-1455
986.818	-369
986.899	-893
986.980	-1203
987.060	-819
987.141	-419
987.222	-1261
987.302	-1585
987.383	-679
987.464	-1371
987.544	-263
987.625	-952
987.705	-1388
987.786	-1742
987.866	-1068
987.947	-1684
988.027	-1034
988.108	-1669
988.188	-985
988.268	-1114
988.349	-1078
988.429	-320
988.509	-1349
988.589	-1153
988.670	-1474
988.750	-481
988.830	-999
988.910	-1211
988.990	-499
989.070	-1025
989.151	-1115
989.231	-1581
989.311	-1565
989.391	-1480
989.471	-348
989.551	-1332
989.631	-1219
989.711	-985
989.791	-1301
989.870	-1332
989.950	-174
990.030	-1591
990.110	-1420
990.190	-1390
990.269	-708
990.349	-1358
990.429	-1049
990.509	-1163
990.588	-1639
990.668	-578
990.747	-1503
990.827	-1005
990.907	-671
990.986	-869
991.066	-1521
991.145	-1770
991.225	-196
991.304	-1674
991.383	-1494
991.463	-1384
991.542	-1194
991.622	-1688
991.701	-1314
991.780	-1421
991.859	-775
991.939	-1333
992.018	-1404
992.097	-1415
992.176	-1206
992.256	-568
992.335	-236
992.414	-838
992.493	-1181
992.572	-2001
992.651	-774
992.730	-1345
992.809	-505
992.888	-1420
992.967	-1364
993.046	-1384
993.125	-1553
993.203	-1071
993.282	-1379
993.361	-1307
993.440	-937
993.519	-1930
993.597	-1760
993.676	-1674
993.755	-724
993.834	-1451
993.912	-1258
993.991	-1667
994.069	-2134
994.148	-1785
994.226	-1228
994.305	-1742
994.384	-1141
994.462	-1595
994.540	-1779
994.619	-2011
994.697	-1140
994.776	-2070
994.854	-902
994.932	-1418
995.011	-1850
995.089	-1857
995.167	-921
995.245	-2042
995.324	-1554
995.402	-752
995.480	-1815
995.558	-1696
995.636	-2241
995.714	-1520
995.792	-1778
995.870	-2024
995.948	-1330
996.026	-1595
996.104	-1557
996.182	-2158
996.260	-984
996.338	-1585
996.416	-1514
996.494	-2528
996.572	-1408
996.649	-1575
996.727	-2069
996.805	-1672
996.883	-1240
996.960	-2039
997.038	-1984
997.116	-2110
997.193	-1726
997.271	-1305
997.348	-1992
997.426	-2702
997.504	-1537
997.581	-1882
997.658	-1671
997.736	-2180
997.813	-1748
997.891	-1523
997.968	-1110
998.046	-2175
998.123	-1289
998.200	-2033
998.277	-2000
998.355	-1850
998.432	-2108
998.509	-2077
998.586	-592
998.663	-1685
998.741	-2753
998.818	-1651
998.895	-1528
998.972	-1666
999.049	-2339
999.126	-1973
999.203	-839
999.280	-1855
999.357	-2092
999.434	-1808
999.511	-1185
999.587	-2259
999.664	-1433
999.741	-1876
999.818	-1137
999.895	-1792
999.971	-1468
1000.048	-2198
1000.125	-1438
1000.202	-1854
1000.278	-1821
1000.355	-1880
1000.431	-2255
1000.508	-2250
1000.584	-1374
1000.661	-1428
1000.738	-1987
1000.814	-1820
1000.890	-1382
1000.967	-2769
1001.043	-856
1001.120	-2008
1001.196	-2115
1001.272	-2024
1001.349	-1820
1001.425	-1656
1001.501	-1091
1001.577	-2552
1001.654	-1763
1001.730	-2242
1001.806	-733
1001.882	-2521
1001.958	-1624
1002.034	-1761
1002.110	-1628
1002.186	-1846
1002.262	-1823
1002.338	-2052
1002.414	-1904
1002.490	-1581
1002.566	-1187
1002.642	-2577
1002.718	-1977
1002.794	-1511
1002.870	-1865
1002.945	-1447
1003.021	-1403
1003.097	-1646
1003.173	-1618
1003.248	-1819
1003.324	-1648
1003.400	-2234
1003.475	-1794
1003.551	-2013
1003.626	-1543
1003.702	-2121
1003.777	-1712
1003.853	-1673
1003.928	-1943
1004.004	-1573
1004.079	-1567
1004.155	-1897
1004.230	-1446
1004.305	-1310
1004.381	-1265
1004.456	-1523
1004.531	-471
1004.607	-2111
1004.682	-2079
1004.757	-2454
1004.832	-1220
1004.907	-2349
1004.982	-2017
1005.057	-1255
1005.133	-1302
1005.208	-1904
1005.283	-1708
1005.358	-1160
1005.433	-2808
1005.508	-1051
1005.583	-1953
1005.657	-1928
1005.732	-1017
1005.807	-1893
1005.882	-2108
1005.957	-1870
1006.032	-1579
1006.106	-1632
1006.181	-1198
1006.256	-2263
1006.331	-1709
1006.405	-2088
1006.480	-1688
1006.554	-2435
1006.629	-1250
1006.704	-1526
1006.778	-2026
1006.853	-2072
1006.927	-1564
1007.002	-1797
1007.076	-1603
1007.150	-2362
1007.225	-808
1007.299	-1559
1007.373	-1531
1007.448	-1525
1007.522	-1555
1007.596	-2266
1007.671	-1769
1007.745	-1703
1007.819	-1501
1007.893	-1685
1007.967	-1416
1008.041	-2281
1008.115	-1590
1008.190	-1801
1008.264	-1029
1008.338	-2531
1008.412	-2570
1008.486	-2009
1008.560	-1883
1008.633	-2218
1008.707	-1988
1008.781	-1671
1008.855	-2024
1008.929	-2385
1009.003	-2666
1009.076	-1918
1009.150	-1697
1009.224	-2262
1009.298	-1843
1009.371	-1947
1009.445	-2168
1009.519	-2333
1009.592	-1996
1009.666	-1349
1009.739	-1144
1009.813	-2554
1009.886	-2071
1009.960	-2594
1010.033	-1670
1010.107	-1335
1010.180	-1685
1010.253	-1699
1010.327	-1786
1010.400	-1687
1010.473	-2557
1010.547	-2130
1010.620	-1336
1010.693	-2017
1010.766	-2163
1010.840	-1821
1010.913	-1498
1010.986	-1757
1011.059	-2159
1011.132	-2391
1011.205	-1248
1011.278	-2096
1011.351	-1096
1011.424	-1479
1011.497	-1273
1011.570	-1675
1011.643	-2069
1011.716	-1583
1011.789	-1584
1011.862	-820
1011.934	-1834
1012.007	-2489
1012.080	-1455
1012.153	-1355
1012.225	-6
1012.298	-2249
1012.371	-1828
1012.443	-522
1012.516	-2078
1012.588	-2481
1012.661	-1207
1012.733	-2662
1012.806	-1640
1012.879	-1654
1012.951	-1878
1013.023	-2430
1013.096	-1150
1013.168	-1830
1013.241	-919
1013.313	-1549
1013.385	-1490
1013.458	-1216
1013.530	-916
1013.602	-2236
1013.674	-1362
1013.746	-2104
1013.819	-1950
1013.891	-2169
1013.963	-1776
1014.035	-2457
1014.107	-832
1014.179	-1972
1014.251	-1652
1014.323	-1521
1014.395	-2190
1014.467	-2038
1014.539	-1463
1014.611	-2087
1014.683	-1135
1014.754	-1597
1014.826	-1964
1014.898	-1580
1014.970	-1621
1015.042	-1078
1015.113	-2070
1015.185	-1781
1015.257	-2269
1015.328	-1761
1015.400	-1411
1015.471	-2096
1015.543	-1079
1015.615	-1918
1015.686	-914
1015.757	-1051
1015.829	-790
1015.901	-1362
1015.972	-1371
1016.043	-2309
1016.115	-1467
1016.186	-1734
1016.257	-1330
1016.328	-1359
1016.400	-1454
1016.471	-1996
1016.542	-1981
1016.613	-1983
1016.685	-1117
1016.756	-1661
1016.827	-1390
1016.898	-2260
1016.969	-1185
1017.040	-2230
1017.111	-1299
1017.182	-2154
1017.253	-2023
1017.324	-2137
1017.395	-1957
1017.466	-1849
1017.537	-1849
1017.608	-1802
1017.678	-2186
1017.749	-1776
1017.820	-1340
1017.891	-2433
1017.961	-1459
1018.032	-2229
1018.103	-1749
1018.173	-1184
1018.244	-2210
1018.315	-2625
1018.385	-1774
1018.456	-2106
1018.526	-2319
1018.597	-2261
1018.667	-962
1018.738	-2198
1018.808	-1966
1018.878	-2583
1018.949	-1138
1019.019	-1819
1019.089	-2075
1019.160	-1746
1019.230	-2150
1019.300	-1288
1019.371	-1293
1019.441	-1210
1019.511	-1846
1019.581	-2408
1019.651	-1981
1019.721	-1660
1019.791	-2094
1019.861	-1729
1019.931	-1585
1020.001	-2793
1020.071	-1079
1020.141	-2242
1020.211	-1079
1020.281	-1356
1020.351	-1520
1020.421	-1868
1020.491	-1321
1020.560	-1890
1020.630	-1197
1020.700	-1751
1020.770	-1412
1020.839	-1932
1020.909	-1986
1020.979	-1573
1021.048	-1869
1021.118	-1688
1021.187	-1938
1021.257	-2017
1021.326	-1421
1021.396	-2117
1021.465	-1928
1021.535	-2470
1021.604	-1267
1021.674	-1982
1021.743	-1329
1021.812	-2020
1021.882	-1803
1021.951	-2212
1022.020	-2480
1022.089	-2265
1022.159	-1952
1022.228	-1859
1022.297	-2381
1022.366	-2024
1022.435	-1924
1022.504	-1470
1022.573	-2218
1022.642	-2369
1022.711	-1224
1022.781	-1423
1022.849	-1430
1022.918	-1780
1022.987	-1334
1023.056	-1630
1023.125	-1467
1023.194	-2391
1023.263	-1524
1023.331	-2052
1023.400	-2472
1023.469	-2010
1023.538	-1157
1023.606	-1963
1023.675	-1099
1023.744	-2310
1023.812	-2323
1023.881	-2837
1023.949	-1918
1024.018	-2206
1024.086	-2127
1024.155	-2002
1024.223	-1769
1024.292	-1448
1024.360	-1530
1024.429	-2397
1024.497	-2732
1024.565	-1685
1024.634	-1878
1024.702	-2328
1024.770	-2411
1024.838	-2076
1024.907	-2318
1024.975	-2121
1025.043	-1474
1025.111	-2868
1025.179	-1372
1025.247	-2066
1025.315	-1083
1025.383	-3067
1025.451	-1855
1025.519	-2274
1025.587	-1929
1025.655	-1629
1025.723	-1648
1025.791	-2668
1025.859	-1479
1025.927	-1711
1025.995	-1701
1026.062	-2150
1026.130	-1328
1026.198	-2113
1026.266	-2155
1026.333	-2147
1026.401	-1195
1026.469	-1579
1026.536	-1961
1026.604	-2517
1026.671	-1742
1026.739	-2327
1026.806	-1590
1026.874	-2522
1026.941	-1778
1027.009	-1934
1027.076	-2597
1027.144	-2141
1027.211	-2645
1027.278	-2022
1027.345	-2073
1027.413	-1982
1027.480	-1714
1027.547	-2186
1027.614	-2020
1027.682	-2229
1027.749	-1120
1027.816	-1694
1027.883	-1291
1027.950	-2371
1028.017	-2097
1028.084	-1545
1028.151	-1974
1028.218	-1361
1028.285	-2360
1028.352	-2055
1028.419	-1562
1028.486	-2713
1028.553	-1450
1028.619	-1246
1028.686	-1962
1028.753	-2406
1028.820	-2301
1028.886	-1434
1028.953	-2073
1029.020	-1946
1029.086	-1677
1029.153	-2414
1029.220	-1833
1029.286	-1913
1029.353	-1609
1029.419	-1452
1029.486	-1822
1029.552	-1965
1029.619	-1064
1029.685	-1865
1029.751	-1666
1029.818	-1662
1029.884	-1676
1029.951	-1632
1030.017	-1812
1030.083	-1431
1030.149	-2454
1030.216	-2137
1030.282	-1418
1030.348	-1827
1030.414	-2078
1030.480	-2340
1030.546	-1566
1030.612	-2228
1030.678	-2386
1030.744	-2259
1030.810	-2032
1030.876	-2010
1030.942	-2222
1031.008	-1877
1031.074	-911
1031.140	-2354
1031.206	-2556
1031.272	-2861
1031.337	-1546
1031.403	-2433
1031.469	-2209
1031.534	-2450
1031.600	-1199
1031.666	-1490
1031.731	-1938
1031.797	-2402
1031.863	-1124
1031.928	-2227
1031.994	-2218
1032.059	-1655
1032.125	-1653
1032.190	-2442
1032.256	-2181
1032.321	-1741
1032.386	-1156
1032.452	-1618
1032.517	-1490
1032.582	-2803
1032.647	-2018
1032.713	-1749
1032.778	-715
1032.843	-1392
1032.908	-2373
1032.974	-2099
1033.039	-1249
1033.104	-1998
1033.169	-2145
1033.234	-2262
1033.299	-1041
1033.364	-1596
1033.429	-2185
1033.494	-3004
1033.559	-1459
1033.624	-1783
1033.688	-1651
1033.753	-2261
1033.818	-1425
1033.883	-1474
1033.948	-1692
1034.013	-1606
1034.077	-1537
1034.142	-1252
1034.207	-1117
1034.271	-2303
1034.336	-759
1034.400	-1483
1034.465	-1142
1034.530	-1734
1034.594	-1381
1034.658	-2202
1034.723	-2006
1034.787	-790
1034.852	-1818
1034.916	-2316
1034.981	-1346
1035.045	-1619
1035.109	-1460
1035.173	-929
1035.238	-2541
1035.302	-1926
1035.366	-2108
1035.430	-1594
1035.495	-1960
1035.559	-1261
1035.623	-1864
1035.687	-1935
1035.751	-1694
1035.815	-2685
1035.879	-2242
1035.943	-1242
1036.007	-2169
1036.071	-2605
1036.135	-1271
1036.198	-2604
1036.262	-1633
1036.326	-1437
1036.390	-1625
1036.454	-1998
1036.517	-2003
1036.581	-1656
1036.645	-1847
1036.709	-2063
1036.772	-1394
1036.836	-2148
1036.900	-1165
1036.963	-2850
1037.026	-1465
1037.090	-2084
1037.154	-1814
1037.217	-1214
1037.280	-1584
1037.344	-1949
1037.407	-3001
1037.471	-1390
1037.534	-1498
1037.597	-2630
1037.661	-1657
1037.724	-1405
1037.787	-1598
1037.850	-2552
1037.913	-1551
1037.977	-1662
1038.040	-1448
1038.103	-2477
1038.166	-1979
1038.229	-1564
1038.292	-1883
1038.355	-2015
1038.418	-1818
1038.481	-1978
1038.544	-1637
1038.607	-1878
1038.670	-1431
1038.732	-2012
1038.795	-1216
1038.858	-2011
1038.921	-994
1038.984	-2192
1039.046	-2076
1039.109	-1218
1039.172	-1339
1039.234	-1972
1039.297	-1585
1039.360	-1725
1039.422	-1829
1039.485	-2075
1039.547	-2050
1039.610	-1839
1039.672	-1953
1039.734	-2191
1039.797	-1353
1039.859	-1178
1039.922	-2035
1039.984	-1775
1040.046	-718
1040.109	-1406
1040.171	-1777
1040.233	-2317
1040.295	-1567
1040.358	-2271
1040.420	-1258
1040.482	-2025
1040.544	-1498
1040.606	-1993
1040.668	-1746
1040.730	-2817
1040.792	-2028
1040.854	-1971
1040.916	-2076
1040.978	-2481
1041.040	-1015
1041.102	-2234
1041.164	-2135
1041.225	-2434
1041.287	-1717
1041.349	-2047
1041.411	-1457
1041.472	-2844
1041.534	-1859
1041.596	-1960
1041.657	-1810
1041.719	-1677
1041.781	-1740
1041.842	-2437
1041.904	-1868
1041.965	-1332
1042.027	-1704
1042.088	-2338
1042.150	-1106
1042.211	-2142
1042.272	-1056
1042.334	-2084
1042.395	-1355
1042.456	-2029
1042.518	-1629
1042.579	-1452
1042.640	-2126
1042.701	-1667
1042.763	-1846
1042.824	-2966
1042.885	-1545
1042.946	-2046
1043.007	-1779
1043.068	-1675
1043.129	-1551
1043.190	-2086
1043.251	-1602
1043.312	-2545
1043.373	-2046
1043.434	-2819
1043.495	-1783
1043.556	-1417
1043.616	-1831
1043.677	-1973
1043.738	-1640
1043.799	-1976
1043.859	-1364
1043.920	-2240
1043.981	-2290
1044.041	-1351
1044.102	-665
1044.162	-1093
1044.223	-2387
1044.284	-1431
1044.344	-1060
1044.405	-1767
1044.465	-1776
1044.525	-1862
1044.586	-1298
1044.646	-1665
1044.707	-1117
1044.767	-2006
1044.827	-1335
1044.887	-2246
1044.948	-1729
1045.008	-2569
1045.068	-1378
1045.128	-1692
1045.188	-1454
1045.249	-1939
1045.309	-2099
1045.369	-1436
1045.429	-1436
1045.489	-1356
1045.549	-1539
1045.609	-2001
1045.669	-1420
1045.729	-2487
1045.789	-1680
1045.848	-1113
1045.908	-1396
1045.968	-2324
1046.028	-1320
1046.088	-2505
1046.147	-1493
1046.207	-1438
1046.267	-1188
1046.326	-1463
1046.386	-1187
1046.446	-1598
1046.505	-1118
1046.565	-792
1046.624	-612
1046.684	-1063
1046.743	-982
1046.803	-814
1046.862	-684
1046.922	0
