'Start Wavelength	183.907
'End Wavelength	1046.922
'Gate Delay	5.000
'Gate Width (ms)	1.050
'Laser Output Level	0.000
'X Position	0.000
'Y Position	0.000
'Z Position	0.000
'Grid Point Number	1.000
'Shot Number	100.000
183.907	-94.000
183.977	301.000
184.047	119
184.116	-282
184.186	644
184.256	623
184.325	-523
184.395	174
184.465	415
184.534	639
184.604	-321
184.674	508
184.743	-529
184.813	496
184.883	-29
184.952	209
185.022	371
185.092	661
185.161	-527
185.231	1245
185.301	426
185.370	417
185.440	-270
185.509	185
185.579	377
185.649	862
185.718	463
185.788	306
185.857	-777
185.927	634
185.996	-70
186.066	-4
186.136	-269
186.205	-325
186.275	534
186.344	469
186.414	65
186.483	382
186.553	1073
186.622	2076
186.692	450
186.761	208
186.831	533
186.900	238
186.970	621
187.039	923
187.109	1468
187.178	702
187.248	988
187.317	971
187.387	671
187.456	1121
187.526	1320
187.595	1789
187.664	85
187.734	1115
187.803	1074
187.873	1572
187.942	1738
188.012	1362
188.081	690
188.150	1067
188.220	2256
188.289	2051
188.358	1533
188.428	726
188.497	13
188.567	1418
188.636	1416
188.705	1035
188.775	315
188.844	571
188.913	1715
188.983	803
189.052	1063
189.121	708
189.191	720
189.260	1927
189.329	2329
189.399	573
189.468	631
189.537	1294
189.606	538
189.676	1755
189.745	944
189.814	1879
189.883	576
189.953	1482
190.022	2094
190.091	6593
190.161	5984
190.230	2044
190.299	1255
190.368	1321
190.437	1172
190.507	830
190.576	500
190.645	-313
190.714	285
190.783	1094
190.853	1343
190.922	1187
190.991	1094
191.060	1789
191.129	1323
191.198	1378
191.268	664
191.337	1057
191.406	1233
191.475	1288
191.544	477
191.613	959
191.682	1122
191.752	1558
191.821	-6
191.890	787
191.959	632
192.028	1165
192.097	1167
192.166	1253
192.235	135
192.304	1226
192.373	636
192.442	728
192.511	1090
192.580	572
192.650	994
192.719	606
192.788	1441
192.857	2208
192.926	1593
192.995	1592
193.064	2424
193.133	3178
193.202	3524
193.271	3215
193.340	2455
193.409	3463
193.478	3170
193.547	5625
193.615	5862
193.684	4975
193.753	3740
193.822	3195
193.891	1581
193.960	2077
194.029	2132
194.098	2052
194.167	1330
194.236	1718
194.305	1057
194.374	1614
194.443	1077
194.512	1765
194.580	1618
194.649	2971
194.718	2714
194.787	2031
194.856	1067
194.925	2009
194.994	3159
195.062	2132
195.131	2221
195.200	3499
195.269	3683
195.338	1469
195.407	1372
195.475	2065
195.544	2915
195.613	2251
195.682	2481
195.751	3104
195.819	2735
195.888	1820
195.957	3437
196.026	3496
196.094	3040
196.163	4080
196.232	2853
196.301	2557
196.369	2532
196.438	2645
196.507	1496
196.576	1925
196.644	1470
196.713	2172
196.782	2025
196.850	2154
196.919	1309
196.988	2056
197.056	1726
197.125	2409
197.194	1428
197.262	2163
197.331	1764
197.400	1759
197.468	693
197.537	1881
197.606	2222
197.674	4803
197.743	6675
197.812	3859
197.880	7852
197.949	4336
198.017	7389
198.086	3613
198.155	2387
198.223	4048
198.292	8780
198.360	3710
198.429	3035
198.497	3303
198.566	7414
198.635	7754
198.703	2122
198.772	4047
198.840	10661
198.909	7215
198.977	3310
199.046	3025
199.114	2853
199.183	3294
199.251	1816
199.320	2739
199.388	1737
199.457	2675
199.525	3586
199.594	1969
199.662	1593
199.731	2247
199.799	2237
199.867	3917
199.936	2303
200.004	2117
200.073	2752
200.141	2607
200.210	1595
200.278	1971
200.346	2865
200.415	3433
200.483	4085
200.552	3088
200.620	2400
200.688	2988
200.757	1829
200.825	2344
200.893	2643
200.962	3015
201.030	2215
201.098	2354
201.167	2986
201.235	2129
201.303	3248
201.372	2952
201.440	3180
201.508	4150
201.577	3557
201.645	3268
201.713	2302
201.781	3971
201.850	4428
201.918	3952
201.986	2706
202.055	3289
202.123	2377
202.191	2621
202.259	2507
202.327	2500
202.396	3029
202.464	3144
202.532	5603
202.600	16639
202.669	6443
202.737	3668
202.805	2310
202.873	3646
202.941	3559
203.009	2842
203.078	2105
203.146	3394
203.214	2352
203.282	2510
203.350	2730
203.418	3484
203.487	2727
203.555	2519
203.623	2147
203.691	2363
203.759	2444
203.827	3095
203.895	3912
203.963	3051
204.031	2871
204.099	3454
204.168	2733
204.236	3247
204.304	4143
204.372	3095
204.440	3033
204.508	3400
204.576	2161
204.644	2161
204.712	2250
204.780	3317
204.848	3306
204.916	3374
204.984	2369
205.052	3145
205.120	3919
205.188	2908
205.256	3239
205.324	3218
205.392	2921
205.460	4067
205.528	3568
205.596	3840
205.664	2958
205.732	3810
205.799	16009
205.867	14672
205.935	4868
206.003	4377
206.071	4036
206.139	4580
206.207	3754
206.275	4076
206.343	2993
206.411	3168
206.478	3500
206.546	3383
206.614	3887
206.682	4543
206.750	3914
206.818	5635
206.885	4277
206.953	3766
207.021	3618
207.089	4677
207.157	3849
207.225	3762
207.292	3271
207.360	4160
207.428	3546
207.496	4092
207.563	3158
207.631	3536
207.699	2861
207.767	3766
207.834	3371
207.902	4278
207.970	4134
208.038	3760
208.105	4175
208.173	5589
208.241	6073
208.309	5880
208.376	6168
208.444	11010
208.512	5353
208.579	4624
208.647	5731
208.715	5748
208.782	4494
208.850	4099
208.918	3834
208.985	5111
209.053	4936
209.120	4754
209.188	4319
209.256	4106
209.323	5509
209.391	7687
209.459	4874
209.526	3997
209.594	4233
209.661	4929
209.729	4027
209.796	4567
209.864	4343
209.932	3629
209.999	4983
210.067	6526
210.134	4829
210.202	6173
210.269	7524
210.337	6924
210.404	4130
210.472	5221
210.539	4443
210.607	6806
210.674	6164
210.742	4554
210.809	4311
210.877	7138
210.944	6544
211.012	6920
211.079	6106
211.146	5853
211.214	5516
211.281	8404
211.349	6600
211.416	6572
211.484	6082
211.551	5903
211.618	5754
211.686	5806
211.753	5110
211.821	5239
211.888	5573
211.955	6667
212.023	5817
212.090	6382
212.157	6223
212.225	7343
212.292	13395
212.359	27720
212.427	53928
212.494	17541
212.561	8980
212.629	7783
212.696	6344
212.763	6894
212.831	5767
212.898	5980
212.965	5460
213.032	6041
213.100	7442
213.167	7306
213.234	8099
213.301	6745
213.369	6487
213.436	5675
213.503	6106
213.570	7331
213.638	6388
213.705	5424
213.772	4357
213.839	8441
213.906	5973
213.973	7982
214.041	5742
214.108	5615
214.175	5537
214.242	6110
214.309	5758
214.376	7340
214.444	7132
214.511	8292
214.578	7134
214.645	6636
214.712	8062
214.779	8183
214.846	7073
214.913	8920
214.980	8707
215.048	9930
215.115	10577
215.182	9634
215.249	7950
215.316	8075
215.383	5969
215.450	6633
215.517	5571
215.584	6062
215.651	5075
215.718	6790
215.785	7947
215.852	9463
215.919	6848
215.986	8232
216.053	5242
216.120	6032
216.187	6282
216.254	6437
216.321	6739
216.388	7566
216.455	7990
216.522	7497
216.589	10205
216.656	17405
216.722	13782
216.789	11822
216.856	11893
216.923	9651
216.990	8942
217.057	9243
217.124	11864
217.191	9939
217.258	13415
217.324	17688
217.391	16794
217.458	12131
217.525	9469
217.592	8166
217.659	8662
217.725	9049
217.792	15521
217.859	10586
217.926	6391
217.993	5908
218.059	5071
218.126	5553
218.193	4905
218.260	5443
218.327	4888
218.393	5547
218.460	4854
218.527	4794
218.594	7799
218.660	15659
218.727	12382
218.794	5636
218.860	4329
218.927	4776
218.994	4749
219.061	6250
219.127	7501
219.194	11874
219.261	5371
219.327	4030
219.394	4786
219.461	4737
219.527	5299
219.594	11018
219.661	5361
219.727	4548
219.794	5403
219.860	5750
219.927	6025
219.994	12440
220.060	18850
220.127	10257
220.193	8482
220.260	8977
220.326	13600
220.393	23870
220.460	27317
220.526	15543
220.593	11301
220.659	11313
220.726	14407
220.792	34893
220.859	25994
220.925	39092
220.992	49395
221.058	46666
221.125	37180
221.191	28615
221.258	11655
221.324	9227
221.391	9005
221.457	7201
221.524	7960
221.590	14232
221.657	41560
221.723	18607
221.789	27863
221.856	17132
221.922	9764
221.989	7741
222.055	5849
222.121	6364
222.188	8826
222.254	6272
222.321	5243
222.387	4555
222.453	4422
222.520	4572
222.586	4320
222.652	5420
222.719	3933
222.785	5123
222.851	4074
222.918	5070
222.984	5265
223.050	5621
223.116	4471
223.183	4351
223.249	3203
223.315	3392
223.382	4227
223.448	3154
223.514	3349
223.580	3674
223.647	4119
223.713	3955
223.779	3949
223.845	4157
223.911	3806
223.978	3361
224.044	5195
224.110	3778
224.176	4221
224.242	4577
224.309	3710
224.375	4647
224.441	3144
224.507	3761
224.573	5107
224.639	4244
224.705	3492
224.772	3899
224.838	3762
224.904	5511
224.970	3825
225.036	5787
225.102	6025
225.168	4682
225.234	4693
225.300	5624
225.366	4463
225.432	4292
225.499	5308
225.565	6356
225.631	5820
225.697	6048
225.763	7910
225.829	9216
225.895	9745
225.961	15959
226.027	11654
226.093	11404
226.159	12175
226.225	21952
226.291	57570
226.357	71673
226.423	30102
226.489	19031
226.554	12608
226.620	13129
226.686	19110
226.752	28253
226.818	49303
226.884	116287
226.950	71038
227.016	26195
227.082	16574
227.148	14888
227.214	13968
227.279	11222
227.345	10021
227.411	10435
227.477	11692
227.543	26213
227.609	20426
227.674	10790
227.740	8366
227.806	8068
227.872	6222
227.938	8533
228.003	11529
228.069	6725
228.135	4635
228.201	5499
228.267	5742
228.332	7733
228.398	12621
228.464	6824
228.530	5223
228.595	5786
228.661	6449
228.727	14544
228.792	7197
228.858	7111
228.924	7890
228.990	8432
229.055	8785
229.121	9510
229.187	6439
229.252	8680
229.318	4548
229.384	7751
229.449	8795
229.515	4067
229.581	2844
229.646	6522
229.712	9163
229.777	25302
229.843	16894
229.909	14420
229.974	12588
230.040	11495
230.105	8887
230.171	11209
230.236	13709
230.302	21906
230.368	14688
230.433	9339
230.499	7160
230.564	9174
230.630	7055
230.695	6913
230.761	6756
230.826	6590
230.892	12743
230.957	6973
231.023	5877
231.088	7651
231.154	6578
231.219	8580
231.284	14106
231.350	11419
231.415	6218
231.481	5993
231.546	5667
231.612	5809
231.677	5246
231.742	5709
231.808	7055
231.873	5996
231.939	5738
232.004	17434
232.069	10368
232.135	8445
232.200	5774
232.265	5521
232.331	5126
232.396	4713
232.461	4525
232.527	6350
232.592	5255
232.657	7849
232.723	16145
232.788	8147
232.853	4594
232.918	5955
232.984	5166
233.049	6477
233.114	16179
233.179	10244
233.245	24514
233.310	17906
233.375	5829
233.440	6175
233.506	4890
233.571	6295
233.636	5648
233.701	6909
233.766	20241
233.832	15349
233.897	8814
233.962	9518
234.027	10096
234.092	8608
234.157	8481
234.222	9996
234.288	20049
234.353	49466
234.418	37445
234.483	17903
234.548	14256
234.613	12032
234.678	10533
234.743	17431
234.808	53103
234.873	21201
234.938	10950
235.004	9090
235.069	8807
235.134	8629
235.199	8872
235.264	8237
235.329	6583
235.394	8463
235.459	12751
235.524	10168
235.589	8069
235.654	6812
235.719	6303
235.784	8157
235.849	12809
235.913	26348
235.978	33856
236.043	26529
236.108	10760
236.173	13963
236.238	10805
236.303	9776
236.368	9421
236.433	23745
236.498	29656
236.563	20153
236.627	50182
236.692	156228
236.757	75816
236.822	36937
236.887	28362
236.952	22375
237.017	19722
237.081	21601
237.146	32447
237.211	62698
237.276	172763
237.341	206575
237.405	72263
237.470	34592
237.535	24904
237.600	15969
237.664	15032
237.729	14028
237.794	24888
237.859	33654
237.923	24118
237.988	15314
238.053	27579
238.118	23552
238.182	76357
238.247	38253
238.312	28414
238.376	17057
238.441	15527
238.506	12719
238.570	8016
238.635	9538
238.700	9320
238.764	10478
238.829	37647
238.893	27275
238.958	15735
239.023	13934
239.087	9540
239.152	11738
239.216	7051
239.281	8658
239.346	7838
239.410	9546
239.475	15979
239.539	72738
239.604	31283
239.668	12748
239.733	10262
239.797	18946
239.862	43822
239.926	49191
239.991	14925
240.055	10075
240.120	10443
240.184	9634
240.249	9251
240.313	8891
240.378	12519
240.442	50085
240.507	47933
240.571	15681
240.635	38175
240.700	27298
240.764	11636
240.829	9399
240.893	7535
240.957	10510
241.022	46393
241.086	56809
241.151	20994
241.215	10489
241.279	21664
241.344	30053
241.408	12529
241.472	9961
241.537	11186
241.601	9783
241.665	8654
241.730	9440
241.794	9699
241.858	9318
241.922	10182
241.987	10360
242.051	8528
242.115	8917
242.179	8507
242.244	7856
242.308	9281
242.372	12382
242.436	11536
242.501	10736
242.565	7992
242.629	8276
242.693	8547
242.757	7485
242.822	8506
242.886	9721
242.950	10417
243.014	11638
243.078	13605
243.142	10996
243.206	11792
243.271	14022
243.335	13646
243.399	23691
243.463	119068
243.527	176561
243.591	40741
243.655	21002
243.719	14010
243.783	18057
243.847	32696
243.911	33973
243.975	45500
244.040	23792
244.104	12765
244.168	12757
244.232	26614
244.296	28846
244.360	28494
244.424	16702
244.488	13090
244.552	12611
244.615	9164
244.679	9633
244.743	18470
244.807	13263
244.871	9584
244.935	9185
244.999	8606
245.063	10588
245.127	13533
245.191	27236
245.255	16940
245.319	20653
245.383	13781
245.446	11818
245.510	9904
245.574	12915
245.638	11944
245.702	19709
245.766	36485
245.829	18104
245.893	14664
245.957	11697
246.021	14066
246.085	15759
246.149	21191
246.212	58379
246.276	57933
246.340	26005
246.404	17335
246.467	27628
246.531	32794
246.595	18788
246.659	17454
246.722	18450
246.786	20073
246.850	30468
246.913	27755
246.977	14226
247.041	15090
247.104	15647
247.168	19256
247.232	57596
247.295	88625
247.359	29954
247.423	24004
247.486	38443
247.550	19400
247.614	20471
247.677	21796
247.741	14332
247.804	13780
247.868	17943
247.932	55331
247.995	69509
248.059	23080
248.122	15398
248.186	22159
248.249	47546
248.313	167921
248.376	115867
248.440	71444
248.503	26034
248.567	27454
248.630	46688
248.694	54086
248.757	82572
248.821	143832
248.884	64530
248.948	91136
249.011	113079
249.075	180789
249.138	107594
249.202	43217
249.265	34387
249.328	40487
249.392	29851
249.455	22155
249.519	20259
249.582	28816
249.645	47054
249.709	24977
249.772	20152
249.835	19994
249.899	23051
249.962	19523
250.025	21262
250.089	69820
250.152	57970
250.215	29294
250.279	22960
250.342	24070
250.405	22797
250.468	24823
250.532	35176
250.595	56140
250.658	266472
250.721	224335
250.785	80234
250.848	42162
250.911	27836
250.974	27293
251.038	57183
251.101	77156
251.164	42244
251.227	46562
251.290	41016
251.354	83811
251.417	324800
251.480	178917
251.543	211849
251.606	518676
251.669	231940
251.732	106202
251.795	128521
251.859	146517
251.922	307194
251.985	106949
252.048	51345
252.111	43379
252.174	47136
252.237	107342
252.300	168721
252.363	252387
252.426	346419
252.489	114564
252.552	67199
252.615	50273
252.678	64456
252.741	141719
252.804	234064
252.867	360987
252.930	180570
252.993	97610
253.056	61943
253.119	43743
253.182	44107
253.245	70395
253.308	45220
253.371	52044
253.434	41202
253.497	47097
253.559	88667
253.622	48973
253.685	81004
253.748	55503
253.811	32823
253.874	47637
253.937	37180
254.000	31288
254.062	76790
254.125	74598
254.188	86425
254.251	49357
254.314	33945
254.376	74552
254.439	59130
254.502	48867
254.565	76885
254.628	88556
254.690	52519
254.753	30489
254.816	29825
254.878	33273
254.941	77937
255.004	46567
255.067	29029
255.129	26082
255.192	15420
255.255	16773
255.317	19453
255.380	12609
255.443	12653
255.505	12860
255.568	13801
255.631	13101
255.693	14281
255.756	11583
255.819	12917
255.881	9820
255.944	11553
256.006	12030
256.069	12812
256.132	13178
256.194	26769
256.257	57014
256.319	40158
256.382	29470
256.444	18842
256.507	14167
256.569	13859
256.632	18434
256.694	34191
256.757	114817
256.819	183284
256.882	53425
256.944	28304
257.007	24900
257.069	27571
257.132	17644
257.194	16038
257.257	18237
257.319	18778
257.381	24681
257.444	77266
257.506	306507
257.569	203237
257.631	114216
257.693	53994
257.756	31149
257.818	26810
257.880	17915
257.943	17631
258.005	15412
258.067	14458
258.130	14112
258.192	26008
258.254	43706
258.317	20147
258.379	20900
258.441	69128
258.503	37336
258.566	96144
258.628	57918
258.690	19156
258.753	24367
258.815	35563
258.877	17105
258.939	13928
259.001	13194
259.064	13283
259.126	25188
259.188	24584
259.250	19697
259.312	32464
259.375	77338
259.437	29179
259.499	15251
259.561	15778
259.623	16132
259.685	16605
259.747	20636
259.809	96966
259.872	102153
259.934	202772
259.996	89640
260.058	28380
260.120	17727
260.182	13773
260.244	13485
260.306	12367
260.368	13385
260.430	15902
260.492	33718
260.554	69506
260.616	44382
260.678	128820
260.740	87046
260.802	25914
260.864	22253
260.926	18998
260.988	19101
261.050	20236
261.112	49050
261.174	137288
261.236	59828
261.298	27486
261.359	75830
261.421	53895
261.483	19879
261.545	17703
261.607	13329
261.669	15712
261.731	55336
261.793	75437
261.854	26501
261.916	19189
261.978	18096
262.040	18630
262.102	17746
262.164	40160
262.225	19185
262.287	19174
262.349	52821
262.411	24721
262.472	16646
262.534	59661
262.596	61444
262.658	21774
262.719	15176
262.781	38419
262.843	74467
262.904	26169
262.966	24964
263.028	36407
263.090	232237
263.151	265056
263.213	74845
263.275	39197
263.336	20639
263.398	17209
263.459	14659
263.521	20068
263.583	44889
263.644	22446
263.706	13027
263.767	10156
263.829	9414
263.891	9608
263.952	8647
264.014	8304
264.075	22163
264.137	30155
264.198	16597
264.260	9445
264.321	10733
264.383	42980
264.444	45130
264.506	14852
264.567	12400
264.629	32044
264.690	34095
264.752	17576
264.813	12180
264.875	9795
264.936	10926
264.998	10127
265.059	9917
265.120	14135
265.182	29452
265.243	133065
265.305	58667
265.366	19792
265.427	13141
265.489	11768
265.550	9063
265.611	15430
265.673	12194
265.734	9527
265.795	10029
265.857	11603
265.918	14416
265.979	50282
266.040	207047
266.102	77482
266.163	30442
266.224	24816
266.286	15606
266.347	13413
266.408	13574
266.469	15681
266.530	11117
266.592	12972
266.653	35322
266.714	34628
266.775	12612
266.836	11527
266.898	11381
266.959	17867
267.020	10540
267.081	10860
267.142	9473
267.203	11125
267.264	10147
267.326	13575
267.387	10016
267.448	9326
267.509	10116
267.570	10293
267.631	8522
267.692	9573
267.753	11170
267.814	10333
267.875	38160
267.936	44436
267.997	21259
268.058	16065
268.119	10578
268.180	13041
268.241	8759
268.302	8709
268.363	7901
268.424	11993
268.485	10872
268.546	7545
268.607	6241
268.668	7188
268.729	8011
268.790	11209
268.851	12413
268.912	42669
268.972	30926
269.033	16245
269.094	8935
269.155	8587
269.216	8617
269.277	11278
269.338	8362
269.398	9869
269.459	12810
269.520	17042
269.581	23470
269.642	23955
269.702	14544
269.763	11782
269.824	10715
269.885	21018
269.945	18412
270.006	9180
270.067	6964
270.128	8636
270.188	8231
270.249	8974
270.310	7481
270.370	10392
270.431	9450
270.492	7979
270.553	12522
270.613	34027
270.674	45057
270.734	16206
270.795	12130
270.856	20826
270.916	12755
270.977	11401
271.038	15120
271.098	14168
271.159	28884
271.219	18024
271.280	9532
271.340	10561
271.401	22576
271.462	37270
271.522	17297
271.583	12616
271.643	13349
271.704	13379
271.764	17902
271.825	52820
271.885	152194
271.946	112521
272.006	42754
272.066	99938
272.127	89431
272.187	28427
272.248	20531
272.308	37793
272.369	91954
272.429	34719
272.489	41749
272.550	31768
272.610	38734
272.671	24163
272.731	38984
272.791	42984
272.852	24382
272.912	20272
272.972	13559
273.033	18806
273.093	26888
273.153	20885
273.214	17279
273.274	25759
273.334	106732
273.394	108318
273.455	45468
273.515	78569
273.575	98455
273.635	42724
273.696	97019
273.756	107916
273.816	40610
273.876	33190
273.936	104395
273.997	83592
274.057	27680
274.117	26704
274.177	53991
274.237	178028
274.297	105615
274.358	92488
274.418	108364
274.478	55816
274.538	26773
274.598	40711
274.658	121599
274.718	101909
274.778	36737
274.838	27289
274.898	101883
274.958	157876
275.018	131414
275.078	57225
275.138	27868
275.198	18961
275.258	17509
275.318	26476
275.378	41156
275.438	33071
275.498	30791
275.558	119048
275.618	142813
275.678	69095
275.738	52950
275.798	29663
275.858	17177
275.918	14527
275.978	19233
276.038	14824
276.098	15474
276.157	50274
276.217	73354
276.277	31711
276.337	23597
276.397	17022
276.457	18598
276.517	13345
276.576	12530
276.636	14468
276.696	27775
276.756	56984
276.815	26137
276.875	19450
276.935	22420
276.995	16858
277.055	13566
277.114	14600
277.174	37920
277.234	62467
277.293	23586
277.353	18195
277.413	14171
277.472	18103
277.532	17818
277.592	28797
277.651	138949
277.711	112110
277.771	69841
277.830	204812
277.890	92638
277.950	164724
278.009	233400
278.069	75826
278.128	153233
278.188	112257
278.248	82974
278.307	187043
278.367	63014
278.426	31060
278.486	22072
278.545	17697
278.605	17566
278.664	17955
278.724	22864
278.783	88065
278.843	103419
278.902	32238
278.962	27772
279.021	29236
279.081	48930
279.140	37155
279.199	31856
279.259	33053
279.318	38046
279.378	54332
279.437	119951
279.496	385755
279.556	818614
279.615	398740
279.675	141813
279.734	96268
279.793	166057
279.853	151797
279.912	59198
279.971	45617
280.031	46015
280.090	109357
280.149	113644
280.208	185798
280.268	621055
280.327	334335
280.386	110384
280.445	92935
280.505	56700
280.564	36013
280.623	31985
280.682	60576
280.742	48564
280.801	23931
280.860	18964
280.919	17901
280.978	16976
281.037	17124
281.097	16469
281.156	16786
281.215	16118
281.274	31960
281.333	100308
281.392	39993
281.451	17933
281.510	14191
281.569	12938
281.628	11275
281.688	11920
281.747	15000
281.806	12183
281.865	10957
281.924	12628
281.983	10722
282.042	9111
282.101	9340
282.160	9492
282.219	11421
282.278	18913
282.337	47946
282.396	19736
282.454	14016
282.513	27670
282.572	63319
282.631	22384
282.690	13771
282.749	12849
282.808	15009
282.867	15675
282.926	12424
282.985	9857
283.043	9300
283.102	12452
283.161	17253
283.220	56214
283.279	59573
283.338	18770
283.396	14978
283.455	13996
283.514	17346
283.573	23113
283.631	16456
283.690	13535
283.749	15411
283.808	36570
283.866	24207
283.925	13716
283.984	15803
284.043	21430
284.101	17465
284.160	16322
284.219	21579
284.277	20416
284.336	44387
284.395	101064
284.453	51148
284.512	31260
284.570	39037
284.629	31761
284.688	35610
284.746	39015
284.805	48054
284.863	64895
284.922	73868
284.981	88973
285.039	131670
285.098	250116
285.156	597668
285.215	775619
285.273	683977
285.332	370573
285.390	204681
285.449	128201
285.507	88121
285.566	66071
285.624	52415
285.683	40781
285.741	34590
285.799	29507
285.858	28155
285.916	23959
285.975	20608
286.033	17928
286.091	16619
286.150	14243
286.208	16523
286.267	17301
286.325	20695
286.383	25730
286.442	17381
286.500	12983
286.558	12663
286.616	12101
286.675	17238
286.733	14146
286.791	13968
286.850	16474
286.908	26490
286.966	26636
287.024	13515
287.083	10702
287.141	9326
287.199	12183
287.257	16701
287.315	12083
287.374	20038
287.432	33915
287.490	17845
287.548	13802
287.606	11572
287.664	12855
287.723	20566
287.781	20158
287.839	16219
287.897	20656
287.955	25859
288.013	39357
288.071	104823
288.129	484706
288.187	650814
288.245	213160
288.303	86025
288.361	50740
288.419	37868
288.477	25316
288.535	20747
288.593	17161
288.651	14357
288.709	11780
288.767	12938
288.825	10630
288.883	10415
288.941	9786
288.999	10280
289.057	8722
289.115	9466
289.173	9540
289.231	10077
289.289	10100
289.346	10037
289.404	13149
289.462	20405
289.520	16645
289.578	7537
289.636	6934
289.694	6928
289.751	6253
289.809	5927
289.867	6673
289.925	11927
289.983	9329
290.040	6729
290.098	6289
290.156	10043
290.214	9872
290.271	6462
290.329	7009
290.387	5870
290.444	4804
290.502	5385
290.560	5266
290.617	5745
290.675	6262
290.733	7755
290.790	7436
290.848	7926
290.906	9249
290.963	8081
291.021	8264
291.078	7523
291.136	10037
291.194	45444
291.251	44932
291.309	14134
291.366	7452
291.424	8410
291.481	8207
291.539	10451
291.596	8446
291.654	5642
291.711	6184
291.769	12726
291.826	19594
291.884	10047
291.941	6759
291.999	7961
292.056	10297
292.114	7990
292.171	7494
292.228	9333
292.286	12356
292.343	23704
292.401	22014
292.458	13546
292.515	11183
292.573	13621
292.630	13746
292.687	14090
292.745	10817
292.802	17123
292.859	44852
292.917	68205
292.974	27241
293.031	12922
293.089	9816
293.146	8141
293.203	7197
293.260	8897
293.318	14484
293.375	12235
293.432	8029
293.489	8828
293.546	9262
293.604	21134
293.661	77115
293.718	98692
293.775	38327
293.832	27199
293.889	23992
293.947	24347
294.004	15476
294.061	18527
294.118	42270
294.175	61354
294.232	50324
294.289	20786
294.346	14459
294.403	13440
294.460	13081
294.517	11487
294.574	8971
294.631	10558
294.688	15060
294.745	58080
294.802	132743
294.859	78955
294.916	42653
294.973	26694
295.030	22475
295.087	15940
295.144	11746
295.201	11460
295.258	10715
295.315	21747
295.372	75317
295.429	74800
295.486	29383
295.542	23464
295.599	57083
295.656	54886
295.713	69313
295.770	66086
295.827	24031
295.883	15371
295.940	16813
295.997	28431
296.054	18545
296.111	11087
296.167	8965
296.224	7619
296.281	7572
296.338	8443
296.394	9588
296.451	17203
296.508	55819
296.564	57949
296.621	47051
296.678	120089
296.734	91944
296.791	33895
296.848	23019
296.904	33347
296.961	69737
297.018	102809
297.074	48297
297.131	23298
297.187	20297
297.244	40716
297.301	150480
297.357	131984
297.414	41968
297.470	23506
297.527	15575
297.583	13352
297.640	12513
297.696	10255
297.753	8854
297.809	8489
297.866	6852
297.922	8450
297.979	8071
298.035	12538
298.092	28250
298.148	67179
298.204	38440
298.261	24758
298.317	64198
298.374	104159
298.430	44964
298.486	30305
298.543	22514
298.599	21899
298.656	25010
298.712	55192
298.768	92529
298.824	43578
298.881	19289
298.937	12660
298.993	13674
299.050	15990
299.106	12279
299.162	12316
299.218	12646
299.275	10290
299.331	14796
299.387	43946
299.443	115640
299.500	73846
299.556	30645
299.612	20415
299.668	19330
299.724	26075
299.780	20647
299.837	17925
299.893	40609
299.949	109246
300.005	83186
300.061	103288
300.117	119007
300.173	46739
300.229	30156
300.285	40779
300.341	31751
300.397	18056
300.453	13800
300.510	14093
300.566	14556
300.622	24042
300.678	66502
300.734	85396
300.790	95309
300.845	89053
300.901	67590
300.957	89348
301.013	47772
301.069	23085
301.125	20466
301.181	19565
301.237	13859
301.293	10553
301.349	9911
301.405	11455
301.461	12630
301.516	16162
301.572	17742
301.628	25910
301.684	23237
301.740	49938
301.796	52556
301.851	44892
301.907	66267
301.963	61106
302.019	157869
302.074	290423
302.130	198346
302.186	83175
302.242	41125
302.297	30263
302.353	38152
302.409	61251
302.464	41124
302.520	56087
302.576	120990
302.631	96128
302.687	46485
302.743	23407
302.798	15087
302.854	12914
302.910	13667
302.965	20230
303.021	32218
303.076	29765
303.132	41817
303.187	35116
303.243	17319
303.299	10978
303.354	9860
303.410	10004
303.465	8986
303.521	9605
303.576	9769
303.632	15818
303.687	47367
303.743	94049
303.798	52819
303.853	23088
303.909	15032
303.964	15331
304.020	25811
304.075	29055
304.130	33278
304.186	52681
304.241	46158
304.297	33964
304.352	18457
304.358	17913
304.407	13506
304.449	13424
304.463	13402
304.518	14236
304.539	13524
304.573	12422
304.629	14845
304.630	15183
304.684	31420
304.720	68346
304.739	86634
304.794	78488
304.811	65374
304.850	34129
304.902	18865
304.905	17947
304.960	15263
304.992	14940
305.015	14619
305.071	13551
305.083	12791
305.126	9967
305.173	7967
305.181	7692
305.236	7826
305.264	9400
305.292	10981
305.347	12742
305.354	12850
305.402	13659
305.445	15939
305.457	16522
305.512	19828
305.535	19112
305.567	18357
305.622	21868
305.626	23347
305.678	55084
305.716	102238
305.733	117872
305.788	90726
305.807	80706
305.843	67138
305.897	98244
305.898	98553
305.953	68642
305.988	43840
306.008	31508
306.063	20447
306.078	18447
306.118	14286
306.168	10164
306.173	9820
306.228	8566
306.259	8464
306.283	8549
306.338	8409
306.349	9106
306.393	12134
306.440	13396
306.448	13526
306.503	13425
306.530	16065
306.558	22170
306.613	47751
306.620	50748
306.668	72206
306.711	95754
306.723	97188
306.778	58713
306.801	43436
306.833	28466
306.888	15233
306.892	14717
306.943	11976
306.982	10586
306.997	10155
307.052	9841
307.072	10180
307.107	11797
307.162	17339
307.163	17419
307.217	25796
307.253	31976
307.272	33369
307.327	28467
307.343	26294
307.381	23393
307.434	25401
307.436	26185
307.491	58200
307.524	80835
307.546	85811
307.600	67216
307.614	59462
307.655	35805
307.704	20740
307.710	20633
307.765	27269
307.795	36765
307.819	44054
307.874	57784
307.885	56387
307.929	41166
307.975	32272
307.984	33475
308.038	49602
308.065	64507
308.093	118696
308.148	277359
308.156	307984
308.202	435715
308.246	439778
308.257	411364
308.312	204574
308.336	137462
308.366	109448
308.421	66314
308.426	62856
308.475	40633
308.517	28944
308.530	27161
308.585	24828
308.607	24322
308.639	26021
308.694	31366
308.697	32148
308.748	58537
308.787	81053
308.803	80226
308.857	53345
308.877	45100
308.912	41460
308.967	42748
308.967	42846
309.021	64711
309.058	84523
309.076	107367
309.130	190180
309.148	223962
309.185	398839
309.238	709671
309.239	711034
309.293	678274
309.328	574124
309.348	476588
309.402	218716
309.418	155421
309.457	114092
309.508	75569
309.511	75256
309.566	84149
309.598	96208
309.620	121138
309.674	194409
309.688	209984
309.729	184027
309.778	132088
309.783	128022
309.837	84453
309.868	63909
309.892	74060
309.946	110223
309.959	119991
310.001	139994
310.049	148385
310.055	142269
310.109	78200
310.139	45233
310.163	36656
310.218	24113
310.229	21925
310.272	18326
310.319	15262
310.326	14831
310.381	12615
310.409	11646
310.435	11506
310.489	11037
310.499	11107
310.543	11534
310.589	11841
310.598	11701
310.652	10953
310.679	10284
310.706	9143
310.760	7125
310.769	6831
310.814	6623
310.859	6681
310.868	6776
310.923	7253
310.948	7606
310.977	9021
311.031	11635
311.038	12021
311.085	10787
311.128	9116
311.139	8972
311.193	8630
311.218	8364
311.247	7672
311.301	6392
311.308	6266
311.356	6463
311.398	6552
311.410	6507
311.464	6301
311.488	6218
311.518	6832
311.572	7982
311.578	8139
311.626	11557
311.668	14384
311.680	14105
311.734	12630
311.758	11992
311.788	11824
311.842	11526
311.847	11491
311.896	13756
311.937	15860
311.950	15648
312.004	14491
312.027	13991
312.058	12073
312.112	8675
312.117	8335
312.165	7731
312.207	7226
312.297	8940
312.386	7445
312.476	13120
312.566	25138
312.656	10062
312.745	5575
312.835	7174
312.925	8685
313.015	8700
313.104	8287
313.194	9305
313.284	8650
313.374	13897
313.463	9839
313.553	7034
313.643	6682
313.732	6108
313.822	5280
313.912	7056
314.001	9602
314.091	9535
314.180	10385
314.270	12939
314.360	15717
314.449	12052
314.539	7367
314.628	6875
314.718	9166
314.808	11772
314.897	6968
314.987	9135
315.076	13456
315.166	16826
315.255	13123
315.345	15254
315.434	14567
315.524	13606
315.613	18540
315.703	28107
315.792	74461
315.881	266050
315.971	67079
316.060	33193
316.150	40726
316.239	38325
316.328	12161
316.418	8167
316.507	9415
316.597	13876
316.686	12339
316.775	24035
316.865	38656
316.954	8609
317.043	8177
317.133	9504
317.222	8565
317.311	8260
317.400	9358
317.490	16463
317.579	18645
317.668	15808
317.757	35518
317.847	142782
317.936	463913
318.025	118164
318.114	80037
318.203	33024
318.293	23917
318.382	34195
318.471	29805
318.560	41049
318.649	55061
318.738	14546
318.828	16611
318.917	15784
319.006	19363
319.095	52710
319.184	85237
319.273	58635
319.362	35903
319.451	13154
319.540	13452
319.629	41684
319.718	52732
319.807	15921
319.896	47670
319.985	110894
320.074	40352
320.163	14181
320.252	24032
320.341	15094
320.430	11552
320.519	27610
320.608	12487
320.697	10181
320.786	10571
320.875	18411
320.964	25406
321.053	41629
321.142	66360
321.230	54952
321.319	48502
321.408	98455
321.497	32276
321.586	38395
321.675	44243
321.764	35629
321.852	24755
321.941	59054
322.030	31576
322.119	41447
322.207	110009
322.296	53996
322.385	24926
322.474	43256
322.562	139896
322.651	50339
322.740	53894
322.829	66270
322.917	56072
323.006	36418
323.095	29684
323.183	19716
323.272	31954
323.361	76675
323.449	189379
323.538	53783
323.626	136667
323.715	61107
323.804	31983
323.892	121325
323.981	54746
324.069	17576
324.158	65316
324.246	45328
324.335	21632
324.424	36025
324.512	11067
324.601	16213
324.689	41479
324.778	62818
324.866	42960
324.954	10264
325.043	13059
325.131	28224
325.220	43635
325.308	47849
325.397	38808
325.485	20001
325.574	8907
325.662	8236
325.750	9899
325.839	7460
325.927	6800
326.015	11189
326.104	22628
326.192	26646
326.280	6769
326.369	7503
326.457	15142
326.545	30029
326.634	10647
326.722	6489
326.810	8028
326.898	6773
326.987	8998
327.075	30084
327.163	24596
327.251	11626
327.340	24065
327.428	25808
327.516	7121
327.604	9386
327.692	9607
327.781	12423
327.869	19581
327.957	13266
328.045	13687
328.133	6664
328.221	9983
328.309	7817
328.397	7625
328.485	10848
328.574	20023
328.662	73687
328.750	33714
328.838	12362
328.926	7064
329.014	6016
329.102	11280
329.190	27080
329.278	17514
329.366	4980
329.454	4880
329.542	4969
329.630	4878
329.718	5502
329.806	9168
329.893	6263
329.981	4663
330.069	7353
330.157	35608
330.245	83376
330.333	33512
330.421	8589
330.509	20029
330.597	88356
330.684	44317
330.772	12725
330.860	13204
330.948	14236
331.036	7595
331.123	4264
331.211	4965
331.299	6380
331.387	16185
331.475	25499
331.562	8991
331.650	5252
331.738	8250
331.825	10409
331.913	4920
332.001	5735
332.089	8206
332.176	19521
332.264	59372
332.352	36081
332.439	10590
332.527	7744
332.614	7379
332.702	10146
332.790	7983
332.877	31591
332.965	56523
333.052	18150
333.140	27384
333.228	63757
333.315	13530
333.403	10222
333.490	33508
333.578	37763
333.665	87654
333.753	30572
333.840	8505
333.928	11695
334.015	31670
334.103	56657
334.190	132018
334.278	26861
334.365	16046
334.452	12084
334.540	8091
334.627	12250
334.715	14894
334.802	42526
334.889	252496
334.977	205653
335.064	22536
335.151	11784
335.239	9125
335.326	14960
335.413	65068
335.501	58145
335.588	11663
335.675	8960
335.762	10691
335.850	14839
335.937	16069
336.024	61556
336.111	227728
336.199	76271
336.286	15348
336.373	8454
336.460	6121
336.547	7412
336.635	9883
336.722	9027
336.809	8279
336.896	15249
336.983	42019
337.070	90720
337.157	112035
337.245	140626
337.332	83197
337.419	9902
337.506	6556
337.593	7634
337.680	28829
337.767	51630
337.854	20812
337.941	25713
338.028	43958
338.115	14548
338.202	12265
338.289	41934
338.376	135807
338.463	34260
338.550	41466
338.637	29838
338.724	25438
338.811	34478
338.898	7995
338.984	5967
339.071	6771
339.158	13445
339.245	37286
339.332	20535
339.419	28189
339.506	22787
339.593	5536
339.679	6326
339.766	5723
339.853	11414
339.940	27993
340.027	7926
340.113	8361
340.200	14412
340.287	8942
340.374	14587
340.460	24143
340.547	9949
340.634	21831
340.720	88812
340.807	43542
340.894	7835
340.980	9100
341.067	8676
341.154	8532
341.240	18660
341.327	38675
341.414	13507
341.500	16742
341.587	8229
341.674	7895
341.760	27308
341.847	30912
341.933	9155
342.020	3834
342.106	4463
342.193	9461
342.279	20352
342.366	16198
342.452	25709
342.539	14005
342.625	38737
342.712	91610
342.798	33566
342.885	12279
342.971	4918
343.058	4626
343.144	5988
343.230	5948
343.317	8591
343.403	6949
343.490	3946
343.576	4801
343.662	7680
343.749	9710
343.835	12272
343.921	25545
344.008	184829
344.094	358271
344.180	68504
344.267	28894
344.353	106532
344.439	93290
344.525	38701
344.612	14918
344.698	14403
344.784	8727
344.870	6656
344.957	7811
345.043	14799
345.129	12211
345.215	22839
345.301	13968
345.387	8508
345.474	4307
345.560	5095
345.646	7667
345.732	7393
345.818	10092
345.904	10041
345.990	11832
346.076	13151
346.162	20742
346.249	9131
346.335	6767
346.421	10293
346.507	51405
346.593	146421
346.679	28939
346.765	7454
346.851	8617
346.937	8410
347.023	6400
347.108	9898
347.194	8262
347.280	7869
347.366	12341
347.452	52039
347.538	185028
347.624	122278
347.710	83992
347.796	12122
347.882	5834
347.967	6153
348.053	7306
348.139	6329
348.225	6447
348.311	8345
348.397	6073
348.482	10214
348.568	11021
348.654	6277
348.740	10035
348.825	10533
348.911	18615
348.997	94039
349.083	154629
349.168	20645
349.254	9994
349.340	10405
349.425	5858
349.511	10801
349.597	12808
349.682	33606
349.768	93397
349.854	37861
349.939	6725
350.025	5837
350.110	5403
350.196	5449
350.282	4569
350.367	5063
350.453	13021
350.538	14332
350.624	11700
350.709	8818
350.795	6105
350.880	7676
350.966	8725
351.051	15724
351.137	9464
351.222	7978
351.308	33420
351.393	78923
351.479	20814
351.564	8588
351.649	7567
351.735	5297
351.820	5116
351.906	5982
351.991	12631
352.076	57416
352.162	74157
352.247	14052
352.332	10253
352.418	23939
352.503	33604
352.588	112549
352.673	87318
352.759	20564
352.844	10042
352.929	12577
353.014	16777
353.100	10423
353.185	19951
353.270	34037
353.355	29711
353.441	8720
353.526	10875
353.611	29181
353.696	33139
353.781	17035
353.866	7751
353.952	8750
354.037	29966
354.122	64429
354.207	57984
354.292	19310
354.377	7591
354.462	7568
354.547	12334
354.632	9716
354.717	13824
354.802	21253
354.887	8236
354.972	4935
355.057	4745
355.142	4752
355.227	9293
355.312	19045
355.397	45257
355.482	104790
355.567	48316
355.652	31720
355.737	42101
355.822	122681
355.907	90946
355.991	12064
356.076	6813
356.161	6384
356.246	5509
356.331	8052
356.416	36413
356.501	218905
356.585	207613
356.670	25709
356.755	14429
356.840	26575
356.924	160745
357.009	495496
357.094	173633
357.179	33376
357.263	23360
357.348	21409
357.433	21292
357.517	20387
357.602	16248
357.687	14219
357.771	29895
357.856	86429
357.941	49387
358.025	118292
358.110	440054
358.195	190897
358.279	23714
358.364	22092
358.448	88406
358.533	212158
358.617	153625
358.702	144584
358.787	51979
358.871	28921
358.956	22833
359.040	8539
359.125	6289
359.209	10912
359.294	43617
359.378	67807
359.462	26560
359.547	14247
359.631	9337
359.716	6683
359.800	7807
359.885	10951
359.969	9576
360.053	7666
360.138	7467
360.222	15724
360.306	31664
360.391	23746
360.475	52322
360.559	105090
360.644	88360
360.728	65026
360.812	127768
360.896	308140
360.981	111881
361.065	48175
361.149	13899
361.233	14610
361.318	13431
361.402	16194
361.486	12457
361.570	9853
361.654	14419
361.739	48498
361.823	217044
361.907	304069
361.991	48999
362.075	28264
362.159	62483
362.243	42257
362.327	37463
362.411	40110
362.495	21911
362.580	12250
362.664	8205
362.748	8748
362.832	10584
362.916	21081
363.000	77642
363.084	252591
363.168	351289
363.252	75775
363.336	22326
363.420	36418
363.503	88992
363.587	76861
363.671	20082
363.755	17804
363.839	25544
363.923	13736
364.007	30873
364.091	34624
364.175	46710
364.258	127343
364.342	104513
364.426	130961
364.510	67626
364.594	31827
364.677	65683
364.761	269682
364.845	185209
364.929	50539
365.013	42357
365.096	35135
365.180	44062
365.264	50027
365.347	117392
365.431	43899
365.515	13497
365.598	11176
365.682	9670
365.766	11972
365.849	11682
365.933	12606
366.017	11915
366.100	7042
366.184	5280
366.267	8073
366.351	7598
366.435	6078
366.518	5645
366.602	5146
366.685	6611
366.769	10556
366.852	14714
366.936	26572
367.019	18974
367.103	10926
367.186	11546
367.270	6911
367.353	5389
367.436	7662
367.520	6410
367.603	11333
367.687	20705
367.770	35948
367.853	23720
367.937	71342
368.020	106177
368.104	28284
368.187	26887
368.270	35094
368.353	28157
368.437	45956
368.520	85732
368.603	58543
368.687	90085
368.770	148415
368.853	36585
368.936	29898
369.020	21773
369.103	10443
369.186	6426
369.269	8292
369.352	23758
369.436	32266
369.519	18742
369.602	8820
369.685	10150
369.768	12795
369.851	8770
369.934	6228
370.018	11908
370.101	30149
370.184	20048
370.267	13023
370.350	23421
370.433	45770
370.516	138146
370.599	201169
370.682	75179
370.765	74323
370.848	108727
370.931	188750
371.014	64817
371.097	12195
371.180	10284
371.263	5968
371.346	4763
371.429	6538
371.511	8213
371.594	17737
371.677	24655
371.760	17784
371.843	29198
371.926	146191
372.009	295985
372.091	91933
372.174	77895
372.257	167210
372.340	65266
372.423	33246
372.505	28248
372.588	17979
372.671	69405
372.754	190357
372.836	95131
372.919	40638
373.002	56407
373.085	26025
373.167	29145
373.250	83712
373.332	170630
373.415	253804
373.498	468834
373.580	192507
373.663	288870
373.746	352104
373.828	71970
373.911	25867
373.993	30157
374.076	65375
374.159	55162
374.241	53091
374.324	149883
374.406	108443
374.489	155504
374.571	370507
374.654	155459
374.736	85027
374.819	245321
374.901	360106
374.983	356652
375.066	59821
375.148	21352
375.231	64633
375.313	92355
375.395	36767
375.478	11997
375.560	10096
375.643	18948
375.725	95771
375.807	325010
375.890	242265
375.972	82742
376.054	49176
376.136	64983
376.219	37673
376.301	108910
376.383	277870
376.465	111053
376.548	61283
376.630	95237
376.712	226841
376.794	109620
376.877	12384
376.959	7491
377.041	10871
377.123	12425
377.205	11221
377.287	4661
377.369	5887
377.452	7098
377.534	7376
377.616	7819
377.698	7643
377.780	6060
377.862	9378
377.944	8159
378.026	5323
378.108	5471
378.190	6657
378.272	5247
378.354	4585
378.436	4844
378.518	12134
378.600	33716
378.682	42059
378.764	100399
378.846	81059
378.928	21024
379.010	27000
379.091	14659
379.173	8206
379.255	7012
379.337	15563
379.419	59605
379.501	143341
379.583	60501
379.664	16261
379.746	43167
379.828	99627
379.910	139728
379.991	118000
380.073	22437
380.155	12742
380.237	9936
380.318	7301
380.400	9244
380.482	24775
380.564	39910
380.645	37385
380.727	32892
380.809	17245
380.890	12143
380.972	9766
381.053	9219
381.135	12964
381.217	40184
381.298	97779
381.380	52335
381.461	59908
381.543	243163
381.624	295110
381.706	53286
381.787	19637
381.869	27287
381.951	122956
382.032	367505
382.113	236870
382.195	45265
382.276	29861
382.358	82118
382.439	199289
382.521	250190
382.602	363649
382.684	188263
382.765	306464
382.846	420907
382.928	638939
383.009	375191
383.090	277846
383.172	943192
383.253	1371670
383.334	477699
383.416	341847
383.497	189059
383.578	94714
383.659	217582
383.741	869322
383.822	1914527
383.903	1039159
383.984	305312
384.066	392052
384.147	245449
384.228	54572
384.309	37464
384.390	30285
384.471	20139
384.553	21956
384.634	30727
384.715	31122
384.796	17326
384.877	29623
384.958	95368
385.039	116747
385.120	38828
385.201	17701
385.282	19524
385.363	19205
385.444	21740
385.525	49087
385.606	145268
385.687	127991
385.768	26985
385.849	39073
385.930	158577
386.011	252592
386.092	70091
386.173	15836
386.254	10908
386.335	11358
386.416	17567
386.496	61195
386.577	94991
386.658	31832
386.739	18283
386.820	14545
386.901	11130
386.981	11745
387.062	10754
387.143	30867
387.224	97782
387.304	89635
387.385	28510
387.466	16279
387.547	15851
387.627	16179
387.708	48235
387.789	182273
387.869	217005
387.950	58121
388.031	9291
388.111	8041
388.192	17148
388.273	24063
388.353	17484
388.434	14633
388.514	47157
388.595	177882
388.676	216835
388.756	103634
388.837	88262
388.917	58241
388.998	11648
389.078	10553
389.159	10116
389.239	11371
389.320	17365
389.400	18611
389.480	42199
389.561	96804
389.641	50235
389.722	17768
389.802	28939
389.883	53242
389.963	119792
390.043	75732
390.124	20768
390.204	40247
390.284	110657
390.365	79758
390.445	87281
390.525	272033
390.605	271461
390.686	65620
390.766	20751
390.846	12593
390.927	8774
391.007	9841
391.087	11139
391.167	11485
391.247	10135
391.328	16721
391.408	18843
391.488	12129
391.568	9158
391.648	15853
391.728	21301
391.808	20859
391.888	28407
391.969	59857
392.049	86490
392.129	38144
392.209	51609
392.289	111700
392.369	64156
392.449	33035
392.529	27167
392.609	30396
392.689	50205
392.769	122844
392.849	112583
392.929	81111
393.009	163845
393.089	156292
393.169	187097
393.248	668336
393.328	1971490
393.408	2094356
393.488	631821
393.568	159277
393.648	76297
393.728	49786
393.807	34716
393.887	30697
393.967	26459
394.047	27244
394.127	29755
394.206	51856
394.286	216004
394.366	751262
394.446	787029
394.525	173245
394.605	38026
394.685	30508
394.764	49886
394.844	71103
394.924	51847
395.003	24817
395.083	19981
395.163	19031
395.242	16916
395.322	17439
395.402	13732
395.481	19857
395.561	43314
395.640	90326
395.720	87198
395.799	92312
395.879	68385
395.958	68663
396.038	298665
396.117	987781
396.197	1050782
396.276	274385
396.356	75453
396.435	53309
396.515	48184
396.594	71095
396.673	169038
396.753	675821
396.832	1732433
396.912	1330350
396.991	316402
397.070	79686
397.150	41992
397.229	31137
397.308	37020
397.388	48154
397.467	26184
397.546	14958
397.625	14002
397.705	18615
397.784	18386
397.863	11898
397.942	8202
398.022	11226
398.101	31815
398.180	63549
398.259	31230
398.338	12100
398.417	11964
398.497	9197
398.576	8373
398.655	7144
398.734	6640
398.813	8889
398.892	33011
398.971	71259
399.050	33651
399.129	7132
399.208	4934
399.287	4978
399.366	3593
399.445	5295
399.524	4749
399.603	6380
399.682	16388
399.761	46420
399.840	88350
399.919	57663
399.998	9063
400.077	4323
400.156	3312
400.235	7573
400.313	4762
400.392	11914
400.471	52894
400.550	83276
400.629	25292
400.708	9043
400.786	8059
400.865	14883
400.944	15838
401.023	11607
401.102	3536
401.180	3697
401.259	4176
401.338	5303
401.416	9220
401.495	8515
401.574	5741
401.652	5245
401.731	8424
401.810	7791
401.888	4856
401.967	3278
402.046	4916
402.124	8594
402.203	11324
402.281	7692
402.360	10123
402.438	18653
402.517	12306
402.596	6057
402.674	4244
402.753	3680
402.831	4148
402.910	8607
402.988	41476
403.066	106613
403.145	63214
403.223	39259
403.302	84595
403.380	66147
403.459	57032
403.537	23986
403.615	7868
403.694	2814
403.772	3638
403.850	3358
403.929	3125
404.007	4606
404.085	13066
404.164	15237
404.242	5735
404.320	5732
404.398	14046
404.477	77154
404.555	288134
404.633	263005
404.711	37875
404.789	7263
404.868	5624
404.946	5307
405.024	3015
405.102	2401
405.180	3208
405.258	3023
405.336	3938
405.415	4692
405.493	9989
405.571	10620
405.649	4664
405.727	4544
405.805	7533
405.883	8748
405.961	7308
406.039	7108
406.117	4486
406.195	16449
406.273	82289
406.351	237669
406.429	149634
406.507	17869
406.585	5472
406.663	7592
406.740	10931
406.818	10111
406.896	5208
406.974	7090
407.052	28984
407.130	142836
407.208	197123
407.285	42672
407.363	5515
407.441	6465
407.519	5776
407.596	9968
407.674	36827
407.752	107915
407.830	90723
407.907	20753
407.985	8194
408.063	5141
408.141	2824
408.218	6050
408.296	7194
408.373	8460
408.451	8613
408.529	8689
408.606	3767
408.684	3219
408.762	2408
408.839	2108
408.917	1826
408.994	2352
409.072	3040
409.149	3700
409.227	6667
409.304	8887
409.382	6829
409.459	9733
409.537	12312
409.614	10724
409.692	6784
409.769	9802
409.846	14480
409.924	16216
410.001	9740
410.079	6688
410.156	5804
410.233	5311
410.311	5990
410.388	4776
410.465	4876
410.543	4055
410.620	4468
410.697	5412
410.775	8255
410.852	4882
410.929	7202
411.006	9257
411.083	6196
411.161	9388
411.238	9768
411.315	6303
411.392	3928
411.469	6662
411.547	5147
411.624	2812
411.701	2965
411.778	7220
411.855	17649
411.932	11321
412.009	3715
412.086	3512
412.163	4644
412.240	5879
412.317	5919
412.394	4594
412.471	2795
412.548	3194
412.625	4023
412.702	5902
412.779	9501
412.856	6316
412.933	2854
413.010	2857
413.087	10827
413.164	46374
413.241	66205
413.318	19104
413.395	9414
413.471	13575
413.548	5996
413.625	4164
413.702	5416
413.779	3857
413.855	1538
413.932	1596
414.009	1106
414.086	2618
414.162	2945
414.239	9571
414.316	50338
414.393	103795
414.469	42184
414.546	4135
414.623	1357
414.699	2684
414.776	5308
414.853	3208
414.929	4071
415.006	4183
415.082	3007
415.159	3526
415.236	2511
415.312	4922
415.389	11006
415.465	17157
415.542	9223
415.618	4506
415.695	10118
415.771	7610
415.848	6350
415.924	5123
416.000	2379
416.077	3012
416.153	830
416.230	655
416.306	1227
416.383	2240
416.459	2228
416.535	2051
416.612	1882
416.688	2959
416.764	4258
416.841	3231
416.917	3551
416.993	3383
417.069	5483
417.146	6772
417.222	7698
417.298	5820
417.374	3072
417.451	4739
417.527	6099
417.603	8661
417.679	5530
417.755	3884
417.831	2450
417.908	1990
417.984	1450
418.060	2946
418.136	13232
418.212	19404
418.288	6291
418.364	3035
418.440	4260
418.516	7631
418.592	8397
418.668	18755
418.744	33027
418.820	23557
418.896	6468
418.972	1647
419.048	4201
419.124	14127
419.200	10838
419.276	2759
419.352	576
419.428	2101
419.504	4524
419.579	6620
419.655	4711
419.731	5984
419.807	22239
419.883	41754
419.959	29362
420.034	8713
420.110	19589
420.186	63406
420.262	51457
420.337	9267
420.413	5507
420.489	3656
420.565	3538
420.640	2348
420.716	3701
420.792	2101
420.867	4234
420.943	3592
421.019	8504
421.094	7611
421.170	3144
421.245	1982
421.321	3689
421.397	5598
421.472	20724
421.548	55769
421.623	37447
421.699	9772
421.774	8108
421.850	8042
421.925	13593
422.001	12664
422.076	8004
422.152	10059
422.227	17198
422.302	19799
422.378	27680
422.453	57333
422.529	158901
422.604	442455
422.679	684116
422.755	424637
422.830	131383
422.905	46276
422.981	24595
423.056	16776
423.131	12229
423.207	10306
423.282	11646
423.357	21344
423.432	15788
423.508	15613
423.583	32850
423.658	26040
423.733	7669
423.808	8072
423.883	11819
423.959	10107
424.034	7708
424.109	6603
424.184	3117
424.259	2539
424.334	2968
424.409	2244
424.484	2421
424.559	4216
424.634	3963
424.709	9035
424.784	9552
424.859	6347
424.934	11571
425.009	45983
425.084	73861
425.159	28975
425.234	4269
425.309	4750
425.384	19579
425.459	31484
425.534	10050
425.609	2892
425.683	2371
425.758	1448
425.833	2697
425.908	6977
425.983	30450
426.058	78329
426.132	37017
426.207	5304
426.282	5474
426.357	3452
426.431	2101
426.506	2448
426.581	2745
426.655	2829
426.730	2261
426.805	3618
426.879	2677
426.954	4171
427.029	16429
427.103	85047
427.178	193773
427.253	95091
427.327	9580
427.402	12500
427.476	28990
427.551	16530
427.625	4275
427.700	3168
427.774	2259
427.849	2990
427.923	1840
427.998	2065
428.072	3100
428.147	14202
428.221	65152
428.296	152756
428.370	79922
428.444	9691
428.519	8127
428.593	12670
428.667	11358
428.742	13870
428.816	25895
428.890	94806
428.965	145386
429.039	47785
429.113	15078
429.188	5804
429.262	3766
429.336	11296
429.410	30904
429.485	20893
429.559	10505
429.633	8078
429.707	4577
429.781	22622
429.855	96052
429.930	138976
430.004	65439
430.078	64553
430.152	88326
430.226	206930
430.300	204978
430.374	31367
430.448	8658
430.522	28576
430.596	63789
430.670	65894
430.744	196099
430.818	280848
430.892	64124
430.966	7528
431.040	3255
431.114	2027
431.188	1628
431.262	2078
431.336	2455
431.410	8851
431.484	19919
431.557	15303
431.631	2858
431.705	6131
431.779	40701
431.853	130549
431.927	92308
432.000	9791
432.074	2775
432.148	3654
432.222	2369
432.295	2020
432.369	2184
432.443	12645
432.516	81783
432.590	192959
432.664	76340
432.737	7441
432.811	1269
432.885	669
432.958	1311
433.032	115
433.106	474
433.179	314
433.253	-90
433.326	264
433.400	-7
433.473	551
433.547	-386
433.620	2096
433.694	5671
433.767	7618
433.841	1719
433.914	1653
433.988	851
434.061	1174
434.134	586
434.208	867
434.281	250
434.355	1050
434.428	2127
434.501	1355
434.575	473
434.648	648
434.721	1086
434.795	221
434.868	486
434.941	544
435.014	1026
435.088	3045
435.161	6485
435.234	11055
435.307	11815
435.381	5826
435.454	4224
435.527	7088
435.600	6742
435.673	4903
435.746	2654
435.819	1886
435.892	933
435.966	1812
436.039	553
436.112	1357
436.185	684
436.258	735
436.331	-666
436.404	-14
436.477	-403
436.550	358
436.623	472
436.696	643
436.769	1070
436.842	1949
436.915	2097
436.987	3575
437.060	2392
437.133	755
437.206	-531
437.279	1217
437.352	217
437.425	956
437.498	2393
437.570	5666
437.643	5378
437.716	608
437.789	609
437.861	4400
437.934	10996
438.007	5338
438.080	507
438.152	2624
438.225	15751
438.298	113074
438.370	276651
438.443	113971
438.516	13713
438.588	2329
438.661	938
438.734	1300
438.806	2475
438.879	3975
438.951	3303
439.024	5233
439.096	1513
439.169	1355
439.241	345
439.314	1459
439.386	1818
439.459	5140
439.531	7953
439.604	2537
439.676	762
439.749	778
439.821	238
439.893	455
439.966	1168
440.038	2678
440.110	2274
440.183	2052
440.255	628
440.327	5531
440.400	43913
440.472	152849
440.544	107098
440.617	10886
440.689	4999
440.761	6748
440.833	9895
440.905	5684
440.978	854
441.050	-137
441.122	1289
441.194	101
441.266	255
441.338	1459
441.411	7908
441.483	44169
441.555	64635
441.627	13602
441.699	3838
441.771	3280
441.843	1345
441.915	945
441.987	328
442.059	1241
442.131	1988
442.203	4561
442.275	5315
442.347	5290
442.419	10950
442.491	62101
442.563	133571
442.635	53352
442.706	19908
442.778	14871
442.850	2387
442.922	1684
442.994	2182
443.066	4540
443.137	3683
443.209	2758
443.281	5848
443.353	17473
443.425	84292
443.496	265891
443.568	236893
443.640	77820
443.711	11936
443.783	4613
443.855	2209
443.926	1574
443.998	2028
444.070	2656
444.141	2348
444.213	6238
444.285	8270
444.356	6784
444.428	4964
444.499	1880
444.571	302
444.642	1635
444.714	2742
444.785	5436
444.857	6647
444.928	9748
445.000	6221
445.071	7989
445.143	8853
445.214	7358
445.285	12088
445.357	44608
445.428	184882
445.500	396532
445.571	224324
445.642	103211
445.714	33135
445.785	19952
445.856	7885
445.928	9362
445.999	5711
446.070	3486
446.141	4645
446.213	7033
446.284	2761
446.355	2322
446.426	1663
446.497	2392
446.569	3370
446.640	8246
446.711	7610
446.782	1345
446.853	3722
446.924	3863
446.995	2793
447.066	2002
447.138	4013
447.209	2111
447.280	138
447.351	1140
447.422	-137
447.493	1297
447.564	3386
447.635	7809
447.706	1990
447.777	492
447.847	398
447.918	621
447.989	1897
448.060	4137
448.131	8249
448.202	7407
448.273	6175
448.344	1737
448.414	1125
448.485	1989
448.556	517
448.627	234
448.698	183
448.768	-94
448.839	1207
448.910	2827
448.981	2809
449.051	2175
449.122	887
449.193	-54
449.263	-484
449.334	850
449.405	2366
449.475	9075
449.546	4990
449.616	3299
449.687	2063
449.758	1322
449.828	83
449.899	182
449.969	-37
450.040	116
450.110	1403
450.181	2371
450.251	697
450.322	403
450.392	152
450.463	452
450.533	-482
450.604	848
450.674	-281
450.744	561
450.815	862
450.885	605
450.955	363
451.026	-139
451.096	161
451.166	489
451.237	4301
451.307	9482
451.377	2379
451.447	475
451.518	354
451.588	-117
451.658	422
451.728	2344
451.799	10796
451.869	10178
451.939	1090
452.009	255
452.079	-126
452.149	736
452.219	2602
452.289	11963
452.360	6995
452.430	1252
452.500	1931
452.570	3505
452.640	6049
452.710	18586
452.780	20181
452.850	17417
452.920	16547
452.990	4622
453.060	1577
453.129	3304
453.199	4628
453.269	20274
453.339	34419
453.409	48618
453.479	51169
453.549	68865
453.619	65125
453.688	22298
453.758	3446
453.828	1109
453.898	676
453.968	1106
454.037	655
454.087	669
454.107	663
454.168	-39
454.177	-156
454.247	-423
454.249	-378
454.316	101
454.330	234
454.386	565
454.411	2538
454.456	5731
454.492	6710
454.525	7613
454.574	3778
454.595	2136
454.655	939
454.665	737
454.734	1162
454.736	1288
454.804	4093
454.817	5606
454.873	11322
454.898	11599
454.943	12070
454.979	8585
455.013	5609
455.060	3316
455.082	2291
455.141	2591
455.152	2565
455.221	8948
455.222	9050
455.291	12439
455.303	11420
455.360	7252
455.384	8765
455.430	11190
455.465	9696
455.499	8160
455.546	9275
455.569	9645
455.627	6301
455.638	5748
455.707	1410
455.708	1421
455.777	1179
455.789	1177
455.846	1279
455.869	1155
455.916	797
455.950	725
455.985	576
456.031	969
456.054	1168
456.112	487
456.124	394
456.193	1256
456.193	1240
456.262	754
456.274	1035
456.332	2386
456.355	2514
456.401	2180
456.436	1677
456.470	1477
456.516	813
456.540	408
456.597	580
456.609	640
456.678	630
456.678	616
456.747	901
456.759	668
456.817	-226
456.840	204
456.886	1002
456.920	1209
456.955	1543
457.001	1686
457.024	1773
457.082	2630
457.093	2773
457.162	4670
457.163	4697
457.232	4130
457.243	3629
457.301	1679
457.324	1336
457.370	1061
457.405	1166
457.439	1226
457.485	1247
457.508	1315
457.566	1794
457.577	2015
457.646	3402
457.647	3441
457.715	6772
457.727	7570
457.784	11261
457.808	14812
457.853	18079
457.889	18997
457.922	20621
457.969	15865
457.991	15017
458.050	17480
458.060	17761
458.129	30300
458.130	30613
458.198	28633
458.211	24290
458.267	12900
458.292	9516
458.336	6347
458.372	7549
458.405	10962
458.453	16744
458.474	19507
458.533	32176
458.543	32207
458.611	45059
458.614	44817
458.680	27846
458.694	21771
458.749	8223
458.775	6212
458.818	3395
458.855	2657
458.887	2212
458.936	2353
458.955	2374
459.016	2248
459.024	2237
459.093	2649
459.097	2619
459.162	2396
459.177	2696
459.230	3558
459.257	3886
459.299	3722
459.338	3192
459.368	2988
459.418	3079
459.437	3067
459.499	2756
459.505	2737
459.574	2038
459.579	2059
459.643	1982
459.659	1872
459.711	2273
459.740	2680
459.780	2898
459.820	2902
459.849	2829
459.900	3313
459.917	3414
459.981	2576
459.986	2563
460.054	3315
460.061	3378
460.123	3352
460.141	3330
460.191	4265
460.222	5090
460.260	5338
460.302	5939
460.328	5757
460.382	3939
460.397	3959
460.462	4458
460.465	4753
460.534	11975
460.543	13002
460.602	22247
460.623	26109
460.671	39867
460.703	54658
460.739	45740
460.783	25315
460.808	22886
460.864	7429
460.876	5211
460.944	3142
460.945	3103
461.013	2967
461.024	2828
461.081	2820
461.104	3251
461.150	3360
461.184	2938
461.218	2902
461.264	2802
461.286	2630
461.345	2324
461.355	2388
461.423	3325
461.425	3328
461.491	3797
461.505	4122
461.559	7887
461.585	9529
461.628	12122
461.665	15074
461.696	14773
461.745	15328
461.764	14148
461.825	5667
461.832	5516
461.901	4642
461.905	4700
461.969	2976
461.985	2481
462.037	3035
462.065	3464
462.105	4190
462.145	5032
462.173	6205
462.225	8354
462.241	8866
462.305	11839
462.310	11512
462.378	5781
462.385	4925
462.446	4339
462.465	4546
462.514	3928
462.545	3556
462.582	3217
462.625	2794
462.650	2790
462.705	2908
462.718	3126
462.785	4113
462.786	4133
462.854	5229
462.865	5478
462.922	6418
462.945	6765
462.990	5069
463.025	3269
463.058	3216
463.104	3468
463.126	3254
463.184	2568
463.194	2650
463.262	3538
463.264	3574
463.330	3482
463.344	3363
463.398	3817
463.424	4045
463.466	3690
463.504	3373
463.533	3575
463.583	4132
463.601	4459
463.663	5217
463.669	5464
463.737	8379
463.743	8661
463.805	11291
463.823	11997
463.873	15557
463.903	17979
463.940	16273
463.982	14571
464.008	12328
464.062	6197
464.076	5917
464.142	4083
464.144	4055
464.211	3783
464.221	3763
464.279	4407
464.301	4689
464.347	5658
464.381	6399
464.414	6443
464.461	6254
464.482	6268
464.540	6845
464.550	6880
464.617	6559
464.620	6542
464.685	8064
464.699	8403
464.753	9307
464.779	9692
464.820	9092
464.859	8510
464.888	8193
464.938	7618
464.956	7659
465.018	7933
465.023	7903
465.091	7097
465.098	6991
465.158	6402
465.177	6356
465.226	6612
465.257	6624
465.293	7009
465.336	7466
465.361	8642
465.416	11225
465.428	11758
465.495	14748
465.496	14796
465.563	18455
465.575	19140
465.631	19609
465.654	19780
465.698	13244
465.734	7331
465.765	6650
465.813	5762
465.833	5676
465.893	5732
465.900	5815
465.968	6323
465.972	6353
466.035	6114
466.052	6033
466.102	6678
466.131	7054
466.170	7127
466.210	7149
466.237	7158
466.290	7129
466.304	7340
466.369	8205
466.372	8215
466.439	8067
466.449	8021
466.506	9855
466.528	10589
466.573	15751
466.607	19498
466.641	23637
466.687	29428
466.708	29966
466.766	31453
466.775	29333
466.842	12802
466.845	11994
466.909	10223
466.925	9852
466.977	9669
467.004	9583
467.044	9928
467.083	10247
467.111	11438
467.163	13616
467.178	13648
467.242	13672
467.245	13628
467.312	12210
467.321	12003
467.379	11411
467.400	11161
467.446	11709
467.480	12070
467.559	10022
467.638	9932
467.717	11216
467.796	13079
467.875	13844
467.955	12690
468.034	21722
468.113	33027
468.192	37447
468.271	12246
468.350	13283
468.429	15309
468.508	14759
468.588	11604
468.667	10390
468.746	9784
468.825	9575
468.904	9710
468.983	12272
469.062	14969
469.141	15257
469.220	8386
469.299	9735
469.378	10536
469.456	12732
469.535	10911
469.614	10502
469.693	11372
469.772	13483
469.851	17617
469.930	11735
470.009	12326
470.088	14978
470.166	24172
470.245	35815
470.324	39163
470.403	22005
470.482	14075
470.560	12213
470.639	12718
470.718	15208
470.797	10808
470.875	13057
470.954	14910
471.033	13904
471.111	7299
471.190	7954
471.269	7422
471.347	7600
471.426	7890
471.505	9822
471.583	10025
471.662	9613
471.740	8113
471.819	9251
471.898	7737
471.976	8665
472.055	8345
472.133	10741
472.212	10818
472.290	10614
472.369	7243
472.447	7683
472.526	7637
472.604	7725
472.683	10192
472.761	10640
472.839	8806
472.918	8860
472.996	8538
473.075	10089
473.153	8682
473.231	8748
473.310	10103
473.388	9005
473.466	9809
473.545	13772
473.623	16376
473.701	13924
473.780	8624
473.858	8910
473.936	9627
474.014	9265
474.093	10922
474.171	14045
474.249	16299
474.327	8984
474.405	6829
474.484	7857
474.562	8579
474.640	7582
474.718	8350
474.796	7923
474.874	7670
474.952	7064
475.030	7190
475.108	7941
475.187	9761
475.265	12133
475.343	16907
475.421	16413
475.499	8068
475.577	8824
475.655	12415
475.733	22217
475.811	31918
475.889	27410
475.966	13330
476.044	10444
476.122	13794
476.200	16648
476.278	8893
476.356	7645
476.434	7583
476.512	11948
476.590	15870
476.667	11794
476.745	7137
476.823	8039
476.901	7171
476.979	7189
477.056	7422
477.134	8194
477.212	8401
477.290	7491
477.367	6284
477.445	6493
477.523	5042
477.601	6303
477.678	6781
477.756	8992
477.834	7808
477.911	6566
477.989	7105
478.066	6491
478.144	8939
478.222	13529
478.299	19905
478.377	13427
478.454	6445
478.532	6591
478.609	7955
478.687	8850
478.764	6739
478.842	9125
478.919	9522
478.997	7597
479.074	7444
479.152	7520
479.229	9589
479.307	5513
479.384	4774
479.461	5230
479.539	6907
479.616	7717
479.694	5803
479.771	6913
479.848	8185
479.926	9606
480.003	9684
480.080	5698
480.157	5946
480.235	6248
480.312	6296
480.389	8535
480.467	11252
480.544	12492
480.621	6392
480.698	7448
480.775	8189
480.853	6814
480.930	5646
481.007	7079
481.084	8058
481.161	9271
481.238	6360
481.315	5273
481.392	4655
481.470	5766
481.547	6236
481.624	6393
481.701	4785
481.778	5875
481.855	7290
481.932	12594
482.009	17390
482.086	10419
482.163	10164
482.240	18026
482.317	27433
482.393	14530
482.470	5855
482.547	7588
482.624	5810
482.701	6268
482.778	5802
482.855	5395
482.932	5379
483.009	6385
483.085	7596
483.162	9434
483.239	8903
483.316	7446
483.393	7499
483.469	6551
483.546	6767
483.623	7589
483.699	5661
483.776	6333
483.853	9554
483.930	15946
484.006	30632
484.083	43036
484.160	27543
484.236	37325
484.313	26496
484.389	20401
484.466	19346
484.543	19367
484.619	20411
484.696	22033
484.772	19773
484.849	20579
484.925	16626
485.002	17326
485.078	17877
485.155	17780
485.231	15167
485.308	15834
485.384	17298
485.461	24222
485.537	32835
485.614	31943
485.690	15903
485.766	17290
485.843	21551
485.919	31751
485.995	28196
486.072	15376
486.148	14435
486.224	15493
486.301	15890
486.377	17327
486.453	17172
486.530	18828
486.606	25905
486.682	26145
486.758	28966
486.835	31540
486.911	29569
486.987	53599
487.063	65920
487.139	84283
487.215	50709
487.292	20181
487.368	19209
487.444	21129
487.520	26254
487.596	31730
487.672	67180
487.748	144931
487.824	160078
487.900	37563
487.976	21358
488.052	21158
488.128	22653
488.204	18794
488.280	16228
488.356	24509
488.432	40292
488.508	48385
488.584	18440
488.660	17109
488.736	16252
488.812	19572
488.888	27370
488.964	48733
489.039	104610
489.115	128496
489.191	52435
489.267	16947
489.343	14039
489.418	12239
489.494	12570
489.570	12195
489.646	13095
489.722	12516
489.797	14004
489.873	24672
489.949	40430
490.024	25580
490.100	12288
490.176	14657
490.251	20041
490.327	25575
490.403	12281
490.478	11276
490.554	10463
490.629	11001
490.705	10708
490.781	13132
490.856	11908
490.932	15431
491.007	15751
491.083	13162
491.158	12933
491.234	19918
491.309	31728
491.385	25720
491.460	11235
491.536	13747
491.611	11882
491.686	17390
491.762	31200
491.837	65489
491.913	107667
491.988	141685
492.063	148526
492.139	24813
492.214	15022
492.289	10628
492.365	12026
492.440	13009
492.515	12525
492.590	11123
492.666	9297
492.741	15458
492.816	17590
492.891	9611
492.967	8800
493.042	9365
493.117	8649
493.192	9811
493.267	16298
493.342	27773
493.418	26057
493.493	8119
493.568	8051
493.643	9657
493.718	12629
493.793	22234
493.868	23779
493.943	13836
494.018	9651
494.093	8795
494.168	8451
494.243	7787
494.318	6594
494.393	7001
494.468	7375
494.543	7430
494.618	11296
494.693	8601
494.768	8636
494.842	8011
494.917	7379
494.992	9486
495.067	7022
495.142	8057
495.217	8638
495.292	8466
495.366	10628
495.441	13861
495.516	20350
495.591	54823
495.665	169293
495.740	304132
495.815	64931
495.890	13064
495.964	8719
496.039	9520
496.114	9638
496.188	11538
496.263	9689
496.338	9126
496.412	10966
496.487	13025
496.561	16582
496.636	15234
496.710	11127
496.785	13042
496.860	12512
496.934	10230
497.009	11267
497.083	10901
497.158	11324
497.232	12905
497.307	16698
497.381	13766
497.455	15644
497.530	19227
497.604	13497
497.679	16355
497.753	27004
497.827	30347
497.902	27053
497.976	43262
498.050	134228
498.125	334656
498.199	220816
498.273	51092
498.348	39184
498.422	30224
498.496	29472
498.570	23583
498.645	13971
498.719	15015
498.793	20000
498.867	31546
498.941	55963
499.016	162648
499.090	302505
499.164	49261
499.238	11171
499.312	12527
499.386	16605
499.460	13100
499.534	12222
499.609	16256
499.683	19487
499.757	26765
499.831	85878
499.905	217226
499.979	123946
500.053	26100
500.127	31876
500.201	26587
500.275	12247
500.349	13261
500.422	16903
500.496	37095
500.570	85922
500.644	142266
500.718	176377
500.792	21642
500.866	11389
500.940	12972
501.013	11018
501.087	15429
501.161	26843
501.235	37949
501.309	84319
501.382	176901
501.456	102006
501.530	35733
501.603	46111
501.677	12486
501.751	9040
501.825	16891
501.898	30677
501.972	63975
502.046	24116
502.119	17312
502.193	40993
502.266	65613
502.340	23598
502.413	36880
502.487	53727
502.561	27043
502.634	11536
502.708	13954
502.781	10235
502.855	8105
502.928	5180
503.002	5790
503.075	6623
503.149	6220
503.222	7444
503.295	6712
503.369	9967
503.442	22294
503.516	65229
503.589	119321
503.662	55561
503.736	28403
503.809	58148
503.882	44613
503.956	72736
504.029	62989
504.102	89516
504.175	85397
504.249	22742
504.322	14053
504.395	10516
504.468	7925
504.542	6142
504.615	5695
504.688	5472
504.761	7000
504.834	11160
504.907	16603
504.980	23639
505.053	9676
505.127	13285
505.200	12412
505.273	9751
505.346	5976
505.419	4871
505.492	5350
505.565	4953
505.638	4759
505.711	4205
505.784	4809
505.857	3719
505.930	5855
506.003	3715
506.076	6825
506.149	7561
506.221	8227
506.294	12731
506.367	38724
506.440	86517
506.513	30125
506.586	9825
506.659	6566
506.731	7436
506.804	11497
506.877	15455
506.950	7037
507.022	5997
507.095	8707
507.168	10625
507.241	7610
507.313	6403
507.386	10798
507.459	15790
507.531	7944
507.604	5848
507.677	5972
507.749	5528
507.822	11514
507.894	22954
507.967	17861
508.040	9732
508.112	8788
508.185	7967
508.257	9103
508.330	14059
508.402	7178
508.475	7079
508.547	7647
508.620	8976
508.692	12156
508.765	6442
508.837	5439
508.909	5716
508.982	7515
509.054	9876
509.127	7379
509.199	4870
509.271	6070
509.344	5074
509.416	5044
509.488	5166
509.560	6889
509.633	9728
509.705	10158
509.777	9248
509.849	15689
509.922	7079
509.994	5391
510.066	7200
510.138	8770
510.210	16074
510.283	11701
510.355	9439
510.427	8409
510.499	9058
510.571	9063
510.643	10077
510.715	18975
510.787	12057
510.859	10012
510.931	12411
511.003	17146
511.076	11590
511.148	7137
511.219	8268
511.291	13404
511.363	11785
511.435	6361
511.507	6527
511.579	7661
511.651	6655
511.723	7569
511.795	6515
511.867	8489
511.939	10047
512.010	20211
512.082	12469
512.154	8468
512.226	9520
512.298	16177
512.369	18870
512.441	16061
512.513	17752
512.585	12095
512.656	11656
512.728	11784
512.800	9488
512.871	10206
512.943	9266
513.015	8083
513.086	9435
513.158	11442
513.230	14518
513.301	24890
513.373	25254
513.444	12084
513.516	8594
513.588	10168
513.659	13446
513.731	16875
513.802	17695
513.874	42206
513.945	58890
514.016	13115
514.088	9831
514.159	13623
514.231	18087
514.302	17490
514.374	11247
514.445	12842
514.516	23332
514.588	13171
514.659	13597
514.730	20542
514.802	17103
514.873	12863
514.944	12272
515.016	12748
515.087	14572
515.158	17340
515.229	17482
515.301	14421
515.372	15127
515.443	10630
515.514	9453
515.585	9968
515.656	9455
515.728	9857
515.799	10200
515.870	11743
515.941	11804
516.012	13523
516.083	17506
516.154	22904
516.225	31715
516.296	26514
516.367	23848
516.438	29216
516.509	44196
516.580	101049
516.651	369887
516.722	840854
516.793	197340
516.864	47501
516.935	44977
517.006	57196
517.077	114842
517.148	385241
517.219	1287809
517.289	1215404
517.360	152680
517.431	37698
517.502	22511
517.573	21523
517.643	21189
517.714	22924
517.785	25796
517.856	28804
517.926	33748
517.997	43595
518.068	56964
518.138	95807
518.209	262847
518.280	1046748
518.350	2291993
518.421	491164
518.492	56875
518.562	34908
518.633	30571
518.703	34892
518.774	70597
518.845	145730
518.915	90391
518.986	30403
519.056	31671
519.127	60197
519.197	83505
519.268	112749
519.338	39785
519.408	21349
519.479	30730
519.549	19495
519.620	13016
519.690	10015
519.760	10060
519.831	11128
519.901	10342
519.971	8437
520.042	8685
520.112	11237
520.182	15897
520.253	16823
520.323	11159
520.393	24129
520.463	28495
520.534	26368
520.604	41365
520.674	14578
520.744	24612
520.814	60352
520.885	35592
520.955	49986
521.025	105787
521.095	21684
521.165	8223
521.235	8299
521.305	6771
521.375	8234
521.445	11769
521.515	18095
521.585	19023
521.655	15167
521.725	15078
521.795	10582
521.865	7094
521.935	12876
522.005	8302
522.075	7093
522.145	8736
522.215	10003
522.285	13782
522.355	21133
522.424	33632
522.494	24486
522.564	23883
522.634	70120
522.704	135599
522.774	27726
522.843	9945
522.913	12397
522.983	16466
523.053	10344
523.122	12409
523.192	30884
523.262	101523
523.331	56733
523.401	9513
523.471	6950
523.540	7862
523.610	6135
523.680	6022
523.749	6333
523.819	8247
523.888	6949
523.958	5359
524.027	5772
524.097	6388
524.166	7760
524.236	9773
524.305	8717
524.375	5661
524.444	5500
524.514	7678
524.583	6877
524.653	8396
524.722	9824
524.791	5929
524.861	6908
524.930	5275
524.999	8763
525.069	11589
525.138	7896
525.207	8186
525.277	7343
525.346	7886
525.415	6779
525.484	8246
525.554	10191
525.623	8823
525.692	10695
525.761	10421
525.830	12333
525.900	14837
525.969	26459
526.038	49641
526.107	131558
526.176	265948
526.245	143306
526.314	70988
526.383	163326
526.452	180533
526.522	359828
526.591	206321
526.660	75127
526.729	34567
526.797	53888
526.867	169984
526.935	552457
527.004	739261
527.073	211579
527.142	19092
527.211	12627
527.280	16132
527.349	13008
527.418	6006
527.487	7452
527.555	6116
527.624	5237
527.693	4053
527.762	5531
527.831	4332
527.899	5854
527.968	5015
528.037	6108
528.106	12875
528.174	23904
528.243	13513
528.312	29361
528.380	27187
528.449	6142
528.518	5613
528.586	3389
528.655	4149
528.723	4952
528.792	4725
528.861	4742
528.929	2917
528.998	4742
529.066	3306
529.135	3707
529.203	3319
529.272	2557
529.340	4665
529.409	4933
529.477	3738
529.545	6178
529.614	8195
529.682	8623
529.751	7671
529.819	12024
529.887	5181
529.956	3935
530.024	4676
530.092	4348
530.161	9817
530.229	16025
530.297	5508
530.365	4519
530.434	3723
530.502	3305
530.570	3858
530.638	2658
530.707	4825
530.775	6353
530.843	3366
530.911	3972
530.979	4209
531.047	3679
531.115	3844
531.183	4223
531.252	4231
531.320	3681
531.388	3112
531.456	4258
531.524	2818
531.592	5629
531.660	5710
531.728	4519
531.796	4030
531.864	4104
531.932	5396
532.000	5403
532.067	5415
532.135	6857
532.203	7558
532.271	10755
532.339	30416
532.407	73045
532.475	23200
532.542	10919
532.610	15042
532.678	34126
532.746	156066
532.814	213757
532.881	31169
532.949	7605
533.017	6155
533.084	4681
533.152	4612
533.220	6171
533.287	6269
533.355	4444
533.423	3335
533.490	3585
533.558	4391
533.625	5853
533.693	5207
533.761	4944
533.828	6145
533.896	8001
533.963	23653
534.031	26001
534.098	30529
534.166	7892
534.233	5681
534.300	7207
534.368	6611
534.435	6011
534.503	8002
534.570	10118
534.637	7221
534.705	9674
534.772	15084
534.840	42340
534.907	161742
534.974	100968
535.041	11857
535.109	8282
535.176	5540
535.243	6483
535.310	7408
535.378	5524
535.445	4379
535.512	4808
535.579	4814
535.646	4329
535.714	5868
535.781	7054
535.848	6545
535.915	6322
535.982	5953
536.049	5693
536.116	7752
536.183	7736
536.250	7334
536.317	8893
536.384	13016
536.451	22764
536.518	19175
536.585	11324
536.652	20110
536.719	30992
536.786	16896
536.853	13970
536.920	28008
536.987	43196
537.053	48532
537.120	154982
537.187	64752
537.254	7912
537.321	6772
537.388	8304
537.454	5137
537.521	6214
537.588	6162
537.654	9551
537.721	9211
537.788	10249
537.855	6656
537.921	8416
537.988	7116
538.055	8392
538.121	8688
538.188	12019
538.254	27866
538.321	50218
538.388	18604
538.454	8606
538.521	6956
538.587	7096
538.654	6794
538.720	6604
538.787	6594
538.853	8176
538.920	11251
538.986	9450
539.053	8042
539.119	9558
539.185	8781
539.252	15911
539.318	22141
539.385	12257
539.451	9939
539.517	10620
539.583	16774
539.650	51951
539.716	79364
539.782	14924
539.849	9501
539.915	9776
539.981	11656
540.047	15404
540.114	10378
540.180	10890
540.246	12190
540.312	24682
540.378	53703
540.444	40202
540.510	57922
540.576	97913
540.643	16095
540.709	6931
540.775	8431
540.841	9700
540.907	15438
540.973	22545
541.039	25313
541.105	23588
541.171	10228
541.237	9070
541.303	10770
541.369	14776
541.435	26232
541.500	44997
541.566	17376
541.632	7686
541.698	7200
541.764	7562
541.830	7559
541.896	6840
541.961	8402
542.027	9074
542.093	8463
542.159	10691
542.224	12634
542.290	24999
542.356	49143
542.421	40296
542.487	13587
542.553	10198
542.618	9729
542.684	9051
542.750	9468
542.815	14014
542.881	35888
542.947	105597
543.012	38756
543.078	8128
543.143	7073
543.209	9114
543.274	10057
543.340	15540
543.405	44684
543.471	40117
543.536	8917
543.602	8073
543.667	6420
543.732	7860
543.798	7580
543.863	8254
543.928	6206
543.994	6179
544.059	7083
544.124	7934
544.190	7662
544.255	7807
544.320	8969
544.386	10933
544.451	19168
544.516	20710
544.581	24774
544.646	79098
544.712	66271
544.777	10911
544.842	9138
544.907	9628
544.972	7675
545.037	8777
545.102	9573
545.168	9561
545.233	9549
545.298	11692
545.363	14700
545.428	20173
545.493	49603
545.558	72918
545.623	17565
545.688	9574
545.753	9283
545.818	8621
545.883	9997
545.947	10391
546.012	11359
546.077	11072
546.142	12339
546.207	13407
546.272	23014
546.337	20503
546.401	13702
546.466	12371
546.531	10331
546.596	14346
546.661	14092
546.725	13993
546.790	11983
546.855	12426
546.919	12821
546.984	15618
547.049	17268
547.113	20583
547.178	19743
547.243	24438
547.307	27421
547.372	31772
547.436	30264
547.501	28391
547.565	31298
547.630	37406
547.695	32286
547.759	31168
547.823	27239
547.888	27439
547.952	26938
548.017	30582
548.081	34141
548.146	36812
548.210	31743
548.274	31360
548.339	29050
548.403	26981
548.468	25546
548.532	25696
548.596	27147
548.660	27982
548.725	33588
548.789	36089
548.853	32234
548.917	32218
548.982	33016
549.046	28292
549.110	23037
549.174	24894
549.238	29053
549.303	28983
549.367	30982
549.431	28899
549.495	26996
549.559	28446
549.623	33571
549.687	38147
549.751	45258
549.815	41094
549.879	40212
549.943	38496
550.007	40650
550.071	40054
550.135	41936
550.199	34348
550.263	34030
550.327	35750
550.391	38871
550.455	37116
550.519	39565
550.582	46430
550.646	55951
550.710	50354
550.774	45384
550.838	45226
550.901	47829
550.965	52106
551.029	54150
551.093	62425
551.156	74668
551.220	111479
551.284	104967
551.347	68850
551.411	83236
551.475	67428
551.538	48844
551.602	43778
551.666	42654
551.729	38702
551.793	38659
551.856	37994
551.920	37829
551.983	37207
552.047	37163
552.110	38783
552.174	38446
552.237	39207
552.301	33897
552.364	35176
552.428	33224
552.491	36602
552.554	38972
552.618	39455
552.681	44432
552.745	55406
552.808	105421
552.871	110375
552.934	55130
552.998	39770
553.061	36844
553.124	33414
553.187	34153
553.251	34906
553.314	35273
553.377	35122
553.440	39189
553.503	44456
553.567	42761
553.630	35782
553.693	34958
553.756	35974
553.819	33597
553.882	33659
553.945	32968
554.008	33265
554.071	32990
554.134	33862
554.197	31418
554.260	31895
554.323	34890
554.386	34673
554.449	33383
554.512	33426
554.575	31163
554.638	32226
554.701	32225
554.764	30683
554.827	29635
554.889	27989
554.952	26957
555.015	26615
555.078	26486
555.141	26715
555.203	25547
555.266	26961
555.329	27294
555.391	26390
555.454	29203
555.517	27048
555.580	23813
555.642	23249
555.705	23182
555.768	24171
555.830	22008
555.893	22020
555.955	20882
556.018	21507
556.080	21281
556.143	22000
556.206	21625
556.268	23424
556.330	22878
556.393	22464
556.455	21957
556.518	29520
556.580	24698
556.643	19449
556.705	19225
556.767	18441
556.830	20756
556.892	27932
556.955	35985
557.017	22724
557.079	17706
557.142	20270
557.204	28603
557.266	53804
557.328	29011
557.391	15107
557.453	15347
557.515	16972
557.577	22954
557.639	20517
557.701	15384
557.764	15173
557.826	15683
557.888	19378
557.950	18810
558.012	23614
558.074	41083
558.136	122821
558.198	171359
558.260	36781
558.322	21642
558.384	23348
558.446	28798
558.508	34057
558.570	49221
558.632	93280
558.694	116493
558.756	189332
558.818	664075
558.880	863753
558.942	188981
559.003	192806
559.065	53620
559.127	30965
559.189	34868
559.251	45810
559.312	93725
559.374	314107
559.436	632965
559.498	139123
559.559	32027
559.621	32856
559.683	49161
559.744	116195
559.806	391857
559.868	289279
559.929	38871
559.991	41032
560.052	95050
560.114	197355
560.176	83197
560.237	150812
560.299	134029
560.360	19005
560.422	11981
560.483	11374
560.545	8896
560.606	9544
560.667	9316
560.729	7757
560.790	8227
560.852	7924
560.913	8566
560.974	8357
561.036	7968
561.097	9128
561.158	8291
561.220	9640
561.281	9220
561.342	10869
561.403	14861
561.465	27254
561.526	79615
561.587	60814
561.648	11672
561.709	8270
561.771	8203
561.832	7897
561.893	8661
561.954	7417
562.015	7448
562.076	7841
562.137	6969
562.198	7206
562.259	7777
562.320	8260
562.381	12814
562.442	20066
562.503	9922
562.564	7590
562.625	7016
562.686	8006
562.747	8123
562.808	6418
562.869	6854
562.930	7509
562.991	6738
563.051	6565
563.112	7293
563.173	6721
563.234	6081
563.294	7182
563.355	7001
563.416	8102
563.477	6368
563.537	7628
563.598	9132
563.659	8059
563.720	8556
563.780	10621
563.841	8398
563.901	7228
563.962	7154
564.023	6168
564.083	7935
564.144	7860
564.204	6718
564.265	7974
564.325	10360
564.386	20105
564.446	10382
564.507	6181
564.567	6216
564.628	7013
564.688	6212
564.749	6743
564.809	8824
564.869	8537
564.930	6752
564.990	6893
565.050	5878
565.111	7281
565.171	6769
565.231	6716
565.292	6581
565.352	5740
565.412	7153
565.472	8370
565.532	8738
565.593	7433
565.653	6104
565.713	8331
565.773	9480
565.833	15733
565.893	15403
565.953	7101
566.013	6055
566.074	8339
566.134	12565
566.194	19477
566.254	16985
566.314	10179
566.374	7669
566.434	6685
566.494	7386
566.554	7300
566.614	7390
566.673	7085
566.733	8881
566.793	8399
566.853	7626
566.913	7848
566.973	8624
567.033	9877
567.092	9423
567.152	9835
567.212	8780
567.272	9371
567.331	9372
567.391	9896
567.451	11324
567.511	15516
567.570	10990
567.630	8370
567.690	8794
567.749	8750
567.809	9369
567.868	10963
567.928	12415
567.988	13509
568.047	15441
568.107	20271
568.166	30595
568.226	51435
568.285	56243
568.345	41401
568.404	30529
568.464	27139
568.523	25757
568.582	26776
568.642	32001
568.701	45472
568.761	77251
568.820	107498
568.879	80460
568.939	54830
568.998	37800
569.057	28534
569.116	22045
569.176	17695
569.235	14655
569.294	12826
569.353	12218
569.413	11234
569.472	8500
569.531	8188
569.590	7948
569.649	7946
569.708	6750
569.767	8430
569.827	10032
569.886	8067
569.945	6292
570.004	7449
570.063	7749
570.122	9653
570.181	8794
570.240	8959
570.299	8864
570.358	9148
570.417	6339
570.475	6651
570.534	8971
570.593	9473
570.652	8477
570.711	8061
570.770	8060
570.829	10466
570.887	10714
570.946	11678
571.005	8048
571.064	9678
571.122	11018
571.181	9961
571.240	6102
571.299	6293
571.357	6928
571.416	6705
571.475	7967
571.533	7780
571.592	6517
571.650	6118
571.709	6256
571.768	7447
571.826	7085
571.885	5694
571.943	4750
572.002	6058
572.060	5147
572.119	5457
572.177	4603
572.236	4346
572.294	3940
572.352	6334
572.411	4294
572.469	4481
572.528	4076
572.586	5583
572.644	6847
572.703	8593
572.761	3568
572.819	4730
572.877	4830
572.936	4015
572.994	5190
573.052	5040
573.110	5105
573.169	5648
573.227	4763
573.285	5053
573.343	3839
573.401	4417
573.459	4539
573.517	5287
573.576	4353
573.634	4877
573.692	5126
573.750	4275
573.808	4374
573.866	5279
573.924	6900
573.982	5963
574.040	4293
574.098	4803
574.155	3671
574.213	4423
574.271	4938
574.329	5890
574.387	4132
574.445	4094
574.503	4001
574.560	4578
574.618	3699
574.676	4038
574.734	2960
574.792	3892
574.849	3450
574.907	3362
574.965	3549
575.022	3254
575.080	3543
575.138	5721
575.195	4251
575.253	6231
575.311	6514
575.368	3617
575.426	3378
575.483	3840
575.541	3655
575.598	3861
575.656	4029
575.713	3456
575.771	3867
575.828	4096
575.886	2739
575.943	4459
576.001	2984
576.058	3615
576.115	4856
576.173	6714
576.230	8681
576.287	9510
576.345	5177
576.402	3706
576.459	4071
576.517	4430
576.574	4901
576.631	5362
576.688	3467
576.746	3438
576.803	3728
576.860	3825
576.917	3127
576.974	3713
577.031	3308
577.089	3693
577.146	3599
577.203	4082
577.260	4866
577.317	4780
577.374	5953
577.431	4850
577.488	4536
577.545	3256
577.602	2977
577.659	3897
577.716	2631
577.773	3971
577.830	2729
577.886	3671
577.943	3391
578.000	4493
578.057	3920
578.114	3540
578.171	4061
578.227	3613
578.284	3611
578.341	3108
578.398	3460
578.454	4408
578.511	5341
578.568	6805
578.625	3459
578.681	3864
578.738	3248
578.794	3239
578.851	3495
578.908	3589
578.964	3285
579.021	5358
579.077	4440
579.134	3884
579.190	3512
579.247	3660
579.303	3803
579.360	4137
579.416	3308
579.473	3235
579.529	2771
579.586	3973
579.642	3997
579.698	4233
579.755	4277
579.811	4411
579.867	2827
579.924	3309
579.980	3767
580.036	3574
580.093	3451
580.149	2779
580.205	3426
580.261	4109
580.317	4263
580.374	5347
580.430	5584
580.486	4764
580.542	4619
580.598	4425
580.619	4501
580.654	4635
580.692	4031
580.710	3729
580.765	3433
580.767	3424
580.823	4567
580.838	4403
580.879	3979
580.911	4035
580.935	4079
580.984	3454
580.991	3365
581.047	3838
581.057	3701
581.103	3114
581.130	3720
581.159	4359
581.203	3574
581.215	3368
581.270	3453
581.276	3423
581.326	3119
581.349	3413
581.382	3866
581.422	4148
581.438	4256
581.494	4119
581.494	4115
581.550	3718
581.567	4013
581.606	4588
581.640	4167
581.661	3926
581.713	3916
581.717	3914
581.773	3897
581.786	3829
581.829	3605
581.859	3515
581.885	3406
581.932	3793
581.940	3876
581.996	4768
582.004	4597
582.052	3586
582.077	3568
582.107	3585
582.150	3862
582.163	3937
582.219	3745
582.223	3811
582.274	4674
582.296	4444
582.330	4018
582.368	4213
582.386	4338
582.441	4135
582.441	4133
582.497	3829
582.514	3788
582.552	3888
582.587	4213
582.608	4430
582.659	4292
582.663	4275
582.719	4635
582.732	4551
582.774	4234
582.805	4270
582.830	4355
582.877	3876
582.885	3776
582.941	4143
582.950	4264
582.996	4831
583.023	4860
583.052	5001
583.095	4844
583.107	4813
583.162	4753
583.168	4833
583.218	5293
583.240	4868
583.273	4329
583.313	4714
583.328	4851
583.384	4473
583.385	4463
583.439	4293
583.458	4588
583.494	4998
583.531	4847
583.549	4820
583.603	4487
583.605	4479
583.660	4805
583.676	5093
583.715	5780
583.748	5547
583.770	5346
583.820	6177
583.825	6269
583.881	4473
583.893	4684
583.936	5373
583.965	5237
583.991	5143
584.038	5360
584.046	5425
584.101	5655
584.110	5738
584.156	5909
584.183	5371
584.211	4826
584.255	5430
584.266	5610
584.321	5875
584.328	5869
584.376	5926
584.400	6022
584.431	6047
584.472	5427
584.486	5268
584.541	5946
584.545	5952
584.596	5830
584.617	6041
584.651	6653
584.689	6830
584.706	6907
584.761	7598
584.762	7601
584.816	7973
584.834	7708
584.871	7325
584.906	7460
584.926	7385
584.978	7451
584.980	7500
585.035	8619
585.051	9073
585.090	9713
585.123	10061
585.145	10674
585.195	11924
585.200	12033
585.254	13356
585.267	13725
585.309	15540
585.340	17042
585.364	18258
585.412	21544
585.419	22096
585.473	27576
585.484	29413
585.528	39269
585.556	49427
585.583	66040
585.628	108422
585.637	126659
585.692	289802
585.700	302972
585.747	368133
585.772	346369
585.801	209508
585.845	74447
585.856	63382
585.910	27829
585.917	23688
585.965	19563
585.989	17603
586.019	16197
586.061	14658
586.074	14515
586.128	14323
586.133	14302
586.183	15355
586.205	15534
586.237	15157
586.277	14740
586.292	14520
586.346	13311
586.349	13273
586.401	13255
586.421	13158
586.455	13587
586.493	14449
586.509	15273
586.564	19548
586.565	19666
586.618	29103
586.637	29421
586.672	24387
586.709	21508
586.727	20770
586.781	19363
586.781	19385
586.835	16169
586.853	15622
586.889	14895
586.925	13613
586.944	13541
586.996	14226
586.998	14271
587.052	14896
587.068	15066
587.106	15392
587.140	15325
587.161	15492
587.212	16852
587.215	16927
587.269	16991
587.284	17056
587.323	17430
587.356	17714
587.377	18051
587.427	18681
587.431	18774
587.485	20051
587.499	20237
587.539	20850
587.571	21479
587.593	22104
587.643	23270
587.648	23421
587.702	24745
587.715	25118
587.755	27228
587.786	28383
587.810	28969
587.858	30628
587.864	30991
587.917	34088
587.930	34787
587.971	37820
588.001	39633
588.025	41199
588.073	44704
588.079	45378
588.133	50665
588.145	51965
588.187	57382
588.217	60684
588.241	65022
588.288	74350
588.295	75919
588.348	88317
588.360	90864
588.402	102523
588.431	110871
588.456	119439
588.503	136887
588.510	140312
588.564	169140
588.575	175488
588.617	208253
588.646	234013
588.671	266131
588.718	336518
588.725	354425
588.778	510442
588.789	548464
588.832	821856
588.861	1029676
588.886	1294648
588.932	1735542
588.939	1752943
588.993	1768055
589.004	1759932
589.047	1513205
589.075	1320542
589.100	1054190
589.147	602946
589.154	578623
589.207	404219
589.218	369504
589.261	338878
589.290	322577
589.314	335099
589.361	368696
589.368	384763
589.421	533817
589.433	571667
589.475	881831
589.504	1105689
589.528	1325997
589.576	1660068
589.582	1634364
589.635	1302381
589.647	1227742
589.689	770926
589.718	470315
589.742	380109
589.790	208946
589.795	202927
589.849	145925
589.861	133089
589.902	116069
589.932	102236
589.955	93006
590.004	74170
590.009	73389
590.062	63594
590.075	61091
590.115	56727
590.146	53265
590.168	51450
590.218	46990
590.222	46829
590.275	43543
590.289	42486
590.328	40818
590.360	39398
590.381	38459
590.431	36047
590.435	36019
590.488	33903
590.503	33284
590.541	32916
590.574	32426
590.594	31806
590.645	29968
590.647	29997
590.700	28561
590.716	28096
590.753	28007
590.787	27861
590.806	27712
590.859	26860
590.859	26928
590.912	26641
590.930	26496
590.965	26551
591.001	26287
591.018	26210
591.071	25972
591.072	25893
591.124	25238
591.143	24964
591.177	25306
591.214	25475
591.230	25684
591.283	26246
591.285	26195
591.336	28115
591.356	28815
591.389	29868
591.427	30662
591.442	29531
591.495	25154
591.498	24756
591.547	23559
591.569	22985
591.600	23518
591.640	23915
591.653	23747
591.706	22866
591.711	22702
591.759	22828
591.782	22846
591.811	24052
591.853	25579
591.864	25457
591.917	24343
591.924	24125
591.969	23230
591.995	22601
592.022	22840
592.066	23063
592.075	23379
592.127	24934
592.137	25160
592.180	27144
592.208	28233
592.233	26910
592.279	24209
592.285	24122
592.338	22824
592.350	22462
592.390	22460
592.421	22340
592.443	22764
592.491	23527
592.495	23548
592.548	22925
592.562	22690
592.600	22910
592.633	22989
592.653	22983
592.704	22673
592.705	22829
592.775	24130
592.846	24193
592.916	26828
592.987	30079
593.058	28246
593.128	23480
593.199	22581
593.270	22593
593.341	23475
593.411	25378
593.482	26483
593.553	24347
593.623	23825
593.694	24567
593.764	25465
593.835	23881
593.906	23272
593.976	24507
594.047	25409
594.117	27984
594.188	28848
594.258	25656
594.329	24630
594.399	25396
594.470	26245
594.540	26249
594.611	26840
594.681	27474
594.751	28503
594.822	32649
594.892	34874
594.963	32685
595.033	31363
595.103	31070
595.174	31866
595.244	36670
595.314	45343
595.384	35456
595.455	32118
595.525	32814
595.595	34715
595.665	33700
595.736	32714
595.806	33617
595.876	32969
595.946	33000
596.016	34576
596.087	35171
596.157	35317
596.227	35185
596.297	36753
596.367	38737
596.437	42999
596.507	44758
596.577	51649
596.647	43584
596.717	42664
596.787	44781
596.857	44144
596.927	44648
596.997	44931
597.067	43711
597.137	45544
597.207	45758
597.277	46173
597.347	44324
597.417	43816
597.487	43778
597.557	44736
597.626	45992
597.696	47922
597.766	48521
597.836	52569
597.906	44648
597.975	40027
598.045	40539
598.115	42781
598.185	43469
598.254	49079
598.324	55080
598.394	58065
598.464	58332
598.533	53657
598.603	50169
598.672	49395
598.742	50629
598.812	46819
598.881	49230
598.951	48479
599.020	47423
599.090	48603
599.159	51380
599.229	49063
599.299	47179
599.368	48042
599.437	49676
599.507	44725
599.576	43818
599.646	43864
599.715	42066
599.785	43785
599.854	41559
599.924	42381
599.993	41509
600.062	40804
600.132	42492
600.201	43862
600.270	51772
600.340	55989
600.409	51331
600.478	50023
600.547	52614
600.617	49834
600.686	39639
600.755	39805
600.824	38778
600.894	37993
600.963	32919
601.032	32627
601.101	30932
601.170	29773
601.239	30897
601.308	32302
601.378	33223
601.447	29854
601.516	29976
601.585	31584
601.654	36977
601.723	33898
601.792	31828
601.861	32746
601.930	34993
601.999	41634
602.068	37879
602.137	40514
602.206	42612
602.275	37340
602.343	44830
602.412	48941
602.481	37966
602.550	35050
602.619	36079
602.688	38639
602.756	37228
602.825	35391
602.894	36130
602.963	37072
603.032	38024
603.100	39208
603.169	37943
603.238	38509
603.307	38006
603.375	39310
603.444	38897
603.513	39407
603.581	40995
603.650	42166
603.719	40708
603.787	41194
603.856	43034
603.924	45840
603.993	46150
604.061	46833
604.130	50414
604.198	52046
604.267	50316
604.335	50785
604.404	51767
604.472	52719
604.541	53007
604.609	53157
604.678	52639
604.746	53698
604.815	55402
604.883	56428
604.951	55884
605.020	57250
605.088	57053
605.156	59054
605.225	60401
605.293	60450
605.361	59984
605.429	63003
605.498	64478
605.566	68330
605.634	69318
605.702	69621
605.771	72137
605.839	71668
605.907	69761
605.975	67578
606.043	66740
606.111	65419
606.180	66076
606.248	66774
606.316	67211
606.384	66872
606.452	70886
606.520	82461
606.588	76309
606.656	69735
606.724	69547
606.792	64898
606.860	58196
606.928	53447
606.996	51746
607.064	50677
607.132	51341
607.200	54220
607.267	57071
607.335	56301
607.403	57966
607.471	57938
607.539	54190
607.607	56337
607.674	50368
607.742	51367
607.810	54020
607.878	53977
607.946	51698
608.013	52753
608.081	54533
608.149	55818
608.216	55916
608.284	58722
608.352	56549
608.419	57485
608.487	59438
608.555	58342
608.622	57918
608.690	58943
608.757	64394
608.825	68623
608.893	66796
608.960	65952
609.028	65179
609.095	65300
609.163	60632
609.230	55682
609.298	50617
609.365	51852
609.432	55921
609.500	59770
609.567	66810
609.635	76481
609.702	81881
609.769	80340
609.837	70219
609.904	60688
609.971	64354
610.039	80564
610.106	111101
610.173	210492
610.241	541100
610.308	478582
610.375	149833
610.442	74729
610.509	60492
610.577	58081
610.644	58130
610.711	58004
610.778	59107
610.845	61313
610.912	64921
610.980	67306
611.047	68502
611.114	68317
611.181	65417
611.248	63605
611.315	66730
611.382	68126
611.449	70632
611.516	73170
611.583	72787
611.650	73893
611.717	76902
611.784	81986
611.851	92333
611.918	110346
611.984	141464
612.051	210735
612.118	426949
612.185	1166975
612.252	1125188
612.319	193336
612.386	111733
612.452	97370
612.519	88613
612.586	87409
612.653	85993
612.719	86606
612.786	84209
612.853	75950
612.919	72119
612.986	75467
613.053	69977
613.120	66614
613.186	63436
613.253	64838
613.319	63040
613.386	66457
613.453	67366
613.519	71267
613.586	77135
613.652	101976
613.719	87469
613.785	86450
613.852	69178
613.918	65757
613.985	65627
614.051	71011
614.118	77765
614.184	81950
614.250	66064
614.317	67118
614.383	65037
614.449	67431
614.516	66579
614.582	67300
614.648	64731
614.715	64774
614.781	64210
614.847	62694
614.914	63532
614.980	62484
615.046	61618
615.112	63887
615.179	64826
615.245	66020
615.311	68288
615.377	77195
615.443	86579
615.509	74082
615.575	73694
615.642	75914
615.708	79197
615.774	90178
615.840	101129
615.906	128530
615.972	177139
616.038	292648
616.104	577856
616.170	1415420
616.236	1857800
616.302	347808
616.368	174126
616.434	122179
616.500	98796
616.565	107616
616.631	150796
616.697	128743
616.763	119727
616.829	176464
616.895	358413
616.961	424077
617.026	167405
617.092	83756
617.158	70541
617.224	68279
617.289	63305
617.355	58930
617.421	56429
617.487	58740
617.552	53948
617.618	52406
617.684	52800
617.749	53457
617.815	50472
617.880	48970
617.946	48252
618.012	49953
618.077	50639
618.143	48154
618.208	48227
618.274	51657
618.339	54642
618.405	46333
618.470	44087
618.536	43144
618.601	43820
618.667	42205
618.732	38877
618.798	38798
618.863	37710
618.928	38252
618.994	40554
619.059	43746
619.124	59540
619.190	51422
619.255	38450
619.320	37923
619.386	36981
619.451	36530
619.516	36429
619.581	34477
619.647	36294
619.712	37147
619.777	35228
619.842	35695
619.907	37012
619.972	37143
620.038	38031
620.103	35547
620.168	33791
620.233	35129
620.298	35387
620.363	35362
620.428	37218
620.493	37415
620.558	37006
620.623	39199
620.688	38418
620.753	37464
620.818	38289
620.883	38553
620.948	39646
621.013	38693
621.078	38020
621.143	37475
621.207	39947
621.272	39984
621.337	41973
621.402	39526
621.467	40976
621.532	43434
621.596	39394
621.661	37907
621.726	35670
621.791	36234
621.855	37835
621.920	40285
621.985	38076
622.049	41264
622.114	40807
622.179	38333
622.243	38420
622.308	39126
622.373	41590
622.437	41841
622.502	38295
622.566	36986
622.631	36328
622.695	38187
622.760	40048
622.824	38242
622.889	40554
622.953	43872
623.018	58370
623.082	73562
623.147	43806
623.211	42279
623.276	43134
623.340	38872
623.404	35848
623.469	36482
623.533	36084
623.597	36296
623.662	36032
623.726	34156
623.790	31843
623.854	30144
623.919	31329
623.983	32121
624.047	32985
624.111	33085
624.176	33358
624.240	35257
624.304	38797
624.368	34643
624.432	33686
624.496	35243
624.560	39530
624.625	48316
624.689	39922
624.753	37269
624.817	35393
624.881	34907
624.945	32150
625.009	31053
625.073	31480
625.137	34047
625.201	43003
625.265	49709
625.329	34725
625.393	36377
625.456	35985
625.520	35857
625.584	38621
625.648	41981
625.712	46900
625.776	67330
625.839	81931
625.903	53119
625.967	30053
626.031	35223
626.095	53537
626.158	39636
626.222	26557
626.286	23710
626.349	22369
626.413	21841
626.477	23795
626.540	24194
626.604	22394
626.668	21376
626.731	20592
626.795	20975
626.858	20880
626.922	21047
626.986	20954
627.049	21257
627.113	20765
627.176	20850
627.240	20386
627.303	19920
627.366	19341
627.430	21255
627.493	19858
627.557	20122
627.620	20336
627.684	22048
627.747	21505
627.810	20221
627.874	19033
627.937	17752
628.000	19405
628.064	18556
628.127	16456
628.190	16900
628.253	16258
628.317	16232
628.380	14685
628.443	14902
628.506	15512
628.569	14247
628.632	12669
628.696	13126
628.759	12203
628.822	12876
628.885	12168
628.948	13150
629.011	13695
629.074	13523
629.137	12641
629.200	11686
629.263	12973
629.326	11578
629.389	11658
629.452	11836
629.515	11572
629.578	11574
629.641	11996
629.704	11963
629.767	12891
629.830	12789
629.892	11892
629.955	11697
630.018	13327
630.081	15441
630.144	24016
630.207	17208
630.269	15166
630.332	11970
630.395	12137
630.458	11170
630.520	10435
630.583	11726
630.646	9392
630.708	10082
630.771	10352
630.834	11188
630.896	10386
630.959	11553
631.021	9990
631.084	11090
631.146	11745
631.209	13416
631.272	11335
631.334	11845
631.397	11988
631.459	13070
631.522	15373
631.584	15876
631.646	16297
631.709	18839
631.771	24177
631.834	20797
631.896	15839
631.958	13162
632.021	13666
632.083	11704
632.145	11524
632.208	11959
632.270	13402
632.332	10004
632.395	9774
632.457	10679
632.519	10276
632.581	11131
632.643	9471
632.706	10827
632.768	9914
632.830	9326
632.892	9772
632.954	9935
633.016	11171
633.078	11307
633.141	9833
633.203	10509
633.265	10712
633.327	9934
633.389	10809
633.451	13576
633.513	16952
633.575	16124
633.637	15926
633.698	19061
633.760	13113
633.822	12838
633.884	13198
633.946	13600
634.008	14044
634.070	15072
634.132	16427
634.193	18864
634.255	21483
634.317	22482
634.379	23741
634.441	20572
634.502	16518
634.564	15037
634.626	14471
634.687	14508
634.749	13014
634.811	11143
634.873	10580
634.934	11558
634.996	11386
635.057	11354
635.119	10649
635.181	10971
635.242	11655
635.304	10768
635.365	13294
635.427	11105
635.488	13151
635.550	11565
635.611	12557
635.673	11486
635.734	13867
635.796	14628
635.857	17254
635.918	18593
635.980	20429
636.041	22431
636.102	25355
636.164	26409
636.225	25980
636.286	22241
636.348	19217
636.409	15559
636.470	13725
636.531	12240
636.593	11779
636.654	11410
636.715	10343
636.776	9191
636.838	9409
636.899	9462
636.960	8696
637.021	8350
637.082	8988
637.143	10100
637.204	6818
637.265	7311
637.326	8725
637.387	8364
637.448	8264
637.509	8279
637.570	9095
637.631	8267
637.692	7490
637.753	6892
637.814	7378
637.875	7646
637.936	7708
637.997	7618
638.058	9003
638.119	8897
638.179	6807
638.240	7832
638.301	7617
638.362	6796
638.423	7260
638.483	7343
638.544	5884
638.605	6908
638.666	5961
638.726	7317
638.787	6727
638.848	7459
638.908	6349
638.969	6856
639.030	7189
639.090	5822
639.151	6853
639.211	9243
639.272	11396
639.332	23175
639.393	19773
639.453	9032
639.514	8685
639.574	8188
639.635	6848
639.695	7766
639.756	7632
639.816	9687
639.877	11668
639.937	19909
639.997	39118
640.058	16912
640.118	7669
640.178	6951
640.239	6244
640.299	5868
640.359	6776
640.420	8260
640.480	8337
640.540	10445
640.600	12448
640.661	10535
640.721	9114
640.781	15511
640.841	12288
640.901	8924
640.961	7290
641.021	9262
641.082	12072
641.142	19774
641.202	15830
641.262	6078
641.322	6307
641.382	6411
641.442	6580
641.502	5076
641.562	6298
641.622	7264
641.682	7803
641.742	8941
641.802	9819
641.861	8514
641.921	8058
641.981	10669
642.041	9913
642.101	12882
642.161	11387
642.221	6511
642.280	5737
642.340	5877
642.400	5158
642.460	5963
642.519	5434
642.579	5201
642.639	5971
642.698	4440
642.758	7964
642.818	7040
642.877	6689
642.937	7555
642.997	9071
643.056	15790
643.116	12909
643.175	8502
643.235	7617
643.294	8853
643.354	10605
643.414	13577
643.473	19184
643.532	26145
643.592	42625
643.651	66925
643.711	109575
643.770	189843
643.830	384535
643.889	1157992
643.948	608998
644.008	60555
644.067	24823
644.126	18490
644.186	13113
644.245	12486
644.304	8521
644.363	9812
644.423	7774
644.482	8586
644.541	9963
644.600	10241
644.659	13797
644.719	18523
644.778	27643
644.837	43645
644.896	82616
644.955	221942
645.014	160686
645.073	20513
645.132	10870
645.191	10626
645.250	8943
645.309	9815
645.368	9771
645.427	13761
645.486	19412
645.545	45168
645.604	23925
645.663	10046
645.722	9140
645.781	12902
645.840	16879
645.898	23506
645.957	36645
646.016	58301
646.075	95812
646.134	168819
646.192	372367
646.251	943708
646.310	289965
646.369	36604
646.427	20890
646.486	15775
646.545	10778
646.603	9544
646.662	7739
646.721	8375
646.779	8269
646.838	9056
646.896	13530
646.955	17625
647.014	25840
647.072	44020
647.131	119131
647.189	132891
647.248	16447
647.306	8047
647.365	6708
647.423	5185
647.481	5912
647.540	4305
647.598	5124
647.657	4984
647.715	4376
647.773	3913
647.832	4092
647.890	3527
647.948	3792
648.007	5094
648.065	3593
648.123	3580
648.181	5961
648.240	4819
648.298	3182
648.356	3801
648.414	4002
648.472	3616
648.531	4075
648.589	4217
648.647	4335
648.705	4317
648.763	4923
648.821	6092
648.879	6573
648.937	8105
648.995	12113
649.053	18486
649.111	27028
649.169	43440
649.227	69719
649.285	125437
649.343	367632
649.401	410327
649.459	68159
649.516	44633
649.574	16446
649.632	15915
649.690	19061
649.748	17107
649.806	19050
649.863	31862
649.921	77807
649.979	111073
650.037	18590
650.094	5588
650.152	5484
650.210	4787
650.268	5073
650.325	4632
650.383	4919
650.440	3522
650.498	4017
650.556	4040
650.613	3050
650.671	3725
650.728	2990
650.786	4236
650.843	4893
650.901	4297
650.958	3094
651.016	2832
651.073	2665
651.131	2508
651.188	1048
651.246	2758
651.303	2426
651.360	2380
651.418	2549
651.475	3020
651.532	1655
651.590	3149
651.647	1876
651.704	3240
651.762	3231
651.819	3214
651.876	2142
651.933	1957
651.990	2666
652.048	2535
652.105	2010
652.162	1958
652.219	1630
652.276	2600
652.333	2130
652.390	1503
652.448	1924
652.505	2276
652.562	2326
652.619	1989
652.676	1903
652.733	3119
652.790	3139
652.847	593
652.904	2248
652.961	746
653.017	1760
653.074	3733
653.131	2460
653.188	1715
653.245	2080
653.302	2726
653.359	2453
653.415	3029
653.472	1125
653.529	2755
653.586	1592
653.642	1960
653.699	2136
653.756	2011
653.813	1395
653.869	2228
653.926	1625
653.983	1810
654.039	2426
654.096	1885
654.152	2993
654.209	1606
654.266	3079
654.322	1178
654.379	3464
654.435	2954
654.492	2267
654.548	4243
654.605	9656
654.661	8272
654.717	2623
654.774	3163
654.830	2664
654.887	2186
654.943	1905
655.000	2722
655.056	2957
655.112	2161
655.168	1684
655.225	2982
655.281	3004
655.337	3115
655.394	3877
655.450	5917
655.506	3252
655.562	4214
655.618	6714
655.675	2334
655.731	2229
655.787	1978
655.843	2468
655.899	1918
655.955	2560
656.011	2560
656.067	1935
656.123	3356
656.179	3386
656.235	4720
656.291	3165
656.347	4429
656.403	3146
656.459	2612
656.515	2743
656.571	2534
656.627	2713
656.683	2258
656.739	3061
656.795	2752
656.850	3747
656.906	4897
656.962	4589
657.018	2637
657.074	2904
657.129	3084
657.185	4284
657.241	7917
657.297	9001
657.352	3057
657.408	1700
657.464	2760
657.519	1797
657.575	934
657.630	1380
657.686	2144
657.742	1464
657.797	1997
657.853	1003
657.908	2164
657.964	1167
658.019	1846
658.075	1387
658.130	1939
658.186	679
658.241	1927
658.297	1069
658.352	692
658.407	1815
658.463	504
658.518	1231
658.573	2038
658.629	883
658.684	1260
658.739	1742
658.795	1441
658.850	1376
658.905	284
658.960	1636
659.016	1368
659.071	2053
659.126	3171
659.181	3154
659.236	5386
659.291	10971
659.346	4993
659.401	3025
659.457	2683
659.512	2190
659.567	2222
659.622	978
659.677	1794
659.732	1041
659.787	1786
659.842	2129
659.897	2470
659.952	2400
660.007	1015
660.061	1224
660.116	871
660.171	463
660.226	625
660.281	2317
660.336	1150
660.391	1152
660.445	1194
660.500	1950
660.555	1490
660.610	987
660.664	2407
660.719	1551
660.774	1576
660.828	1339
660.883	2487
660.938	1783
660.992	775
661.047	2357
661.101	1616
661.156	782
661.211	1389
661.265	952
661.320	1164
661.374	1586
661.429	652
661.483	1876
661.538	136
661.592	829
661.647	2122
661.701	1204
661.755	1603
661.810	1609
661.864	966
661.919	1423
661.973	1760
662.027	818
662.081	313
662.136	237
662.190	1301
662.244	1150
662.299	798
662.353	1461
662.407	1555
662.461	922
662.515	2115
662.569	643
662.624	2513
662.678	1462
662.732	1633
662.786	817
662.840	1737
662.894	1830
662.948	917
663.002	547
663.056	1457
663.110	250
663.164	1756
663.218	1494
663.272	1815
663.326	2837
663.380	2286
663.434	1677
663.488	1592
663.542	2032
663.595	2002
663.649	1218
663.703	1657
663.757	1600
663.811	1110
663.864	989
663.918	2341
663.972	1336
664.026	1306
664.079	1233
664.133	1617
664.187	918
664.240	1176
664.294	921
664.348	1254
664.401	1545
664.455	1802
664.508	493
664.562	939
664.615	1422
664.669	906
664.722	868
664.776	534
664.829	1332
664.883	1690
664.936	844
664.990	1561
665.043	2160
665.097	1016
665.150	1638
665.203	900
665.257	864
665.310	2328
665.363	1572
665.417	1674
665.470	1440
665.523	1263
665.576	1587
665.630	1312
665.683	917
665.736	1843
665.789	2482
665.842	1416
665.895	1479
665.949	2149
666.002	1404
666.055	1927
666.108	2488
666.161	2194
666.214	1740
666.267	2175
666.320	2857
666.373	3191
666.426	2078
666.479	1695
666.532	1598
666.585	1861
666.638	2836
666.691	1646
666.744	2815
666.796	1761
666.849	2208
666.902	2697
666.955	2024
667.008	936
667.060	868
667.113	732
667.166	1290
667.219	1607
667.271	1407
667.324	1699
667.377	1483
667.430	1782
667.482	731
667.535	1790
667.587	2893
667.640	3401
667.693	3305
667.745	5920
667.798	12621
667.850	5267
667.903	1538
667.955	2254
668.008	1902
668.060	2861
668.113	1297
668.165	2129
668.218	1425
668.270	2095
668.322	1930
668.375	930
668.427	2185
668.479	1642
668.532	1646
668.584	1060
668.636	678
668.689	2054
668.741	817
668.793	2239
668.845	1193
668.898	1434
668.950	1148
669.002	1235
669.054	1434
669.106	1486
669.158	1903
669.211	2186
669.263	2005
669.315	3146
669.367	2406
669.419	2895
669.471	4129
669.523	4492
669.575	8088
669.627	7577
669.679	3750
669.731	3570
669.783	3692
669.835	5287
669.886	4713
669.938	4104
669.990	2601
670.042	2008
670.094	3105
670.146	3921
670.197	4052
670.249	6849
670.301	7904
670.353	12279
670.404	17525
670.456	25580
670.508	38552
670.560	56407
670.611	85265
670.663	129053
670.715	243209
670.766	590233
670.818	431526
670.869	72055
670.921	18959
670.972	11728
671.024	8711
671.075	6751
671.127	5096
671.178	4374
671.230	4735
671.281	4315
671.333	4816
671.384	4981
671.436	6071
671.487	7912
671.538	9850
671.590	13183
671.641	19357
671.692	30359
671.744	63319
671.795	77772
671.846	27790
671.897	9471
671.949	5209
672.000	4757
672.051	2984
672.102	3211
672.153	1978
672.204	2465
672.256	2234
672.307	2158
672.358	1484
672.409	1884
672.460	2578
672.511	1993
672.562	1050
672.613	2219
672.664	1471
672.715	1397
672.766	1915
672.817	2252
672.868	1078
672.919	1476
672.970	553
673.021	1049
673.071	515
673.122	1690
673.173	1373
673.224	1763
673.275	1873
673.326	1450
673.376	1325
673.427	993
673.478	2025
673.528	1831
673.579	1256
673.630	1212
673.680	1446
673.731	888
673.782	1394
673.832	1224
673.883	1888
673.934	1008
673.984	1537
674.035	1560
674.085	1701
674.136	962
674.186	1901
674.237	2386
674.287	2262
674.338	3539
674.388	1039
674.438	2126
674.489	1598
674.539	1635
674.589	1475
674.640	1531
674.690	1705
674.740	1274
674.791	1219
674.841	1255
674.891	1338
674.942	1429
674.992	1676
675.042	1987
675.092	1371
675.142	1059
675.193	377
675.243	1264
675.293	1653
675.343	1576
675.393	838
675.443	2079
675.493	535
675.543	667
675.593	799
675.643	1221
675.693	787
675.743	848
675.793	1082
675.843	704
675.893	732
675.943	1367
675.993	1330
676.043	1557
676.093	775
676.142	626
676.192	828
676.242	244
676.292	228
676.341	770
676.391	878
676.441	1108
676.491	242
676.540	1273
676.590	575
676.640	1224
676.689	530
676.739	1005
676.789	472
676.838	-256
676.888	697
676.937	450
676.987	520
677.037	860
677.086	-700
677.136	444
677.185	746
677.235	521
677.284	-317
677.333	284
677.383	-352
677.432	829
677.482	688
677.531	573
677.580	-182
677.630	616
677.679	839
677.728	-125
677.778	767
677.827	467
677.876	150
677.925	-603
677.975	1204
678.024	1187
678.073	224
678.122	392
678.171	634
678.220	69
678.269	1152
678.319	1786
678.368	745
678.417	1781
678.466	743
678.515	1389
678.564	1284
678.613	450
678.662	813
678.711	919
678.760	34
678.809	710
678.857	447
678.906	851
678.955	483
679.004	1149
679.053	677
679.102	574
679.151	29
679.199	1227
679.248	621
679.297	552
679.346	842
679.394	733
679.443	826
679.492	978
679.540	335
679.589	809
679.638	679
679.686	672
679.735	192
679.784	186
679.832	484
679.881	784
679.929	-52
679.978	-870
680.026	437
680.075	61
680.123	32
680.172	268
680.220	40
680.268	857
680.317	85
680.365	-6
680.414	-581
680.462	331
680.510	144
680.559	495
680.607	-162
680.655	756
680.703	159
680.752	564
680.800	929
680.848	44
680.896	262
680.945	45
680.993	56
681.041	619
681.089	-131
681.137	8
681.185	-332
681.233	-46
681.258	37
681.281	108
681.329	134
681.377	-33
681.380	-12
681.425	236
681.473	870
681.502	46
681.521	-536
681.569	205
681.617	1049
681.624	932
681.665	120
681.713	-197
681.745	211
681.761	391
681.809	-145
681.857	210
681.867	352
681.904	835
681.952	662
681.989	519
682.000	469
682.048	960
682.096	684
682.111	641
682.143	488
682.191	1074
682.233	703
682.239	643
682.286	265
682.334	-211
682.354	-113
682.382	7
682.430	930
682.476	703
682.477	691
682.525	373
682.572	572
682.598	527
682.620	498
682.667	502
682.715	752
682.720	790
682.763	1050
682.810	1027
682.841	1212
682.857	1295
682.905	380
682.952	865
682.963	852
683.000	716
683.047	680
683.085	613
683.095	607
683.142	415
683.190	551
683.206	432
683.237	215
683.284	264
683.328	953
683.332	996
683.379	425
683.426	602
683.449	464
683.473	364
683.521	1040
683.568	214
683.571	243
683.615	454
683.662	563
683.693	1007
683.709	1264
683.757	426
683.804	328
683.814	481
683.851	942
683.898	884
683.936	1151
683.945	1227
683.992	1463
684.039	998
684.057	1071
684.086	1213
684.133	1844
684.179	1821
684.180	1808
684.227	1279
684.274	2309
684.300	2103
684.321	1917
684.368	1632
684.415	1428
684.422	1268
684.462	282
684.509	479
684.543	1117
684.556	1361
684.603	612
684.649	1079
684.665	948
684.696	722
684.743	1413
684.786	1378
684.790	1363
684.837	1208
684.883	1399
684.908	1781
684.930	2145
684.977	1362
685.023	1517
685.029	1470
685.070	999
685.117	1112
685.150	1204
685.164	1271
685.210	1665
685.257	1704
685.272	1803
685.303	1974
685.350	1378
685.393	2133
685.396	2200
685.443	2197
685.490	3445
685.514	3084
685.536	2669
685.583	2752
685.629	1996
685.636	2037
685.675	2148
685.722	1954
685.757	1735
685.768	1705
685.815	1899
685.861	2544
685.878	2292
685.908	1818
685.954	2068
686.000	2046
686.000	2045
686.047	2383
686.093	1982
686.121	2035
686.139	2048
686.185	1903
686.232	2346
686.242	2304
686.278	2055
686.324	1743
686.363	1742
686.370	1754
686.416	1597
686.463	1666
686.484	1747
686.509	1855
686.555	1509
686.601	1973
686.606	1995
686.647	2073
686.693	1763
686.727	1353
686.739	1276
686.785	1294
686.831	1871
686.848	1995
686.877	2067
686.923	1517
686.969	1658
686.969	1658
687.015	1302
687.061	1592
687.090	1767
687.107	1899
687.153	2067
687.199	1233
687.211	1283
687.245	1488
687.291	1817
687.332	1840
687.336	1845
687.382	2416
687.428	2367
687.453	2355
687.474	2214
687.520	1862
687.565	2109
687.574	2026
687.611	1897
687.657	1332
687.695	2062
687.702	2225
687.748	2463
687.794	3297
687.816	3234
687.839	2950
687.885	2642
687.931	2374
687.937	2333
687.976	2236
688.022	2636
688.058	2468
688.067	2414
688.113	2116
688.158	2402
688.179	2079
688.204	1792
688.249	2100
688.295	2389
688.300	2403
688.340	2614
688.386	2339
688.421	2746
688.431	2809
688.477	2288
688.522	3032
688.542	2851
688.567	2639
688.613	2427
688.658	2546
688.663	2519
688.703	2374
688.749	1949
688.784	2520
688.794	2687
688.839	2154
688.884	2408
688.905	2355
688.930	2293
688.975	2596
689.020	2154
689.026	2212
689.065	2639
689.110	2450
689.146	2749
689.155	2813
689.201	2494
689.246	2669
689.267	2335
689.291	2076
689.336	2908
689.381	2706
689.388	2746
689.426	2683
689.471	2620
689.509	2577
689.516	2618
689.561	2580
689.606	2346
689.630	2285
689.651	2212
689.696	2354
689.741	1970
689.750	2150
689.785	2870
689.830	2524
689.871	2757
689.875	2766
689.920	2520
689.965	2525
689.992	2245
690.010	2150
690.054	2171
690.099	2597
690.112	2624
690.144	2709
690.189	2743
690.233	3007
690.233	3013
690.278	2999
690.323	2520
690.354	3023
690.367	3223
690.412	2916
690.457	2606
690.474	2885
690.501	3313
690.546	2923
690.590	2479
690.595	2497
690.635	2698
690.680	2591
690.716	2324
690.724	2266
690.769	2770
690.813	2775
690.836	2480
690.857	2303
690.902	2629
690.946	2813
690.957	2807
690.991	2802
691.035	2938
691.077	3011
691.080	3020
691.124	3071
691.168	3162
691.198	3162
691.213	3192
691.257	3415
691.301	3452
691.318	3426
691.346	3210
691.390	2925
691.434	2859
691.439	2843
691.478	2987
691.522	2901
691.559	3081
691.567	3145
691.611	3129
691.655	3460
691.680	3502
691.699	3453
691.743	3455
691.787	3549
691.800	3448
691.831	3176
691.875	2993
691.919	3100
691.921	3084
691.964	2984
692.008	3286
692.041	3189
692.052	3173
692.096	3166
692.139	3492
692.162	3303
692.183	3176
692.227	3363
692.271	3759
692.282	3763
692.315	3718
692.359	3649
692.402	3859
692.403	3870
692.447	3910
692.490	3901
692.523	4082
692.534	4109
692.578	3690
692.622	3685
692.643	3454
692.666	3290
692.709	3442
692.753	3131
692.763	3131
692.797	3169
692.840	3148
692.884	3092
692.884	3103
692.928	3431
692.971	3713
693.004	4068
693.015	4114
693.059	3884
693.102	3891
693.124	3916
693.146	3966
693.189	3615
693.233	3651
693.245	3633
693.276	3741
693.320	3898
693.363	3972
693.365	3969
693.407	3976
693.450	3641
693.485	3764
693.493	3811
693.537	3564
693.580	3766
693.605	3652
693.624	3660
693.667	3829
693.710	3663
693.725	3805
693.753	4048
693.797	3756
693.840	3926
693.845	3931
693.883	4108
693.926	4041
693.966	4250
693.970	4253
694.013	4151
694.056	3857
694.086	3623
694.099	3581
694.142	3368
694.185	3531
694.206	3459
694.229	3615
694.272	3956
694.315	4215
694.326	4306
694.358	4562
694.401	4657
694.444	5178
694.446	5171
694.487	5460
694.530	6032
694.566	6225
694.573	6042
694.616	5020
694.659	3849
694.686	3162
694.702	3288
694.745	3577
694.787	4014
694.806	4053
694.830	3823
694.873	3627
694.916	3324
694.926	3249
694.959	3547
695.002	4000
695.044	4472
695.046	4477
695.087	4521
695.130	4540
695.166	4378
695.172	4352
695.215	4362
695.258	4300
695.286	4262
695.301	4269
695.343	4152
695.386	4011
695.406	3945
695.428	3986
695.471	4236
695.514	4158
695.526	4207
695.556	4259
695.599	4303
695.641	4078
695.646	4063
695.684	4173
695.726	4271
695.766	4200
695.769	4217
695.811	4569
695.854	4545
695.886	4741
695.896	4687
695.938	4311
695.981	3938
696.005	3609
696.023	3696
696.065	4080
696.108	4545
696.125	4691
696.150	4806
696.192	4908
696.235	5036
696.245	5041
696.277	4895
696.319	4754
696.361	4552
696.365	4523
696.404	4666
696.446	4797
696.485	4961
696.488	4999
696.530	5165
696.572	5457
696.604	5696
696.614	5690
696.656	5440
696.698	5224
696.724	5172
696.740	5127
696.783	4762
696.825	4475
696.844	4382
696.867	4669
696.909	5019
696.951	5399
696.964	5527
696.992	5354
697.034	4990
697.076	4639
697.083	4555
697.118	4739
697.160	5105
697.202	5337
697.203	5330
697.244	5426
697.286	5346
697.323	5278
697.327	5308
697.369	5477
697.411	5644
697.442	5684
697.453	5747
697.494	6014
697.536	6269
697.562	6420
697.578	6448
697.620	6479
697.661	6450
697.682	6410
697.703	6599
697.744	6999
697.786	7444
697.801	7548
697.828	7702
697.869	7943
697.911	8175
697.921	8212
697.952	7806
697.994	7229
698.035	6620
698.040	6534
698.077	6438
698.118	6253
698.160	6114
698.160	6095
698.201	6107
698.243	6135
698.279	6159
698.284	6211
698.325	6514
698.367	6781
698.399	6990
698.408	6969
698.449	6764
698.491	6581
698.518	6427
698.532	6543
698.573	6841
698.614	7115
698.638	7282
698.656	7148
698.697	6736
698.738	6360
698.757	6156
698.779	6298
698.820	6542
698.862	6766
698.877	6840
698.903	7127
698.944	7540
698.985	7951
698.996	8045
699.026	7788
699.067	7397
699.116	6912
699.235	7073
699.354	7320
699.474	6384
699.593	7056
699.713	6840
699.832	6876
699.951	7812
700.070	8506
700.190	6974
700.309	6757
700.428	7292
700.547	7395
700.667	7189
700.786	7918
700.905	6338
701.024	6484
701.143	6837
701.262	6164
701.381	5711
701.500	6414
701.619	8880
701.738	7415
701.857	6650
701.976	5606
702.095	6359
702.214	7048
702.333	8363
702.452	7927
702.571	6337
702.690	6069
702.809	6307
702.928	5562
703.047	6647
703.165	6200
703.284	6461
703.403	6557
703.522	6712
703.640	7834
703.759	7534
703.878	10697
703.997	7280
704.115	6310
704.234	5611
704.353	5637
704.471	5779
704.590	5419
704.708	5395
704.827	6085
704.946	5950
705.064	5389
705.183	5090
705.301	5087
705.420	7147
705.538	6996
705.656	6293
705.775	5340
705.893	6428
706.012	7019
706.130	6743
706.249	6602
706.367	6408
706.485	7542
706.604	5625
706.722	7743
706.840	8791
706.958	10058
707.077	9254
707.195	5777
707.313	5825
707.431	5569
707.549	5166
707.668	5807
707.786	5666
707.904	5772
708.022	5803
708.140	5569
708.258	5755
708.376	6076
708.494	6365
708.612	5943
708.730	8270
708.848	8237
708.966	8046
709.084	8592
709.202	7452
709.320	7380
709.438	6106
709.556	6444
709.674	6678
709.791	6541
709.909	5930
710.027	6436
710.145	6456
710.263	6455
710.380	6542
710.498	6193
710.616	5505
710.733	6510
710.851	6838
710.969	6746
711.086	5393
711.204	7033
711.322	6349
711.439	6845
711.557	6786
711.674	6139
711.792	6768
711.909	5733
712.027	5531
712.144	5703
712.262	6027
712.379	6026
712.497	8397
712.614	7483
712.732	7792
712.849	7972
712.966	8009
713.084	12390
713.201	8013
713.318	7419
713.436	7618
713.553	7128
713.670	8418
713.787	8648
713.905	8278
714.022	7453
714.139	7346
714.256	10111
714.373	14820
714.490	28186
714.608	67489
714.725	311720
714.842	619225
714.959	54900
715.076	12485
715.193	10799
715.310	9667
715.427	7246
715.544	6999
715.661	7491
715.778	6580
715.895	7333
716.011	6197
716.128	7590
716.245	7178
716.362	10079
716.479	11165
716.596	7458
716.713	6583
716.829	6852
716.946	6418
717.063	6439
717.180	5605
717.296	5951
717.413	5934
717.530	6138
717.646	6764
717.763	6261
717.880	5246
717.996	5884
718.113	6087
718.229	5415
718.346	5975
718.462	6121
718.579	9405
718.695	19793
718.812	15258
718.928	8271
719.045	7494
719.161	5837
719.277	5371
719.394	5826
719.510	6359
719.626	5787
719.743	7562
719.859	11804
719.975	22598
720.092	80672
720.208	284220
720.324	68576
720.440	9717
720.557	8499
720.673	14535
720.789	17200
720.905	21162
721.021	13555
721.137	5195
721.253	5533
721.369	5210
721.486	6179
721.602	7928
721.718	6080
721.834	3879
721.950	6223
722.066	5239
722.181	4895
722.297	4689
722.413	5110
722.529	4976
722.645	5199
722.761	5099
722.877	4599
722.993	4922
723.108	5876
723.224	5836
723.340	4328
723.456	5580
723.571	4627
723.687	4536
723.803	4608
723.918	4600
724.034	4765
724.150	4984
724.265	4695
724.381	8281
724.497	14236
724.612	4778
724.728	4449
724.843	4251
724.959	5042
725.074	8184
725.190	13035
725.305	5322
725.421	4756
725.536	4520
725.651	3812
725.767	3824
725.882	3625
725.997	3563
726.113	4352
726.228	3511
726.343	3991
726.459	3310
726.574	3664
726.689	2969
726.804	3438
726.920	3571
727.035	4015
727.150	3388
727.265	4523
727.380	4382
727.495	4619
727.610	3488
727.725	3797
727.841	4087
727.956	3971
728.071	3650
728.186	4351
728.301	4435
728.416	4698
728.531	4176
728.645	4929
728.760	4747
728.875	8435
728.990	6091
729.105	5266
729.220	4931
729.335	4761
729.449	3704
729.564	3225
729.679	3203
729.794	2953
729.908	3766
730.023	4456
730.138	3252
730.253	3460
730.367	3163
730.482	3812
730.596	4134
730.711	5025
730.826	5169
730.940	4639
731.055	4948
731.169	4597
731.284	3594
731.398	3550
731.513	3639
731.627	4742
731.742	4335
731.856	6253
731.970	5173
732.085	6223
732.199	7921
732.313	13218
732.428	33040
732.542	126954
732.656	135430
732.771	17857
732.885	7302
732.999	7055
733.113	6457
733.227	5605
733.342	5342
733.456	5364
733.570	4588
733.684	4649
733.798	4370
733.912	5507
734.026	4543
734.140	4525
734.254	5190
734.368	6723
734.482	9254
734.596	4733
734.710	5005
734.824	4538
734.938	4332
735.052	5104
735.166	5249
735.280	4886
735.393	4569
735.507	4356
735.621	6277
735.735	8298
735.849	6508
735.962	4410
736.076	4968
736.190	4882
736.303	5351
736.417	7570
736.531	5107
736.644	5220
736.758	4876
736.872	4987
736.985	4548
737.099	4226
737.212	4127
737.326	5425
737.439	4870
737.553	4806
737.666	4850
737.780	4409
737.893	4142
738.007	3790
738.120	3832
738.233	4482
738.347	4059
738.460	3910
738.573	4965
738.687	5521
738.800	5598
738.913	7643
739.026	5760
739.140	3852
739.253	2907
739.366	3575
739.479	3981
739.592	3725
739.705	4259
739.818	3674
739.932	3767
740.045	4878
740.158	4016
740.271	3900
740.384	3649
740.497	4739
740.610	6306
740.723	5341
740.836	5292
740.949	6357
741.062	7300
741.174	7085
741.287	3743
741.400	4201
741.513	5154
741.626	6909
741.739	4309
741.851	3884
741.964	4250
742.077	4201
742.189	4679
742.302	6244
742.415	7835
742.527	5194
742.640	4387
742.753	3242
742.865	3232
742.978	2824
743.090	3461
743.203	2703
743.316	3050
743.428	2860
743.541	3260
743.653	2702
743.766	2177
743.878	3294
743.990	3864
744.103	4343
744.215	5285
744.327	3395
744.440	4950
744.552	10029
744.664	5160
744.777	4085
744.889	2305
745.001	2826
745.113	2882
745.226	2464
745.338	2459
745.450	2282
745.562	2628
745.674	2770
745.786	3199
745.898	2322
746.010	2724
746.122	2727
746.234	3128
746.347	3113
746.459	2321
746.570	2421
746.682	2406
746.794	4554
746.906	3892
747.018	2559
747.130	2188
747.242	3182
747.354	2379
747.466	3007
747.577	2536
747.689	2606
747.801	2210
747.913	1485
748.024	1971
748.136	1606
748.248	2302
748.359	2645
748.471	1975
748.583	1271
748.694	2465
748.806	2732
748.918	3091
749.029	3380
749.141	3270
749.252	3772
749.364	3876
749.475	11726
749.587	8133
749.698	2453
749.809	1883
749.921	2466
750.032	2393
750.144	2328
750.255	2404
750.366	1832
750.478	1558
750.589	1869
750.700	2430
750.811	2809
750.923	4526
751.034	13838
751.145	17225
751.256	3152
751.367	1937
751.479	2064
751.590	1653
751.701	2232
751.812	1553
751.923	1549
752.034	2432
752.145	1920
752.256	2106
752.367	1794
752.478	2613
752.589	2076
752.700	1591
752.811	2182
752.922	1955
753.032	2788
753.143	3489
753.254	1294
753.365	1652
753.476	3431
753.586	1637
753.697	2233
753.808	1538
753.919	2422
754.029	1146
754.140	1794
754.251	2086
754.361	2161
754.472	2749
754.582	2128
754.693	2058
754.804	2829
754.914	1124
755.025	1785
755.135	2114
755.246	2042
755.356	2338
755.466	1802
755.577	2138
755.687	1538
755.798	2255
755.908	1849
756.018	1052
756.129	1834
756.239	2126
756.349	1950
756.460	1990
756.570	2119
756.680	1831
756.790	2036
756.900	3448
757.011	1557
757.121	2108
757.231	1385
757.341	1401
757.451	1436
757.561	1286
757.671	2041
757.781	1558
757.891	1655
758.001	1833
758.111	1751
758.221	2248
758.331	3382
758.441	3423
758.551	5838
758.661	5108
758.771	3297
758.880	2755
758.990	2830
759.100	1736
759.210	2137
759.320	1938
759.429	2137
759.539	2043
759.649	2506
759.758	2783
759.868	3061
759.978	2662
760.087	3045
760.197	3157
760.307	3244
760.416	3013
760.526	2130
760.635	2090
760.745	2450
760.854	3575
760.964	4645
761.073	3375
761.182	4157
761.292	3086
761.401	2833
761.511	2142
761.620	2183
761.729	2119
761.839	2670
761.948	1829
762.057	2969
762.166	2385
762.276	1903
762.385	2177
762.494	1669
762.603	1285
762.712	2101
762.822	1699
762.931	1156
763.040	1147
763.149	1770
763.258	1422
763.367	1574
763.476	1462
763.585	1233
763.694	2650
763.803	1469
763.912	1748
764.021	2602
764.130	1121
764.238	1601
764.347	2261
764.456	2185
764.565	1278
764.674	1757
764.783	2875
764.891	1111
765.000	2347
765.109	1223
765.217	1767
765.326	3054
765.435	3355
765.543	2882
765.652	3205
765.761	3882
765.869	3417
765.978	4548
766.086	7529
766.195	15382
766.303	39238
766.412	154069
766.520	231323
766.629	27848
766.737	5892
766.846	4857
766.954	3252
767.062	3633
767.171	2669
767.279	2948
767.387	1819
767.496	1711
767.604	1663
767.712	2638
767.820	2239
767.928	2368
768.037	2160
768.145	2116
768.253	2402
768.361	2694
768.469	2126
768.577	1108
768.685	2637
768.793	2193
768.901	1062
769.009	2725
769.117	1868
769.225	1703
769.333	2543
769.441	3718
769.549	6269
769.657	14143
769.765	48517
769.873	176245
769.981	69986
770.088	6260
770.196	2955
770.304	3716
770.412	3047
770.519	2908
770.627	2501
770.735	2065
770.842	2209
770.950	1599
771.058	2716
771.165	1240
771.273	2677
771.380	2731
771.488	3406
771.595	2922
771.703	3231
771.810	3983
771.918	2493
772.025	2569
772.133	3412
772.240	3719
772.348	3690
772.455	3538
772.562	2691
772.670	3121
772.777	2670
772.884	2404
772.991	2480
773.099	3091
773.206	2804
773.313	2505
773.420	2926
773.528	2454
773.635	3119
773.742	3388
773.849	2649
773.956	3354
774.063	2521
774.170	3354
774.277	3220
774.384	2219
774.491	2948
774.598	2687
774.705	3936
774.812	4037
774.919	3903
775.026	2616
775.133	2837
775.239	2750
775.346	2288
775.453	2962
775.560	1995
775.667	2898
775.773	1904
775.880	2441
775.987	2421
776.093	2623
776.200	2868
776.307	1596
776.413	1762
776.520	2712
776.627	3439
776.733	2587
776.840	1613
776.946	3802
777.053	4146
777.159	7478
777.266	5337
777.372	6503
777.478	5847
777.585	4804
777.691	2409
777.798	3210
777.904	3234
778.010	4885
778.117	5259
778.223	2487
778.329	1538
778.435	1996
778.542	2742
778.648	1796
778.754	2316
778.860	2281
778.966	2136
779.072	2170
779.178	2166
779.284	1998
779.391	1404
779.497	1654
779.603	3162
779.708	1914
779.815	2154
779.920	2498
780.026	2831
780.132	2446
780.238	2017
780.344	2431
780.450	2886
780.556	1856
780.661	1364
780.767	2270
780.873	2128
780.979	2235
781.085	2343
781.190	2148
781.296	1417
781.402	2005
781.507	1826
781.613	1607
781.719	1669
781.824	2571
781.930	1861
782.035	1469
782.141	3001
782.246	1693
782.352	1780
782.457	2235
782.563	1792
782.668	2107
782.773	2029
782.879	1478
782.984	1242
783.090	3603
783.195	6055
783.300	6320
783.405	2348
783.511	2167
783.616	2477
783.721	3697
783.826	2545
783.932	2815
784.037	2897
784.142	2308
784.247	1327
784.352	2041
784.457	1595
784.562	2411
784.667	2732
784.772	2087
784.877	1620
784.982	1690
785.087	1897
785.192	2409
785.297	1716
785.402	2215
785.507	1596
785.611	2873
785.716	1250
785.821	2109
785.926	1790
786.031	1846
786.135	1319
786.240	1689
786.345	697
786.450	1298
786.554	1223
786.659	1113
786.763	646
786.868	1987
786.973	1740
787.077	2421
787.182	1310
787.286	1067
787.391	1615
787.495	1394
787.600	679
787.704	1269
787.809	1146
787.913	942
788.017	1290
788.122	964
788.226	1342
788.330	897
788.435	891
788.539	1746
788.643	738
788.747	1086
788.852	1119
788.956	1289
789.060	941
789.164	1585
789.268	242
789.372	1114
789.476	758
789.580	992
789.684	1273
789.788	961
789.892	277
789.996	1199
790.100	1127
790.204	918
790.308	1024
790.412	921
790.516	937
790.620	878
790.724	738
790.828	1043
790.931	496
791.035	834
791.139	1118
791.242	708
791.346	1390
791.450	2147
791.554	956
791.657	1570
791.761	1492
791.864	2139
791.968	784
792.072	1174
792.175	710
792.279	533
792.382	1029
792.486	1114
792.589	1590
792.693	1845
792.796	782
792.899	1835
793.003	1236
793.106	1371
793.209	1095
793.313	1559
793.416	1432
793.519	1637
793.623	3475
793.726	7014
793.829	2585
793.932	1005
794.035	806
794.138	2066
794.242	2469
794.345	2435
794.448	2524
794.551	4530
794.654	4002
794.757	2151
794.860	1284
794.963	463
795.066	191
795.169	1132
795.272	812
795.375	1400
795.477	399
795.580	944
795.683	-44
795.786	717
795.889	491
795.991	1481
796.094	2109
796.197	713
796.300	581
796.402	1794
796.505	225
796.608	790
796.710	-57
796.813	514
796.915	1146
797.018	1498
797.120	649
797.223	-498
797.326	1647
797.428	997
797.530	374
797.633	580
797.735	1786
797.838	803
797.940	2915
798.042	1059
798.145	-68
798.247	1088
798.349	469
798.452	775
798.554	-11
798.656	-586
798.758	1431
798.860	702
798.962	602
799.065	440
799.167	133
799.269	844
799.371	804
799.473	1735
799.575	1698
799.677	1607
799.779	2669
799.881	4508
799.983	2480
800.085	654
800.187	788
800.289	372
800.390	50
800.492	1262
800.594	1113
800.696	-150
800.798	440
800.899	452
801.001	373
801.103	504
801.205	617
801.306	836
801.408	-144
801.509	571
801.611	563
801.713	1115
801.814	649
801.916	-210
802.017	439
802.119	133
802.220	470
802.322	-44
802.423	1853
802.525	743
802.626	913
802.727	343
802.829	856
802.930	-339
803.031	1275
803.133	584
803.234	-410
803.335	-97
803.436	88
803.538	58
803.639	-167
803.740	711
803.841	-66
803.942	822
804.043	1131
804.144	342
804.245	589
804.346	419
804.447	297
804.548	2452
804.649	3211
804.750	684
804.851	196
804.952	275
805.053	-22
805.154	-567
805.255	799
805.355	-203
805.456	-250
805.557	785
805.658	-465
805.758	1051
805.859	-99
805.960	560
806.061	123
806.161	532
806.262	829
806.362	77
806.463	726
806.564	903
806.664	174
806.765	116
806.865	679
806.966	208
807.066	-817
807.166	867
807.267	233
807.367	-130
807.468	193
807.568	-304
807.668	814
807.769	727
807.869	-141
807.969	-74
808.069	115
808.170	-160
808.270	403
808.370	926
808.470	1592
808.570	343
808.670	331
808.770	387
808.870	-108
808.970	-89
809.070	103
809.170	-711
809.271	-52
809.370	15
809.470	220
809.570	234
809.670	93
809.770	-362
809.870	17
809.970	463
810.070	134
810.169	-325
810.269	-1289
810.369	1332
810.469	-908
810.568	-564
810.668	-677
810.768	349
810.867	-104
810.967	-416
811.066	-632
811.166	-705
811.265	259
811.365	-84
811.464	-274
811.564	321
811.663	-72
811.763	-1417
811.862	415
811.962	-85
812.061	454
812.160	-573
812.260	-725
812.359	103
812.458	1203
812.557	1687
812.657	2792
812.756	990
812.855	246
812.954	368
813.053	-395
813.153	140
813.252	328
813.351	852
813.450	-28
813.549	179
813.648	180
813.747	185
813.846	-35
813.945	496
814.044	283
814.143	322
814.242	-88
814.341	-361
814.439	75
814.538	552
814.637	15
814.736	-121
814.835	794
814.933	-112
815.032	750
815.131	781
815.229	128
815.328	1913
815.427	2153
815.525	1408
815.624	787
815.722	1310
815.821	1203
815.919	968
816.018	1209
816.116	739
816.215	765
816.313	1492
816.412	1199
816.510	2071
816.609	1880
816.707	1509
816.805	1705
816.904	1687
817.002	2275
817.100	2420
817.198	2170
817.296	1460
817.395	2187
817.493	2694
817.591	1703
817.689	3427
817.787	4433
817.885	7424
817.983	14360
818.081	31738
818.179	78042
818.277	208525
818.375	223922
818.473	49694
818.571	12725
818.669	8617
818.767	8301
818.865	8625
818.963	9221
819.061	15708
819.158	29471
819.256	68364
819.354	160404
819.452	407374
819.549	320808
819.647	64471
819.745	17160
819.842	10199
819.940	8842
820.038	5922
820.135	3752
820.233	4496
820.330	2537
820.428	2854
820.525	2281
820.623	2301
820.720	1689
820.818	2364
820.915	2476
821.012	1729
821.110	695
821.207	1698
821.304	897
821.402	1516
821.499	2743
821.596	2172
821.693	2613
821.791	1888
821.888	2641
821.985	6210
822.082	6618
822.179	1875
822.276	1202
822.373	1325
822.470	856
822.567	971
822.664	466
822.761	1089
822.858	564
822.955	1192
823.052	458
823.149	1093
823.246	1198
823.343	787
823.440	789
823.536	372
823.633	678
823.730	808
823.827	384
823.923	728
824.020	1784
824.117	220
824.213	1333
824.310	1401
824.407	131
824.503	462
824.600	858
824.696	402
824.793	1182
824.889	690
824.986	444
825.082	1099
825.179	1134
825.275	598
825.371	-115
825.468	1010
825.564	-85
825.660	473
825.757	126
825.853	622
825.949	171
826.045	231
826.142	-255
826.238	623
826.334	918
826.430	-14
826.526	586
826.622	-492
826.718	-624
826.814	304
826.910	1445
827.006	-761
827.102	-19
827.198	558
827.294	237
827.390	233
827.486	219
827.582	-167
827.678	-540
827.774	1423
827.869	-635
827.965	1208
828.061	-391
828.157	-152
828.252	-98
828.348	-179
828.444	682
828.539	-280
828.635	36
828.731	-141
828.826	-1177
828.922	337
829.017	-538
829.113	1042
829.208	-286
829.304	-172
829.399	573
829.495	-49
829.590	6
829.685	5
829.781	-44
829.876	857
829.971	-419
830.066	-905
830.162	69
830.257	458
830.352	349
830.447	1489
830.543	-229
830.638	113
830.733	742
830.828	-334
830.923	332
831.018	-432
831.113	484
831.208	-198
831.303	136
831.398	-489
831.493	332
831.588	190
831.683	-897
831.778	-93
831.873	-282
831.967	292
832.062	-767
832.157	-400
832.252	297
832.346	260
832.441	1035
832.536	1859
832.631	3966
832.725	4637
832.820	252
832.914	-172
833.009	134
833.104	501
833.198	1905
833.293	-363
833.387	61
833.482	402
833.576	-451
833.670	171
833.765	129
833.859	430
833.954	1367
834.048	834
834.142	-143
834.237	-371
834.331	-336
834.425	158
834.519	-282
834.613	937
834.708	-299
834.802	61
834.896	-688
834.990	-351
835.084	-70
835.178	-404
835.272	-140
835.366	-542
835.460	55
835.554	-382
835.648	319
835.742	237
835.836	-868
835.930	-1056
836.024	-289
836.117	202
836.211	92
836.305	-351
836.399	525
836.493	-590
836.586	-80
836.680	-714
836.774	198
836.867	500
836.961	-970
837.055	-215
837.148	-128
837.242	-51
837.335	-862
837.429	-163
837.522	-248
837.616	171
837.709	868
837.803	1241
837.896	57
837.989	-106
838.083	515
838.176	843
838.269	1059
838.363	311
838.456	264
838.549	1637
838.642	1562
838.735	4404
838.829	2875
838.922	-169
839.015	-353
839.108	-26
839.201	-249
839.294	-966
839.387	-146
839.480	-568
839.573	-52
839.666	10
839.759	-288
839.852	-750
839.945	-421
840.038	-397
840.131	-585
840.223	-579
840.316	120
840.409	-415
840.502	-1000
840.594	139
840.687	-208
840.780	-765
840.873	-503
840.965	-244
841.058	-112
841.150	616
841.243	253
841.336	92
841.428	-923
841.521	-326
841.613	-1057
841.706	-145
841.798	-205
841.890	-225
841.983	-806
842.075	-126
842.167	-720
842.260	-229
842.352	238
842.444	333
842.537	326
842.629	2856
842.721	-6
842.813	-536
842.905	-1013
842.997	11
843.090	-340
843.182	262
843.274	122
843.366	2715
843.458	5102
843.550	6286
843.642	734
843.734	-125
843.826	-674
843.918	159
844.009	884
844.101	-452
844.193	-1036
844.285	230
844.377	299
844.469	724
844.560	368
844.652	667
844.744	-652
844.835	-599
844.927	-224
845.019	-450
845.110	-1213
845.202	-926
845.293	-596
845.385	-1220
845.476	21
845.568	301
845.659	-744
845.751	116
845.842	-447
845.934	-1220
846.025	-504
846.116	-493
846.208	-434
846.299	245
846.390	-702
846.482	-435
846.573	261
846.664	1071
846.755	83
846.846	904
846.937	-1152
847.029	-411
847.120	-333
847.211	-473
847.302	149
847.393	-1038
847.484	-180
847.575	-252
847.666	-1425
847.757	-536
847.847	-207
847.938	203
848.029	-171
848.120	-81
848.211	-791
848.302	-522
848.392	-516
848.483	-218
848.574	-619
848.664	-276
848.755	-241
848.846	-484
848.936	-862
849.027	305
849.118	-270
849.208	438
849.299	1033
849.389	3780
849.480	10002
849.570	20166
849.661	34274
849.751	73831
849.841	45162
849.932	6209
850.022	784
850.112	229
850.203	67
850.293	-140
850.383	-626
850.474	-362
850.564	-546
850.654	-227
850.744	-622
850.834	-138
850.924	-511
851.014	535
851.104	-803
851.194	-113
851.284	1025
851.374	1103
851.464	101
851.554	-264
851.644	-701
851.734	604
851.824	-885
851.914	-210
852.004	-78
852.094	-612
852.183	-625
852.273	81
852.363	-444
852.452	256
852.542	117
852.632	-438
852.721	-203
852.811	-415
852.901	259
852.990	-22
853.080	362
853.169	577
853.259	621
853.348	1009
853.438	1743
853.527	3818
853.617	5489
853.706	12176
853.795	25262
853.885	56704
853.974	118307
854.063	183166
854.152	374912
854.242	227828
854.331	35069
854.420	8102
854.509	5067
854.598	3455
854.687	2110
854.777	2615
854.866	1848
854.955	2006
855.044	174
855.133	71
855.222	374
855.311	-80
855.400	-571
855.488	64
855.577	213
855.666	154
855.755	371
855.844	694
855.933	116
856.021	329
856.110	-587
856.199	-444
856.288	354
856.376	-173
856.465	-508
856.554	91
856.642	-813
856.731	235
856.819	40
856.908	149
856.996	-1330
857.085	-476
857.173	-841
857.262	-435
857.350	-391
857.438	-45
857.527	-168
857.615	-600
857.703	138
857.792	-442
857.880	-809
857.968	-535
858.056	-436
858.145	753
858.233	-1414
858.321	-533
858.409	91
858.497	-546
858.585	-827
858.673	78
858.761	-516
858.849	-1065
858.937	-724
859.025	-761
859.113	-847
859.201	-372
859.289	-224
859.377	45
859.465	-714
859.552	82
859.640	-92
859.728	121
859.816	-978
859.903	-16
859.991	-771
860.079	-1209
860.166	-796
860.254	-868
860.342	-851
860.429	-1009
860.517	-559
860.604	-784
860.692	-765
860.779	-39
860.867	-1085
860.954	-492
861.042	57
861.129	197
861.216	-96
861.304	-47
861.391	-395
861.478	-235
861.565	-444
861.653	328
861.740	-757
861.827	-433
861.914	-271
862.001	-458
862.089	-521
862.176	-432
862.263	-1415
862.350	-40
862.437	-1198
862.524	-936
862.611	149
862.698	163
862.785	-916
862.871	304
862.958	-869
863.045	35
863.132	-521
863.219	-403
863.306	-513
863.392	-422
863.479	-332
863.566	-584
863.652	-3
863.739	-622
863.826	-576
863.912	-906
863.999	-643
864.086	94
864.172	-928
864.259	-518
864.345	-553
864.432	160
864.518	-732
864.604	-90
864.691	-187
864.777	-16
864.863	441
864.950	274
865.036	244
865.122	1431
865.209	985
865.295	2540
865.381	2500
865.467	3324
865.553	4408
865.639	7109
865.726	12709
865.812	26810
865.898	56692
865.984	87891
866.070	134945
866.156	230038
866.242	93826
866.328	13889
866.414	4609
866.499	3660
866.585	3184
866.671	2209
866.757	1876
866.843	2110
866.928	1527
867.014	1979
867.100	1516
867.186	1259
867.271	1766
867.357	1674
867.442	1823
867.528	1510
867.614	482
867.699	789
867.785	752
867.870	1423
867.956	1558
868.041	2431
868.127	682
868.212	2131
868.297	1960
868.383	949
868.468	1118
868.553	2735
868.639	3363
868.724	5731
868.809	7975
868.894	2450
868.979	-55
869.065	657
869.150	-410
869.235	227
869.320	273
869.405	-377
869.490	89
869.575	623
869.660	131
869.745	706
869.830	192
869.915	742
870.000	48
870.085	210
870.169	808
870.254	262
870.339	152
870.424	-628
870.509	511
870.593	164
870.678	1337
870.763	386
870.847	689
870.932	71
871.016	509
871.101	-123
871.186	-95
871.270	-128
871.355	-663
871.439	-643
871.523	-477
871.608	94
871.692	350
871.777	742
871.861	753
871.945	425
872.030	551
872.114	-67
872.198	-533
872.282	177
872.367	328
872.451	-519
872.535	-40
872.619	-396
872.703	58
872.787	-141
872.871	-90
872.955	45
873.039	-355
873.123	-82
873.207	645
873.291	449
873.375	-132
873.459	162
873.543	-694
873.627	-70
873.711	-164
873.794	112
873.878	322
873.962	-305
874.045	-123
874.129	955
874.137	853
874.213	-168
874.245	14
874.296	303
874.352	-108
874.380	-306
874.460	-406
874.464	-410
874.547	-195
874.568	-144
874.631	-1
874.676	12
874.714	26
874.784	244
874.798	278
874.881	1452
874.892	1212
874.965	-323
874.999	44
875.048	477
875.107	986
875.131	1219
875.215	320
875.215	320
875.298	458
875.323	361
875.381	113
875.430	226
875.465	298
875.538	224
875.548	218
875.631	-41
875.646	-102
875.714	-431
875.753	-564
875.798	-676
875.861	73
875.881	285
875.964	396
875.968	346
876.047	-508
876.076	-450
876.130	-306
876.183	-80
876.213	34
876.291	827
876.296	878
876.379	-93
876.398	107
876.462	835
876.506	312
876.545	-240
876.613	112
876.628	241
876.711	285
876.721	348
876.794	579
876.828	514
876.877	506
876.935	591
876.960	624
877.043	1222
877.043	1221
877.125	1131
877.150	1292
877.208	1543
877.258	1491
877.291	1514
877.365	1537
877.374	1528
877.456	1241
877.472	1277
877.539	1441
877.579	1364
877.622	1166
877.687	1297
877.704	1395
877.787	1752
877.794	1664
877.869	594
877.901	596
877.952	611
878.008	302
878.034	176
878.115	111
878.117	110
878.199	259
878.222	215
878.282	212
878.329	380
878.364	504
878.437	974
878.447	1019
878.529	207
878.544	233
878.611	456
878.651	405
878.694	200
878.758	328
878.776	424
878.858	537
878.865	538
878.941	481
878.972	219
879.023	-43
879.078	282
879.105	377
879.185	781
879.187	792
879.269	763
879.292	735
879.351	444
879.399	347
879.433	407
879.506	473
879.516	443
879.598	267
879.613	185
879.680	153
879.720	74
879.762	-80
879.827	75
879.844	128
879.926	309
879.933	388
880.007	1329
880.040	1415
880.089	1595
880.147	2481
880.171	2822
880.253	5041
880.254	5053
880.335	7009
880.360	7715
880.417	10872
880.467	14972
880.499	18993
880.574	32164
880.580	32218
880.662	14761
880.680	11753
880.744	4458
880.787	1707
880.825	533
880.893	557
880.907	630
880.989	422
881.000	399
881.070	491
881.106	466
881.152	349
881.213	375
881.233	295
881.315	-45
881.319	-69
881.396	126
881.426	136
881.478	114
881.532	651
881.559	816
881.639	285
881.641	274
881.722	218
881.745	144
881.803	322
881.852	381
881.885	222
881.958	269
881.966	327
882.047	1044
882.064	1129
882.129	1442
882.171	1560
882.210	1788
882.277	2449
882.291	2491
882.372	2369
882.383	2288
882.454	1084
882.489	543
882.535	208
882.596	-27
882.616	50
882.697	272
882.702	291
882.778	473
882.808	507
882.859	328
882.914	199
882.940	134
883.020	-173
883.021	-169
883.102	-78
883.127	-22
883.183	77
883.233	286
883.264	398
883.339	445
883.345	441
883.426	112
883.445	100
883.507	109
883.551	143
883.587	286
883.657	580
883.668	626
883.749	1155
883.763	1114
883.830	774
883.869	816
883.910	698
883.975	171
883.991	120
884.072	279
884.081	279
884.152	448
884.187	394
884.233	309
884.292	510
884.314	523
884.394	473
884.398	459
884.475	-124
884.504	-398
884.555	-144
884.610	297
884.636	206
884.716	-17
884.716	-9
884.797	602
884.821	730
884.877	680
884.927	581
884.958	656
885.033	742
885.038	717
885.118	280
885.139	165
885.199	81
885.244	47
885.279	-21
885.350	-281
885.359	-235
885.439	566
885.456	615
885.520	505
885.561	513
885.600	398
885.667	109
885.680	126
885.760	611
885.773	596
885.840	756
885.878	1015
885.920	755
885.984	304
886.000	354
886.080	363
886.089	399
886.160	619
886.195	551
886.240	658
886.300	1043
886.320	1093
886.400	1206
886.406	1198
886.480	1031
886.511	1015
886.560	1583
886.616	1995
886.640	1793
886.720	1330
886.722	1308
886.800	229
886.827	-111
886.879	108
886.932	272
886.959	400
887.038	639
887.039	642
887.119	517
887.143	429
887.198	700
887.248	971
887.278	1036
887.354	1174
887.358	1172
887.437	990
887.459	902
887.517	810
887.564	820
887.596	742
887.669	533
887.676	521
887.755	227
887.774	165
887.835	-6
887.880	-101
887.914	264
887.985	906
887.994	900
888.073	823
888.090	790
888.153	997
888.195	1171
888.232	1041
888.300	822
888.311	827
888.391	704
888.405	685
888.470	799
888.510	881
888.549	830
888.615	703
888.628	712
888.708	757
888.720	764
888.787	1436
888.825	1764
888.866	1168
888.930	270
888.945	317
889.024	582
889.035	615
889.103	348
889.140	181
889.182	629
889.245	1314
889.261	1182
889.340	525
889.349	449
889.419	843
889.454	1021
889.498	746
889.559	371
889.577	522
889.656	1183
889.664	1245
889.735	1071
889.768	986
889.814	892
889.873	761
889.978	746
890.083	772
890.187	668
890.292	1063
890.397	579
890.501	993
890.606	305
890.710	947
890.815	1287
890.919	972
891.024	778
891.128	1433
891.233	489
891.337	862
891.442	976
891.546	808
891.650	924
891.755	423
891.859	1550
891.963	841
892.068	555
892.172	1042
892.276	982
892.380	907
892.484	342
892.589	802
892.693	2212
892.797	1112
892.901	655
893.005	1025
893.109	803
893.213	1562
893.317	1420
893.421	341
893.525	356
893.629	-25
893.733	538
893.837	550
893.941	853
894.045	620
894.148	1017
894.252	334
894.356	239
894.460	1465
894.564	1200
894.667	175
894.771	559
894.875	1855
894.978	922
895.082	1081
895.186	1146
895.289	750
895.393	618
895.496	1284
895.600	238
895.703	1037
895.807	1287
895.910	832
896.014	498
896.117	1121
896.221	783
896.324	727
896.427	1070
896.531	874
896.634	764
896.737	233
896.840	683
896.944	419
897.047	227
897.150	926
897.253	54
897.356	833
897.460	944
897.563	467
897.666	822
897.769	617
897.872	809
897.975	204
898.078	902
898.181	773
898.284	-80
898.387	677
898.490	1096
898.593	946
898.695	692
898.798	348
898.901	1338
899.004	614
899.107	748
899.209	260
899.312	623
899.415	582
899.518	570
899.620	-333
899.723	-85
899.826	1818
899.928	2060
900.031	846
900.133	1227
900.236	339
900.338	-372
900.441	1097
900.543	-709
900.646	358
900.748	570
900.851	1091
900.953	-148
901.055	1101
901.158	1179
901.260	585
901.362	-217
901.465	261
901.567	-698
901.669	135
901.771	-545
901.873	499
901.976	118
902.078	137
902.180	50
902.282	534
902.384	316
902.486	734
902.588	721
902.690	117
902.792	193
902.894	415
902.996	982
903.098	303
903.200	151
903.302	136
903.404	-357
903.505	90
903.607	59
903.709	1105
903.811	-6
903.913	299
904.014	-397
904.116	24
904.218	442
904.319	49
904.421	548
904.523	999
904.624	556
904.726	715
904.827	-202
904.929	64
905.030	-142
905.132	369
905.233	612
905.335	733
905.436	455
905.537	367
905.639	-75
905.740	356
905.841	470
905.943	815
906.044	69
906.145	105
906.247	561
906.348	-341
906.449	748
906.550	141
906.651	-381
906.752	-268
906.854	-144
906.955	-214
907.056	-654
907.157	499
907.258	276
907.359	496
907.460	-15
907.561	270
907.662	7
907.762	1426
907.863	-365
907.964	538
908.065	238
908.166	-163
908.267	-338
908.367	-76
908.468	-253
908.569	-369
908.670	238
908.770	1049
908.871	349
908.971	955
909.072	650
909.173	-128
909.273	-553
909.374	-226
909.474	-157
909.575	15
909.675	317
909.776	559
909.876	272
909.977	590
910.077	404
910.177	322
910.278	197
910.378	361
910.478	-113
910.579	301
910.679	239
910.779	418
910.879	929
910.980	329
911.080	355
911.180	-472
911.280	476
911.380	-178
911.480	-211
911.580	225
911.680	-362
911.780	-69
911.880	10
911.980	-173
912.080	-306
912.180	432
912.280	438
912.380	-255
912.480	-16
912.580	-228
912.679	-30
912.779	-43
912.879	-277
912.979	-1068
913.078	601
913.178	65
913.278	704
913.377	558
913.477	208
913.577	494
913.676	396
913.776	536
913.875	-925
913.975	407
914.074	-566
914.174	344
914.273	-874
914.373	497
914.472	-440
914.572	122
914.671	-1053
914.770	-345
914.870	84
914.969	116
915.068	-394
915.167	353
915.267	49
915.366	585
915.465	-301
915.564	392
915.663	676
915.763	-27
915.862	385
915.961	75
916.060	-136
916.159	-76
916.258	-317
916.357	50
916.456	100
916.555	-562
916.654	483
916.752	27
916.851	353
916.950	288
917.049	-97
917.148	-326
917.247	2
917.345	666
917.444	612
917.543	508
917.642	91
917.740	666
917.839	974
917.937	703
918.036	668
918.135	458
918.233	-16
918.332	-20
918.430	-479
918.529	1003
918.627	195
918.726	202
918.824	226
918.923	-220
919.021	62
919.119	-188
919.218	267
919.316	424
919.414	-195
919.512	720
919.611	169
919.709	183
919.807	-308
919.905	147
920.003	1095
920.102	881
920.200	-5
920.298	371
920.396	256
920.494	465
920.592	56
920.690	728
920.788	-254
920.886	188
920.984	1088
921.082	170
921.180	33
921.277	905
921.375	414
921.473	1019
921.571	1146
921.669	874
921.766	654
921.864	923
921.962	865
922.060	685
922.157	1039
922.255	1582
922.352	471
922.450	1097
922.548	1222
922.645	1713
922.743	1622
922.840	2151
922.938	2290
923.035	2759
923.133	2165
923.230	2325
923.327	2496
923.425	3756
923.522	2773
923.619	1573
923.717	2174
923.814	2561
923.911	2344
924.008	2546
924.106	2486
924.203	2300
924.300	2357
924.397	1824
924.494	1217
924.591	2699
924.688	2473
924.786	2543
924.883	2196
924.979	2832
925.077	1732
925.173	2250
925.270	2297
925.367	1596
925.464	2834
925.561	2988
925.658	3147
925.755	3140
925.852	2769
925.948	2745
926.045	2316
926.142	2433
926.239	2838
926.335	2281
926.432	2150
926.529	2739
926.625	2052
926.722	2359
926.818	1606
926.915	1937
927.011	1836
927.108	2332
927.204	2096
927.301	2059
927.397	2034
927.494	2537
927.590	1743
927.687	1168
927.783	2246
927.879	2553
927.976	1778
928.072	2485
928.168	1947
928.264	2135
928.361	1468
928.457	1808
928.553	2792
928.649	1296
928.745	2136
928.841	1674
928.937	1250
929.033	2156
929.129	1758
929.225	2213
929.321	1796
929.417	1248
929.513	1333
929.609	1546
929.705	1351
929.801	2273
929.897	1588
929.993	1461
930.089	1909
930.184	1710
930.280	1893
930.376	1936
930.471	1800
930.567	1378
930.663	1658
930.758	1265
930.854	1809
930.950	1081
931.045	1415
931.141	1209
931.236	1963
931.332	1352
931.427	571
931.523	2181
931.618	2283
931.714	1203
931.809	1488
931.905	1317
932.000	1365
932.095	1937
932.191	1569
932.286	2035
932.381	759
932.476	1284
932.572	1459
932.667	1928
932.762	1405
932.857	1610
932.952	1746
933.047	1132
933.142	967
933.237	1465
933.332	975
933.427	2026
933.522	609
933.617	875
933.712	1336
933.807	2509
933.902	1626
933.997	2239
934.092	629
934.187	1174
934.282	1987
934.376	1451
934.471	1603
934.566	1624
934.661	1547
934.755	1902
934.850	1528
934.945	2120
935.039	905
935.134	1566
935.228	896
935.323	2864
935.417	1376
935.512	1152
935.606	687
935.701	787
935.795	1185
935.890	1753
935.984	1554
936.079	1122
936.173	1141
936.267	1201
936.362	733
936.456	823
936.550	1712
936.644	1808
936.738	839
936.833	176
936.927	899
937.021	474
937.115	1652
937.209	1233
937.303	283
937.397	244
937.491	1299
937.585	1631
937.679	778
937.773	762
937.867	1132
937.961	437
938.055	1176
938.149	1972
938.243	1139
938.337	1040
938.430	164
938.524	1287
938.618	1198
938.712	1158
938.805	1239
938.899	567
938.993	1534
939.086	788
939.180	69
939.274	1423
939.367	654
939.461	1063
939.554	621
939.648	1073
939.741	1209
939.835	750
939.928	1552
940.022	1632
940.115	739
940.208	967
940.302	1003
940.395	1491
940.488	1663
940.582	1233
940.675	727
940.768	-51
940.861	361
940.954	1456
941.048	-179
941.141	260
941.234	1505
941.327	2136
941.420	2399
941.513	2427
941.606	1643
941.699	1616
941.792	1595
941.885	768
941.978	530
942.071	724
942.164	900
942.257	450
942.349	124
942.442	673
942.535	477
942.628	975
942.721	1295
942.813	7
942.906	347
942.999	726
943.091	377
943.184	710
943.277	816
943.369	604
943.462	-248
943.554	775
943.647	698
943.739	1450
943.832	1047
943.924	-616
944.017	197
944.109	390
944.201	23
944.294	743
944.386	781
944.478	824
944.571	76
944.663	538
944.755	-245
944.847	1369
944.940	505
945.032	-86
945.124	-595
945.216	206
945.308	21
945.400	952
945.492	1485
945.584	602
945.676	121
945.768	935
945.860	909
945.952	363
946.044	424
946.136	-318
946.228	-120
946.320	-39
946.412	178
946.503	1548
946.595	910
946.687	-392
946.779	278
946.870	-224
946.962	48
947.054	882
947.145	533
947.237	226
947.329	632
947.420	4
947.512	328
947.603	478
947.695	-544
947.786	725
947.878	-258
947.969	647
948.061	22
948.152	158
948.243	-418
948.335	-314
948.426	-605
948.517	-25
948.609	-640
948.700	325
948.791	455
948.882	-629
948.973	-271
949.065	383
949.156	384
949.247	493
949.338	-233
949.429	68
949.520	-223
949.611	-373
949.702	-89
949.793	406
949.884	839
949.975	346
950.066	-850
950.157	-925
950.247	-168
950.338	9
950.429	60
950.520	-486
950.611	279
950.701	119
950.792	-391
950.883	266
950.973	-177
951.064	423
951.155	192
951.245	633
951.336	7
951.427	-311
951.517	263
951.608	287
951.698	-538
951.788	-450
951.879	107
951.969	-712
952.060	-679
952.150	63
952.240	473
952.331	-1366
952.421	516
952.511	73
952.602	-143
952.692	-710
952.782	-308
952.872	-1528
952.962	55
953.052	-427
953.143	79
953.233	455
953.323	61
953.413	88
953.503	-445
953.593	133
953.683	-404
953.773	-68
953.863	-775
953.953	177
954.042	-156
954.132	485
954.222	-388
954.312	-56
954.402	-328
954.492	847
954.581	254
954.671	633
954.761	-206
954.850	724
954.940	-1086
955.030	-602
955.119	-356
955.209	169
955.298	-1087
955.388	386
955.477	479
955.567	-337
955.656	-707
955.746	-216
955.835	-379
955.925	-64
956.014	-711
956.103	-109
956.193	112
956.282	-383
956.371	-160
956.461	-326
956.550	-523
956.639	368
956.728	-942
956.817	-35
956.906	-582
956.995	-235
957.085	-521
957.174	-326
957.263	-366
957.352	-773
957.441	-179
957.530	63
957.619	-350
957.708	-290
957.796	-259
957.885	-556
957.974	-676
958.063	-283
958.152	-1361
958.241	239
958.329	-748
958.418	-325
958.507	-607
958.596	-537
958.684	-187
958.773	-599
958.861	-937
958.950	4
959.039	-35
959.127	-651
959.216	78
959.304	-649
959.393	-706
959.481	-530
959.570	30
959.658	-604
959.746	-417
959.835	467
959.923	739
960.011	303
960.100	-420
960.188	-672
960.276	-314
960.365	-789
960.453	-763
960.541	-652
960.629	-1117
960.717	-19
960.805	-927
960.893	-278
960.981	-291
961.069	379
961.158	-1117
961.245	253
961.333	-736
961.421	-243
961.509	-1018
961.597	-547
961.685	-76
961.773	-998
961.861	-314
961.949	-559
962.036	-900
962.124	-66
962.212	-692
962.299	-798
962.387	-244
962.475	363
962.562	-1155
962.650	-77
962.738	140
962.825	-670
962.913	-731
963.000	-1111
963.088	-446
963.175	-255
963.263	-238
963.350	-325
963.438	20
963.525	-442
963.612	328
963.700	2823
963.787	6694
963.874	4822
963.962	715
964.049	-651
964.136	-204
964.223	-291
964.310	-525
964.398	-466
964.485	-570
964.572	328
964.659	322
964.746	692
964.833	81
964.920	-302
965.007	-423
965.094	29
965.181	-1054
965.268	-396
965.355	-454
965.441	-223
965.528	-944
965.615	-74
965.702	-661
965.789	-665
965.875	-1019
965.962	-612
966.049	-393
966.136	-511
966.222	-295
966.309	-95
966.395	90
966.482	722
966.569	-1165
966.655	-151
966.742	-940
966.828	-759
966.915	-1062
967.001	-421
967.087	-1445
967.174	-148
967.260	-606
967.347	312
967.433	2105
967.519	5285
967.605	2539
967.692	-48
967.778	-508
967.864	-816
967.950	-453
968.036	-1003
968.123	-810
968.209	-409
968.295	-860
968.381	-624
968.467	-301
968.553	-628
968.639	-433
968.725	-341
968.811	1076
968.897	436
968.983	-1329
969.069	-555
969.154	-972
969.240	-66
969.326	-762
969.412	-490
969.497	-258
969.583	-1196
969.669	-50
969.755	-510
969.840	-664
969.926	-124
970.012	-181
970.097	35
970.183	1362
970.268	295
970.354	-75
970.439	579
970.525	2086
970.610	651
970.696	-373
970.781	-256
970.866	-791
970.952	-588
971.037	-499
971.122	-744
971.208	-888
971.293	-369
971.378	-1357
971.463	-575
971.549	-675
971.634	-899
971.719	397
971.804	329
971.889	-306
971.974	-602
972.059	-351
972.144	1
972.229	-185
972.314	-588
972.399	-498
972.484	-367
972.569	-223
972.654	-639
972.739	117
972.824	734
972.908	134
972.993	-618
973.078	-569
973.163	401
973.247	-1220
973.332	-1814
973.417	-1
973.501	-579
973.586	-1239
973.671	-747
973.755	-16
973.840	-190
973.924	-255
974.009	8
974.093	-118
974.178	410
974.262	616
974.346	705
974.431	-102
974.515	-52
974.600	-995
974.684	286
974.768	-1254
974.852	-370
974.937	-790
975.021	-264
975.105	-999
975.189	-1238
975.273	-827
975.358	-1364
975.442	-1808
975.526	-523
975.610	-688
975.694	-926
975.778	-877
975.862	-383
975.946	-1591
976.030	246
976.114	-1301
976.198	-672
976.281	-947
976.365	-45
976.449	-963
976.533	-261
976.617	-345
976.700	-700
976.784	-407
976.868	-643
976.951	-372
977.035	-341
977.119	-842
977.202	-558
977.286	-1373
977.369	-35
977.453	509
977.536	-205
977.620	-1057
977.703	404
977.787	-1474
977.870	-30
977.953	-251
978.037	-1142
978.120	554
978.203	429
978.287	814
978.370	-561
978.453	-1181
978.536	-368
978.620	-953
978.703	179
978.786	-91
978.869	-635
978.952	-1168
979.035	-483
979.118	-1367
979.201	-1590
979.284	-866
979.367	-563
979.450	-1089
979.533	-536
979.616	-380
979.699	-314
979.782	-676
979.865	-643
979.948	-491
980.030	-1179
980.113	-705
980.196	-1774
980.279	-847
980.361	-967
980.444	-1085
980.526	89
980.609	-724
980.692	-205
980.774	-320
980.857	-361
980.939	-247
981.022	-781
981.104	-1018
981.187	-709
981.269	-190
981.352	-889
981.434	-1854
981.516	-288
981.599	157
981.681	-450
981.763	-590
981.846	-1304
981.928	-875
982.010	110
982.092	-593
982.174	-467
982.256	-870
982.339	-257
982.421	-1392
982.503	-983
982.585	-1974
982.667	-802
982.749	-931
982.831	-82
982.913	-852
982.995	-309
983.077	-1128
983.158	134
983.240	-1586
983.322	-161
983.404	-39
983.486	-1015
983.568	-641
983.649	-1152
983.731	-672
983.813	-1141
983.894	-1104
983.976	-1449
984.058	-861
984.139	-277
984.221	-1490
984.302	-104
984.384	-410
984.465	-587
984.547	-703
984.628	-749
984.710	-1049
984.791	-1327
984.872	-247
984.954	-1909
985.035	-726
985.116	-1168
985.198	-1598
985.279	208
985.360	-523
985.441	-716
985.522	-756
985.604	-1059
985.685	-2105
985.766	-422
985.847	-457
985.928	-730
986.009	-648
986.090	-944
986.171	-610
986.252	-780
986.333	-662
986.414	-564
986.495	-613
986.576	-135
986.656	-339
986.737	-577
986.818	-290
986.899	-1050
986.980	-952
987.060	295
987.141	-792
987.222	-1125
987.302	-771
987.383	-31
987.464	-858
987.544	543
987.625	-1363
987.705	-700
987.786	-307
987.866	-110
987.947	-359
988.027	-105
988.108	-881
988.188	-245
988.268	-178
988.349	-96
988.429	-634
988.509	-363
988.589	-896
988.670	-2062
988.750	510
988.830	-1108
988.910	-767
988.990	-326
989.070	-1159
989.151	-578
989.231	-1376
989.311	-1059
989.391	-1119
989.471	-561
989.551	-809
989.631	-956
989.711	-1164
989.791	-429
989.870	-1090
989.950	-493
990.030	-1686
990.110	-418
990.190	-970
990.269	-228
990.349	-1353
990.429	-1237
990.509	-780
990.588	-1721
990.668	-1602
990.747	-863
990.827	-328
990.907	-1232
990.986	-1447
991.066	-609
991.145	-1082
991.225	-648
991.304	-847
991.383	192
991.463	-504
991.542	-793
991.622	-1079
991.701	-1096
991.780	-1264
991.859	-893
991.939	-1150
992.018	-915
992.097	-654
992.176	-362
992.256	-805
992.335	-1305
992.414	-508
992.493	-1060
992.572	-1170
992.651	-473
992.730	-1455
992.809	-682
992.888	-1073
992.967	-1228
993.046	-307
993.125	-1543
993.203	-847
993.282	-691
993.361	-1148
993.440	-1351
993.519	-1730
993.597	-611
993.676	-799
993.755	-884
993.834	-1620
993.912	-1431
993.991	-333
994.069	-1280
994.148	-729
994.226	-1450
994.305	-600
994.384	-840
994.462	28
994.540	-689
994.619	-2037
994.697	-1088
994.776	-1554
994.854	-879
994.932	-1582
995.011	-53
995.089	-1772
995.167	-1513
995.245	-1454
995.324	-1566
995.402	-777
995.480	-867
995.558	-858
995.636	-915
995.714	-1004
995.792	-1277
995.870	-1539
995.948	-676
996.026	-799
996.104	-2062
996.182	-1323
996.260	-336
996.338	-1026
996.416	-1433
996.494	-1396
996.572	-387
996.649	-1101
996.727	-1246
996.805	-772
996.883	-1498
996.960	-2090
997.038	-1057
997.116	-939
997.193	-712
997.271	-987
997.348	-1431
997.426	-1578
997.504	-1458
997.581	-1233
997.658	-1019
997.736	-1661
997.813	-1690
997.891	-1126
997.968	-1106
998.046	-1259
998.123	-2133
998.200	-1687
998.277	-2218
998.355	-1307
998.432	-1767
998.509	-1668
998.586	-1356
998.663	-361
998.741	-1646
998.818	-1406
998.895	-2075
998.972	-2235
999.049	-1331
999.126	-1329
999.203	-1128
999.280	-1975
999.357	-1488
999.434	-1458
999.511	-898
999.587	-1436
999.664	-1468
999.741	-744
999.818	-756
999.895	-1222
999.971	-1534
1000.048	-1487
1000.125	-293
1000.202	-1897
1000.278	-1560
1000.355	-1049
1000.431	-1511
1000.508	-2007
1000.584	-1957
1000.661	-1074
1000.738	-1694
1000.814	-953
1000.890	-1494
1000.967	-2035
1001.043	-1574
1001.120	-2411
1001.196	-666
1001.272	-1397
1001.349	-1461
1001.425	-1345
1001.501	-1177
1001.577	-2223
1001.654	-1151
1001.730	-1758
1001.806	-1348
1001.882	-2224
1001.958	-1330
1002.034	-1531
1002.110	-923
1002.186	-2508
1002.262	-2053
1002.338	-2260
1002.414	-1390
1002.490	-553
1002.566	-1309
1002.642	-1674
1002.718	-1434
1002.794	-2246
1002.870	-2312
1002.945	-1152
1003.021	-541
1003.097	-1948
1003.173	-1417
1003.248	-1063
1003.324	-799
1003.400	-1380
1003.475	-1862
1003.551	-1316
1003.626	-1583
1003.702	-2164
1003.777	-1824
1003.853	-1659
1003.928	-1365
1004.004	-1440
1004.079	-1053
1004.155	-1929
1004.230	-1822
1004.305	-341
1004.381	-1336
1004.456	-1650
1004.531	-1097
1004.607	-1445
1004.682	-1738
1004.757	-1943
1004.832	-1726
1004.907	-1423
1004.982	-1778
1005.057	-1484
1005.133	-1902
1005.208	-1710
1005.283	-1838
1005.358	-1951
1005.433	-2121
1005.508	-1893
1005.583	-2802
1005.657	-863
1005.732	-1279
1005.807	-1943
1005.882	-1467
1005.957	-1459
1006.032	-798
1006.106	-1985
1006.181	-1861
1006.256	-1058
1006.331	-1913
1006.405	-1905
1006.480	-2040
1006.554	-2220
1006.629	-1656
1006.704	-2897
1006.778	-1630
1006.853	-1585
1006.927	-1663
1007.002	-2044
1007.076	-1364
1007.150	-1950
1007.225	-1796
1007.299	-1933
1007.373	-1605
1007.448	-1876
1007.522	-1705
1007.596	-1515
1007.671	-1832
1007.745	-1565
1007.819	-1481
1007.893	-2143
1007.967	-1457
1008.041	-3321
1008.115	-1819
1008.190	-1320
1008.264	-1036
1008.338	-2426
1008.412	-1999
1008.486	-1158
1008.560	-2221
1008.633	-2377
1008.707	-2232
1008.781	-1856
1008.855	-1857
1008.929	-1868
1009.003	-1942
1009.076	-2005
1009.150	-1727
1009.224	-2425
1009.298	-1619
1009.371	-2937
1009.445	-2073
1009.519	-2338
1009.592	-2381
1009.666	-1965
1009.739	-1343
1009.813	-1388
1009.886	-1108
1009.960	-2482
1010.033	-1210
1010.107	-1881
1010.180	-2038
1010.253	-2165
1010.327	-2019
1010.400	-2054
1010.473	-1741
1010.547	-1249
1010.620	-2413
1010.693	-2473
1010.766	-1818
1010.840	-1280
1010.913	-1533
1010.986	-2629
1011.059	-1745
1011.132	-1612
1011.205	-1579
1011.278	-1857
1011.351	-2542
1011.424	-2126
1011.497	-1944
1011.570	-2060
1011.643	-1521
1011.716	-2462
1011.789	-2325
1011.862	-1532
1011.934	-1703
1012.007	-2459
1012.080	-1147
1012.153	-1911
1012.225	-1610
1012.298	-2519
1012.371	-2312
1012.443	-1714
1012.516	-2899
1012.588	-1662
1012.661	-1714
1012.733	-2772
1012.806	-1431
1012.879	-1637
1012.951	-1821
1013.023	-2486
1013.096	-2562
1013.168	-2285
1013.241	-1744
1013.313	-1371
1013.385	-1572
1013.458	-2670
1013.530	-2022
1013.602	-2799
1013.674	-2098
1013.746	-2629
1013.819	-2094
1013.891	-2293
1013.963	-1410
1014.035	-1671
1014.107	-2255
1014.179	-1591
1014.251	-1989
1014.323	-1392
1014.395	-2242
1014.467	-2588
1014.539	-1252
1014.611	-3576
1014.683	-1910
1014.754	-2217
1014.826	-1923
1014.898	-2500
1014.970	-2298
1015.042	-1389
1015.113	-1758
1015.185	-2118
1015.257	-2265
1015.328	-2338
1015.400	-1326
1015.471	-2062
1015.543	-1766
1015.615	-1122
1015.686	-1157
1015.757	-1278
1015.829	-1835
1015.901	-1872
1015.972	-1446
1016.043	-2326
1016.115	-2049
1016.186	-1597
1016.257	-2167
1016.328	-1948
1016.400	-1882
1016.471	-2205
1016.542	-2070
1016.613	-2211
1016.685	-2783
1016.756	-2037
1016.827	-2915
1016.898	-3081
1016.969	-1677
1017.040	-2326
1017.111	-1765
1017.182	-2221
1017.253	-1530
1017.324	-2219
1017.395	-2362
1017.466	-2362
1017.537	-3011
1017.608	-2550
1017.678	-1476
1017.749	-1978
1017.820	-2528
1017.891	-2374
1017.961	-2328
1018.032	-2553
1018.103	-1691
1018.173	-2234
1018.244	-3525
1018.315	-2310
1018.385	-1987
1018.456	-1591
1018.526	-2193
1018.597	-2364
1018.667	-2451
1018.738	-2779
1018.808	-2215
1018.878	-2225
1018.949	-1964
1019.019	-1935
1019.089	-2049
1019.160	-2001
1019.230	-2407
1019.300	-1920
1019.371	-2533
1019.441	-1137
1019.511	-1519
1019.581	-2292
1019.651	-2280
1019.721	-1929
1019.791	-1661
1019.861	-2686
1019.931	-2136
1020.001	-2831
1020.071	-2030
1020.141	-2376
1020.211	-1855
1020.281	-2033
1020.351	-2306
1020.421	-2041
1020.491	-2222
1020.560	-3095
1020.630	-2269
1020.700	-2692
1020.770	-1993
1020.839	-2466
1020.909	-2741
1020.979	-2949
1021.048	-2114
1021.118	-2472
1021.187	-2488
1021.257	-1855
1021.326	-1524
1021.396	-2205
1021.465	-2200
1021.535	-1923
1021.604	-2273
1021.674	-2173
1021.743	-1771
1021.812	-2352
1021.882	-2381
1021.951	-2875
1022.020	-1938
1022.089	-1976
1022.159	-2361
1022.228	-2263
1022.297	-2545
1022.366	-2484
1022.435	-2136
1022.504	-1723
1022.573	-2787
1022.642	-1928
1022.711	-2522
1022.781	-1968
1022.849	-2303
1022.918	-2490
1022.987	-2668
1023.056	-2606
1023.125	-1933
1023.194	-2636
1023.263	-1655
1023.331	-1914
1023.400	-2425
1023.469	-2695
1023.538	-2045
1023.606	-2488
1023.675	-1101
1023.744	-2130
1023.812	-2352
1023.881	-1758
1023.949	-2032
1024.018	-2137
1024.086	-2160
1024.155	-2075
1024.223	-3008
1024.292	-2314
1024.360	-848
1024.429	-1999
1024.497	-2371
1024.565	-1896
1024.634	-2138
1024.702	-1885
1024.770	-2708
1024.838	-2630
1024.907	-2118
1024.975	-3089
1025.043	-2422
1025.111	-2444
1025.179	-2373
1025.247	-2104
1025.315	-1993
1025.383	-1150
1025.451	-1661
1025.519	-2380
1025.587	-1615
1025.655	-2040
1025.723	-2496
1025.791	-2299
1025.859	-1600
1025.927	-2708
1025.995	-2568
1026.062	-2689
1026.130	-2526
1026.198	-2681
1026.266	-2001
1026.333	-2285
1026.401	-1870
1026.469	-2864
1026.536	-1653
1026.604	-1505
1026.671	-2451
1026.739	-2623
1026.806	-2044
1026.874	-1946
1026.941	-1702
1027.009	-2106
1027.076	-2692
1027.144	-1872
1027.211	-3177
1027.278	-2821
1027.345	-1927
1027.413	-2081
1027.480	-2922
1027.547	-2592
1027.614	-2389
1027.682	-2682
1027.749	-2659
1027.816	-2144
1027.883	-1306
1027.950	-2532
1028.017	-3073
1028.084	-1580
1028.151	-3160
1028.218	-2253
1028.285	-2178
1028.352	-2010
1028.419	-2216
1028.486	-2313
1028.553	-2487
1028.619	-2873
1028.686	-1902
1028.753	-2334
1028.820	-2762
1028.886	-2781
1028.953	-1898
1029.020	-1798
1029.086	-2835
1029.153	-2049
1029.220	-2430
1029.286	-2578
1029.353	-1985
1029.419	-2814
1029.486	-1372
1029.552	-2583
1029.619	-2233
1029.685	-2763
1029.751	-1897
1029.818	-2129
1029.884	-3032
1029.951	-1946
1030.017	-1936
1030.083	-2440
1030.149	-2490
1030.216	-2652
1030.282	-2404
1030.348	-2562
1030.414	-2229
1030.480	-2155
1030.546	-2537
1030.612	-2694
1030.678	-2889
1030.744	-2842
1030.810	-2671
1030.876	-2567
1030.942	-2467
1031.008	-2041
1031.074	-1952
1031.140	-2872
1031.206	-1815
1031.272	-2211
1031.337	-2400
1031.403	-1816
1031.469	-2670
1031.534	-3401
1031.600	-1745
1031.666	-2371
1031.731	-2493
1031.797	-2479
1031.863	-1912
1031.928	-3428
1031.994	-2674
1032.059	-2240
1032.125	-2511
1032.190	-1982
1032.256	-2226
1032.321	-2445
1032.386	-3104
1032.452	-1821
1032.517	-2790
1032.582	-2222
1032.647	-2125
1032.713	-2336
1032.778	-2063
1032.843	-2140
1032.908	-2092
1032.974	-2274
1033.039	-2672
1033.104	-1744
1033.169	-2729
1033.234	-3043
1033.299	-1094
1033.364	-2490
1033.429	-1842
1033.494	-1917
1033.559	-3024
1033.624	-2555
1033.688	-1759
1033.753	-2613
1033.818	-1943
1033.883	-1874
1033.948	-1970
1034.013	-1627
1034.077	-1631
1034.142	-1379
1034.207	-1214
1034.271	-836
1034.336	-589
1034.400	138
1034.465	-387
1034.530	-623
1034.594	-1274
1034.658	-1610
1034.723	-2701
1034.787	-3118
1034.852	-2528
1034.916	-2710
1034.981	-2491
1035.045	-2446
1035.109	-2695
1035.173	-1902
1035.238	-1591
1035.302	-2394
1035.366	-2176
1035.430	-2775
1035.495	-2662
1035.559	-2142
1035.623	-2024
1035.687	-2228
1035.751	-1943
1035.815	-1933
1035.879	-2374
1035.943	-2519
1036.007	-2419
1036.071	-1896
1036.135	-2253
1036.198	-2557
1036.262	-2747
1036.326	-2316
1036.390	-2410
1036.454	-1117
1036.517	-1566
1036.581	-1258
1036.645	-1256
1036.709	302
1036.772	-1725
1036.836	-1325
1036.900	-1697
1036.963	-2745
1037.026	-2054
1037.090	-2011
1037.154	-1664
1037.217	-2596
1037.280	-2543
1037.344	-2619
1037.407	-2405
1037.471	-2831
1037.534	-2119
1037.597	-2171
1037.661	-2486
1037.724	-3128
1037.787	-1520
1037.850	-2521
1037.913	-2127
1037.977	-1855
1038.040	-1796
1038.103	-2235
1038.166	-2438
1038.229	-2502
1038.292	-2728
1038.355	-2345
1038.418	-2460
1038.481	-1953
1038.544	-2490
1038.607	-1859
1038.670	-2445
1038.732	-2176
1038.795	-2716
1038.858	-3021
1038.921	-1985
1038.984	-2753
1039.046	-2244
1039.109	-2344
1039.172	-2404
1039.234	-2216
1039.297	-3086
1039.360	-2410
1039.422	-2092
1039.485	-3145
1039.547	-3006
1039.610	-2971
1039.672	-2168
1039.734	-2908
1039.797	-2727
1039.859	-2156
1039.922	-2220
1039.984	-2538
1040.046	-2431
1040.109	-2341
1040.171	-2598
1040.233	-2461
1040.295	-2084
1040.358	-1938
1040.420	-2300
1040.482	-2838
1040.544	-2206
1040.606	-2913
1040.668	-2731
1040.730	-2547
1040.792	-2337
1040.854	-2284
1040.916	-2773
1040.978	-2724
1041.040	-2066
1041.102	-2253
1041.164	-3019
1041.225	-1425
1041.287	-1709
1041.349	-3344
1041.411	-3062
1041.472	-2242
1041.534	-2207
1041.596	-2485
1041.657	-1774
1041.719	-2799
1041.781	-2108
1041.842	-3331
1041.904	-1863
1041.965	-3100
1042.027	-2508
1042.088	-2610
1042.150	-1421
1042.211	-1958
1042.272	-2395
1042.334	-2494
1042.395	-2193
1042.456	-3127
1042.518	-2032
1042.579	-2592
1042.640	-2651
1042.701	-2072
1042.763	-2150
1042.824	-2526
1042.885	-1726
1042.946	-2872
1043.007	-2303
1043.068	-1471
1043.129	-2078
1043.190	-2542
1043.251	-2169
1043.312	-2345
1043.373	-2520
1043.434	-2412
1043.495	-2328
1043.556	-1563
1043.616	-2756
1043.677	-2440
1043.738	-1792
1043.799	-2819
1043.859	-2355
1043.920	-1822
1043.981	-2905
1044.041	-2517
1044.102	-2259
1044.162	-2050
1044.223	-2169
1044.284	-1973
1044.344	-2326
1044.405	-1570
1044.465	-2289
1044.525	-2978
1044.586	-2463
1044.646	-1542
1044.707	-2221
1044.767	-2600
1044.827	-1996
1044.887	-2832
1044.948	-2113
1045.008	-1999
1045.068	-1666
1045.128	-2484
1045.188	-2306
1045.249	-1813
1045.309	-2853
1045.369	-1917
1045.429	-1942
1045.489	-2528
1045.549	-2285
1045.609	-2515
1045.669	-2381
1045.729	-1678
1045.789	-2591
1045.848	-2635
1045.908	-2192
1045.968	-2898
1046.028	-2126
1046.088	-1244
1046.147	-1735
1046.207	-1816
1046.267	-1482
1046.326	-1378
1046.386	-2289
1046.446	-1282
1046.505	-1188
1046.565	-1730
1046.624	-2036
1046.684	-1284
1046.743	-1818
1046.803	-822
1046.862	-795
1046.922	0
