'Start Wavelength	183.907
'End Wavelength	1046.922
'Gate Delay	5.000
'Gate Width (ms)	1.050
'Laser Output Level	0.000
'X Position	0.000
'Y Position	0.000
'Z Position	0.000
'Grid Point Number	1.000
'Shot Number	100.000
183.907	394.000
183.977	-47.000
184.047	357
184.116	985
184.186	-78
184.256	-467
184.325	561
184.395	603
184.465	1095
184.534	236
184.604	310
184.674	-766
184.743	136
184.813	247
184.883	746
184.952	627
185.022	686
185.092	741
185.161	164
185.231	834
185.301	767
185.370	18
185.440	286
185.509	-360
185.579	594
185.649	574
185.718	776
185.788	743
185.857	349
185.927	92
185.996	83
186.066	324
186.136	836
186.205	790
186.275	885
186.344	430
186.414	293
186.483	60
186.553	1032
186.622	1624
186.692	172
186.761	165
186.831	743
186.900	175
186.970	605
187.039	420
187.109	977
187.178	441
187.248	841
187.317	492
187.387	830
187.456	713
187.526	801
187.595	208
187.664	1099
187.734	878
187.803	288
187.873	407
187.942	164
188.012	320
188.081	1067
188.150	538
188.220	1181
188.289	814
188.358	932
188.428	1400
188.497	773
188.567	442
188.636	657
188.705	373
188.775	1220
188.844	814
188.913	1006
188.983	401
189.052	196
189.121	961
189.191	823
189.260	926
189.329	311
189.399	587
189.468	487
189.537	523
189.606	761
189.676	1207
189.745	956
189.814	810
189.883	431
189.953	1140
190.022	966
190.091	857
190.161	1294
190.230	933
190.299	911
190.368	144
190.437	698
190.507	306
190.576	1039
190.645	870
190.714	729
190.783	315
190.853	445
190.922	465
190.991	806
191.060	775
191.129	161
191.198	319
191.268	280
191.337	690
191.406	1785
191.475	1037
191.544	1071
191.613	1059
191.682	811
191.752	724
191.821	367
191.890	601
191.959	524
192.028	396
192.097	318
192.166	677
192.235	506
192.304	9
192.373	488
192.442	329
192.511	634
192.580	995
192.650	79
192.719	1216
192.788	540
192.857	390
192.926	1115
192.995	724
193.064	1228
193.133	1089
193.202	581
193.271	668
193.340	589
193.409	1269
193.478	1117
193.547	1816
193.615	636
193.684	1722
193.753	947
193.822	1126
193.891	214
193.960	440
194.029	118
194.098	634
194.167	1145
194.236	1235
194.305	1156
194.374	452
194.443	726
194.512	1037
194.580	565
194.649	1001
194.718	1358
194.787	115
194.856	375
194.925	653
194.994	542
195.062	1486
195.131	1242
195.200	800
195.269	824
195.338	821
195.407	1151
195.475	122
195.544	1125
195.613	497
195.682	360
195.751	710
195.819	891
195.888	592
195.957	1526
196.026	1132
196.094	1302
196.163	1564
196.232	1222
196.301	1071
196.369	841
196.438	756
196.507	542
196.576	732
196.644	312
196.713	347
196.782	39
196.850	1286
196.919	838
196.988	-23
197.056	627
197.125	351
197.194	947
197.262	704
197.331	545
197.400	491
197.468	361
197.537	948
197.606	701
197.674	1761
197.743	1179
197.812	1218
197.880	1406
197.949	1029
198.017	1088
198.086	950
198.155	735
198.223	488
198.292	1138
198.360	973
198.429	654
198.497	151
198.566	1730
198.635	1110
198.703	785
198.772	158
198.840	1029
198.909	1021
198.977	926
199.046	616
199.114	845
199.183	1347
199.251	718
199.320	812
199.388	372
199.457	235
199.525	895
199.594	947
199.662	1245
199.731	855
199.799	1201
199.867	1567
199.936	589
200.004	940
200.073	962
200.141	1029
200.210	1343
200.278	681
200.346	1720
200.415	1855
200.483	1541
200.552	916
200.620	959
200.688	1194
200.757	441
200.825	1014
200.893	896
200.962	256
201.030	1024
201.098	812
201.167	765
201.235	1311
201.303	777
201.372	801
201.440	1035
201.508	1818
201.577	1422
201.645	1107
201.713	754
201.781	1630
201.850	1174
201.918	1445
201.986	1165
202.055	1139
202.123	237
202.191	1554
202.259	476
202.327	624
202.396	1133
202.464	1454
202.532	1715
202.600	3475
202.669	1726
202.737	870
202.805	844
202.873	1309
202.941	745
203.009	492
203.078	1624
203.146	927
203.214	123
203.282	177
203.350	794
203.418	756
203.487	434
203.555	510
203.623	561
203.691	1052
203.759	1082
203.827	868
203.895	1856
203.963	1009
204.031	1694
204.099	2121
204.168	379
204.236	780
204.304	1384
204.372	826
204.440	630
204.508	873
204.576	-128
204.644	347
204.712	1378
204.780	1962
204.848	644
204.916	760
204.984	628
205.052	979
205.120	880
205.188	959
205.256	1127
205.324	260
205.392	965
205.460	1098
205.528	1509
205.596	956
205.664	777
205.732	861
205.799	1694
205.867	1856
205.935	699
206.003	650
206.071	1739
206.139	232
206.207	966
206.275	1161
206.343	804
206.411	689
206.478	517
206.546	804
206.614	435
206.682	1056
206.750	1071
206.818	1633
206.885	1701
206.953	776
207.021	978
207.089	924
207.157	1308
207.225	349
207.292	577
207.360	942
207.428	1359
207.496	535
207.563	1190
207.631	1010
207.699	1809
207.767	859
207.834	837
207.902	870
207.970	943
208.038	1351
208.105	483
208.173	1040
208.241	844
208.309	1067
208.376	1628
208.444	1602
208.512	1184
208.579	584
208.647	2077
208.715	350
208.782	1098
208.850	991
208.918	1157
208.985	1061
209.053	947
209.120	262
209.188	513
209.256	1458
209.323	1194
209.391	1588
209.459	851
209.526	883
209.594	1192
209.661	1436
209.729	792
209.796	1133
209.864	1529
209.932	1167
209.999	1152
210.067	1497
210.134	1258
210.202	1149
210.269	1639
210.337	2901
210.404	1164
210.472	1924
210.539	1233
210.607	1890
210.674	987
210.742	926
210.809	1317
210.877	1554
210.944	1588
211.012	1568
211.079	737
211.146	1440
211.214	2018
211.281	2448
211.349	1190
211.416	1628
211.484	1120
211.551	875
211.618	1364
211.686	1404
211.753	847
211.821	1008
211.888	1752
211.955	1682
212.023	1071
212.090	1559
212.157	1352
212.225	1254
212.292	1822
212.359	2796
212.427	4271
212.494	2064
212.561	2114
212.629	1171
212.696	683
212.763	1326
212.831	1265
212.898	1171
212.965	601
213.032	872
213.100	1705
213.167	1357
213.234	1701
213.301	1211
213.369	813
213.436	530
213.503	1422
213.570	1024
213.638	813
213.705	1526
213.772	1318
213.839	1937
213.906	1636
213.973	1915
214.041	729
214.108	807
214.175	1082
214.242	729
214.309	1483
214.376	1255
214.444	1288
214.511	1578
214.578	1033
214.645	1917
214.712	2062
214.779	1551
214.846	1075
214.913	2458
214.980	1994
215.048	3226
215.115	2636
215.182	2223
215.249	1865
215.316	1423
215.383	971
215.450	1204
215.517	1335
215.584	1372
215.651	1536
215.718	1181
215.785	1291
215.852	1752
215.919	1944
215.986	1376
216.053	1011
216.120	996
216.187	1287
216.254	1715
216.321	1207
216.388	1399
216.455	1578
216.522	1104
216.589	1893
216.656	2612
216.722	1910
216.789	2172
216.856	1403
216.923	2056
216.990	1433
217.057	1642
217.124	1813
217.191	1989
217.258	1918
217.324	2125
217.391	1966
217.458	2754
217.525	1950
217.592	1363
217.659	948
217.725	909
217.792	2368
217.859	1739
217.926	1262
217.993	1272
218.059	1363
218.126	921
218.193	1087
218.260	1038
218.327	1442
218.393	827
218.460	708
218.527	1110
218.594	1230
218.660	2033
218.727	1455
218.794	1167
218.860	1066
218.927	767
218.994	1164
219.061	418
219.127	1299
219.194	1756
219.261	566
219.327	832
219.394	1044
219.461	695
219.527	1233
219.594	1208
219.661	788
219.727	648
219.794	1112
219.860	859
219.927	1815
219.994	4711
220.060	5312
220.127	3602
220.193	2764
220.260	1540
220.326	2336
220.393	3403
220.460	2874
220.526	2035
220.593	1083
220.659	1719
220.726	2123
220.792	3104
220.859	4007
220.925	5054
220.992	5380
221.058	4977
221.125	3828
221.191	2690
221.258	1699
221.324	1264
221.391	1248
221.457	1112
221.524	1190
221.590	2054
221.657	3824
221.723	1217
221.789	2045
221.856	2106
221.922	1517
221.989	864
222.055	1027
222.121	2196
222.188	2821
222.254	1212
222.321	1237
222.387	986
222.453	1289
222.520	1363
222.586	1021
222.652	1713
222.719	949
222.785	513
222.851	809
222.918	322
222.984	881
223.050	1023
223.116	693
223.183	592
223.249	374
223.315	645
223.382	81
223.448	622
223.514	-48
223.580	446
223.647	720
223.713	620
223.779	272
223.845	276
223.911	700
223.978	1185
224.044	438
224.110	321
224.176	747
224.242	717
224.309	1113
224.375	520
224.441	1109
224.507	423
224.573	1176
224.639	288
224.705	566
224.772	829
224.838	936
224.904	975
224.970	686
225.036	942
225.102	895
225.168	1369
225.234	799
225.300	441
225.366	769
225.432	1066
225.499	1417
225.565	1088
225.631	823
225.697	1146
225.763	1301
225.829	1224
225.895	2213
225.961	1131
226.027	1331
226.093	1246
226.159	2242
226.225	3882
226.291	8913
226.357	7966
226.423	3592
226.489	3109
226.554	2415
226.620	2284
226.686	3040
226.752	4231
226.818	9015
226.884	14780
226.950	7557
227.016	3626
227.082	3320
227.148	2720
227.214	1610
227.279	2412
227.345	2210
227.411	3291
227.477	6434
227.543	9750
227.609	8098
227.674	4464
227.740	2936
227.806	2483
227.872	2107
227.938	1681
228.003	2218
228.069	809
228.135	1346
228.201	981
228.267	806
228.332	1217
228.398	1809
228.464	552
228.530	371
228.595	4
228.661	937
228.727	1359
228.792	1209
228.858	940
228.924	1091
228.990	2017
229.055	520
229.121	485
229.187	977
229.252	1170
229.318	606
229.384	872
229.449	1008
229.515	897
229.581	104
229.646	798
229.712	1716
229.777	3552
229.843	1483
229.909	1949
229.974	1799
230.040	1770
230.105	1292
230.171	1387
230.236	1450
230.302	2394
230.368	1999
230.433	1051
230.499	719
230.564	1093
230.630	591
230.695	489
230.761	986
230.826	630
230.892	1549
230.957	980
231.023	1003
231.088	1213
231.154	568
231.219	559
231.284	1302
231.350	628
231.415	46
231.481	1102
231.546	1078
231.612	363
231.677	341
231.742	461
231.808	941
231.873	1462
231.939	-128
232.004	2113
232.069	1061
232.135	789
232.200	312
232.265	724
232.331	669
232.396	351
232.461	770
232.527	83
232.592	165
232.657	1279
232.723	698
232.788	1077
232.853	1136
232.918	511
232.984	1061
233.049	736
233.114	1326
233.179	1854
233.245	2637
233.310	484
233.375	262
233.440	167
233.506	936
233.571	374
233.636	648
233.701	902
233.766	1849
233.832	542
233.897	323
233.962	757
234.027	1335
234.092	1296
234.157	1042
234.222	1501
234.288	2314
234.353	3788
234.418	2943
234.483	1021
234.548	1536
234.613	1262
234.678	1456
234.743	1521
234.808	3619
234.873	1045
234.938	1505
235.004	1379
235.069	1014
235.134	721
235.199	1704
235.264	881
235.329	532
235.394	919
235.459	2026
235.524	1332
235.589	1456
235.654	1107
235.719	847
235.784	123
235.849	1229
235.913	1308
235.978	2531
236.043	1368
236.108	1098
236.173	1160
236.238	618
236.303	666
236.368	907
236.433	2167
236.498	2038
236.563	2215
236.627	8112
236.692	19056
236.757	7786
236.822	3804
236.887	3434
236.952	1969
237.017	2282
237.081	2154
237.146	4108
237.211	8888
237.276	23507
237.341	20794
237.405	6995
237.470	3370
237.535	2567
237.600	2418
237.664	1069
237.729	1491
237.794	3090
237.859	3820
237.923	1723
237.988	661
238.053	2058
238.118	2941
238.182	6486
238.247	2233
238.312	2529
238.376	1656
238.441	823
238.506	915
238.570	722
238.635	1233
238.700	932
238.764	1161
238.829	2524
238.893	1412
238.958	3132
239.023	1068
239.087	1060
239.152	1983
239.216	1929
239.281	1500
239.346	1347
239.410	1358
239.475	1071
239.539	5525
239.604	2628
239.668	2770
239.733	4609
239.797	12305
239.862	17869
239.926	10183
239.991	4055
240.055	2515
240.120	2044
240.184	2284
240.249	1186
240.313	1641
240.378	1116
240.442	4261
240.507	2837
240.571	1074
240.635	3036
240.700	1661
240.764	1657
240.829	1446
240.893	384
240.957	1143
241.022	3961
241.086	3110
241.151	1187
241.215	752
241.279	2354
241.344	1161
241.408	1735
241.472	1367
241.537	1172
241.601	1370
241.665	612
241.730	1664
241.794	831
241.858	890
241.922	1375
241.987	1413
242.051	636
242.115	1067
242.179	1054
242.244	645
242.308	1684
242.372	1865
242.436	1868
242.501	875
242.565	801
242.629	1104
242.693	1207
242.757	1487
242.822	898
242.886	1314
242.950	806
243.014	304
243.078	1342
243.142	1051
243.206	508
243.271	677
243.335	1286
243.399	2155
243.463	10563
243.527	11013
243.591	3454
243.655	1574
243.719	754
243.783	2134
243.847	2398
243.911	2896
243.975	4727
244.040	1753
244.104	1593
244.168	1333
244.232	3179
244.296	2382
244.360	2262
244.424	1445
244.488	1327
244.552	1376
244.615	795
244.679	1278
244.743	2344
244.807	1986
244.871	1053
244.935	522
244.999	624
245.063	990
245.127	1448
245.191	1887
245.255	1877
245.319	2465
245.383	1350
245.446	1308
245.510	670
245.574	1589
245.638	1021
245.702	2028
245.766	3656
245.829	2283
245.893	1556
245.957	1335
246.021	2369
246.085	1796
246.149	2297
246.212	7280
246.276	5904
246.340	2151
246.404	2297
246.467	3680
246.531	3143
246.595	2302
246.659	2440
246.722	1450
246.786	2674
246.850	3850
246.913	2618
246.977	1734
247.041	1508
247.104	1459
247.168	2992
247.232	8049
247.295	8753
247.359	3530
247.423	3239
247.486	4331
247.550	2141
247.614	2928
247.677	2131
247.741	1973
247.804	1922
247.868	2775
247.932	6983
247.995	7030
248.059	2549
248.122	2084
248.186	3015
248.249	8093
248.313	18899
248.376	14877
248.440	6953
248.503	3118
248.567	4343
248.630	5486
248.694	6429
248.757	11105
248.821	14933
248.884	7895
248.948	11146
249.011	15160
249.075	20577
249.138	11157
249.202	5353
249.265	3563
249.328	3749
249.392	3209
249.455	2873
249.519	2660
249.582	4158
249.645	5523
249.709	3088
249.772	2661
249.835	2151
249.899	2332
249.962	2585
250.025	2008
250.089	9108
250.152	6181
250.215	3590
250.279	2593
250.342	2610
250.405	2228
250.468	2491
250.532	3260
250.595	6558
250.658	22365
250.721	15329
250.785	6369
250.848	5035
250.911	2332
250.974	3306
251.038	7565
251.101	7153
251.164	3688
251.227	4701
251.290	3993
251.354	8491
251.417	25360
251.480	11089
251.543	19343
251.606	39417
251.669	14844
251.732	9328
251.795	13155
251.859	14129
251.922	22631
251.985	7379
252.048	4531
252.111	3702
252.174	5212
252.237	14259
252.300	16738
252.363	24924
252.426	25519
252.489	8682
252.552	5511
252.615	4133
252.678	7903
252.741	14514
252.804	22404
252.867	28435
252.930	15925
252.993	8442
253.056	6712
253.119	3952
253.182	2941
253.245	4832
253.308	4526
253.371	5131
253.434	3779
253.497	5796
253.559	9426
253.622	5263
253.685	8649
253.748	5031
253.811	4231
253.874	4697
253.937	3314
254.000	3699
254.062	9364
254.125	7778
254.188	10572
254.251	4693
254.314	4282
254.376	8083
254.439	6772
254.502	5684
254.565	10406
254.628	9563
254.690	5629
254.753	2857
254.816	2612
254.878	3323
254.941	9100
255.004	4609
255.067	3678
255.129	3638
255.192	2079
255.255	2139
255.317	2748
255.380	1997
255.443	2362
255.505	1855
255.568	1246
255.631	2566
255.693	2725
255.756	1538
255.819	2680
255.881	2277
255.944	1446
256.006	1922
256.069	1872
256.132	1666
256.194	2834
256.257	3999
256.319	3318
256.382	4172
256.444	3564
256.507	2671
256.569	2065
256.632	2574
256.694	3241
256.757	17847
256.819	21240
256.882	5808
256.944	3594
257.007	4095
257.069	3091
257.132	2119
257.194	2089
257.257	4157
257.319	2285
257.381	3869
257.444	13150
257.506	40119
257.569	27095
257.631	16218
257.693	6927
257.756	3473
257.818	3084
257.880	2460
257.943	1810
258.005	2061
258.067	2249
258.130	1781
258.192	3133
258.254	3706
258.317	2486
258.379	4926
258.441	10680
258.503	3942
258.566	7245
258.628	4239
258.690	2095
258.753	3899
258.815	4012
258.877	2207
258.939	1935
259.001	2179
259.064	1739
259.126	2537
259.188	2733
259.250	4170
259.312	7544
259.375	13128
259.437	4368
259.499	3300
259.561	4701
259.623	2736
259.685	1590
259.747	2578
259.809	7565
259.872	7737
259.934	16050
259.996	7538
260.058	2646
260.120	2679
260.182	1562
260.244	2029
260.306	1985
260.368	1814
260.430	1997
260.492	5697
260.554	13357
260.616	6382
260.678	12204
260.740	5978
260.802	3129
260.864	3185
260.926	2286
260.988	2277
261.050	2957
261.112	6138
261.174	10964
261.236	4648
261.298	2799
261.359	5242
261.421	4420
261.483	2712
261.545	1663
261.607	2018
261.669	2551
261.731	5073
261.793	6383
261.854	2943
261.916	3640
261.978	2680
262.040	2472
262.102	2632
262.164	2982
262.225	1274
262.287	3823
262.349	7313
262.411	3947
262.472	2625
262.534	5110
262.596	3490
262.658	2356
262.719	1747
262.781	3787
262.843	4852
262.904	2582
262.966	2349
263.028	3462
263.090	16619
263.151	14316
263.213	7095
263.275	5102
263.336	2246
263.398	2216
263.459	2015
263.521	3291
263.583	6271
263.644	2722
263.706	2104
263.767	1622
263.829	1937
263.891	1660
263.952	1524
264.014	1438
264.075	3446
264.137	3776
264.198	2389
264.260	1486
264.321	1951
264.383	6691
264.444	4874
264.506	2090
264.567	2380
264.629	4706
264.690	4603
264.752	3078
264.813	2588
264.875	1490
264.936	1444
264.998	1966
265.059	3552
265.120	2432
265.182	5706
265.243	17829
265.305	7203
265.366	2920
265.427	2887
265.489	2669
265.550	1780
265.611	3171
265.673	2502
265.734	1673
265.795	1935
265.857	1636
265.918	2000
265.979	9179
266.040	27700
266.102	9221
266.163	5751
266.224	4404
266.286	2773
266.347	2107
266.408	2787
266.469	2443
266.530	2071
266.592	2182
266.653	5916
266.714	4667
266.775	2645
266.836	2471
266.898	2461
266.959	2877
267.020	2464
267.081	2298
267.142	3271
267.203	2419
267.264	2552
267.326	2987
267.387	2425
267.448	2584
267.509	2593
267.570	1631
267.631	1735
267.692	1293
267.753	2276
267.814	2171
267.875	6499
267.936	5756
267.997	3522
268.058	2877
268.119	2306
268.180	2344
268.241	1435
268.302	1999
268.363	1750
268.424	1972
268.485	1077
268.546	1234
268.607	1455
268.668	2053
268.729	1621
268.790	999
268.851	1909
268.912	6769
268.972	4326
269.033	2185
269.094	1342
269.155	2279
269.216	1035
269.277	1153
269.338	2056
269.398	1891
269.459	1803
269.520	3179
269.581	3473
269.642	3080
269.702	2455
269.763	2576
269.824	1933
269.885	3237
269.945	3462
270.006	2297
270.067	1194
270.128	1853
270.188	2129
270.249	1593
270.310	1468
270.370	2037
270.431	1640
270.492	1308
270.553	2587
270.613	4900
270.674	6220
270.734	2535
270.795	1957
270.856	3484
270.916	1473
270.977	2674
271.038	2957
271.098	2480
271.159	4626
271.219	2479
271.280	1951
271.340	1385
271.401	2386
271.462	2814
271.522	2039
271.583	2374
271.643	2066
271.704	1565
271.764	3250
271.825	8629
271.885	23851
271.946	14025
272.006	7079
272.066	16531
272.127	15258
272.187	9511
272.248	4955
272.308	6822
272.369	11574
272.429	5880
272.489	6973
272.550	4927
272.610	6776
272.671	3806
272.731	4510
272.791	5606
272.852	3941
272.912	4521
272.972	3193
273.033	3393
273.093	3563
273.153	3946
273.214	3681
273.274	4572
273.334	16781
273.394	13419
273.455	7214
273.515	13297
273.575	13199
273.635	7629
273.696	15434
273.756	13756
273.816	6538
273.876	5920
273.936	10577
273.997	7012
274.057	4104
274.117	3953
274.177	9852
274.237	22564
274.297	9394
274.358	10821
274.418	13821
274.478	7232
274.538	3567
274.598	5026
274.658	8508
274.718	6331
274.778	4417
274.838	3727
274.898	7667
274.958	11592
275.018	15062
275.078	6642
275.138	3316
275.198	2827
275.258	2588
275.318	4203
275.378	6301
275.438	5163
275.498	4345
275.558	9865
275.618	14916
275.678	7548
275.738	8012
275.798	4601
275.858	2971
275.918	2012
275.978	3443
276.038	2853
276.098	3928
276.157	8656
276.217	10027
276.277	5740
276.337	3566
276.397	3362
276.457	4187
276.517	3156
276.576	2385
276.636	2868
276.696	4667
276.756	8746
276.815	4435
276.875	4001
276.935	4330
276.995	2946
277.055	3694
277.114	4000
277.174	7778
277.234	8831
277.293	3659
277.353	2711
277.413	2817
277.472	3380
277.532	3623
277.592	6723
277.651	26749
277.711	16400
277.771	14866
277.830	35303
277.890	15992
277.950	33368
278.009	37372
278.069	14282
278.128	30900
278.188	20571
278.248	20623
278.307	33592
278.367	10808
278.426	6207
278.486	4307
278.545	3374
278.605	3704
278.664	3928
278.724	4597
278.783	13830
278.843	12953
278.902	5269
278.962	5398
279.021	6432
279.081	8358
279.140	6789
279.199	6415
279.259	7201
279.318	8240
279.378	12413
279.437	30869
279.496	79396
279.556	121908
279.615	52951
279.675	23542
279.734	20087
279.793	37162
279.853	32885
279.912	12670
279.971	11940
280.031	12192
280.090	28407
280.149	24042
280.208	37903
280.268	97143
280.327	44818
280.386	18260
280.445	16962
280.505	9698
280.564	7538
280.623	6238
280.682	10847
280.742	7927
280.801	4855
280.860	4184
280.919	4755
280.978	4527
281.037	3676
281.097	4418
281.156	5310
281.215	3988
281.274	6951
281.333	14976
281.392	5886
281.451	3945
281.510	3918
281.569	3497
281.628	2589
281.688	4344
281.747	4516
281.806	3793
281.865	2945
281.924	3167
281.983	3190
282.042	2288
282.101	3108
282.160	3282
282.219	3517
282.278	5401
282.337	8831
282.396	4770
282.454	4368
282.513	7475
282.572	12024
282.631	4661
282.690	4981
282.749	3657
282.808	4751
282.867	4300
282.926	3563
282.985	3123
283.043	3508
283.102	4425
283.161	4884
283.220	10880
283.279	9930
283.338	5178
283.396	4248
283.455	4995
283.514	5772
283.573	6414
283.631	4586
283.690	4920
283.749	4994
283.808	9341
283.866	6359
283.925	5826
283.984	7213
284.043	7078
284.101	6031
284.160	6738
284.219	7229
284.277	7793
284.336	13463
284.395	21027
284.453	12938
284.512	12843
284.570	14768
284.629	15579
284.688	18125
284.746	20428
284.805	25853
284.863	32677
284.922	41102
284.981	53111
285.039	76843
285.098	109640
285.156	108858
285.215	67675
285.273	105353
285.332	115436
285.390	87124
285.449	63922
285.507	47642
285.566	37555
285.624	28656
285.683	23927
285.741	19250
285.799	16345
285.858	14460
285.916	12520
285.975	10555
286.033	9479
286.091	9059
286.150	8245
286.208	7683
286.267	7979
286.325	7815
286.383	8689
286.442	6756
286.500	5603
286.558	6096
286.616	5433
286.675	6214
286.733	4688
286.791	4795
286.850	5698
286.908	6909
286.966	6142
287.024	4240
287.083	4222
287.141	4134
287.199	5065
287.257	5689
287.315	5012
287.374	5468
287.432	7689
287.490	4465
287.548	4431
287.606	3951
287.664	4093
287.723	5146
287.781	4315
287.839	3406
287.897	3912
287.955	4524
288.013	6039
288.071	11829
288.129	54363
288.187	60246
288.245	17390
288.303	8213
288.361	7006
288.419	6261
288.477	5026
288.535	3912
288.593	3119
288.651	3418
288.709	2435
288.767	3100
288.825	3072
288.883	2935
288.941	2667
288.999	2508
289.057	2675
289.115	2724
289.173	2835
289.231	2600
289.289	2052
289.346	2856
289.404	4290
289.462	4198
289.520	4330
289.578	2931
289.636	2619
289.694	2022
289.751	2786
289.809	3405
289.867	2395
289.925	3715
289.983	2654
290.040	2834
290.098	2851
290.156	4081
290.214	3572
290.271	2887
290.329	3297
290.387	3286
290.444	2356
290.502	2270
290.560	2159
290.617	2434
290.675	3051
290.733	2869
290.790	2769
290.848	2720
290.906	2854
290.963	1557
291.021	3230
291.078	2429
291.136	3420
291.194	9494
291.251	7028
291.309	3440
291.366	3345
291.424	3834
291.481	3295
291.539	4567
291.596	3701
291.654	1777
291.711	2504
291.769	3710
291.826	4168
291.884	2227
291.941	2522
291.999	2341
292.056	3238
292.114	2776
292.171	3144
292.228	4313
292.286	4385
292.343	4874
292.401	4282
292.458	3359
292.515	4962
292.573	4877
292.630	3388
292.687	2859
292.745	2642
292.802	4173
292.859	9478
292.917	12137
292.974	5412
293.031	3656
293.089	2980
293.146	2768
293.203	2971
293.260	3186
293.318	4662
293.375	3745
293.432	3234
293.489	3220
293.546	2448
293.604	5025
293.661	15390
293.718	15161
293.775	7709
293.832	8248
293.889	9720
293.947	9688
294.004	5948
294.061	6562
294.118	11062
294.175	14302
294.232	11594
294.289	6061
294.346	3494
294.403	4335
294.460	3322
294.517	3477
294.574	3511
294.631	3459
294.688	4211
294.745	11587
294.802	21372
294.859	12862
294.916	10075
294.973	5730
295.030	4907
295.087	4143
295.144	2678
295.201	2744
295.258	2921
295.315	5237
295.372	13281
295.429	10323
295.486	5495
295.542	4532
295.599	10583
295.656	10090
295.713	12714
295.770	10004
295.827	4615
295.883	4196
295.940	3989
295.997	5859
296.054	3878
296.111	2384
296.167	2265
296.224	2703
296.281	2862
296.338	2303
296.394	2959
296.451	3456
296.508	10397
296.564	9796
296.621	10224
296.678	22229
296.734	14355
296.791	6254
296.848	5079
296.904	7998
296.961	14335
297.018	16092
297.074	7480
297.131	4677
297.187	5150
297.244	8457
297.301	25845
297.357	18006
297.414	6795
297.470	4070
297.527	3893
297.583	3677
297.640	3363
297.696	2989
297.753	2511
297.809	2574
297.866	2973
297.922	2671
297.979	2322
298.035	3101
298.092	6865
298.148	10826
298.204	6128
298.261	4586
298.317	13853
298.374	16921
298.430	7451
298.486	4604
298.543	3737
298.599	3907
298.656	5297
298.712	8562
298.768	10138
298.824	5765
298.881	3988
298.937	3455
298.993	3885
299.050	4038
299.106	3699
299.162	3233
299.218	3433
299.275	3631
299.331	4359
299.387	12559
299.443	28448
299.500	27648
299.556	12734
299.612	7864
299.668	12946
299.724	25346
299.780	14219
299.837	8683
299.893	14216
299.949	33352
300.005	26494
300.061	31891
300.117	28405
300.173	11228
300.229	8381
300.285	8755
300.341	7635
300.397	4069
300.453	3756
300.510	4289
300.566	6885
300.622	16453
300.678	41968
300.734	30840
300.790	23082
300.845	21165
300.901	29673
300.957	28339
301.013	12766
301.069	7460
301.125	6875
301.181	5270
301.237	4564
301.293	3532
301.349	4028
301.405	2979
301.461	2899
301.516	4203
301.572	4530
301.628	6171
301.684	5736
301.740	9875
301.796	9481
301.851	9378
301.907	12682
301.963	13382
302.019	31350
302.074	49104
302.130	32008
302.186	13376
302.242	8032
302.297	6334
302.353	8933
302.409	11831
302.464	7847
302.520	11510
302.576	20347
302.631	16754
302.687	8008
302.743	4734
302.798	4668
302.854	3281
302.910	4156
302.965	5294
303.021	7067
303.076	7135
303.132	9790
303.187	7760
303.243	4557
303.299	3715
303.354	3215
303.410	2581
303.465	2849
303.521	2915
303.576	3584
303.632	4640
303.687	10044
303.743	16738
303.798	8509
303.853	5484
303.909	4665
303.964	4904
304.020	6831
304.075	7206
304.130	9071
304.186	12643
304.241	11133
304.297	8546
304.352	5949
304.358	5944
304.407	5907
304.449	6987
304.463	7356
304.518	5951
304.539	5386
304.573	4497
304.629	5801
304.630	5860
304.684	8605
304.720	14101
304.739	16902
304.794	14092
304.811	11864
304.850	6497
304.902	4031
304.905	3880
304.960	3439
304.992	3487
305.015	3513
305.071	3399
305.083	3284
305.126	2884
305.173	2140
305.181	2018
305.236	2200
305.264	2363
305.292	2516
305.347	3771
305.354	3813
305.402	4144
305.445	5007
305.457	5235
305.512	4559
305.535	4328
305.567	3975
305.622	4676
305.626	4917
305.678	9449
305.716	15663
305.733	18037
305.788	12950
305.807	12614
305.843	12104
305.897	15638
305.898	15682
305.953	11382
305.988	8281
306.008	6480
306.063	4852
306.078	4427
306.118	3401
306.168	3071
306.173	3060
306.228	2633
306.259	2537
306.283	2414
306.338	2553
306.349	2556
306.393	2669
306.440	3035
306.448	3080
306.503	2930
306.530	3346
306.558	3991
306.613	6945
306.620	7326
306.668	10183
306.711	13569
306.723	14127
306.778	9057
306.801	7440
306.833	5267
306.888	3726
306.892	3612
306.943	2971
306.982	3303
306.997	3404
307.052	3506
307.072	3381
307.107	3125
307.162	3161
307.163	3152
307.217	2347
307.253	3480
307.272	4056
307.327	4288
307.343	4161
307.381	3755
307.434	3938
307.436	3994
307.491	7126
307.524	9794
307.546	11067
307.600	9644
307.614	8860
307.655	5784
307.704	3684
307.710	3577
307.765	3698
307.795	4240
307.819	4820
307.874	6135
307.885	6167
307.929	5672
307.975	5698
307.984	5888
308.038	8199
308.065	11500
308.093	17955
308.148	40058
308.156	44231
308.202	70092
308.246	71184
308.257	66205
308.312	33755
308.336	23846
308.366	19196
308.421	12249
308.426	11813
308.475	9083
308.517	7026
308.530	6546
308.585	5619
308.607	5553
308.639	5483
308.694	5378
308.697	5403
308.748	6726
308.787	7745
308.803	7739
308.857	7141
308.877	7012
308.912	7192
308.967	8437
308.967	8492
309.021	13074
309.058	17568
309.076	20920
309.130	33550
309.148	39089
309.185	60256
309.238	99296
309.239	99681
309.293	110118
309.328	103563
309.348	88362
309.402	47238
309.418	37197
309.457	27749
309.508	19754
309.511	19629
309.566	21932
309.598	25566
309.620	30614
309.674	46227
309.688	49077
309.729	48464
309.778	41127
309.783	39794
309.837	25427
309.868	19094
309.892	18049
309.946	18618
309.959	19090
310.001	21970
310.049	22709
310.055	21829
310.109	12933
310.139	8936
310.163	7415
310.218	4969
310.229	4579
310.272	4058
310.319	3609
310.326	3534
310.381	3544
310.409	3383
310.435	3043
310.489	2535
310.499	2445
310.543	2572
310.589	2817
310.598	2778
310.652	2657
310.679	2532
310.706	2459
310.760	2482
310.769	2443
310.814	2292
310.859	2361
310.868	2401
310.923	2678
310.948	2814
310.977	2694
311.031	2447
311.038	2402
311.085	2333
311.128	2374
311.139	2369
311.193	2327
311.218	2287
311.247	2291
311.301	2489
311.308	2488
311.356	2082
311.398	1875
311.410	1916
311.464	1997
311.488	2116
311.518	2083
311.572	1931
311.578	1925
311.626	2755
311.668	3506
311.680	3330
311.734	2477
311.758	2114
311.788	2292
311.842	2630
311.847	2674
311.896	2724
311.937	2786
311.950	2822
312.004	2989
312.027	3067
312.058	2396
312.112	1220
312.117	1113
312.165	1216
312.207	1327
312.297	2424
312.386	2333
312.476	2071
312.566	3550
312.656	1913
312.745	2550
312.835	2223
312.925	2980
313.015	2591
313.104	3187
313.194	2923
313.284	2681
313.374	2938
313.463	2991
313.553	2679
313.643	2412
313.732	2934
313.822	3479
313.912	3306
314.001	4148
314.091	4429
314.180	3512
314.270	4024
314.360	4747
314.449	4163
314.539	3069
314.628	2847
314.718	3204
314.808	3836
314.897	3924
314.987	4256
315.076	4265
315.166	4934
315.255	3949
315.345	4266
315.434	3613
315.524	3335
315.613	4609
315.703	4800
315.792	10777
315.881	33457
315.971	14469
316.060	6251
316.150	5219
316.239	4793
316.328	4007
316.418	3748
316.507	3294
316.597	4911
316.686	4470
316.775	4556
316.865	4976
316.954	4307
317.043	3852
317.133	3161
317.222	3212
317.311	2540
317.400	2446
317.490	3931
317.579	3920
317.668	3470
317.757	6635
317.847	16249
317.936	54446
318.025	22349
318.114	14547
318.203	8309
318.293	5275
318.382	7692
318.471	8742
318.560	9025
318.649	12319
318.738	5697
318.828	3362
318.917	3118
319.006	2881
319.095	5466
319.184	13692
319.273	9593
319.362	5696
319.451	2548
319.540	2709
319.629	4621
319.718	6599
319.807	3680
319.896	6409
319.985	16543
320.074	8459
320.163	2792
320.252	3247
320.341	3164
320.430	3288
320.519	4057
320.608	4096
320.697	4114
320.786	4690
320.875	5534
320.964	5775
321.053	7161
321.142	8463
321.230	10225
321.319	9857
321.408	14031
321.497	11051
321.586	9004
321.675	6382
321.764	7174
321.852	6441
321.941	8601
322.030	7316
322.119	7930
322.207	13023
322.296	11048
322.385	10321
322.474	13271
322.562	19807
322.651	13905
322.740	11034
322.829	14363
322.917	7964
323.006	6610
323.095	7362
323.183	4937
323.272	5119
323.361	6315
323.449	12795
323.538	6458
323.626	11018
323.715	8698
323.804	4470
323.892	7580
323.981	7387
324.069	3844
324.158	4635
324.246	5619
324.335	4200
324.424	5731
324.512	3868
324.601	3577
324.689	5000
324.778	6543
324.866	6900
324.954	3101
325.043	3366
325.131	3478
325.220	5254
325.308	5686
325.397	4405
325.485	3746
325.574	3714
325.662	3896
325.750	2583
325.839	3479
325.927	2790
326.015	3897
326.104	2812
326.192	2347
326.280	2725
326.369	2527
326.457	3386
326.545	4636
326.634	3320
326.722	2512
326.810	3180
326.898	3532
326.987	3918
327.075	4211
327.163	4630
327.251	2749
327.340	5004
327.428	5087
327.516	5171
327.604	3316
327.692	3202
327.781	2772
327.869	2971
327.957	3061
328.045	3136
328.133	2836
328.221	2279
328.309	2036
328.397	2830
328.485	3706
328.574	5080
328.662	10473
328.750	6303
328.838	3077
328.926	2503
329.014	2548
329.102	2623
329.190	4164
329.278	3824
329.366	2808
329.454	2575
329.542	2331
329.630	2658
329.718	2350
329.806	3172
329.893	2538
329.981	2193
330.069	3404
330.157	8989
330.245	23577
330.333	14757
330.421	3240
330.509	3699
330.597	8058
330.684	6286
330.772	2904
330.860	3041
330.948	3842
331.036	3701
331.123	2612
331.211	2697
331.299	2614
331.387	3382
331.475	5148
331.562	2577
331.650	2858
331.738	2908
331.825	2899
331.913	2610
332.001	2005
332.089	2908
332.176	3129
332.264	3906
332.352	4538
332.439	3345
332.527	2796
332.614	2471
332.702	1950
332.790	2922
332.877	3297
332.965	7344
333.052	6262
333.140	6128
333.228	13522
333.315	5489
333.403	2846
333.490	3918
333.578	6255
333.665	19033
333.753	10979
333.840	3915
333.928	4022
334.015	4730
334.103	8028
334.190	18374
334.278	11463
334.365	12967
334.452	12187
334.540	8426
334.627	7476
334.715	9157
334.802	13061
334.889	27493
334.977	39703
335.064	23024
335.151	10683
335.239	7526
335.326	6087
335.413	11509
335.501	15879
335.588	7062
335.675	6988
335.762	8421
335.850	10508
335.937	15200
336.024	24938
336.111	49379
336.199	45886
336.286	18990
336.373	10266
336.460	6960
336.547	5788
336.635	5781
336.722	4192
336.809	4000
336.896	4047
336.983	7494
337.070	13095
337.157	19110
337.245	10122
337.332	8335
337.419	3868
337.506	4050
337.593	3422
337.680	5143
337.767	11363
337.854	5655
337.941	4646
338.028	4756
338.115	3635
338.202	3137
338.289	4582
338.376	7963
338.463	4977
338.550	6654
338.637	7931
338.724	3027
338.811	4319
338.898	2851
338.984	2406
339.071	2528
339.158	3105
339.245	4599
339.332	4011
339.419	3099
339.506	3912
339.593	2386
339.679	2830
339.766	2316
339.853	2490
339.940	4552
340.027	2441
340.113	2942
340.200	3115
340.287	2743
340.374	2953
340.460	4523
340.547	2761
340.634	3533
340.720	8880
340.807	7221
340.894	2636
340.980	2802
341.067	2467
341.154	2474
341.240	2524
341.327	5937
341.414	2858
341.500	2958
341.587	2996
341.674	2623
341.760	3485
341.847	5107
341.933	2416
342.020	2965
342.106	2602
342.193	2765
342.279	3450
342.366	3303
342.452	3725
342.539	3159
342.625	4200
342.712	10121
342.798	5614
342.885	3223
342.971	1843
343.058	2379
343.144	2307
343.230	2837
343.317	2479
343.403	2265
343.490	2222
343.576	2192
343.662	2352
343.749	2684
343.835	2940
343.921	3651
344.008	18006
344.094	44956
344.180	13356
344.267	5394
344.353	11831
344.439	13144
344.525	5392
344.612	3367
344.698	3516
344.784	3392
344.870	2259
344.957	1964
345.043	3679
345.129	2735
345.215	3921
345.301	2897
345.387	2186
345.474	2440
345.560	1864
345.646	2697
345.732	2035
345.818	2252
345.904	2269
345.990	2751
346.076	2770
346.162	2941
346.249	2888
346.335	2499
346.421	2729
346.507	6303
346.593	17835
346.679	6509
346.765	2881
346.851	5273
346.937	3776
347.023	3185
347.108	3092
347.194	3325
347.280	3212
347.366	3466
347.452	11294
347.538	27264
347.624	18116
347.710	13413
347.796	3575
347.882	3049
347.967	2617
348.053	2993
348.139	2996
348.225	2414
348.311	2223
348.397	2814
348.482	2767
348.568	4275
348.654	4121
348.740	11697
348.825	12850
348.911	5911
348.997	10750
349.083	20542
349.168	5600
349.254	2693
349.340	2822
349.425	3083
349.511	3357
349.597	3492
349.682	5594
349.768	13284
349.854	8347
349.939	3483
350.025	2610
350.110	2978
350.196	3219
350.282	3177
350.367	2034
350.453	2349
350.538	2940
350.624	2595
350.709	3548
350.795	3131
350.880	3074
350.966	3567
351.051	3224
351.137	2468
351.222	3045
351.308	4626
351.393	10681
351.479	4539
351.564	1966
351.649	2414
351.735	3110
351.820	2618
351.906	2795
351.991	2956
352.076	6855
352.162	10778
352.247	4061
352.332	2681
352.418	3478
352.503	3926
352.588	13270
352.673	12776
352.759	4182
352.844	3108
352.929	2674
353.014	3263
353.100	3289
353.185	10795
353.270	8260
353.355	4565
353.441	2701
353.526	2790
353.611	3768
353.696	4647
353.781	3896
353.866	2639
353.952	2976
354.037	4274
354.122	7194
354.207	6613
354.292	3905
354.377	3152
354.462	2110
354.547	3147
354.632	3129
354.717	5881
354.802	13599
354.887	6580
354.972	2740
355.057	2356
355.142	2284
355.227	3013
355.312	3379
355.397	5397
355.482	9544
355.567	6949
355.652	4447
355.737	5844
355.822	13428
355.907	14049
355.991	4446
356.076	3564
356.161	2384
356.246	3195
356.331	2844
356.416	5273
356.501	21984
356.585	26474
356.670	5317
356.755	4544
356.840	5302
356.924	22442
357.009	59455
357.094	26552
357.179	5570
357.263	4972
357.348	4108
357.433	4483
357.517	4559
357.602	4361
357.687	3954
357.771	7083
357.856	9023
357.941	6275
358.025	11574
358.110	51342
358.195	30229
358.279	6194
358.364	4590
358.448	8879
358.533	22693
358.617	19897
358.702	19941
358.787	8876
358.871	5116
358.956	5167
359.040	3825
359.125	3730
359.209	3361
359.294	4516
359.378	8004
359.462	5642
359.547	4270
359.631	2715
359.716	2323
359.800	3516
359.885	3810
359.969	3096
360.053	3153
360.138	2925
360.222	2653
360.306	4549
360.391	4332
360.475	5182
360.559	9483
360.644	8526
360.728	9372
360.812	13721
360.896	36888
360.981	16205
361.065	8789
361.149	4302
361.233	3045
361.318	4290
361.402	4713
361.486	4500
361.570	3876
361.654	4349
361.739	7122
361.823	20962
361.907	39148
361.991	12090
362.075	7130
362.159	10039
362.243	14032
362.327	30330
362.411	51281
362.495	23125
362.580	10125
362.664	8087
362.748	8907
362.832	12740
362.916	24499
363.000	74629
363.084	133431
363.168	84952
363.252	24436
363.336	10448
363.420	8635
363.503	15809
363.587	20521
363.671	8069
363.755	6738
363.839	8327
363.923	8131
364.007	10136
364.091	12355
364.175	16815
364.258	44839
364.342	91456
364.426	174540
364.510	108471
364.594	29745
364.677	16670
364.761	33201
364.845	28911
364.929	10030
365.013	8102
365.096	6340
365.180	7964
365.264	8220
365.347	22156
365.431	13230
365.515	4163
365.598	4094
365.682	4501
365.766	4099
365.849	5543
365.933	4081
366.017	4981
366.100	3822
366.184	3688
366.267	4194
366.351	3707
366.435	3750
366.518	3967
366.602	3667
366.685	3653
366.769	3277
366.852	4028
366.936	5544
367.019	5441
367.103	4319
367.186	5839
367.270	4015
367.353	4216
367.436	4797
367.520	4862
367.603	5581
367.687	5248
367.770	6123
367.853	5035
367.937	9554
368.020	17182
368.104	6790
368.187	4840
368.270	6883
368.353	6238
368.437	5039
368.520	6850
368.603	6539
368.687	10182
368.770	20308
368.853	7145
368.936	4686
369.020	5642
369.103	3567
369.186	3874
369.269	3577
369.352	4770
369.436	5152
369.519	4072
369.602	2634
369.685	3649
369.768	3793
369.851	3594
369.934	3352
370.018	3947
370.101	4860
370.184	5471
370.267	4088
370.350	5148
370.433	6854
370.516	18388
370.599	33235
370.682	15521
370.765	11973
370.848	14495
370.931	24407
371.014	13113
371.097	5402
371.180	5022
371.263	4003
371.346	4034
371.429	4399
371.511	4512
371.594	5516
371.677	5945
371.760	6592
371.843	7343
371.926	20521
372.009	47210
372.091	22926
372.174	12971
372.257	25664
372.340	16327
372.423	9324
372.505	9568
372.588	5994
372.671	9273
372.754	23951
372.836	17285
372.919	8510
373.002	14160
373.085	8153
373.167	7535
373.250	11476
373.332	24732
373.415	29785
373.498	61761
373.580	30469
373.663	39216
373.746	59823
373.828	16019
373.911	7370
373.993	5203
374.076	11979
374.159	12610
374.241	8528
374.324	18937
374.406	16672
374.489	18068
374.571	48994
374.654	27042
374.736	12478
374.819	30586
374.901	43229
374.983	51832
375.066	14353
375.148	7114
375.231	11989
375.313	20358
375.395	11772
375.478	6684
375.560	6253
375.643	6353
375.725	10911
375.807	37783
375.890	31713
375.972	9517
376.054	7060
376.136	6655
376.219	5703
376.301	11951
376.383	33258
376.465	18585
376.548	7581
376.630	10681
376.712	27484
376.794	17963
376.877	5210
376.959	3148
377.041	3228
377.123	3978
377.205	5065
377.287	3918
377.369	3204
377.452	4892
377.534	3494
377.616	4125
377.698	4025
377.780	4665
377.862	3132
377.944	4309
378.026	3703
378.108	3446
378.190	3266
378.272	3871
378.354	3639
378.436	3564
378.518	4006
378.600	6933
378.682	6786
378.764	13205
378.846	13146
378.928	4685
379.010	6334
379.091	5501
379.173	3679
379.255	2960
379.337	4551
379.419	7546
379.501	19738
379.583	12130
379.664	4938
379.746	6093
379.828	13109
379.910	19549
379.991	18238
380.073	6367
380.155	4006
380.237	3779
380.318	3808
380.400	3513
380.482	4093
380.564	7032
380.645	9766
380.727	10662
380.809	4868
380.890	4410
380.972	4645
381.053	5031
381.135	5051
381.217	6928
381.298	14705
381.380	9846
381.461	7115
381.543	25144
381.624	37736
381.706	11484
381.787	6300
381.869	6727
381.951	13032
382.032	46168
382.113	37038
382.195	10134
382.276	9029
382.358	16377
382.439	29882
382.521	32572
382.602	50693
382.684	28293
382.765	38862
382.846	65910
382.928	135034
383.009	96708
383.090	53751
383.172	153260
383.253	260894
383.334	108584
383.416	59233
383.497	40240
383.578	25831
383.659	42788
383.741	130029
383.822	319163
383.903	215132
383.984	62635
384.066	56806
384.147	40226
384.228	15773
384.309	12084
384.390	11161
384.471	10002
384.553	9225
384.634	8592
384.715	8884
384.796	6571
384.877	7770
384.958	14731
385.039	19357
385.120	10342
385.201	6336
385.282	6823
385.363	6870
385.444	8278
385.525	10536
385.606	22531
385.687	24131
385.768	9809
385.849	8090
385.930	21865
386.011	41543
386.092	18553
386.173	7324
386.254	5970
386.335	6004
386.416	6294
386.496	10221
386.577	16007
386.658	8793
386.739	6748
386.820	6881
386.901	6037
386.981	6268
387.062	7875
387.143	9701
387.224	17531
387.304	20158
387.385	12594
387.466	10086
387.547	10410
387.627	11144
387.708	12901
387.789	26859
387.869	35290
387.950	15608
388.031	7564
388.111	5676
388.192	8305
388.273	8514
388.353	7536
388.434	5866
388.514	7364
388.595	22951
388.676	33667
388.756	17215
388.837	13255
388.917	11099
388.998	4898
389.078	4732
389.159	5004
389.239	4336
389.320	5821
389.400	3801
389.480	7254
389.561	16254
389.641	12781
389.722	5486
389.802	6670
389.883	8629
389.963	19198
390.043	14715
390.124	5753
390.204	6258
390.284	14047
390.365	12114
390.445	7700
390.525	13788
390.605	14663
390.686	10753
390.766	8070
390.846	5788
390.927	4708
391.007	4001
391.087	6118
391.167	7408
391.247	6259
391.328	6048
391.408	6155
391.488	5897
391.568	4889
391.648	5817
391.728	7473
391.808	6686
391.888	7945
391.969	11473
392.049	17877
392.129	12084
392.209	11001
392.289	21986
392.369	17450
392.449	12430
392.529	11225
392.609	11716
392.689	14800
392.769	26068
392.849	29329
392.929	24935
393.009	41585
393.089	51657
393.169	73172
393.248	174451
393.328	421810
393.408	500983
393.488	250417
393.568	94034
393.648	47397
393.728	29607
393.807	21054
393.887	17704
393.967	14315
394.047	13056
394.127	12271
394.206	12520
394.286	25096
394.366	99623
394.446	136309
394.525	38624
394.605	11100
394.685	8696
394.764	10910
394.844	19991
394.924	24726
395.003	11217
395.083	7080
395.163	6420
395.242	6695
395.322	5849
395.402	5785
395.481	7341
395.561	10197
395.640	26268
395.720	47319
395.799	33377
395.879	19404
395.958	13296
396.038	30243
396.117	127103
396.197	178018
396.276	56813
396.356	20110
396.435	17878
396.515	20143
396.594	28018
396.673	54973
396.753	158522
396.832	392868
396.912	361409
396.991	130633
397.070	46052
397.150	24910
397.229	20359
397.308	32441
397.388	65336
397.467	37705
397.546	13047
397.625	8591
397.705	8442
397.784	8013
397.863	6962
397.942	5827
398.022	5871
398.101	6816
398.180	14073
398.259	10715
398.338	6587
398.417	5588
398.497	4552
398.576	4821
398.655	3253
398.734	4138
398.813	4015
398.892	6642
398.971	13119
399.050	10610
399.129	3801
399.208	3341
399.287	3055
399.366	3132
399.445	2684
399.524	3345
399.603	2460
399.682	4330
399.761	6181
399.840	14971
399.919	14493
399.998	4305
400.077	2858
400.156	1616
400.235	3820
400.313	2935
400.392	2446
400.471	7341
400.550	12113
400.629	5598
400.708	3494
400.786	2620
400.865	2834
400.944	4169
401.023	3564
401.102	2246
401.180	2382
401.259	2231
401.338	2925
401.416	2571
401.495	2121
401.574	2500
401.652	1788
401.731	2293
401.810	4436
401.888	3210
401.967	2568
402.046	3724
402.124	3651
402.203	3222
402.281	2831
402.360	4573
402.438	5438
402.517	4332
402.596	2463
402.674	2664
402.753	2119
402.831	2457
402.910	3176
402.988	11772
403.066	39954
403.145	31798
403.223	14593
403.302	38102
403.380	34968
403.459	34925
403.537	18895
403.615	6845
403.694	3452
403.772	4041
403.850	2860
403.929	2703
404.007	1626
404.085	7893
404.164	12213
404.242	5250
404.320	3813
404.398	9637
404.477	12442
404.555	31731
404.633	37495
404.711	12660
404.789	5936
404.868	4789
404.946	3526
405.024	2957
405.102	1931
405.180	2025
405.258	1570
405.336	2168
405.415	1342
405.493	4071
405.571	6830
405.649	3256
405.727	2392
405.805	3732
405.883	4943
405.961	4195
406.039	2481
406.117	2661
406.195	3065
406.273	6489
406.351	26213
406.429	22493
406.507	4342
406.585	1969
406.663	1717
406.740	2340
406.818	2765
406.896	2018
406.974	2252
407.052	3268
407.130	13846
407.208	25692
407.285	7541
407.363	2401
407.441	2274
407.519	2107
407.596	3152
407.674	9900
407.752	43418
407.830	47415
407.907	11977
407.985	5223
408.063	2333
408.141	1683
408.218	3008
408.296	4681
408.373	5599
408.451	4433
408.529	3209
408.606	2772
408.684	2547
408.762	2548
408.839	2471
408.917	2311
408.994	3486
409.072	3266
409.149	4465
409.227	7521
409.304	11526
409.382	12475
409.459	13520
409.537	18368
409.614	16426
409.692	13012
409.769	11987
409.846	18985
409.924	23112
410.001	18193
410.079	11713
410.156	8966
410.233	6465
410.311	4770
410.388	3797
410.465	4374
410.543	4678
410.620	4643
410.697	4189
410.775	4668
410.852	4377
410.929	5422
411.006	4811
411.083	3923
411.161	4072
411.238	4787
411.315	4598
411.392	2387
411.469	3726
411.547	3496
411.624	2635
411.701	2467
411.778	2529
411.855	3551
411.932	2731
412.009	2414
412.086	1562
412.163	2516
412.240	2645
412.317	3007
412.394	2638
412.471	2527
412.548	1907
412.625	2492
412.702	2302
412.779	2767
412.856	2607
412.933	2003
413.010	1838
413.087	2536
413.164	6200
413.241	9931
413.318	3119
413.395	3286
413.471	2648
413.548	2889
413.625	1483
413.702	1776
413.779	1654
413.855	1938
413.932	1346
414.009	1272
414.086	1849
414.162	1559
414.239	1861
414.316	5943
414.393	12480
414.469	7139
414.546	2220
414.623	1534
414.699	1134
414.776	1846
414.853	1546
414.929	1606
415.006	1562
415.082	1931
415.159	2032
415.236	1841
415.312	1354
415.389	1895
415.465	3214
415.542	1732
415.618	1409
415.695	3171
415.771	1940
415.848	2290
415.924	1332
416.000	1517
416.077	1796
416.153	1169
416.230	948
416.306	1429
416.383	1184
416.459	2219
416.535	383
416.612	1241
416.688	1467
416.764	2046
416.841	1095
416.917	1542
416.993	1100
417.069	1840
417.146	1302
417.222	1413
417.298	1525
417.374	1270
417.451	1657
417.527	1760
417.603	1780
417.679	1770
417.755	1265
417.831	1020
417.908	874
417.984	1016
418.060	1104
418.136	2414
418.212	2625
418.288	2710
418.364	2191
418.440	1106
418.516	1703
418.592	2460
418.668	2779
418.744	4198
418.820	4535
418.896	2038
418.972	1284
419.048	1975
419.124	2823
419.200	2616
419.276	2039
419.352	1428
419.428	1876
419.504	2101
419.579	1837
419.655	2702
419.731	2611
419.807	3749
419.883	5202
419.959	4907
420.034	3302
420.110	3464
420.186	8274
420.262	10374
420.337	4326
420.413	3244
420.489	3606
420.565	3724
420.640	3317
420.716	4495
420.792	3114
420.867	4739
420.943	3971
421.019	5656
421.094	5425
421.170	5897
421.245	5250
421.321	7085
421.397	7215
421.472	13153
421.548	34849
421.623	32111
421.699	14240
421.774	11959
421.850	11938
421.925	15119
422.001	18049
422.076	20925
422.152	26647
422.227	34891
422.302	48338
422.378	68670
422.453	111671
422.529	190947
422.604	275853
422.679	263407
422.755	286341
422.830	247859
422.905	149195
422.981	93627
423.056	63183
423.131	46774
423.207	34303
423.282	27661
423.357	23970
423.432	20049
423.508	17920
423.583	17332
423.658	15485
423.733	12274
423.808	11471
423.883	10423
423.959	11302
424.034	12478
424.109	12227
424.184	8524
424.259	6566
424.334	6483
424.409	4565
424.484	5457
424.559	5209
424.634	3927
424.709	4353
424.784	4606
424.859	4151
424.934	3457
425.009	6903
425.084	11051
425.159	8318
425.234	3605
425.309	2931
425.384	4053
425.459	4140
425.534	2883
425.609	2933
425.683	3142
425.758	2601
425.833	3039
425.908	3023
425.983	4345
426.058	10390
426.132	7298
426.207	2327
426.282	3013
426.357	1821
426.431	2386
426.506	2417
426.581	1745
426.655	2970
426.730	2375
426.805	2250
426.879	2703
426.954	1527
427.029	2666
427.103	8286
427.178	23909
427.253	16955
427.327	3767
427.402	1451
427.476	3457
427.551	2620
427.625	2599
427.700	2490
427.774	1886
427.849	1739
427.923	2410
427.998	2166
428.072	2682
428.147	5701
428.221	21045
428.296	84259
428.370	73779
428.444	13348
428.519	5130
428.593	5193
428.667	4717
428.742	4330
428.816	8617
428.890	41510
428.965	94964
429.039	38749
429.113	7983
429.188	3614
429.262	3363
429.336	3318
429.410	5321
429.485	5439
429.559	3551
429.633	3565
429.707	3332
429.781	7956
429.855	40068
429.930	87940
430.004	36785
430.078	15378
430.152	29976
430.226	98351
430.300	143358
430.374	44255
430.448	9643
430.522	7154
430.596	12207
430.670	17645
430.744	60670
430.818	106723
430.892	33609
430.966	4880
431.040	3092
431.114	2003
431.188	1706
431.262	2567
431.336	1760
431.410	2270
431.484	3558
431.557	3633
431.631	2370
431.705	4237
431.779	15809
431.853	74069
431.927	83255
432.000	17000
432.074	4123
432.148	2227
432.222	2287
432.295	931
432.369	1087
432.443	841
432.516	6093
432.590	23093
432.664	15044
432.737	1769
432.811	803
432.885	806
432.958	696
433.032	637
433.106	1076
433.179	-24
433.253	849
433.326	234
433.400	153
433.473	624
433.547	207
433.620	722
433.694	817
433.767	1855
433.841	-100
433.914	1167
433.988	1193
434.061	807
434.134	79
434.208	1045
434.281	584
434.355	471
434.428	939
434.501	653
434.575	512
434.648	1053
434.721	325
434.795	607
434.868	323
434.941	945
435.014	1058
435.088	920
435.161	2222
435.234	2854
435.307	3368
435.381	3169
435.454	5157
435.527	8459
435.600	11031
435.673	9004
435.746	6221
435.819	3815
435.892	3904
435.966	2395
436.039	1819
436.112	2082
436.185	1012
436.258	975
436.331	335
436.404	1168
436.477	931
436.550	929
436.623	820
436.696	188
436.769	1188
436.842	1193
436.915	1195
436.987	1216
437.060	756
437.133	536
437.206	281
437.279	552
437.352	669
437.425	103
437.498	823
437.570	1643
437.643	2815
437.716	1091
437.789	1058
437.861	805
437.934	1520
438.007	1311
438.080	1659
438.152	645
438.225	1703
438.298	8214
438.370	34010
438.443	24078
438.516	4710
438.588	1467
438.661	496
438.734	1706
438.806	1330
438.879	1503
438.951	1536
439.024	1491
439.096	1636
439.169	693
439.241	1153
439.314	-9
439.386	974
439.459	1231
439.531	1416
439.604	1334
439.676	753
439.749	748
439.821	549
439.893	504
439.966	350
440.038	690
440.110	589
440.183	516
440.255	533
440.327	1863
440.400	2952
440.472	17478
440.544	20411
440.617	4946
440.689	2760
440.761	1342
440.833	2135
440.905	3170
440.978	1504
441.050	967
441.122	1664
441.194	629
441.266	937
441.338	405
441.411	1480
441.483	4230
441.555	11115
441.627	5418
441.699	1698
441.771	1657
441.843	1758
441.915	1631
441.987	2313
442.059	1452
442.131	2629
442.203	2293
442.275	3039
442.347	5440
442.419	10406
442.491	43483
442.563	140779
442.635	95133
442.706	21599
442.778	9284
442.850	5875
442.922	3602
442.994	3388
443.066	3870
443.137	4433
443.209	5321
443.281	7947
443.353	15529
443.425	49249
443.496	181778
443.568	255855
443.640	143989
443.711	38027
443.783	12297
443.855	6594
443.926	4424
443.998	3980
444.070	3415
444.141	4036
444.213	4046
444.285	3917
444.356	3848
444.428	2799
444.499	2170
444.571	2079
444.642	2258
444.714	3032
444.785	3490
444.857	3404
444.928	4329
445.000	5315
445.071	4526
445.143	7625
445.214	10439
445.285	13872
445.357	30203
445.428	100068
445.500	257836
445.571	236406
445.642	171988
445.714	73373
445.785	24317
445.856	10769
445.928	7063
445.999	5052
446.070	4040
446.141	3810
446.213	3974
446.284	4083
446.355	2070
446.426	2269
446.497	1668
446.569	1844
446.640	1811
446.711	2257
446.782	937
446.853	1027
446.924	1029
446.995	1722
447.066	1145
447.138	1558
447.209	1275
447.280	214
447.351	734
447.422	1420
447.493	1021
447.564	354
447.635	758
447.706	842
447.777	-11
447.847	160
447.918	581
447.989	238
448.060	1000
448.131	821
448.202	1081
448.273	1018
448.344	368
448.414	1167
448.485	577
448.556	554
448.627	-231
448.698	268
448.768	-134
448.839	380
448.910	521
448.981	884
449.051	1280
449.122	759
449.193	-115
449.263	302
449.334	152
449.405	773
449.475	1114
449.546	1922
449.616	1339
449.687	1649
449.758	1344
449.828	825
449.899	418
449.969	991
450.040	274
450.110	-143
450.181	715
450.251	748
450.322	399
450.392	264
450.463	28
450.533	-73
450.604	205
450.674	317
450.744	418
450.815	1099
450.885	964
450.955	1571
451.026	1033
451.096	1083
451.166	739
451.237	1806
451.307	3111
451.377	2787
451.447	870
451.518	832
451.588	136
451.658	862
451.728	31
451.799	1917
451.869	2721
451.939	1524
452.009	323
452.079	505
452.149	194
452.219	1250
452.289	1660
452.360	2379
452.430	1228
452.500	866
452.570	2489
452.640	4940
452.710	17075
452.780	26052
452.850	16729
452.920	8127
452.990	4431
453.060	1712
453.129	872
453.199	1137
453.269	1840
453.339	6496
453.409	11180
453.479	7372
453.549	11829
453.619	13041
453.688	7777
453.758	2148
453.828	552
453.898	950
453.968	861
454.037	197
454.087	-436
454.107	-717
454.168	510
454.177	665
454.247	746
454.249	753
454.316	417
454.330	437
454.386	338
454.411	468
454.456	557
454.492	1043
454.525	1428
454.574	1420
454.595	1433
454.655	1039
454.665	957
454.734	1454
454.736	1482
454.804	925
454.817	1309
454.873	2540
454.898	2718
454.943	3075
454.979	2428
455.013	1866
455.060	1449
455.082	1264
455.141	1596
455.152	1729
455.221	3528
455.222	3638
455.291	5946
455.303	6505
455.360	7587
455.384	10591
455.430	13921
455.465	12750
455.499	12677
455.546	6718
455.569	3869
455.627	2524
455.638	2274
455.707	2005
455.708	2023
455.777	1089
455.789	1157
455.846	1421
455.869	1561
455.916	1768
455.950	1826
455.985	1823
456.031	924
456.054	437
456.112	1100
456.124	1234
456.193	1634
456.193	1609
456.262	2052
456.274	2093
456.332	2330
456.355	2326
456.401	2106
456.436	1969
456.470	1838
456.516	1751
456.540	1701
456.597	1791
456.609	1759
456.678	2671
456.678	2656
456.747	2064
456.759	2203
456.817	2375
456.840	2351
456.886	2498
456.920	2833
456.955	3125
457.001	3017
457.024	2905
457.082	3528
457.093	3562
457.162	3860
457.163	3884
457.232	3664
457.243	3611
457.301	3466
457.324	3641
457.370	4093
457.405	4338
457.439	4440
457.485	5164
457.508	5743
457.566	6344
457.577	7009
457.646	12694
457.647	12827
457.715	29392
457.727	32745
457.784	54280
457.808	66012
457.853	65020
457.889	69065
457.922	70658
457.969	58871
457.991	66430
458.050	83403
458.060	85734
458.129	120549
458.130	122148
458.198	88042
458.211	76023
458.267	56599
458.292	42226
458.336	33516
458.372	33792
458.405	47447
458.453	73096
458.474	90444
458.533	146589
458.543	144409
458.611	152386
458.614	152969
458.680	94151
458.694	72791
458.749	43029
458.775	31239
458.818	17526
458.855	13114
458.887	10435
458.936	8960
458.955	8428
459.016	7268
459.024	7083
459.093	6440
459.097	6411
459.162	6106
459.177	6096
459.230	5949
459.257	5999
459.299	6073
459.338	6156
459.368	6241
459.418	6126
459.437	5854
459.499	5493
459.505	5540
459.574	5628
459.579	5659
459.643	5104
459.659	5106
459.711	5583
459.740	5599
459.780	5379
459.820	5619
459.849	5725
459.900	5315
459.917	5176
459.981	5016
459.986	5034
460.054	5484
460.061	5545
460.123	6037
460.141	6167
460.191	6733
460.222	7175
460.260	7421
460.302	7686
460.328	7704
460.382	7966
460.397	8654
460.462	10888
460.465	11607
460.534	28949
460.543	31366
460.602	69753
460.623	83512
460.671	119191
460.703	148217
460.739	106718
460.783	57474
460.808	53965
460.864	21943
460.876	19118
460.944	8562
460.945	8432
461.013	6637
461.024	6505
461.081	6373
461.104	6330
461.150	5987
461.184	6017
461.218	6343
461.264	6568
461.286	6393
461.345	5888
461.355	5785
461.423	5175
461.425	5162
461.491	5910
461.505	6072
461.559	7025
461.585	7589
461.628	9108
461.665	10188
461.696	9395
461.745	8898
461.764	8537
461.825	6245
461.832	6261
461.901	6504
461.905	6518
461.969	5625
461.985	5511
462.037	5907
462.065	6039
462.105	6106
462.145	6361
462.173	7095
462.225	8080
462.241	8150
462.305	8969
462.310	8878
462.378	7128
462.385	6949
462.446	6976
462.465	6898
462.514	6506
462.545	6308
462.582	6472
462.625	6673
462.650	6397
462.705	5883
462.718	5978
462.785	5992
462.786	6002
462.854	6859
462.865	6993
462.922	6882
462.945	6770
462.990	6301
463.025	6021
463.058	6099
463.104	5985
463.126	5911
463.184	5803
463.194	5906
463.262	6531
463.264	6560
463.330	6353
463.344	6212
463.398	6484
463.424	6760
463.466	6759
463.504	6569
463.533	6505
463.583	6392
463.601	6563
463.663	7045
463.669	7052
463.737	7357
463.743	7375
463.805	8719
463.823	9067
463.873	11195
463.903	12557
463.940	11364
463.982	9779
464.008	8698
464.062	6647
464.076	6703
464.142	6636
464.144	6644
464.211	6789
464.221	6795
464.279	6630
464.301	6598
464.347	6958
464.381	7117
464.414	7037
464.461	7048
464.482	7180
464.540	7401
464.550	7415
464.617	7523
464.620	7508
464.685	8290
464.699	8511
464.753	9351
464.779	9634
464.820	9272
464.859	9076
464.888	9043
464.938	8908
464.956	8893
465.018	8776
465.023	8797
465.091	8599
465.098	8594
465.158	8474
465.177	8403
465.226	8512
465.257	8582
465.293	9029
465.336	9412
465.361	9648
465.416	10190
465.428	10378
465.495	11433
465.496	11464
465.563	13139
465.575	13396
465.631	13418
465.654	13497
465.698	11283
465.734	9336
465.765	9004
465.813	8364
465.833	8396
465.893	8529
465.900	8600
465.968	9092
465.972	9108
466.035	8908
466.052	8843
466.102	8945
466.131	8969
466.170	9090
466.210	9157
466.237	9043
466.290	8850
466.304	8926
466.369	9055
466.372	9099
466.439	9918
466.449	10013
466.506	10400
466.528	10514
466.573	12473
466.607	13909
466.641	16223
466.687	19367
466.708	19519
466.766	19819
466.775	18860
466.842	11378
466.845	10999
466.909	11017
466.925	11001
466.977	10945
467.004	10897
467.044	11438
467.083	11922
467.111	12528
467.163	13608
467.178	13778
467.242	14343
467.245	14321
467.312	13259
467.321	13093
467.379	13803
467.400	14018
467.446	13796
467.480	13586
467.559	13438
467.638	11704
467.717	13646
467.796	14160
467.875	15514
467.955	14901
468.034	19572
468.113	27628
468.192	31786
468.271	27545
468.350	38067
468.429	47076
468.508	43894
468.588	25799
468.667	19091
468.746	15809
468.825	15196
468.904	12593
468.983	13870
469.062	15010
469.141	14820
469.220	11315
469.299	12409
469.378	12169
469.456	12854
469.535	12367
469.614	11634
469.693	12620
469.772	14154
469.851	14135
469.930	13101
470.009	13514
470.088	16875
470.166	22145
470.245	32559
470.324	36595
470.403	23933
470.482	16106
470.560	14533
470.639	13303
470.718	13579
470.797	13491
470.875	14843
470.954	16928
471.033	13825
471.111	9850
471.190	10291
471.269	10795
471.347	11285
471.426	10469
471.505	11889
471.583	11952
471.662	11917
471.740	11001
471.819	11178
471.898	10849
471.976	11289
472.055	12047
472.133	16328
472.212	18838
472.290	11680
472.369	9897
472.447	11613
472.526	10521
472.604	12272
472.683	14208
472.761	14084
472.839	11918
472.918	11961
472.996	12175
473.075	12791
473.153	12265
473.231	11852
473.310	11812
473.388	11808
473.466	12127
473.545	13934
473.623	15215
473.701	14134
473.780	13868
473.858	14233
473.936	12600
474.014	13317
474.093	16822
474.171	19375
474.249	14928
474.327	12765
474.405	12234
474.484	10863
474.562	11293
474.640	11043
474.718	11778
474.796	10757
474.874	11573
474.952	11353
475.030	10832
475.108	11757
475.187	15572
475.265	24358
475.343	41518
475.421	32133
475.499	11965
475.577	11244
475.655	13037
475.733	15631
475.811	18428
475.889	18057
475.966	13228
476.044	17081
476.122	26892
476.200	36811
476.278	16475
476.356	10643
476.434	14780
476.512	24004
476.590	32027
476.667	17365
476.745	10332
476.823	10610
476.901	10494
476.979	10360
477.056	10992
477.134	11135
477.212	10958
477.290	10602
477.367	9471
477.445	9586
477.523	8757
477.601	9728
477.678	9726
477.756	10967
477.834	10030
477.911	10567
477.989	10389
478.066	11709
478.144	15932
478.222	31201
478.299	60695
478.377	31351
478.454	13253
478.532	10993
478.609	10692
478.687	10780
478.764	9517
478.842	10717
478.919	9725
478.997	10718
479.074	9303
479.152	10412
479.229	10828
479.307	9875
479.384	9037
479.461	8786
479.539	9433
479.616	9983
479.694	8857
479.771	9927
479.848	10320
479.926	10952
480.003	10249
480.080	10499
480.157	9101
480.235	10572
480.312	9354
480.389	10679
480.467	11903
480.544	13341
480.621	11606
480.698	12141
480.775	11647
480.853	11573
480.930	11575
481.007	13560
481.084	23058
481.161	34592
481.238	13109
481.315	10956
481.392	10794
481.470	10986
481.547	10502
481.624	10973
481.701	10563
481.778	11241
481.855	13054
481.932	14439
482.009	18076
482.086	17540
482.163	22786
482.240	46471
482.317	79794
482.393	30476
482.470	14711
482.547	14381
482.624	13533
482.701	13133
482.778	12094
482.855	12751
482.932	12958
483.009	15580
483.085	21469
483.162	31911
483.239	21915
483.316	18237
483.393	17380
483.469	15943
483.546	14136
483.623	12710
483.699	11374
483.776	11656
483.853	11632
483.930	14381
484.006	21331
484.083	25258
484.160	23107
484.236	29273
484.313	23832
484.389	21750
484.466	23256
484.543	26724
484.619	32274
484.696	30382
484.772	22179
484.849	19755
484.925	17742
485.002	18706
485.078	16430
485.155	17316
485.231	16130
485.308	15448
485.384	16756
485.461	19550
485.537	22201
485.614	19711
485.690	14712
485.766	15542
485.843	16005
485.919	20476
485.995	18009
486.072	14341
486.148	15176
486.224	15314
486.301	14535
486.377	15730
486.453	15336
486.530	16455
486.606	21069
486.682	20257
486.758	22486
486.835	24416
486.911	22977
486.987	29402
487.063	36261
487.139	47406
487.215	44476
487.292	27709
487.368	28151
487.444	38221
487.520	59439
487.596	104414
487.672	246094
487.748	630630
487.824	692493
487.900	166017
487.976	59035
488.052	38210
488.128	30007
488.204	24540
488.280	21052
488.356	22303
488.432	27046
488.508	27357
488.584	17467
488.660	16212
488.736	16750
488.812	16085
488.888	18639
488.964	24926
489.039	44162
489.115	53833
489.191	28043
489.267	15753
489.343	14320
489.418	14789
489.494	13290
489.570	13961
489.646	13444
489.722	14015
489.797	14983
489.873	18187
489.949	24217
490.024	17976
490.100	13593
490.176	15067
490.251	16371
490.327	17970
490.403	12956
490.478	13610
490.554	12562
490.629	13252
490.705	13022
490.781	13918
490.856	11986
490.932	13503
491.007	13876
491.083	13462
491.158	12826
491.234	14597
491.309	19712
491.385	15261
491.460	11159
491.536	12027
491.611	12077
491.686	13289
491.762	17697
491.837	30086
491.913	38146
491.988	57719
492.063	47394
492.139	15693
492.214	13433
492.289	12022
492.365	11983
492.440	12852
492.515	11341
492.590	12293
492.666	10619
492.741	14364
492.816	13810
492.891	11767
492.967	11671
493.042	11569
493.117	12765
493.192	15147
493.267	29685
493.342	76076
493.418	61831
493.493	13099
493.568	10398
493.643	11090
493.718	11645
493.793	14327
493.868	15213
493.943	12350
494.018	10465
494.093	10839
494.168	10896
494.243	10234
494.318	9746
494.393	10021
494.468	10650
494.543	10702
494.618	11174
494.693	10171
494.768	11351
494.842	10210
494.917	11169
494.992	11243
495.067	9601
495.142	10754
495.217	10687
495.292	10719
495.366	11187
495.441	12455
495.516	15182
495.591	23485
495.665	63433
495.740	101306
495.815	24839
495.890	12309
495.964	12158
496.039	15261
496.114	23017
496.188	38898
496.263	20360
496.338	12061
496.412	12464
496.487	13504
496.561	14617
496.636	13270
496.710	14746
496.785	15027
496.860	12689
496.934	11984
497.009	12074
497.083	12128
497.158	13196
497.232	14372
497.307	16141
497.381	15716
497.455	15655
497.530	15238
497.604	13477
497.679	14026
497.753	16955
497.827	18864
497.902	19234
497.976	23762
498.050	53949
498.125	143802
498.199	76909
498.273	24944
498.348	23019
498.422	22004
498.496	21992
498.570	19540
498.645	14400
498.719	13681
498.793	14219
498.867	18660
498.941	25732
499.016	67788
499.090	115338
499.164	24363
499.238	13546
499.312	13179
499.386	15350
499.460	14581
499.534	15399
499.609	18689
499.683	16396
499.757	15508
499.831	33848
499.905	91373
499.979	42856
500.053	15865
500.127	16215
500.201	15065
500.275	12683
500.349	13235
500.422	14278
500.496	22018
500.570	37124
500.644	66197
500.718	69829
500.792	12917
500.866	10677
500.940	11339
501.013	10168
501.087	12363
501.161	18403
501.235	19245
501.309	34314
501.382	75515
501.456	37608
501.530	18435
501.603	21313
501.677	10655
501.751	8711
501.825	10447
501.898	17209
501.972	30420
502.046	13178
502.119	11215
502.193	19646
502.266	29101
502.340	13140
502.413	18987
502.487	22927
502.561	14686
502.634	9932
502.708	10442
502.781	9563
502.855	9043
502.928	9128
503.002	8602
503.075	9206
503.149	8925
503.222	8781
503.295	9689
503.369	10557
503.442	14146
503.516	30289
503.589	48637
503.662	26318
503.736	24090
503.809	39471
503.882	44349
503.956	80656
504.029	148829
504.102	353543
504.175	364942
504.249	113724
504.322	46045
504.395	27138
504.468	19951
504.542	15577
504.615	12547
504.688	10390
504.761	11211
504.834	11020
504.907	13761
504.980	13991
505.053	9867
505.127	12475
505.200	10576
505.273	8583
505.346	7207
505.419	8011
505.492	7135
505.565	7123
505.638	6892
505.711	6371
505.784	6734
505.857	5958
505.930	6728
506.003	6083
506.076	7587
506.149	7027
506.221	7397
506.294	9650
506.367	17924
506.440	37738
506.513	12827
506.586	8089
506.659	6439
506.731	6991
506.804	7939
506.877	9921
506.950	6442
507.022	6024
507.095	7376
507.168	6969
507.241	6801
507.313	6645
507.386	7139
507.459	8707
507.531	7803
507.604	6766
507.677	6001
507.749	6580
507.822	8316
507.894	13408
507.967	12385
508.040	9894
508.112	10999
508.185	8934
508.257	9123
508.330	11859
508.402	8828
508.475	8891
508.547	8569
508.620	8874
508.692	10513
508.765	8234
508.837	6957
508.909	7472
508.982	7328
509.054	7763
509.127	7720
509.199	6474
509.271	6820
509.344	6754
509.416	6262
509.488	6564
509.560	6861
509.633	7769
509.705	7887
509.777	9326
509.849	11045
509.922	7339
509.994	7442
510.066	7141
510.138	9504
510.210	12013
510.283	10226
510.355	9548
510.427	8345
510.499	7936
510.571	7516
510.643	9315
510.715	13118
510.787	8943
510.859	9041
510.931	9623
511.003	12778
511.076	9379
511.148	8211
511.219	8194
511.291	10295
511.363	8912
511.435	7624
511.507	7545
511.579	7610
511.651	7659
511.723	7823
511.795	8244
511.867	7859
511.939	8395
512.010	11102
512.082	8793
512.154	8858
512.226	8637
512.298	11576
512.369	13548
512.441	11360
512.513	11022
512.585	9279
512.656	9607
512.728	9470
512.800	7817
512.871	8392
512.943	7862
513.015	8280
513.086	8347
513.158	9020
513.230	9272
513.301	11726
513.373	11017
513.444	8650
513.516	8195
513.588	8148
513.659	9315
513.731	9707
513.802	11092
513.874	18233
513.945	20263
514.016	9797
514.088	9395
514.159	10151
514.231	11444
514.302	12694
514.374	10923
514.445	9843
514.516	13879
514.588	9895
514.659	10572
514.730	12892
514.802	10925
514.873	10535
514.944	11514
515.016	11762
515.087	11072
515.158	13391
515.229	12174
515.301	11822
515.372	12937
515.443	9918
515.514	9799
515.585	10563
515.656	10311
515.728	10554
515.799	10210
515.870	10687
515.941	10335
516.012	11935
516.083	12886
516.154	14486
516.225	16672
516.296	16343
516.367	18761
516.438	25255
516.509	35989
516.580	73349
516.651	261124
516.722	561231
516.793	109875
516.864	34798
516.935	35835
517.006	49914
517.077	84170
517.148	236170
517.219	837110
517.289	670443
517.360	98394
517.431	32338
517.502	22104
517.573	19473
517.643	18700
517.714	19695
517.785	19282
517.856	22731
517.926	27480
517.997	36397
518.068	52419
518.138	81478
518.209	174594
518.280	631372
518.350	1259865
518.421	288212
518.492	72009
518.562	60087
518.633	76965
518.703	123861
518.774	278059
518.845	579789
518.915	351767
518.986	100888
519.056	52148
519.127	46211
519.197	46207
519.268	54315
519.338	25846
519.408	18903
519.479	21406
519.549	15581
519.620	14443
519.690	12894
519.760	11602
519.831	11281
519.901	10566
519.971	10672
520.042	10420
520.112	10826
520.182	12408
520.253	12178
520.323	10445
520.393	11732
520.463	12657
520.534	11495
520.604	14378
520.674	9792
520.744	11272
520.814	18195
520.885	14746
520.955	23506
521.025	44640
521.095	13477
521.165	9109
521.235	9220
521.305	8820
521.375	9076
521.445	9959
521.515	11550
521.585	13078
521.655	11054
521.725	10601
521.795	9606
521.865	7836
521.935	10850
522.005	9308
522.075	8586
522.145	9475
522.215	11167
522.285	10418
522.355	12277
522.424	16827
522.494	16264
522.564	14386
522.634	28901
522.704	52524
522.774	13988
522.843	10034
522.913	10985
522.983	11210
523.053	10266
523.122	10387
523.192	14613
523.262	34206
523.331	19788
523.401	9917
523.471	9535
523.540	9539
523.610	8918
523.680	9032
523.749	10837
523.819	14329
523.888	12648
523.958	9849
524.027	9416
524.097	10280
524.166	9288
524.236	9827
524.305	9604
524.375	8562
524.444	9359
524.514	11045
524.583	10084
524.653	9847
524.722	11741
524.791	9981
524.861	10735
524.930	9635
524.999	12519
525.069	12370
525.138	10801
525.207	11326
525.277	12148
525.346	12430
525.415	12690
525.484	16061
525.554	16807
525.623	21215
525.692	27587
525.761	27466
525.830	35576
525.900	53663
525.969	103190
526.038	194468
526.107	488200
526.176	981147
526.245	523520
526.314	229736
526.383	592884
526.452	582213
526.522	992720
526.591	509316
526.660	104836
526.729	78430
526.797	103970
526.867	211886
526.935	639140
527.004	1343590
527.073	476391
527.142	76754
527.211	37676
527.280	29140
527.349	22269
527.418	16805
527.487	15296
527.555	13789
527.624	12973
527.693	12274
527.762	12516
527.831	11867
527.899	11861
527.968	10088
528.037	9928
528.106	11349
528.174	14587
528.243	11033
528.312	15916
528.380	13145
528.449	8972
528.518	9951
528.586	8465
528.655	9439
528.723	8598
528.792	8162
528.861	8963
528.929	8598
528.998	9626
529.066	10827
529.135	12834
529.203	12415
529.272	15417
529.340	15987
529.409	14433
529.477	15037
529.545	14403
529.614	15919
529.682	18761
529.751	17750
529.819	20035
529.887	20953
529.956	19469
530.024	17466
530.092	17110
530.161	19060
530.229	20133
530.297	19394
530.365	19042
530.434	19645
530.502	19476
530.570	18223
530.638	15258
530.707	16620
530.775	16970
530.843	16460
530.911	17146
530.979	16641
531.047	19056
531.115	18449
531.183	16208
531.252	15834
531.320	16182
531.388	16401
531.456	19401
531.524	18392
531.592	20333
531.660	21528
531.728	19447
531.796	18429
531.864	18670
531.932	18909
532.000	19708
532.067	21068
532.135	21397
532.203	23487
532.271	24475
532.339	29689
532.407	38692
532.475	26150
532.542	25432
532.610	25490
532.678	34717
532.746	81711
532.814	101899
532.881	32504
532.949	23453
533.017	21569
533.084	21712
533.152	20404
533.220	21401
533.287	21785
533.355	21426
533.423	21853
533.490	22689
533.558	21697
533.625	21634
533.693	20912
533.761	21109
533.828	20861
533.896	22575
533.963	27922
534.031	32023
534.098	39627
534.166	28939
534.233	26880
534.300	26733
534.368	25880
534.435	26164
534.503	28669
534.570	31624
534.637	36766
534.705	46164
534.772	63090
534.840	142384
534.907	516297
534.974	330676
535.041	46266
535.109	29769
535.176	24950
535.243	24936
535.310	24618
535.378	22783
535.445	22900
535.512	23862
535.579	22649
535.646	22269
535.714	23394
535.781	24950
535.848	24388
535.915	24088
535.982	23143
536.049	23426
536.116	23011
536.183	21357
536.250	20583
536.317	22092
536.384	23894
536.451	25678
536.518	25717
536.585	23758
536.652	26891
536.719	27346
536.786	23984
536.853	24941
536.920	26953
536.987	31080
537.053	34487
537.120	79827
537.187	43961
537.254	24817
537.321	23672
537.388	24234
537.454	22094
537.521	22990
537.588	22848
537.654	23996
537.721	26684
537.788	26143
537.855	22874
537.921	23749
537.988	22158
538.055	21606
538.121	21294
538.188	21007
538.254	22951
538.321	27724
538.388	24220
538.454	25254
538.521	24153
538.587	24308
538.654	23788
538.720	23506
538.787	22638
538.853	23497
538.920	21576
538.986	20804
539.053	20537
539.119	22866
539.185	22269
539.252	24717
539.318	26941
539.385	27997
539.451	27232
539.517	24938
539.583	26864
539.650	38857
539.716	48306
539.782	23432
539.849	21872
539.915	23491
539.981	22816
540.047	22738
540.114	21815
540.180	23145
540.246	25435
540.312	28097
540.378	30637
540.444	30316
540.510	41023
540.576	56394
540.643	25512
540.709	23548
540.775	22708
540.841	22520
540.907	23408
540.973	24243
541.039	23888
541.105	25093
541.171	24313
541.237	24146
541.303	24698
541.369	25441
541.435	26787
541.500	27206
541.566	21911
541.632	21605
541.698	21858
541.764	23040
541.830	22783
541.896	21595
541.961	22883
542.027	24625
542.093	24277
542.159	23471
542.224	23361
542.290	25484
542.356	28633
542.421	27061
542.487	21269
542.553	22091
542.618	21351
542.684	21946
542.750	22906
542.815	24766
542.881	31900
542.947	58570
543.012	32613
543.078	20938
543.143	20803
543.209	23641
543.274	22833
543.340	24539
543.405	35240
543.471	35564
543.536	22783
543.602	22034
543.667	21705
543.732	23241
543.798	22077
543.863	23848
543.928	22258
543.994	21440
544.059	21943
544.124	23469
544.190	23872
544.255	25221
544.320	24461
544.386	25392
544.451	27136
544.516	27408
544.581	30692
544.646	50184
544.712	44872
544.777	26400
544.842	25260
544.907	25583
544.972	25585
545.037	27574
545.102	28520
545.168	27444
545.233	27100
545.298	28993
545.363	29906
545.428	31999
545.493	40006
545.558	49559
545.623	31465
545.688	29730
545.753	31193
545.818	31142
545.883	33380
545.947	34569
546.012	35993
546.077	36600
546.142	37535
546.207	39172
546.272	42157
546.337	42705
546.401	43950
546.466	45052
546.531	45812
546.596	50155
546.661	50499
546.725	53893
546.790	57223
546.855	62159
546.919	68666
546.984	76031
547.049	84709
547.113	95108
547.178	104035
547.243	119027
547.307	138385
547.372	148506
547.436	148344
547.501	158048
547.565	164477
547.630	150327
547.695	147324
547.759	148288
547.823	150891
547.888	151759
547.952	156660
548.017	168305
548.081	179144
548.146	167361
548.210	170785
548.274	183918
548.339	171704
548.403	157874
548.468	150167
548.532	152774
548.596	155525
548.660	157214
548.725	174010
548.789	183575
548.853	172520
548.917	167857
548.982	159648
549.046	142627
549.110	132211
549.174	142741
549.238	167733
549.303	178089
549.367	180259
549.431	169230
549.495	163690
549.559	166267
549.623	198111
549.687	204412
549.751	211044
549.815	248249
549.879	238786
549.943	233200
550.007	246426
550.071	237145
550.135	214853
550.199	204430
550.263	199897
550.327	192815
550.391	207380
550.455	226093
550.519	232385
550.582	250261
550.646	282953
550.710	280594
550.774	275467
550.838	280357
550.901	291014
550.965	308784
551.029	325260
551.093	350524
551.156	386844
551.220	435780
551.284	432237
551.347	337072
551.411	303698
551.475	294491
551.538	299190
551.602	271010
551.666	261579
551.729	245280
551.793	241435
551.856	237226
551.920	235783
551.983	234503
552.047	233425
552.110	236091
552.174	240425
552.237	238306
552.301	219561
552.364	213681
552.428	210628
552.491	218514
552.554	222051
552.618	220766
552.681	225672
552.745	220564
552.808	249785
552.871	262892
552.934	234629
552.998	220796
553.061	215257
553.124	205894
553.187	210526
553.251	216103
553.314	216962
553.377	223448
553.440	245016
553.503	294874
553.567	286249
553.630	235377
553.693	228971
553.756	231564
553.819	222741
553.882	216227
553.945	218959
554.008	219074
554.071	221983
554.134	220721
554.197	206808
554.260	204952
554.323	208934
554.386	214221
554.449	223126
554.512	217259
554.575	209413
554.638	207668
554.701	208453
554.764	204220
554.827	196626
554.889	187410
554.952	176590
555.015	177745
555.078	179284
555.141	181925
555.203	178311
555.266	179394
555.329	175896
555.391	171159
555.454	166905
555.517	160020
555.580	154417
555.642	149955
555.705	150014
555.768	147389
555.830	140561
555.893	135555
555.955	132483
556.018	129726
556.080	131785
556.143	135401
556.206	130287
556.268	128365
556.330	126159
556.393	122543
556.455	120485
556.518	116581
556.580	112627
556.643	109368
556.705	107428
556.767	105564
556.830	104204
556.892	102828
556.955	103513
557.017	98170
557.079	97481
557.142	94026
557.204	95913
557.266	99015
557.328	85687
557.391	82807
557.453	80307
557.515	80278
557.577	80480
557.639	80678
557.701	79547
557.764	78244
557.826	80097
557.888	87190
557.950	92183
558.012	106037
558.074	147070
558.136	342429
558.198	524375
558.260	137602
558.322	83410
558.384	81654
558.446	89124
558.508	98237
558.570	117888
558.632	148436
558.694	203908
558.756	344744
558.818	903611
558.880	1258771
558.942	511838
559.003	580743
559.065	198464
559.127	111462
559.189	115004
559.251	139587
559.312	213854
559.374	521320
559.436	1056905
559.498	357206
559.559	123227
559.621	115802
559.683	147388
559.744	256873
559.806	726795
559.868	656417
559.929	152633
559.991	142038
560.052	268860
560.114	572164
560.176	270980
560.237	396703
560.299	402125
560.360	76576
560.422	46402
560.483	41952
560.545	39662
560.606	38179
560.667	36689
560.729	35118
560.790	33741
560.852	32298
560.913	32302
560.974	31829
561.036	30719
561.097	31674
561.158	29864
561.220	30443
561.281	28891
561.342	30105
561.403	30450
561.465	31505
561.526	40519
561.587	37537
561.648	27722
561.709	26548
561.771	25508
561.832	26125
561.893	25871
561.954	25673
562.015	24670
562.076	25818
562.137	24731
562.198	24509
562.259	25035
562.320	24718
562.381	24312
562.442	25872
562.503	24864
562.564	22794
562.625	22790
562.686	23655
562.747	22614
562.808	22714
562.869	22519
562.930	22731
562.991	20932
563.051	20961
563.112	21904
563.173	21157
563.234	20012
563.294	20835
563.355	20052
563.416	19897
563.477	20253
563.537	20373
563.598	20024
563.659	20425
563.720	20296
563.780	20645
563.841	19963
563.901	20200
563.962	19431
564.023	18031
564.083	20829
564.144	19480
564.204	19687
564.265	19473
564.325	18561
564.386	22186
564.446	19940
564.507	18169
564.567	18646
564.628	19157
564.688	17972
564.749	17849
564.809	18215
564.869	18777
564.930	19112
564.990	18682
565.050	17330
565.111	18747
565.171	17691
565.231	17744
565.292	19079
565.352	18066
565.412	18100
565.472	17043
565.532	17903
565.593	18134
565.653	18334
565.713	18707
565.773	18188
565.833	19604
565.893	20997
565.953	17577
566.013	17624
566.074	17923
566.134	17457
566.194	18957
566.254	18978
566.314	17751
566.374	16686
566.434	17059
566.494	17286
566.554	16936
566.614	17585
566.673	18335
566.733	18589
566.793	19070
566.853	19502
566.913	19072
566.973	19492
567.033	19626
567.092	18463
567.152	21118
567.212	19601
567.272	18821
567.331	19569
567.391	19312
567.451	20513
567.511	21703
567.570	20810
567.630	19496
567.690	18772
567.749	18277
567.809	19510
567.868	20312
567.928	20317
567.988	21515
568.047	22368
568.107	24153
568.166	26476
568.226	35371
568.285	40203
568.345	34894
568.404	29452
568.464	29156
568.523	27874
568.582	28388
568.642	32238
568.701	35805
568.761	43883
568.820	57710
568.879	51787
568.939	41771
568.998	33894
569.057	29033
569.116	25485
569.176	24264
569.235	22481
569.294	20183
569.353	20067
569.413	19348
569.472	18546
569.531	19319
569.590	17219
569.649	18300
569.708	16978
569.767	18457
569.827	18305
569.886	18050
569.945	17941
570.004	18815
570.063	17156
570.122	18004
570.181	18875
570.240	18416
570.299	19355
570.358	19618
570.417	17505
570.475	17722
570.534	18359
570.593	18374
570.652	18438
570.711	18253
570.770	18364
570.829	18024
570.887	18526
570.946	18626
571.005	18124
571.064	19246
571.122	20040
571.181	18668
571.240	17349
571.299	16940
571.357	15655
571.416	16757
571.475	17705
571.533	17810
571.592	18832
571.650	18327
571.709	19136
571.768	21147
571.826	20636
571.885	19365
571.943	17695
572.002	16814
572.060	16069
572.119	16750
572.177	16874
572.236	16484
572.294	16837
572.352	18150
572.411	17307
572.469	16976
572.528	17428
572.586	16284
572.644	18138
572.703	17544
572.761	14810
572.819	15717
572.877	15176
572.936	15506
572.994	14839
573.052	16347
573.110	15248
573.169	16349
573.227	16179
573.285	16574
573.343	15865
573.401	15079
573.459	16609
573.517	15959
573.576	16662
573.634	16038
573.692	16224
573.750	16363
573.808	15469
573.866	14715
573.924	15843
573.982	14864
574.040	14761
574.098	16005
574.155	14139
574.213	13960
574.271	15391
574.329	17299
574.387	14663
574.445	14688
574.503	12951
574.560	13520
574.618	14059
574.676	14554
574.734	13342
574.792	13402
574.849	12732
574.907	13511
574.965	12396
575.022	11143
575.080	11840
575.138	11985
575.195	12205
575.253	11401
575.311	12017
575.368	11900
575.426	11704
575.483	11227
575.541	12559
575.598	11702
575.656	12122
575.713	13003
575.771	13049
575.828	13135
575.886	11998
575.943	12057
576.001	11221
576.058	10835
576.115	11777
576.173	12525
576.230	13089
576.287	12747
576.345	12744
576.402	12665
576.459	12977
576.517	11999
576.574	11377
576.631	11073
576.688	11572
576.746	10616
576.803	10678
576.860	11332
576.917	10810
576.974	11824
577.031	11266
577.089	11193
577.146	10782
577.203	11996
577.260	10243
577.317	11329
577.374	11269
577.431	10758
577.488	10913
577.545	10410
577.602	11416
577.659	11336
577.716	11839
577.773	12803
577.830	11397
577.886	11018
577.943	9864
578.000	10279
578.057	10568
578.114	11286
578.171	10761
578.227	12296
578.284	11437
578.341	10981
578.398	10451
578.454	10530
578.511	10561
578.568	11979
578.625	10374
578.681	10641
578.738	10079
578.794	10667
578.851	10749
578.908	11263
578.964	10498
579.021	12081
579.077	11278
579.134	11041
579.190	11520
579.247	10956
579.303	9895
579.360	10316
579.416	11385
579.473	10830
579.529	10276
579.586	10924
579.642	11244
579.698	10909
579.755	11899
579.811	11176
579.867	10965
579.924	11388
579.980	11799
580.036	12617
580.093	12335
580.149	14428
580.205	13592
580.261	13404
580.317	12888
580.374	12689
580.430	12976
580.486	12298
580.542	12189
580.598	12398
580.619	12603
580.654	12972
580.692	12683
580.710	12560
580.765	12314
580.767	12319
580.823	12703
580.838	12953
580.879	13664
580.911	12987
580.935	12510
580.984	12304
580.991	12289
581.047	12887
581.057	12765
581.103	12282
581.130	12500
581.159	12765
581.203	13411
581.215	13580
581.270	13083
581.276	12990
581.326	12287
581.349	12487
581.382	12796
581.422	12913
581.438	12958
581.494	12267
581.494	12257
581.550	12179
581.567	12413
581.606	12936
581.640	12513
581.661	12313
581.713	12991
581.717	13040
581.773	12660
581.786	12664
581.829	12755
581.859	13101
581.885	13426
581.932	12966
581.940	12883
581.996	12769
582.004	12700
582.052	12398
582.077	12657
582.107	12927
582.150	12946
582.163	12953
582.219	12561
582.223	12586
582.274	13085
582.296	13153
582.330	13234
582.368	13441
582.386	13540
582.441	13106
582.441	13109
582.497	13599
582.514	13741
582.552	14097
582.587	14106
582.608	14148
582.659	13810
582.663	13777
582.719	14447
582.732	14267
582.774	13726
582.805	14209
582.830	14663
582.877	14565
582.885	14518
582.941	14726
582.950	14750
582.996	15108
583.023	15679
583.052	16342
583.095	16219
583.107	16144
583.162	16926
583.168	16860
583.218	16145
583.240	15561
583.273	14770
583.313	14632
583.328	14604
583.384	14163
583.385	14142
583.439	13355
583.458	13461
583.494	13683
583.531	13408
583.549	13300
583.603	13833
583.605	13848
583.660	13417
583.676	13449
583.715	13729
583.748	14222
583.770	14476
583.820	14504
583.825	14476
583.881	13568
583.893	13583
583.936	13903
583.965	14018
583.991	14075
584.038	13892
584.046	13854
584.101	13697
584.110	13660
584.156	13481
584.183	13817
584.211	14258
584.255	15073
584.266	15240
584.321	14738
584.328	14726
584.376	14752
584.400	14801
584.431	14821
584.472	15028
584.486	15122
584.541	15227
584.545	15286
584.596	16142
584.617	16034
584.651	15750
584.689	16200
584.706	16452
584.761	16581
584.762	16586
584.816	16934
584.834	17017
584.871	17002
584.906	17312
584.926	17613
584.978	18341
584.980	18356
585.035	19377
585.051	19636
585.090	20582
585.123	22099
585.145	23109
585.195	24815
585.200	24986
585.254	28526
585.267	29846
585.309	34055
585.340	37726
585.364	41024
585.412	48359
585.419	49290
585.473	61235
585.484	64779
585.528	80628
585.556	98013
585.583	118013
585.628	182202
585.637	200616
585.692	411345
585.700	434317
585.747	591225
585.772	510835
585.801	325110
585.845	166757
585.856	134624
585.910	58139
585.917	50535
585.965	38959
585.989	34425
586.019	31354
586.061	28567
586.074	27902
586.128	26634
586.133	26502
586.183	25554
586.205	25465
586.237	25094
586.277	24167
586.292	24050
586.346	24147
586.349	24201
586.401	24584
586.421	24235
586.455	23894
586.493	24196
586.509	24293
586.564	24839
586.565	24872
586.618	26602
586.637	27219
586.672	28715
586.709	30910
586.727	32064
586.781	33864
586.781	33853
586.835	29699
586.853	29158
586.889	27170
586.925	25231
586.944	24843
586.996	24974
586.998	24967
587.052	24362
587.068	24367
587.106	24914
587.140	25344
587.161	25437
587.212	25213
587.215	25234
587.269	25722
587.284	26057
587.323	26537
587.356	26886
587.377	27414
587.427	28558
587.431	28577
587.485	28611
587.499	28716
587.539	29288
587.571	29758
587.593	30497
587.643	32448
587.648	32576
587.702	33478
587.715	33644
587.755	34089
587.786	34747
587.810	35221
587.858	35513
587.864	35564
587.917	36946
587.930	37222
587.971	38532
588.001	39359
588.025	39947
588.073	41346
588.079	41617
588.133	44251
588.145	44893
588.187	47423
588.217	49348
588.241	50878
588.288	54357
588.295	54940
588.348	60359
588.360	61539
588.402	67447
588.431	72722
588.456	77136
588.503	86554
588.510	88065
588.564	101921
588.575	105636
588.617	122416
588.646	135409
588.671	149065
588.718	181624
588.725	188057
588.778	248534
588.789	264601
588.832	362618
588.861	439518
588.886	543180
588.932	708772
588.939	727492
588.993	821234
589.004	845135
589.047	779540
589.075	697751
589.100	576804
589.147	367613
589.154	351169
589.207	243112
589.218	222924
589.261	198043
589.290	184983
589.314	186303
589.361	195716
589.368	200201
589.421	249934
589.433	264308
589.475	373472
589.504	454975
589.528	560149
589.576	721773
589.582	720317
589.635	681302
589.647	665303
589.689	452639
589.718	313947
589.742	254348
589.790	147093
589.795	142665
589.849	105243
589.861	97179
589.902	84439
589.932	75120
589.955	71183
590.004	63626
590.009	63032
590.062	56710
590.075	55236
590.115	52613
590.146	50635
590.168	49399
590.218	46750
590.222	46668
590.275	45807
590.289	45436
590.328	44701
590.360	44337
590.381	43974
590.431	42953
590.435	42879
590.488	41382
590.503	40994
590.541	40748
590.574	40588
590.594	40630
590.645	40522
590.647	40558
590.700	41442
590.716	41642
590.753	41589
590.787	41518
590.806	41700
590.859	42288
590.859	42313
590.912	42776
590.930	42943
590.965	42946
591.001	42955
591.018	42850
591.071	42240
591.072	42213
591.124	41672
591.143	41484
591.177	41416
591.214	41355
591.230	41435
591.283	41695
591.285	41678
591.336	41621
591.356	41608
591.389	41354
591.427	40917
591.442	40759
591.495	40311
591.498	40251
591.547	40157
591.569	40135
591.600	40617
591.640	41076
591.653	41169
591.706	41676
591.711	41707
591.759	42133
591.782	42323
591.811	43204
591.853	44468
591.864	44524
591.917	44524
591.924	44511
591.969	43710
591.995	43258
592.022	43575
592.066	44011
592.075	44179
592.127	45115
592.137	45280
592.180	46175
592.208	46721
592.233	46893
592.279	47097
592.285	47172
592.338	47706
592.350	47803
592.390	48487
592.421	48958
592.443	48823
592.491	48458
592.495	48539
592.548	49392
592.562	49604
592.600	49377
592.633	49161
592.653	49201
592.704	48996
592.705	49305
592.775	50847
592.846	51617
592.916	53399
592.987	51906
593.058	52023
593.128	52810
593.199	53122
593.270	53366
593.341	54377
593.411	55048
593.482	55976
593.553	58308
593.623	59004
593.694	60207
593.764	61220
593.835	62555
593.906	61856
593.976	64601
594.047	65518
594.117	67515
594.188	69957
594.258	69102
594.329	70122
594.399	70559
594.470	71839
594.540	73681
594.611	76527
594.681	78673
594.751	76461
594.822	78283
594.892	80418
594.963	83488
595.033	84277
595.103	88859
595.174	88935
595.244	91333
595.314	93723
595.384	96629
595.455	97318
595.525	99811
595.595	103954
595.665	107057
595.736	103507
595.806	103568
595.876	106140
595.946	105248
596.016	109006
596.087	114545
596.157	115199
596.227	114402
596.297	117673
596.367	126780
596.437	134544
596.507	137855
596.577	136863
596.647	137613
596.717	143516
596.787	150778
596.857	148303
596.927	149074
596.997	150872
597.067	152966
597.137	153312
597.207	156119
597.277	158121
597.347	155592
597.417	146326
597.487	147541
597.557	147973
597.626	154425
597.696	156190
597.766	156792
597.836	151821
597.906	142057
597.975	136941
598.045	138216
598.115	142572
598.185	149929
598.254	161442
598.324	182509
598.394	190481
598.464	189366
598.533	183201
598.603	178203
598.672	166003
598.742	166403
598.812	170036
598.881	172808
598.951	175768
599.020	173678
599.090	178750
599.159	185731
599.229	182960
599.299	173885
599.368	175731
599.437	179579
599.507	169860
599.576	160259
599.646	158894
599.715	155808
599.785	157087
599.854	151119
599.924	149375
599.993	147832
600.062	150647
600.132	153912
600.201	158606
600.270	176972
600.340	196984
600.409	197175
600.478	196692
600.547	196322
600.617	198105
600.686	162793
600.755	141695
600.824	133137
600.894	127067
600.963	127991
601.032	128144
601.101	125506
601.170	121446
601.239	118680
601.308	116831
601.378	119695
601.447	118692
601.516	121777
601.585	122079
601.654	125433
601.723	125829
601.792	124869
601.861	131823
601.930	135819
601.999	140205
602.068	139272
602.137	142059
602.206	145567
602.275	144886
602.343	145084
602.412	147261
602.481	146538
602.550	149138
602.619	149941
602.688	153568
602.756	154592
602.825	156976
602.894	157543
602.963	163117
603.032	164978
603.100	166825
603.169	165235
603.238	167251
603.307	169052
603.375	167235
603.444	170804
603.513	172503
603.581	172679
603.650	176765
603.719	174422
603.787	167753
603.856	174123
603.924	176071
603.993	181874
604.061	186015
604.130	195490
604.198	199957
604.267	203640
604.335	209170
604.404	208549
604.472	216140
604.541	215826
604.609	217919
604.678	221318
604.746	222036
604.815	226149
604.883	233255
604.951	232551
605.020	232616
605.088	237318
605.156	238110
605.225	239417
605.293	241989
605.361	240292
605.429	242308
605.498	245587
605.566	250577
605.634	257759
605.702	269988
605.771	277431
605.839	286153
605.907	279874
605.975	271305
606.043	264944
606.111	262191
606.180	264618
606.248	266319
606.316	257598
606.384	256838
606.452	258831
606.520	249274
606.588	258315
606.656	262690
606.724	263605
606.792	252898
606.860	234144
606.928	210720
606.996	197364
607.064	189766
607.132	193095
607.200	199452
607.267	213546
607.335	215633
607.403	223516
607.471	222385
607.539	210241
607.607	214326
607.674	194951
607.742	183158
607.810	184209
607.878	181869
607.946	183740
608.013	190615
608.081	197945
608.149	200008
608.216	203867
608.284	213484
608.352	216518
608.419	216098
608.487	209982
608.555	205611
608.622	207563
608.690	214331
608.757	234910
608.825	253847
608.893	248494
608.960	239178
609.028	224182
609.095	220487
609.163	222454
609.230	213150
609.298	185787
609.365	184917
609.432	199618
609.500	214139
609.567	237296
609.635	273015
609.702	305296
609.769	304580
609.837	270106
609.904	202604
609.971	196904
610.039	206408
610.106	224949
610.173	289568
610.241	519143
610.308	705897
610.375	291151
610.442	217595
610.509	205043
610.577	202446
610.644	204764
610.711	209311
610.778	216594
610.845	221280
610.912	234720
610.980	248713
611.047	253855
611.114	252622
611.181	243119
611.248	240185
611.315	244471
611.382	256173
611.449	261966
611.516	271401
611.583	269621
611.650	269827
611.717	270091
611.784	273559
611.851	278565
611.918	287329
611.984	306434
612.051	349654
612.118	462993
612.185	821841
612.252	1208458
612.319	499011
612.386	346085
612.452	330054
612.519	308521
612.586	301751
612.653	302302
612.719	309915
612.786	315337
612.853	296085
612.919	280073
612.986	282925
613.053	277414
613.120	261744
613.186	245790
613.253	244099
613.319	245310
613.386	246807
613.453	249029
613.519	254668
613.586	251828
613.652	251394
613.719	253200
613.785	250119
613.852	255602
613.918	256593
613.985	256042
614.051	263353
614.118	270396
614.184	272651
614.250	254898
614.317	258446
614.383	255192
614.449	260001
614.516	261773
614.582	260798
614.648	261335
614.715	255638
614.781	257580
614.847	247400
614.914	252628
614.980	247075
615.046	245567
615.112	246578
615.179	253266
615.245	255470
615.311	255156
615.377	251602
615.443	262907
615.509	260708
615.575	264721
615.642	264924
615.708	265753
615.774	271971
615.840	282837
615.906	294156
615.972	310117
616.038	364417
616.104	511426
616.170	894380
616.236	1450318
616.302	688486
616.368	401690
616.434	347986
616.500	299423
616.565	295471
616.631	333003
616.697	347544
616.763	316588
616.829	348067
616.895	500893
616.961	670055
617.026	457469
617.092	289120
617.158	268971
617.224	265965
617.289	256065
617.355	241252
617.421	234238
617.487	235893
617.552	228528
617.618	222600
617.684	223997
617.749	225189
617.815	221092
617.880	214785
617.946	211631
618.012	212760
618.077	220323
618.143	218434
618.208	210559
618.274	220957
618.339	233555
618.405	213940
618.470	192802
618.536	195054
618.601	193704
618.667	190073
618.732	175121
618.798	171330
618.863	170785
618.928	168219
618.994	169732
619.059	169125
619.124	171886
619.190	170220
619.255	170772
619.320	167869
619.386	169806
619.451	170555
619.516	168358
619.581	166610
619.647	169857
619.712	172851
619.777	168895
619.842	164606
619.907	168587
619.972	170288
620.038	172826
620.103	167186
620.168	168417
620.233	169021
620.298	172236
620.363	170399
620.428	174180
620.493	177091
620.558	180725
620.623	182433
620.688	186467
620.753	182368
620.818	183482
620.883	186940
620.948	188507
621.013	184781
621.078	184184
621.143	182864
621.207	185475
621.272	184398
621.337	181940
621.402	178974
621.467	179606
621.532	175168
621.596	176883
621.661	175698
621.726	171058
621.791	171709
621.855	172767
621.920	172162
621.985	173582
622.049	176562
622.114	177354
622.179	177262
622.243	180837
622.308	185666
622.373	190149
622.437	195874
622.502	185874
622.566	182254
622.631	180552
622.695	180963
622.760	183178
622.824	181652
622.889	180718
622.953	183191
623.018	186417
623.082	196179
623.147	191390
623.211	190661
623.276	186987
623.340	186751
623.404	178645
623.469	179378
623.533	177204
623.597	178813
623.662	174693
623.726	171877
623.790	158689
623.854	153136
623.919	153034
623.983	154254
624.047	157626
624.111	157132
624.176	160382
624.240	158607
624.304	164933
624.368	163504
624.432	160259
624.496	161804
624.560	165783
624.625	171777
624.689	169750
624.753	172792
624.817	175314
624.881	164550
624.945	160949
625.009	147405
625.073	148187
625.137	149746
625.201	156186
625.265	160970
625.329	154833
625.393	151052
625.456	154182
625.520	155861
625.584	160610
625.648	161814
625.712	164203
625.776	169057
625.839	166694
625.903	151526
625.967	129547
626.031	130301
626.095	141990
626.158	157596
626.222	134377
626.286	112959
626.349	109947
626.413	103916
626.477	99735
626.540	98744
626.604	100581
626.668	99536
626.731	95767
626.795	96361
626.858	95506
626.922	94711
626.986	93278
627.049	91413
627.113	95210
627.176	94978
627.240	91412
627.303	89602
627.366	90758
627.430	89148
627.493	91852
627.557	88602
627.620	87656
627.684	88170
627.747	91227
627.810	88722
627.874	79994
627.937	75028
628.000	74761
628.064	75802
628.127	71043
628.190	67119
628.253	64170
628.317	64169
628.380	61775
628.443	58954
628.506	57517
628.569	57411
628.632	55325
628.696	54129
628.759	52600
628.822	52835
628.885	49124
628.948	48891
629.011	47656
629.074	46951
629.137	46475
629.200	44915
629.263	44450
629.326	43058
629.389	43483
629.452	42899
629.515	41211
629.578	39989
629.641	41348
629.704	41233
629.767	41594
629.830	40765
629.892	39970
629.955	39917
630.018	39007
630.081	38941
630.144	38571
630.207	38401
630.269	38321
630.332	37334
630.395	36945
630.458	35788
630.520	34990
630.583	34968
630.646	35495
630.708	34772
630.771	35820
630.834	36430
630.896	36583
630.959	36083
631.021	35495
631.084	34445
631.146	35459
631.209	35118
631.272	34445
631.334	35634
631.397	34944
631.459	34216
631.522	35442
631.584	36285
631.646	37212
631.709	37722
631.771	38998
631.834	37098
631.896	37198
631.958	35216
632.021	34719
632.083	33811
632.145	32480
632.208	32994
632.270	33383
632.332	32736
632.395	33229
632.457	33057
632.519	33524
632.581	32448
632.643	30652
632.706	32362
632.768	31816
632.830	31946
632.892	32362
632.954	33386
633.016	32778
633.078	31997
633.141	32777
633.203	32555
633.265	32688
633.327	31827
633.389	31157
633.451	31158
633.513	33370
633.575	32510
633.637	33274
633.698	32177
633.760	33905
633.822	35039
633.884	34666
633.946	34970
634.008	35677
634.070	36511
634.132	36618
634.193	38277
634.255	39522
634.317	41091
634.379	41266
634.441	39726
634.502	37187
634.564	34062
634.626	33279
634.687	32055
634.749	31212
634.811	29289
634.873	30405
634.934	30158
634.996	29872
635.057	30424
635.119	30775
635.181	31058
635.242	30393
635.304	30540
635.365	32176
635.427	30502
635.488	31688
635.550	29957
635.611	30395
635.673	29868
635.734	30063
635.796	31675
635.857	33534
635.918	34695
635.980	36769
636.041	37755
636.102	40426
636.164	41881
636.225	41380
636.286	39013
636.348	35243
636.409	33156
636.470	31395
636.531	29875
636.593	30639
636.654	30242
636.715	29070
636.776	27696
636.838	27750
636.899	28192
636.960	27775
637.021	28417
637.082	27494
637.143	27199
637.204	25954
637.265	25053
637.326	26974
637.387	26784
637.448	27361
637.509	26575
637.570	26205
637.631	26076
637.692	25970
637.753	26277
637.814	26146
637.875	24873
637.936	25635
637.997	25852
638.058	25757
638.119	26100
638.179	25290
638.240	25919
638.301	25433
638.362	24948
638.423	24786
638.483	24109
638.544	23947
638.605	24274
638.666	24485
638.726	24775
638.787	24988
638.848	24990
638.908	24763
638.969	23598
639.030	22821
639.090	22611
639.151	23914
639.211	23440
639.272	24548
639.332	23799
639.393	24702
639.453	24372
639.514	24962
639.574	24237
639.635	22011
639.695	21091
639.756	22001
639.816	22245
639.877	22011
639.937	22315
639.997	22472
640.058	22279
640.118	21346
640.178	21742
640.239	21056
640.299	21273
640.359	22763
640.420	21913
640.480	23456
640.540	24824
640.600	26603
640.661	24882
640.721	24138
640.781	25529
640.841	26827
640.901	24908
640.961	22273
641.021	21588
641.082	23274
641.142	23795
641.202	21604
641.262	20869
641.322	21425
641.382	20791
641.442	20595
641.502	20321
641.562	21889
641.622	20954
641.682	21121
641.742	22564
641.802	23323
641.861	22006
641.921	20132
641.981	20507
642.041	19392
642.101	18621
642.161	19401
642.221	19517
642.280	19704
642.340	19632
642.400	20258
642.460	20667
642.519	19660
642.579	20334
642.639	20176
642.698	19796
642.758	20916
642.818	19827
642.877	20916
642.937	20858
642.997	20424
643.056	19872
643.116	20433
643.175	20492
643.235	19936
643.294	20995
643.354	21726
643.414	21994
643.473	24600
643.532	26586
643.592	32697
643.651	43004
643.711	62175
643.770	98986
643.830	181122
643.889	459107
643.948	527879
644.008	94087
644.067	39198
644.126	29136
644.186	25230
644.245	22435
644.304	21561
644.363	21487
644.423	20389
644.482	19551
644.541	20042
644.600	21477
644.659	24010
644.719	25831
644.778	32637
644.837	44057
644.896	71777
644.955	152689
645.014	217753
645.073	47652
645.132	26040
645.191	22501
645.250	21305
645.309	21522
645.368	21901
645.427	24530
645.486	29071
645.545	52114
645.604	53735
645.663	21310
645.722	20124
645.781	19967
645.840	21113
645.898	24511
645.957	29787
646.016	38488
646.075	57950
646.134	93162
646.192	170862
646.251	459195
646.310	337938
646.369	55530
646.427	31363
646.486	27941
646.545	22989
646.603	21889
646.662	19046
646.721	17152
646.779	17337
646.838	17650
646.896	19855
646.955	23618
647.014	29532
647.072	44997
647.131	87653
647.189	170250
647.248	46346
647.306	18858
647.365	16461
647.423	14690
647.481	16314
647.540	13810
647.598	14650
647.657	14921
647.715	15434
647.773	13982
647.832	14515
647.890	13239
647.948	13153
648.007	13402
648.065	12428
648.123	13453
648.181	12767
648.240	12114
648.298	12592
648.356	11627
648.414	11881
648.472	11907
648.531	11987
648.589	11440
648.647	11425
648.705	11663
648.763	10934
648.821	11224
648.879	11896
648.937	12078
648.995	14112
649.053	16303
649.111	20470
649.169	28962
649.227	45227
649.285	76628
649.343	172583
649.401	349151
649.459	86485
649.516	24021
649.574	17419
649.632	16811
649.690	20463
649.748	20164
649.806	22196
649.863	33084
649.921	58900
649.979	131971
650.037	46280
650.094	13310
650.152	10903
650.210	9739
650.268	9592
650.325	9966
650.383	11220
650.440	10225
650.498	9186
650.556	7845
650.613	8807
650.671	8563
650.728	8517
650.786	7753
650.843	8654
650.901	10553
650.958	7670
651.016	7778
651.073	6829
651.131	6892
651.188	7026
651.246	7122
651.303	5916
651.360	6251
651.418	6474
651.475	7338
651.532	5776
651.590	6914
651.647	6489
651.704	6632
651.762	6250
651.819	5674
651.876	5814
651.933	5350
651.990	6490
652.048	5397
652.105	5083
652.162	6161
652.219	6265
652.276	5695
652.333	5834
652.390	4805
652.448	5708
652.505	5712
652.562	5434
652.619	5902
652.676	5836
652.733	7097
652.790	6473
652.847	5053
652.904	5241
652.961	4807
653.017	4978
653.074	5200
653.131	5278
653.188	4819
653.245	5072
653.302	4776
653.359	4475
653.415	5580
653.472	4458
653.529	5067
653.586	4613
653.642	5107
653.699	5133
653.756	5013
653.813	4563
653.869	5145
653.926	4220
653.983	4800
654.039	4899
654.096	5836
654.152	4280
654.209	4469
654.266	5343
654.322	4150
654.379	5137
654.435	5254
654.492	4688
654.548	4457
654.605	4794
654.661	6715
654.717	4960
654.774	4607
654.830	5126
654.887	5684
654.943	5358
655.000	5033
655.056	5482
655.112	4855
655.168	4527
655.225	4870
655.281	5114
655.337	4069
655.394	5154
655.450	4941
655.506	4203
655.562	4705
655.618	4994
655.675	4226
655.731	4136
655.787	4523
655.843	4238
655.899	3970
655.955	5397
656.011	4074
656.067	4086
656.123	4643
656.179	4501
656.235	4673
656.291	4332
656.347	4946
656.403	4670
656.459	4231
656.515	3899
656.571	3819
656.627	4372
656.683	4338
656.739	4766
656.795	4244
656.850	3961
656.906	3802
656.962	3821
657.018	4996
657.074	5146
657.129	5745
657.185	7932
657.241	12863
657.297	23496
657.352	9779
657.408	4417
657.464	4388
657.519	4315
657.575	3480
657.630	3715
657.686	3876
657.742	3797
657.797	3426
657.853	2863
657.908	4020
657.964	4075
658.019	4003
658.075	3847
658.130	3905
658.186	3635
658.241	3952
658.297	3334
658.352	3345
658.407	3644
658.463	3066
658.518	3949
658.573	3710
658.629	3932
658.684	3571
658.739	2998
658.795	3296
658.850	3835
658.905	2856
658.960	4459
659.016	3732
659.071	3295
659.126	3540
659.181	3195
659.236	3299
659.291	4705
659.346	3733
659.401	3380
659.457	4348
659.512	3621
659.567	3989
659.622	3922
659.677	4157
659.732	2844
659.787	3455
659.842	3392
659.897	3431
659.952	4764
660.007	3237
660.061	3320
660.116	3505
660.171	4211
660.226	3304
660.281	3555
660.336	3044
660.391	3435
660.445	3457
660.500	3299
660.555	2719
660.610	2599
660.664	4274
660.719	3516
660.774	3778
660.828	2868
660.883	3359
660.938	3141
660.992	2718
661.047	3453
661.101	3186
661.156	3333
661.211	3114
661.265	2479
661.320	3132
661.374	3958
661.429	3285
661.483	3040
661.538	2820
661.592	3549
661.647	4075
661.701	3861
661.755	4555
661.810	3968
661.864	3078
661.919	2585
661.973	4222
662.027	3350
662.081	2826
662.136	2365
662.190	2611
662.244	3242
662.299	2484
662.353	3693
662.407	3486
662.461	2821
662.515	3428
662.569	2318
662.624	2847
662.678	2858
662.732	3177
662.786	2518
662.840	3044
662.894	2785
662.948	2517
663.002	3025
663.056	3346
663.110	2310
663.164	2739
663.218	3298
663.272	3156
663.326	3985
663.380	3006
663.434	3358
663.488	2626
663.542	3692
663.595	3165
663.649	3081
663.703	4060
663.757	3258
663.811	2475
663.864	2960
663.918	3170
663.972	2075
664.026	2543
664.079	2372
664.133	3664
664.187	3159
664.240	2570
664.294	3007
664.348	3053
664.401	3930
664.455	3721
664.508	3014
664.562	3201
664.615	3454
664.669	3052
664.722	2900
664.776	1926
664.829	3333
664.883	3269
664.936	2913
664.990	3563
665.043	3024
665.097	2767
665.150	3514
665.203	2746
665.257	2534
665.310	3180
665.363	2468
665.417	3687
665.470	3833
665.523	3269
665.576	3802
665.630	3073
665.683	2521
665.736	3446
665.789	3793
665.842	2549
665.895	2881
665.949	3413
666.002	2823
666.055	3076
666.108	3419
666.161	3321
666.214	3493
666.267	3663
666.320	3141
666.373	4335
666.426	3235
666.479	2717
666.532	3772
666.585	3252
666.638	3853
666.691	3292
666.744	4005
666.796	4003
666.849	3312
666.902	3841
666.955	2880
667.008	3227
667.060	2979
667.113	3059
667.166	4418
667.219	3834
667.271	3822
667.324	3897
667.377	3687
667.430	3957
667.482	4262
667.535	4387
667.587	3976
667.640	3687
667.693	3111
667.745	3256
667.798	3718
667.850	3625
667.903	3641
667.955	3505
668.008	3348
668.060	2909
668.113	3355
668.165	3394
668.218	3502
668.270	3608
668.322	3319
668.375	2520
668.427	3793
668.479	2388
668.532	3777
668.584	3856
668.636	2997
668.689	3095
668.741	2545
668.793	3176
668.845	3400
668.898	3519
668.950	2681
669.002	3217
669.054	3427
669.106	2762
669.158	3173
669.211	3613
669.263	3428
669.315	3047
669.367	3595
669.419	2902
669.471	3533
669.523	3285
669.575	2801
669.627	3062
669.679	2739
669.731	3196
669.783	3249
669.835	4143
669.886	3035
669.938	3010
669.990	3101
670.042	2329
670.094	2481
670.146	2462
670.197	2920
670.249	3234
670.301	3276
670.353	4241
670.404	4238
670.456	4349
670.508	6872
670.560	8287
670.611	11932
670.663	19185
670.715	31189
670.766	79766
670.818	104622
670.869	25020
670.921	6059
670.972	4775
671.024	4581
671.075	3542
671.127	3394
671.178	2929
671.230	3355
671.281	4176
671.333	3965
671.384	3782
671.436	5918
671.487	6280
671.538	8590
671.590	12758
671.641	18167
671.692	28596
671.744	58917
671.795	104128
671.846	61198
671.897	20017
671.949	10233
672.000	7214
672.051	6193
672.102	4558
672.153	3861
672.204	3714
672.256	3043
672.307	2667
672.358	1985
672.409	3247
672.460	2868
672.511	1896
672.562	2164
672.613	2042
672.664	2364
672.715	2259
672.766	2587
672.817	2369
672.868	2037
672.919	2036
672.970	1990
673.021	1781
673.071	1561
673.122	2401
673.173	1652
673.224	1468
673.275	2099
673.326	2122
673.376	2207
673.427	1261
673.478	2869
673.528	2399
673.579	2023
673.630	1628
673.680	1701
673.731	2311
673.782	1368
673.832	1408
673.883	1837
673.934	2406
673.984	1722
674.035	2184
674.085	2109
674.136	2169
674.186	1775
674.237	1666
674.287	1623
674.338	2340
674.388	1820
674.438	2259
674.489	2343
674.539	2261
674.589	1971
674.640	1611
674.690	1704
674.740	2124
674.791	2678
674.841	1423
674.891	2066
674.942	1548
674.992	1778
675.042	1523
675.092	1642
675.142	2106
675.193	839
675.243	1094
675.293	1595
675.343	1068
675.393	1218
675.443	1430
675.493	1814
675.543	1405
675.593	1697
675.643	1560
675.693	896
675.743	1267
675.793	2141
675.843	1510
675.893	1071
675.943	1366
675.993	1616
676.043	1409
676.093	1015
676.142	1094
676.192	1206
676.242	959
676.292	1392
676.341	1371
676.391	1159
676.441	1462
676.491	890
676.540	1002
676.590	1162
676.640	1472
676.689	1373
676.739	11
676.789	841
676.838	1291
676.888	1741
676.937	991
676.987	1678
677.037	724
677.086	1296
677.136	3
677.185	731
677.235	763
677.284	609
677.333	1419
677.383	1534
677.432	960
677.482	1530
677.531	1427
677.580	307
677.630	894
677.679	1028
677.728	929
677.778	995
677.827	738
677.876	1303
677.925	723
677.975	1236
678.024	1691
678.073	1305
678.122	1622
678.171	755
678.220	1104
678.269	1697
678.319	1242
678.368	2234
678.417	1599
678.466	1993
678.515	1284
678.564	713
678.613	1164
678.662	1003
678.711	693
678.760	657
678.809	443
678.857	1069
678.906	407
678.955	844
679.004	1453
679.053	1124
679.102	927
679.151	1528
679.199	675
679.248	364
679.297	1016
679.346	831
679.394	1218
679.443	1168
679.492	963
679.540	483
679.589	851
679.638	632
679.686	1692
679.735	1017
679.784	387
679.832	1465
679.881	2125
679.929	1122
679.978	379
680.026	259
680.075	1449
680.123	755
680.172	618
680.220	421
680.268	932
680.317	505
680.365	1155
680.414	752
680.462	-115
680.510	898
680.559	783
680.607	229
680.655	300
680.703	389
680.752	1460
680.800	1168
680.848	-2
680.896	271
680.945	781
680.993	671
681.041	193
681.089	394
681.137	652
681.185	346
681.233	828
681.258	905
681.281	956
681.329	1090
681.377	474
681.380	506
681.425	628
681.473	972
681.502	667
681.521	416
681.569	1441
681.617	855
681.624	871
681.665	800
681.713	746
681.745	1163
681.761	1318
681.809	1651
681.857	1708
681.867	1530
681.904	817
681.952	2349
681.989	1206
682.000	837
682.048	1974
682.096	1440
682.111	1645
682.143	1999
682.191	1844
682.233	1680
682.239	1629
682.286	2441
682.334	2034
682.354	2065
682.382	2058
682.430	1605
682.476	1790
682.477	1772
682.525	2100
682.572	2068
682.598	2052
682.620	2033
682.667	1578
682.715	2542
682.720	2587
682.763	2703
682.810	2454
682.841	2191
682.857	2056
682.905	2096
682.952	2582
682.963	2551
683.000	2291
683.047	2318
683.085	2884
683.095	3026
683.142	2364
683.190	2632
683.206	2563
683.237	2349
683.284	2143
683.328	2384
683.332	2385
683.379	1975
683.426	2879
683.449	2671
683.473	2450
683.521	3342
683.568	2679
683.571	2716
683.615	2964
683.662	3768
683.693	2767
683.709	2175
683.757	3009
683.804	3333
683.814	3280
683.851	2988
683.898	3105
683.936	2657
683.945	2542
683.992	3223
684.039	2669
684.057	3006
684.086	3530
684.133	3777
684.179	3019
684.180	2977
684.227	3381
684.274	3328
684.300	3641
684.321	3871
684.368	3182
684.415	3484
684.422	3500
684.462	3550
684.509	3430
684.543	3576
684.556	3603
684.603	3913
684.649	3811
684.665	3714
684.696	3540
684.743	4172
684.786	4303
684.790	4297
684.837	3970
684.883	4398
684.908	4419
684.930	4386
684.977	4350
685.023	3758
685.029	3861
685.070	4680
685.117	4462
685.150	4333
685.164	4222
685.210	4594
685.257	4516
685.272	4549
685.303	4655
685.350	4638
685.393	4596
685.396	4575
685.443	4692
685.490	5153
685.514	4607
685.536	4162
685.583	4342
685.629	4635
685.636	4675
685.675	4782
685.722	4818
685.757	4280
685.768	4126
685.815	4793
685.861	4827
685.878	4865
685.908	4938
685.954	5352
686.000	5202
686.000	5191
686.047	5330
686.093	4825
686.121	5000
686.139	5208
686.185	5609
686.232	5878
686.242	5848
686.278	5617
686.324	5065
686.363	5741
686.370	5840
686.416	5454
686.463	5650
686.484	5430
686.509	5255
686.555	5551
686.601	5618
686.606	5638
686.647	5625
686.693	5804
686.727	5477
686.739	5432
686.785	5992
686.831	5775
686.848	5997
686.877	6163
686.923	5657
686.969	5434
686.969	5433
687.015	5709
687.061	5769
687.090	6053
687.107	6178
687.153	6190
687.199	6577
687.211	6445
687.245	6181
687.291	6409
687.332	6675
687.336	6665
687.382	6671
687.428	6436
687.453	6440
687.474	6658
687.520	6226
687.565	6824
687.574	6776
687.611	6478
687.657	6949
687.695	7542
687.702	7746
687.748	8739
687.794	9235
687.816	9854
687.839	10534
687.885	10792
687.931	11272
687.937	11320
687.976	9837
688.022	8850
688.058	7826
688.067	7806
688.113	7493
688.158	7310
688.179	7352
688.204	7490
688.249	7505
688.295	7051
688.300	7049
688.340	7032
688.386	7708
688.421	7089
688.431	6939
688.477	7185
688.522	7199
688.542	7233
688.567	7411
688.613	7677
688.658	7803
688.663	7862
688.703	8384
688.749	8336
688.784	7972
688.794	7770
688.839	8281
688.884	7525
688.905	7495
688.930	7715
688.975	8100
689.020	8120
689.026	8161
689.065	8296
689.110	7670
689.146	7700
689.155	7772
689.201	8005
689.246	8667
689.267	8753
689.291	8862
689.336	8972
689.381	9071
689.388	9045
689.426	8496
689.471	8362
689.509	8220
689.516	8265
689.561	7846
689.606	7678
689.630	7744
689.651	7868
689.696	8162
689.741	8503
689.750	8545
689.785	8677
689.830	8237
689.871	8216
689.875	8214
689.920	7980
689.965	8100
689.992	8049
690.010	8052
690.054	8073
690.099	7538
690.112	7666
690.144	8176
690.189	8285
690.233	7879
690.233	7889
690.278	8515
690.323	8421
690.354	8645
690.367	8744
690.412	8816
690.457	8371
690.474	8452
690.501	8598
690.546	8490
690.590	8791
690.595	8765
690.635	8615
690.680	8102
690.716	7906
690.724	7921
690.769	8392
690.813	8525
690.836	8614
690.857	8887
690.902	9311
690.946	10200
690.957	10254
690.991	10744
691.035	11627
691.077	12698
691.080	12845
691.124	15240
691.168	17138
691.198	18140
691.213	17301
691.257	15306
691.301	13783
691.318	12763
691.346	11865
691.390	11056
691.434	9882
691.439	9745
691.478	9679
691.522	9686
691.559	9734
691.567	9785
691.611	9991
691.655	10006
691.680	10093
691.699	10142
691.743	10118
691.787	10047
691.800	9978
691.831	9799
691.875	9777
691.919	9787
691.921	9763
691.964	9755
692.008	9820
692.041	9909
692.052	9974
692.096	9799
692.139	10038
692.162	10045
692.183	9932
692.227	9668
692.271	9226
692.282	9159
692.315	9350
692.359	9590
692.402	9700
692.403	9722
692.447	9993
692.490	10197
692.523	10297
692.534	10276
692.578	10373
692.622	10439
692.643	10380
692.666	10338
692.709	10086
692.753	9837
692.763	9744
692.797	9652
692.840	10083
692.884	9780
692.884	9801
692.928	9909
692.971	10425
693.004	10448
693.015	10417
693.059	10378
693.102	10508
693.124	10310
693.146	10214
693.189	10570
693.233	10307
693.245	10317
693.276	10561
693.320	10725
693.363	10841
693.365	10830
693.407	11049
693.450	11082
693.485	10925
693.493	10960
693.537	11355
693.580	11628
693.605	11796
693.624	12067
693.667	12599
693.710	13059
693.725	13245
693.753	14269
693.797	15745
693.840	17508
693.845	17661
693.883	22914
693.926	28631
693.966	33796
693.970	33323
694.013	27603
694.056	22005
694.086	18000
694.099	17267
694.142	15201
694.185	12582
694.206	11553
694.229	11705
694.272	11747
694.315	11743
694.326	11681
694.358	11327
694.401	11166
694.444	10551
694.446	10511
694.487	10848
694.530	11100
694.566	11193
694.573	11187
694.616	11037
694.659	10944
694.686	10828
694.702	10865
694.745	11117
694.787	10936
694.806	10989
694.830	11282
694.873	11614
694.916	11917
694.926	11942
694.959	11761
695.002	11692
695.044	11560
695.046	11521
695.087	11716
695.130	11884
695.166	12296
695.172	12372
695.215	12305
695.258	12438
695.286	12402
695.301	12392
695.343	12352
695.386	12221
695.406	12236
695.428	12457
695.471	12451
695.514	12777
695.526	12817
695.556	13517
695.599	14681
695.641	15458
695.646	15522
695.684	16564
695.726	17684
695.766	18573
695.769	18542
695.811	17613
695.854	16694
695.886	15711
695.896	15664
695.938	15519
695.981	15495
696.005	15338
696.023	15476
696.065	15850
696.108	16157
696.125	16242
696.150	16621
696.192	17207
696.235	17694
696.245	17808
696.277	18233
696.319	18657
696.361	19060
696.365	19040
696.404	19071
696.446	19243
696.485	19334
696.488	19380
696.530	19217
696.572	19049
696.604	18878
696.614	18870
696.656	18682
696.698	18536
696.724	18372
696.740	18353
696.783	18086
696.825	17974
696.844	17827
696.867	18114
696.909	18548
696.951	19004
696.964	19119
696.992	19066
697.034	18821
697.076	18655
697.083	18558
697.118	18940
697.160	19517
697.202	19994
697.203	19957
697.244	20511
697.286	20929
697.323	21285
697.327	21331
697.369	21297
697.411	21177
697.442	21143
697.453	21210
697.494	21097
697.536	21054
697.562	20962
697.578	20941
697.620	20681
697.661	20530
697.682	20378
697.703	20384
697.744	20302
697.786	20225
697.801	20145
697.828	20743
697.869	21590
697.911	22357
697.921	22520
697.952	22596
697.994	22506
698.035	22450
698.040	22381
698.077	22053
698.118	21643
698.160	21230
698.160	21171
698.201	21373
698.243	21497
698.279	21552
698.284	21688
698.325	22435
698.367	23145
698.399	23673
698.408	23859
698.449	24388
698.491	24950
698.518	25223
698.532	25337
698.573	25537
698.614	25731
698.638	25750
698.656	25865
698.697	26010
698.738	26127
698.757	26120
698.779	26122
698.820	25991
698.862	25848
698.877	25739
698.903	25791
698.944	25738
698.985	25690
698.996	25610
699.026	25541
699.067	25353
699.116	25063
699.235	25691
699.354	25513
699.474	24744
699.593	23242
699.713	23166
699.832	23520
699.951	23801
700.070	25619
700.190	24362
700.309	23144
700.428	21532
700.547	22139
700.667	20689
700.786	21282
700.905	21732
701.024	20999
701.143	21413
701.262	20932
701.381	21791
701.500	21783
701.619	22722
701.738	22101
701.857	23462
701.976	21052
702.095	19923
702.214	21454
702.333	21633
702.452	20631
702.571	21285
702.690	21846
702.809	20532
702.928	21414
703.047	20817
703.165	18844
703.284	19831
703.403	19743
703.522	19283
703.640	19221
703.759	18849
703.878	18787
703.997	17570
704.115	18683
704.234	19394
704.353	19233
704.471	18877
704.590	17055
704.708	17816
704.827	17047
704.946	16261
705.064	17377
705.183	17773
705.301	17048
705.420	18579
705.538	17442
705.656	16749
705.775	15633
705.893	16545
706.012	23439
706.130	21487
706.249	15725
706.367	16742
706.485	15615
706.604	15619
706.722	16021
706.840	16369
706.958	20076
707.077	28666
707.195	18612
707.313	16355
707.431	14951
707.549	13924
707.668	14750
707.786	13126
707.904	15096
708.022	13664
708.140	15306
708.258	14291
708.376	14057
708.494	13655
708.612	13835
708.730	14402
708.848	15207
708.966	14939
709.084	14521
709.202	14444
709.320	14238
709.438	14264
709.556	13788
709.674	14037
709.791	13298
709.909	13625
710.027	13122
710.145	12300
710.263	12522
710.380	12261
710.498	12873
710.616	11362
710.733	13221
710.851	11627
710.969	12554
711.086	12677
711.204	12235
711.322	12023
711.439	12103
711.557	11110
711.674	12020
711.792	10553
711.909	12078
712.027	11065
712.144	12117
712.262	11135
712.379	11291
712.497	11581
712.614	11518
712.732	11326
712.849	12270
712.966	10497
713.084	12108
713.201	12668
713.318	10735
713.436	11856
713.553	12421
713.670	10640
713.787	12389
713.905	12785
714.022	11471
714.139	12327
714.256	12870
714.373	15106
714.490	22309
714.608	41273
714.725	116817
714.842	458179
714.959	250743
715.076	28628
715.193	16094
715.310	13949
715.427	13204
715.544	11115
715.661	11543
715.778	11288
715.895	11129
716.011	10922
716.128	11022
716.245	9925
716.362	11312
716.479	10398
716.596	9940
716.713	10178
716.829	9466
716.946	9009
717.063	9593
717.180	9131
717.296	8598
717.413	8664
717.530	9515
717.646	9389
717.763	8668
717.880	8618
717.996	9549
718.113	7379
718.229	9157
718.346	7698
718.462	8207
718.579	8295
718.695	9327
718.812	8886
718.928	8235
719.045	8876
719.161	7582
719.277	8822
719.394	9005
719.510	8787
719.626	9396
719.743	10125
719.859	12104
719.975	18489
720.092	40215
720.208	173973
720.324	241063
720.440	23715
720.557	10649
720.673	10475
720.789	10186
720.905	9269
721.021	11107
721.137	8408
721.253	8506
721.369	7943
721.486	7051
721.602	7655
721.718	6839
721.834	6997
721.950	7064
722.066	7693
722.181	7159
722.297	7068
722.413	7426
722.529	6771
722.645	6485
722.761	6591
722.877	6753
722.993	7122
723.108	7751
723.224	8570
723.340	7870
723.456	6830
723.571	6221
723.687	6284
723.803	6482
723.918	5848
724.034	6550
724.150	6645
724.265	6629
724.381	6366
724.497	6730
724.612	6374
724.728	6917
724.843	5820
724.959	6102
725.074	6708
725.190	7950
725.305	7287
725.421	6369
725.536	5987
725.651	6439
725.767	6759
725.882	6535
725.997	6187
726.113	6176
726.228	6428
726.343	6061
726.459	6087
726.574	6763
726.689	6281
726.804	6376
726.920	5406
727.035	6274
727.150	5815
727.265	5614
727.380	6190
727.495	7057
727.610	6001
727.725	5207
727.841	5999
727.956	6544
728.071	10313
728.186	7209
728.301	5944
728.416	6111
728.531	5796
728.645	5564
728.760	5645
728.875	5641
728.990	5701
729.105	6296
729.220	5252
729.335	5808
729.449	5955
729.564	5492
729.679	5841
729.794	6129
729.908	5486
730.023	5791
730.138	6035
730.253	5966
730.367	6282
730.482	5666
730.596	5866
730.711	6011
730.826	7302
730.940	11331
731.055	10165
731.169	7461
731.284	6824
731.398	7872
731.513	7843
731.627	7574
731.742	8417
731.856	10356
731.970	12535
732.085	13131
732.199	15549
732.313	20715
732.428	34412
732.542	93829
732.656	255080
732.771	102333
732.885	24391
732.999	17282
733.113	16776
733.227	18566
733.342	16982
733.456	16382
733.570	16236
733.684	15620
733.798	14415
733.912	14736
734.026	15018
734.140	15105
734.254	14539
734.368	14006
734.482	14655
734.596	14199
734.710	14327
734.824	12785
734.938	13357
735.052	13629
735.166	14219
735.280	14002
735.393	13020
735.507	12901
735.621	13043
735.735	13410
735.849	13484
735.962	13537
736.076	12272
736.190	12059
736.303	12487
736.417	12735
736.531	11336
736.644	11703
736.758	11517
736.872	12139
736.985	11270
737.099	12449
737.212	11053
737.326	12209
737.439	11326
737.553	12629
737.666	10474
737.780	11682
737.893	10853
738.007	11619
738.120	10903
738.233	12399
738.347	9213
738.460	11443
738.573	9786
738.687	11858
738.800	10788
738.913	10394
739.026	11281
739.140	10063
739.253	9110
739.366	10596
739.479	9573
739.592	10993
739.705	10390
739.818	8238
739.932	10165
740.045	8729
740.158	10391
740.271	8965
740.384	9422
740.497	9180
740.610	8189
740.723	9865
740.836	8686
740.949	9701
741.062	9715
741.174	10436
741.287	7933
741.400	9119
741.513	9199
741.626	8066
741.739	9348
741.851	8838
741.964	8532
742.077	9082
742.189	8096
742.302	7700
742.415	8090
742.527	8606
742.640	8935
742.753	8755
742.865	6459
742.978	7912
743.090	8300
743.203	7418
743.316	7206
743.428	7545
743.541	7862
743.653	7945
743.766	6542
743.878	7509
743.990	7943
744.103	6916
744.215	7611
744.327	7162
744.440	7330
744.552	9635
744.664	6718
744.777	6983
744.889	7748
745.001	7857
745.113	6083
745.226	7842
745.338	6191
745.450	6174
745.562	8061
745.674	7050
745.786	6884
745.898	7620
746.010	6546
746.122	6568
746.234	7565
746.347	8090
746.459	7602
746.570	6741
746.682	5646
746.794	7782
746.906	7030
747.018	5475
747.130	7228
747.242	7446
747.354	5035
747.466	6556
747.577	6966
747.689	6491
747.801	6824
747.913	6358
748.024	5793
748.136	5828
748.248	6444
748.359	6036
748.471	5766
748.583	6771
748.694	5185
748.806	5753
748.918	6278
749.029	6083
749.141	6020
749.252	6191
749.364	5733
749.475	6178
749.587	6090
749.698	5235
749.809	5762
749.921	5401
750.032	4988
750.144	5967
750.255	5044
750.366	5699
750.478	6138
750.589	5537
750.700	5610
750.811	6006
750.923	5100
751.034	4914
751.145	6535
751.256	6642
751.367	5359
751.479	5085
751.590	5059
751.701	5658
751.812	5510
751.923	5457
752.034	3927
752.145	6169
752.256	5244
752.367	5962
752.478	5483
752.589	6220
752.700	5525
752.811	4618
752.922	4817
753.032	4808
753.143	6229
753.254	5011
753.365	4533
753.476	6007
753.586	5165
753.697	4861
753.808	4733
753.919	5303
754.029	5769
754.140	5648
754.251	4345
754.361	5169
754.472	4975
754.582	5288
754.693	5067
754.804	4834
754.914	4852
755.025	5087
755.135	4783
755.246	4292
755.356	6195
755.466	5228
755.577	4189
755.687	4555
755.798	5125
755.908	4427
756.018	5024
756.129	4911
756.239	4520
756.349	4893
756.460	5634
756.570	5870
756.680	4662
756.790	4783
756.900	5579
757.011	4956
757.121	4516
757.231	4362
757.341	4710
757.451	4669
757.561	4643
757.671	4667
757.781	4828
757.891	4894
758.001	3935
758.111	4197
758.221	5221
758.331	5221
758.441	5345
758.551	4523
758.661	4555
758.771	5276
758.880	5063
758.990	5425
759.100	4489
759.210	4926
759.320	4429
759.429	5541
759.539	4627
759.649	5766
759.758	4714
759.868	5892
759.978	5243
760.087	5750
760.197	6759
760.307	5542
760.416	5748
760.526	5762
760.635	5431
760.745	6055
760.854	6452
760.964	6805
761.073	7482
761.182	7196
761.292	6682
761.401	5643
761.511	5331
761.620	5116
761.729	4570
761.839	5881
761.948	4905
762.057	5564
762.166	5001
762.276	5232
762.385	5497
762.494	5223
762.603	4763
762.712	5104
762.822	5114
762.931	5456
763.040	4149
763.149	5218
763.258	5494
763.367	6311
763.476	5635
763.585	5057
763.694	5679
763.803	5328
763.912	6323
764.021	6335
764.130	6229
764.238	5855
764.347	5927
764.456	6801
764.565	7858
764.674	7238
764.783	7633
764.891	7685
765.000	8479
765.109	8776
765.217	9127
765.326	10554
765.435	13789
765.543	15031
765.652	17142
765.761	22083
765.869	27281
765.978	39578
766.086	57904
766.195	95040
766.303	176160
766.412	344609
766.520	483507
766.629	379683
766.737	243732
766.846	126981
766.954	75067
767.062	50898
767.171	37392
767.279	29814
767.387	22869
767.496	19358
767.604	16684
767.712	14162
767.820	12913
767.928	11981
768.037	11264
768.145	10377
768.253	10034
768.361	9041
768.469	9141
768.577	9460
768.685	8494
768.793	9446
768.901	10451
769.009	11616
769.117	12081
769.225	14585
769.333	18450
769.441	25333
769.549	39391
769.657	71828
769.765	150905
769.873	341593
769.981	379558
770.088	231466
770.196	101117
770.304	52790
770.412	34932
770.519	25737
770.627	19481
770.735	15902
770.842	13426
770.950	11931
771.058	10681
771.165	11064
771.273	11553
771.380	11547
771.488	9553
771.595	12421
771.703	13354
771.810	12125
771.918	10844
772.025	11609
772.133	12800
772.240	14123
772.348	13614
772.455	15578
772.562	13772
772.670	13031
772.777	12424
772.884	13089
772.991	11667
773.099	11341
773.206	13177
773.313	11707
773.420	11361
773.528	11127
773.635	11390
773.742	12287
773.849	11817
773.956	10185
774.063	10939
774.170	10393
774.277	11799
774.384	10724
774.491	10185
774.598	10126
774.705	10167
774.812	10309
774.919	10729
775.026	10354
775.133	10078
775.239	10414
775.346	9840
775.453	9752
775.560	9860
775.667	9719
775.773	10204
775.880	9431
775.987	8793
776.093	8605
776.200	9548
776.307	9846
776.413	7758
776.520	7969
776.627	10686
776.733	8152
776.840	7546
776.946	8030
777.053	9937
777.159	9309
777.266	8251
777.372	7996
777.478	7735
777.585	9750
777.691	9314
777.798	7779
777.904	8540
778.010	7812
778.117	8062
778.223	8472
778.329	7436
778.435	8406
778.542	7253
778.648	8906
778.754	7321
778.860	7458
778.966	7522
779.072	7751
779.178	7321
779.284	7323
779.391	6377
779.497	7572
779.603	8879
779.708	7824
779.815	8540
779.920	11222
780.026	31290
780.132	49263
780.238	11046
780.344	7255
780.450	6755
780.556	8893
780.661	5810
780.767	6721
780.873	7751
780.979	4811
781.085	6105
781.190	6850
781.296	6214
781.402	5851
781.507	6769
781.613	6746
781.719	5260
781.824	6302
781.930	6656
782.035	5456
782.141	6330
782.246	7274
782.352	4866
782.457	5716
782.563	6100
782.668	6626
782.773	5816
782.879	5418
782.984	5503
783.090	6505
783.195	5580
783.300	6260
783.405	6918
783.511	5772
783.616	4145
783.721	5313
783.826	5155
783.932	5151
784.037	4583
784.142	5904
784.247	5262
784.352	5847
784.457	6094
784.562	3857
784.667	5646
784.772	5651
784.877	4218
784.982	4479
785.087	5824
785.192	5967
785.297	4433
785.402	4614
785.507	5346
785.611	5746
785.716	4783
785.821	3245
785.926	4383
786.031	5294
786.135	4633
786.240	5185
786.345	4680
786.450	3342
786.554	3227
786.659	4885
786.763	3858
786.868	4484
786.973	4761
787.077	4588
787.182	4499
787.286	3730
787.391	4079
787.495	6130
787.600	2716
787.704	3521
787.809	4095
787.913	4298
788.017	4167
788.122	4254
788.226	3915
788.330	3602
788.435	3188
788.539	4583
788.643	4178
788.747	3478
788.852	2342
788.956	4238
789.060	4386
789.164	4858
789.268	3300
789.372	4415
789.476	3951
789.580	3746
789.684	2887
789.788	3448
789.892	4130
789.996	3449
790.100	2731
790.204	2733
790.308	4220
790.412	4648
790.516	3263
790.620	2914
790.724	2902
790.828	4559
790.931	3834
791.035	2313
791.139	3125
791.242	3221
791.346	3768
791.450	3053
791.554	3302
791.657	2378
791.761	3345
791.864	3393
791.968	3388
792.072	4148
792.175	3186
792.279	2579
792.382	2507
792.486	3568
792.589	2725
792.693	3456
792.796	3716
792.899	3151
793.003	3762
793.106	4047
793.209	2682
793.313	2398
793.416	2302
793.519	2336
793.623	2335
793.726	5101
793.829	4023
793.932	1923
794.035	2036
794.138	3482
794.242	3172
794.345	3470
794.448	2429
794.551	3172
794.654	6557
794.757	15391
794.860	26874
794.963	5196
795.066	3062
795.169	2501
795.272	2710
795.375	3374
795.477	3257
795.580	2205
795.683	1843
795.786	2457
795.889	2173
795.991	3144
796.094	1687
796.197	2327
796.300	2765
796.402	3174
796.505	2983
796.608	2263
796.710	1547
796.813	2543
796.915	2625
797.018	2841
797.120	2162
797.223	2694
797.326	2625
797.428	2274
797.530	2432
797.633	1323
797.735	1682
797.838	3352
797.940	2203
798.042	3219
798.145	1896
798.247	2214
798.349	1652
798.452	2257
798.554	1799
798.656	2726
798.758	3346
798.860	2249
798.962	1927
799.065	2247
799.167	1984
799.269	2567
799.371	963
799.473	2494
799.575	2850
799.677	2527
799.779	2292
799.881	1201
799.983	2912
800.085	2657
800.187	1792
800.289	2292
800.390	1400
800.492	1642
800.594	2941
800.696	2388
800.798	1179
800.899	1289
801.001	1895
801.103	2343
801.205	2287
801.306	2126
801.408	2069
801.509	2173
801.611	1680
801.713	1961
801.814	1729
801.916	1727
802.017	884
802.119	1134
802.220	1679
802.322	664
802.423	2655
802.525	1937
802.626	1979
802.727	1615
802.829	1509
802.930	1571
803.031	1109
803.133	1043
803.234	1555
803.335	1811
803.436	1972
803.538	1072
803.639	1466
803.740	1815
803.841	1772
803.942	1803
804.043	2450
804.144	1276
804.245	623
804.346	1622
804.447	1058
804.548	1507
804.649	1675
804.750	1509
804.851	1397
804.952	843
805.053	1488
805.154	1411
805.255	1870
805.355	1109
805.456	1056
805.557	2041
805.658	1701
805.758	1402
805.859	1421
805.960	1578
806.061	1422
806.161	1228
806.262	1577
806.362	1103
806.463	538
806.564	1427
806.664	1684
806.765	1783
806.865	673
806.966	1100
807.066	1112
807.166	1701
807.267	2179
807.367	1313
807.468	1641
807.568	1636
807.668	1717
807.769	1022
807.869	940
807.969	1949
808.069	1326
808.170	934
808.270	1894
808.370	1282
808.470	1485
808.570	1884
808.670	802
808.770	1697
808.870	1877
808.970	572
809.070	818
809.170	1803
809.271	1035
809.370	2747
809.470	257
809.570	1320
809.670	1144
809.770	1404
809.870	1728
809.970	1948
810.070	1474
810.169	1187
810.269	210
810.369	1799
810.469	1075
810.568	1263
810.668	1133
810.768	1393
810.867	898
810.967	1179
811.066	809
811.166	1169
811.265	1063
811.365	1797
811.464	703
811.564	1634
811.663	1398
811.763	1554
811.862	1995
811.962	1122
812.061	1986
812.160	1685
812.260	992
812.359	1532
812.458	1028
812.557	1658
812.657	1956
812.756	2068
812.855	1976
812.954	1531
813.053	1779
813.153	955
813.252	1298
813.351	1634
813.450	1472
813.549	1963
813.648	1682
813.747	1442
813.846	1871
813.945	1710
814.044	1011
814.143	2523
814.242	2102
814.341	1129
814.439	1306
814.538	2317
814.637	2485
814.736	2075
814.835	2182
814.933	1919
815.032	2406
815.131	3372
815.229	4905
815.328	7256
815.427	10043
815.525	7820
815.624	7087
815.722	6476
815.821	6980
815.919	6197
816.018	6446
816.116	7015
816.215	6157
816.313	6427
816.412	7388
816.510	8905
816.609	9199
816.707	8508
816.805	9678
816.904	8402
817.002	8855
817.100	9565
817.198	8393
817.296	9843
817.395	9122
817.493	9131
817.591	7799
817.689	8442
817.787	8713
817.885	10036
817.983	9418
818.081	13521
818.179	21388
818.277	43026
818.375	97732
818.473	70448
818.571	19269
818.669	11413
818.767	10170
818.865	11145
818.963	9849
819.061	9610
819.158	14705
819.256	19624
819.354	36823
819.452	78039
819.549	154811
819.647	85511
819.745	23300
819.842	12975
819.940	10408
820.038	10054
820.135	8616
820.233	7713
820.330	7376
820.428	7119
820.525	7771
820.623	7591
820.720	5787
820.818	6592
820.915	5980
821.012	7225
821.110	5586
821.207	6395
821.304	6116
821.402	5532
821.499	7649
821.596	6555
821.693	5217
821.791	6247
821.888	6857
821.985	6509
822.082	6219
822.179	6393
822.276	6057
822.373	6130
822.470	4930
822.567	5520
822.664	6270
822.761	5874
822.858	4632
822.955	6232
823.052	5415
823.149	4687
823.246	5362
823.343	5894
823.440	4315
823.536	4439
823.633	5628
823.730	4952
823.827	4667
823.923	4695
824.020	5186
824.117	4711
824.213	5954
824.310	5589
824.407	4698
824.503	3826
824.600	5155
824.696	4618
824.793	4220
824.889	5265
824.986	5382
825.082	4151
825.179	3499
825.275	4420
825.371	4628
825.468	6224
825.564	3752
825.660	3446
825.757	4500
825.853	6350
825.949	3718
826.045	3948
826.142	3314
826.238	4733
826.334	4569
826.430	4420
826.526	3969
826.622	3093
826.718	3092
826.814	4637
826.910	5424
827.006	4603
827.102	2292
827.198	3112
827.294	3294
827.390	5071
827.486	5025
827.582	2834
827.678	2444
827.774	2699
827.869	3528
827.965	3319
828.061	2842
828.157	2979
828.252	4168
828.348	4466
828.444	3815
828.539	3325
828.635	3788
828.731	4209
828.826	3272
828.922	3361
829.017	3101
829.113	4018
829.208	4511
829.304	2757
829.399	3449
829.495	4610
829.590	3845
829.685	2489
829.781	3405
829.876	4401
829.971	4000
830.066	1636
830.162	1849
830.257	2862
830.352	4685
830.447	4147
830.543	1600
830.638	1924
830.733	4114
830.828	4195
830.923	3319
831.018	3138
831.113	2846
831.208	4447
831.303	2768
831.398	2041
831.493	1867
831.588	3356
831.683	4094
831.778	3139
831.873	1369
831.967	2261
832.062	2785
832.157	3750
832.252	2736
832.346	2441
832.441	2187
832.536	4013
832.631	2358
832.725	3132
832.820	2401
832.914	2430
833.009	2751
833.104	1995
833.198	1947
833.293	1637
833.387	2752
833.482	4200
833.576	2488
833.670	2849
833.765	1831
833.859	2107
833.954	4115
834.048	3182
834.142	2284
834.237	2222
834.331	1515
834.425	2509
834.519	3221
834.613	2808
834.708	1685
834.802	2646
834.896	1650
834.990	2891
835.084	2077
835.178	1475
835.272	1247
835.366	2347
835.460	3637
835.554	3448
835.648	2491
835.742	1574
835.836	747
835.930	1588
836.024	2422
836.117	3070
836.211	1579
836.305	2546
836.399	1863
836.493	1436
836.586	2261
836.680	1862
836.774	2646
836.867	2116
836.961	1058
837.055	2475
837.148	1983
837.242	1626
837.335	2076
837.429	2255
837.522	1210
837.616	1314
837.709	1672
837.803	2204
837.896	1527
837.989	2844
838.083	3444
838.176	1654
838.269	1551
838.363	1659
838.456	1275
838.549	1972
838.642	2631
838.735	2174
838.829	2154
838.922	1890
839.015	1722
839.108	2040
839.201	1465
839.294	1947
839.387	2531
839.480	1393
839.573	1916
839.666	1637
839.759	779
839.852	1949
839.945	901
840.038	1891
840.131	1482
840.223	1288
840.316	1689
840.409	1510
840.502	1871
840.594	3520
840.687	2216
840.780	1478
840.873	306
840.965	1904
841.058	1060
841.150	1589
841.243	2183
841.336	1198
841.428	2153
841.521	897
841.613	1039
841.706	1963
841.798	1378
841.890	1402
841.983	1308
842.075	1625
842.167	1589
842.260	1330
842.352	1270
842.444	1939
842.537	2131
842.629	1850
842.721	662
842.813	1732
842.905	1010
842.997	2313
843.090	1448
843.182	1562
843.274	693
843.366	1559
843.458	1460
843.550	2399
843.642	2161
843.734	2293
843.826	951
843.918	1386
844.009	385
844.101	1144
844.193	1349
844.285	1711
844.377	1719
844.469	1175
844.560	1021
844.652	659
844.744	1333
844.835	1262
844.927	1470
845.019	834
845.110	1574
845.202	1491
845.293	1728
845.385	624
845.476	978
845.568	2093
845.659	1480
845.751	368
845.842	564
845.934	1164
846.025	1004
846.116	1766
846.208	1053
846.299	1063
846.390	665
846.482	737
846.573	478
846.664	2151
846.755	876
846.846	1354
846.937	625
847.029	1476
847.120	652
847.211	1468
847.302	1628
847.393	1397
847.484	1895
847.575	1282
847.666	408
847.757	1229
847.847	125
847.938	495
848.029	1238
848.120	1785
848.211	363
848.302	836
848.392	363
848.483	541
848.574	929
848.664	933
848.755	1603
848.846	1037
848.936	442
849.027	1095
849.118	970
849.208	1240
849.299	1028
849.389	2820
849.480	3393
849.570	7225
849.661	11781
849.751	22257
849.841	35069
849.932	11810
850.022	2045
850.112	1599
850.203	696
850.293	533
850.383	826
850.474	1123
850.564	481
850.654	1027
850.744	314
850.834	1231
850.924	519
851.014	1173
851.104	1011
851.194	501
851.284	713
851.374	439
851.464	509
851.554	246
851.644	55
851.734	913
851.824	380
851.914	1398
852.004	1226
852.094	1823
852.183	1246
852.273	407
852.363	247
852.452	874
852.542	272
852.632	690
852.721	-209
852.811	161
852.901	818
852.990	1052
853.080	2116
853.169	1525
853.259	1064
853.348	1023
853.438	1514
853.527	2344
853.617	1794
853.706	3813
853.795	7530
853.885	14930
853.974	29895
854.063	51500
854.152	91572
854.242	121752
854.331	44594
854.420	11089
854.509	4723
854.598	4234
854.687	2597
854.777	3012
854.866	1682
854.955	1296
855.044	997
855.133	1774
855.222	902
855.311	704
855.400	421
855.488	927
855.577	-107
855.666	1042
855.755	650
855.844	835
855.933	606
856.021	1423
856.110	780
856.199	372
856.288	246
856.376	58
856.465	-367
856.554	759
856.642	16
856.731	2048
856.819	1062
856.908	1006
856.996	983
857.085	735
857.173	148
857.262	178
857.350	809
857.438	726
857.527	167
857.615	-96
857.703	271
857.792	503
857.880	970
857.968	898
858.056	439
858.145	69
858.233	1009
858.321	541
858.409	-111
858.497	270
858.585	544
858.673	950
858.761	73
858.849	-173
858.937	-131
859.025	786
859.113	524
859.201	650
859.289	1428
859.377	1651
859.465	1425
859.552	1818
859.640	-15
859.728	967
859.816	510
859.903	830
859.991	180
860.079	270
860.166	665
860.254	699
860.342	0
860.429	368
860.517	837
860.604	1372
860.692	619
860.779	822
860.867	-759
860.954	924
861.042	1227
861.129	1046
861.216	1676
861.304	702
861.391	633
861.478	775
861.565	1048
861.653	-69
861.740	-312
861.827	-80
861.914	659
862.001	847
862.089	979
862.176	1024
862.263	604
862.350	232
862.437	884
862.524	503
862.611	1325
862.698	1134
862.785	1155
862.871	950
862.958	675
863.045	1110
863.132	1092
863.219	576
863.306	279
863.392	1190
863.479	462
863.566	355
863.652	1075
863.739	1233
863.826	1416
863.912	858
863.999	1977
864.086	1682
864.172	1115
864.259	2166
864.345	2192
864.432	1832
864.518	1719
864.604	1531
864.691	1224
864.777	2442
864.863	2445
864.950	2466
865.036	3832
865.122	6884
865.209	11183
865.295	11489
865.381	10022
865.467	9559
865.553	9339
865.639	9822
865.726	10731
865.812	15080
865.898	21872
865.984	36031
866.070	45385
866.156	80198
866.242	79244
866.328	26904
866.414	12403
866.499	10118
866.585	9302
866.671	8828
866.757	8340
866.843	8539
866.928	7984
867.014	7530
867.100	7421
867.186	7756
867.271	7854
867.357	7517
867.442	7306
867.528	7753
867.614	7256
867.699	7198
867.785	7588
867.870	7191
867.956	6701
868.041	7205
868.127	6707
868.212	7196
868.297	6663
868.383	6177
868.468	7360
868.553	7006
868.639	7312
868.724	7658
868.809	7296
868.894	8225
868.979	6540
869.065	6243
869.150	6288
869.235	5269
869.320	6102
869.405	7186
869.490	5567
869.575	7179
869.660	7095
869.745	4756
869.830	5415
869.915	6736
870.000	5938
870.085	5958
870.169	5248
870.254	6947
870.339	6670
870.424	4614
870.509	4991
870.593	5673
870.678	6798
870.763	6896
870.847	5284
870.932	4128
871.016	6507
871.101	6172
871.186	4533
871.270	5573
871.355	7190
871.439	4374
871.523	4655
871.608	6180
871.692	4136
871.777	4356
871.861	5634
871.945	6582
872.030	5912
872.114	5342
872.198	4808
872.282	4589
872.367	4544
872.451	4752
872.535	4666
872.619	4594
872.703	5499
872.787	5059
872.871	4907
872.955	5541
873.039	4653
873.123	3663
873.207	4250
873.291	5130
873.375	2854
873.459	4543
873.543	5282
873.627	4716
873.711	4348
873.794	4023
873.878	4888
873.962	4497
874.045	3942
874.129	3872
874.137	3948
874.213	4711
874.245	4758
874.296	4836
874.352	4275
874.380	4000
874.460	2789
874.464	2741
874.547	4253
874.568	4017
874.631	3328
874.676	4042
874.714	4616
874.784	4615
874.798	4619
874.881	5780
874.892	5466
874.965	3312
874.999	3153
875.048	2938
875.107	4068
875.131	4512
875.215	4820
875.215	4818
875.298	2354
875.323	2535
875.381	3050
875.430	3513
875.465	3822
875.538	4942
875.548	5085
875.631	3780
875.646	3705
875.714	3310
875.753	2990
875.798	2701
875.861	3490
875.881	3726
875.964	4986
875.968	4953
876.047	4371
876.076	3960
876.130	3184
876.183	3399
876.213	3548
876.291	4208
876.296	4245
876.379	4445
876.398	4205
876.462	3439
876.506	3233
876.545	2983
876.613	2938
876.628	2964
876.711	2877
876.721	2947
876.794	3656
876.828	4061
876.877	4412
876.935	4223
876.960	4128
877.043	2799
877.043	2800
877.125	3338
877.150	3424
877.208	3709
877.258	4435
877.291	4714
877.365	3918
877.374	3838
877.456	3049
877.472	2963
877.539	2905
877.579	3043
877.622	3113
877.687	3887
877.704	4089
877.787	4096
877.794	4018
877.869	3252
877.901	3579
877.952	4007
878.008	3874
878.034	3687
878.115	2886
878.117	2886
878.199	2916
878.222	3344
878.282	4107
878.329	3370
878.364	3043
878.437	4223
878.447	4315
878.529	3463
878.544	3433
878.611	3219
878.651	2602
878.694	2329
878.758	3248
878.776	3414
878.858	3632
878.865	3631
878.941	3769
878.972	3798
879.023	3418
879.078	2386
879.105	2202
879.185	3624
879.187	3652
879.269	3535
879.292	3629
879.351	3707
879.399	4135
879.433	4258
879.506	2955
879.516	2863
879.598	2575
879.613	2709
879.680	3176
879.720	3265
879.762	3352
879.827	3394
879.844	3398
879.926	3358
879.933	3310
880.007	2914
880.040	3151
880.089	3517
880.147	3458
880.171	3488
880.253	4655
880.254	4658
880.335	5550
880.360	5650
880.417	6402
880.467	7142
880.499	8148
880.574	12722
880.580	13039
880.662	14369
880.680	13954
880.744	8532
880.787	5467
880.825	4176
880.893	2854
880.907	2794
880.989	3447
881.000	3408
881.070	3116
881.106	3216
881.152	3551
881.213	4159
881.233	4049
881.315	2346
881.319	2325
881.396	3145
881.426	3204
881.478	3268
881.532	3662
881.559	3964
881.639	4748
881.641	4740
881.722	3769
881.745	3467
881.803	3321
881.852	3264
881.885	3271
881.958	3230
881.966	3205
882.047	3350
882.064	3373
882.129	3762
882.171	3763
882.210	3377
882.277	2285
882.291	2228
882.372	3238
882.383	3338
882.454	4203
882.489	4476
882.535	4574
882.596	4317
882.616	4241
882.697	4517
882.702	4506
882.778	3461
882.808	2852
882.859	2404
882.914	2801
882.940	2954
883.020	2690
883.021	2698
883.102	3447
883.127	3584
883.183	3864
883.233	4458
883.264	4514
883.339	4192
883.345	4103
883.426	1999
883.445	1741
883.507	2177
883.551	2402
883.587	2501
883.657	2884
883.668	3070
883.749	4226
883.763	4452
883.830	4491
883.869	4074
883.910	3314
883.975	2686
883.991	2659
884.072	2409
884.081	2376
884.152	3322
884.187	3754
884.233	4232
884.292	5076
884.314	5159
884.394	4624
884.398	4593
884.475	2570
884.504	1962
884.555	2041
884.610	2018
884.636	2109
884.716	2456
884.716	2468
884.797	3557
884.821	3960
884.877	4868
884.927	5253
884.958	4842
885.033	3730
885.038	3677
885.118	2877
885.139	2704
885.199	2826
885.244	2901
885.279	2911
885.350	2963
885.359	3096
885.439	4361
885.456	4554
885.520	4734
885.561	4868
885.600	4184
885.667	2612
885.680	2594
885.760	3225
885.773	3261
885.840	3356
885.878	3285
885.920	2982
885.984	2744
886.000	2811
886.080	3132
886.089	3172
886.160	3563
886.195	3636
886.240	4304
886.300	5212
886.320	4938
886.400	3902
886.406	3818
886.480	3998
886.511	4052
886.560	3349
886.616	2412
886.640	2598
886.720	3586
886.722	3597
886.800	3343
886.827	3291
886.879	3604
886.932	3827
886.959	3896
887.038	4235
887.039	4246
887.119	4321
887.143	4335
887.198	4065
887.248	3868
887.278	3683
887.354	3127
887.358	3161
887.437	3791
887.459	3958
887.517	3824
887.564	3657
887.596	3794
887.669	4039
887.676	3969
887.755	2945
887.774	2728
887.835	2772
887.880	2791
887.914	2936
887.985	3213
887.994	3264
888.073	3653
888.090	3763
888.153	4956
888.195	5584
888.232	5565
888.300	5490
888.311	5248
888.391	3455
888.405	3149
888.470	3518
888.510	3672
888.549	3399
888.615	2981
888.628	2996
888.708	3074
888.720	3078
888.787	4403
888.825	5098
888.866	4286
888.930	3037
888.945	2931
889.024	2346
889.035	2273
889.103	3597
889.140	4252
889.182	4459
889.245	4728
889.261	4475
889.340	3269
889.349	3122
889.419	4036
889.454	4484
889.498	4015
889.559	3324
889.577	3234
889.656	2842
889.664	2801
889.735	4026
889.768	4591
889.814	4433
889.873	4199
889.978	4255
890.083	3115
890.187	3613
890.292	4781
890.397	3401
890.501	3520
890.606	3462
890.710	3043
890.815	3910
890.919	6074
891.024	3877
891.128	3988
891.233	3085
891.337	2575
891.442	4642
891.546	3548
891.650	3253
891.755	3520
891.859	3674
891.963	4595
892.068	4959
892.172	3510
892.276	2291
892.380	2356
892.484	3466
892.589	5287
892.693	4298
892.797	3990
892.901	2699
893.005	3011
893.109	4150
893.213	5703
893.317	3700
893.421	3029
893.525	2125
893.629	2551
893.733	3034
893.837	4298
893.941	3464
894.045	3081
894.148	2618
894.252	2401
894.356	3961
894.460	5193
894.564	4252
894.667	3812
894.771	3122
894.875	2149
894.978	2804
895.082	3067
895.186	4382
895.289	3800
895.393	2298
895.496	2895
895.600	3735
895.703	2684
895.807	2790
895.910	3256
896.014	3577
896.117	3228
896.221	2973
896.324	4472
896.427	2170
896.531	2066
896.634	2498
896.737	3760
896.840	2725
896.944	3994
897.047	4141
897.150	4394
897.253	3054
897.356	2088
897.460	2325
897.563	2023
897.666	4093
897.769	4658
897.872	3589
897.975	2555
898.078	2741
898.181	2782
898.284	2723
898.387	3029
898.490	4853
898.593	3248
898.695	1838
898.798	2454
898.901	2286
899.004	2513
899.107	3533
899.209	2101
899.312	2417
899.415	4914
899.518	2660
899.620	2154
899.723	2055
899.826	2432
899.928	2083
900.031	2756
900.133	3874
900.236	3467
900.338	2359
900.441	2660
900.543	2202
900.646	2633
900.748	2239
900.851	2852
900.953	3815
901.055	1822
901.158	2414
901.260	3340
901.362	2097
901.465	1856
901.567	2412
901.669	3204
901.771	2487
901.873	2914
901.976	2301
902.078	2907
902.180	3183
902.282	2612
902.384	2216
902.486	3857
902.588	3227
902.690	3431
902.792	2379
902.894	2237
902.996	2875
903.098	4123
903.200	2480
903.302	1688
903.404	1612
903.505	2856
903.607	2101
903.709	3051
903.811	3764
903.913	3506
904.014	1627
904.116	1609
904.218	1523
904.319	2313
904.421	3057
904.523	3576
904.624	2673
904.726	3101
904.827	1849
904.929	1242
905.030	1478
905.132	2743
905.233	3284
905.335	3179
905.436	1983
905.537	1732
905.639	2353
905.740	3123
905.841	2609
905.943	3392
906.044	2752
906.145	1926
906.247	1892
906.348	1434
906.449	2053
906.550	3065
906.651	3020
906.752	2558
906.854	2584
906.955	2819
907.056	2355
907.157	3154
907.258	3639
907.359	2519
907.460	2122
907.561	1136
907.662	1954
907.762	1523
907.863	2302
907.964	3723
908.065	2903
908.166	2354
908.267	2463
908.367	2140
908.468	1864
908.569	1391
908.670	3325
908.770	3462
908.871	2480
908.971	3602
909.072	2479
909.173	2388
909.273	2585
909.374	2561
909.474	3556
909.575	3023
909.675	2306
909.776	2304
909.876	2587
909.977	1906
910.077	2320
910.177	2464
910.278	3886
910.378	1353
910.478	1244
910.579	2848
910.679	2314
910.779	3289
910.879	2803
910.980	2789
911.080	3471
911.180	3230
911.280	1423
911.380	1423
911.480	1377
911.580	1265
911.680	1402
911.780	2703
911.880	2883
911.980	2423
912.080	2668
912.180	3631
912.280	1828
912.380	2280
912.480	1898
912.580	2124
912.679	1740
912.779	2065
912.879	2761
912.979	2816
913.078	2835
913.178	2506
913.278	1964
913.377	1886
913.477	1658
913.577	1777
913.676	2247
913.776	3449
913.875	2719
913.975	2451
914.074	2328
914.174	2722
914.273	2397
914.373	2065
914.472	2419
914.572	2077
914.671	1375
914.770	1733
914.870	2668
914.969	1850
915.068	1565
915.167	3235
915.267	2462
915.366	2506
915.465	2382
915.564	2606
915.663	2350
915.763	3232
915.862	3063
915.961	3198
916.060	3374
916.159	2787
916.258	1555
916.357	2246
916.456	2774
916.555	2956
916.654	2655
916.752	3285
916.851	3430
916.950	2825
917.049	1221
917.148	1998
917.247	2018
917.345	2016
917.444	2034
917.543	1752
917.642	2219
917.740	2825
917.839	3554
917.937	4385
918.036	4123
918.135	3125
918.233	2570
918.332	2497
918.430	3093
918.529	3111
918.627	2943
918.726	2784
918.824	3535
918.923	2674
919.021	2460
919.119	1897
919.218	1726
919.316	2341
919.414	2561
919.512	2814
919.611	3266
919.709	3867
919.807	3629
919.905	4340
920.003	4472
920.102	4195
920.200	3862
920.298	5214
920.396	4341
920.494	3939
920.592	2920
920.690	3744
920.788	4206
920.886	4472
920.984	3632
921.082	3876
921.180	4796
921.277	4101
921.375	4340
921.473	5260
921.571	6942
921.669	6143
921.766	6971
921.864	6537
921.962	7043
922.060	6283
922.157	6555
922.255	6759
922.352	6500
922.450	7079
922.548	7120
922.645	7530
922.743	7768
922.840	12200
922.938	17225
923.035	16619
923.133	15176
923.230	16537
923.327	19180
923.425	21382
923.522	18758
923.619	18865
923.717	17323
923.814	15320
923.911	15819
924.008	16220
924.106	16148
924.203	14879
924.300	14290
924.397	16469
924.494	14965
924.591	14985
924.688	14775
924.786	15061
924.883	16091
924.979	15331
925.077	14387
925.173	14952
925.270	14016
925.367	15285
925.464	15493
925.561	16397
925.658	16167
925.755	15700
925.852	14153
925.948	16563
926.045	14930
926.142	13872
926.239	14498
926.335	14975
926.432	11918
926.529	14726
926.625	13602
926.722	15814
926.818	12666
926.915	14221
927.011	13762
927.108	13967
927.204	13382
927.301	13482
927.397	12485
927.494	15661
927.590	15145
927.687	10428
927.783	12706
927.879	15752
927.976	14436
928.072	13279
928.168	12112
928.264	13646
928.361	12261
928.457	12984
928.553	14794
928.649	11727
928.745	13189
928.841	13061
928.937	11578
929.033	13084
929.129	11988
929.225	12420
929.321	14727
929.417	11403
929.513	11300
929.609	13402
929.705	11581
929.801	12548
929.897	12385
929.993	10734
930.089	11568
930.184	10860
930.280	10812
930.376	12369
930.471	14620
930.567	10889
930.663	10428
930.758	11597
930.854	9875
930.950	10582
931.045	11697
931.141	10044
931.236	11159
931.332	14049
931.427	10399
931.523	9128
931.618	13490
931.714	11290
931.809	8698
931.905	10347
932.000	12159
932.095	8502
932.191	9192
932.286	13284
932.381	12962
932.476	10388
932.572	9010
932.667	10280
932.762	10039
932.857	10186
932.952	11404
933.047	12077
933.142	9236
933.237	8916
933.332	10123
933.427	11219
933.522	11607
933.617	9460
933.712	8781
933.807	9866
933.902	12102
933.997	13222
934.092	11899
934.187	8355
934.282	9721
934.376	10358
934.471	10424
934.566	10951
934.661	7830
934.755	9485
934.850	10447
934.945	10795
935.039	7696
935.134	8433
935.228	7356
935.323	9841
935.417	12974
935.512	7256
935.606	6167
935.701	8500
935.795	10504
935.890	10384
935.984	9498
936.079	7616
936.173	6869
936.267	8588
936.362	8065
936.456	7422
936.550	9219
936.644	11695
936.738	8390
936.833	7150
936.927	7666
937.021	7002
937.115	9061
937.209	9803
937.303	9327
937.397	7838
937.491	6981
937.585	8707
937.679	9394
937.773	9171
937.867	6698
937.961	6528
938.055	7504
938.149	10321
938.243	7653
938.337	6127
938.430	6025
938.524	8752
938.618	9285
938.712	7121
938.805	6214
938.899	7376
938.993	8639
939.086	9895
939.180	6013
939.274	4294
939.367	6141
939.461	8622
939.554	8856
939.648	6623
939.741	5712
939.835	6863
939.928	7809
940.022	10753
940.115	8913
940.208	7630
940.302	8911
940.395	9706
940.488	9288
940.582	7116
940.675	6922
940.768	6213
940.861	6964
940.954	9296
941.048	8554
941.141	5180
941.234	4853
941.327	7190
941.420	7582
941.513	8036
941.606	7202
941.699	6365
941.792	5980
941.885	9230
941.978	7546
942.071	7026
942.164	6892
942.257	4280
942.349	5804
942.442	6682
942.535	7018
942.628	5776
942.721	5520
942.813	6220
942.906	7566
942.999	6483
943.091	5501
943.184	6107
943.277	6017
943.369	6513
943.462	4698
943.554	4704
943.647	5768
943.739	7204
943.832	7238
943.924	7077
944.017	4227
944.109	4617
944.201	5946
944.294	5723
944.386	5754
944.478	6043
944.571	5330
944.663	4795
944.755	5490
944.847	6525
944.940	6354
945.032	5342
945.124	4283
945.216	5474
945.308	4640
945.400	6047
945.492	5863
945.584	5518
945.676	7621
945.768	7593
945.860	5766
945.952	6872
946.044	7535
946.136	5334
946.228	4647
946.320	5163
946.412	5559
946.503	6858
946.595	7439
946.687	6550
946.779	4359
946.870	4164
946.962	5353
947.054	4511
947.145	5096
947.237	6217
947.329	5024
947.420	5703
947.512	6063
947.603	3833
947.695	3516
947.786	4021
947.878	5032
947.969	5020
948.061	6110
948.152	6411
948.243	4679
948.335	3875
948.426	2825
948.517	4242
948.609	4992
948.700	5708
948.791	6043
948.882	5016
948.973	2499
949.065	4687
949.156	4884
949.247	4567
949.338	3849
949.429	4394
949.520	3814
949.611	4022
949.702	5769
949.793	5637
949.884	4881
949.975	4361
950.066	4491
950.157	3566
950.247	3715
950.338	3996
950.429	4036
950.520	3946
950.611	3981
950.701	3928
950.792	4351
950.883	6715
950.973	4729
951.064	5097
951.155	5038
951.245	6375
951.336	5740
951.427	5027
951.517	5405
951.608	5418
951.698	5221
951.788	4050
951.879	3559
951.969	3761
952.060	4160
952.150	4314
952.240	4958
952.331	5452
952.421	5454
952.511	3944
952.602	2855
952.692	3129
952.782	2899
952.872	3277
952.962	3867
953.052	3687
953.143	4153
953.233	3711
953.323	4133
953.413	4746
953.503	4644
953.593	4669
953.683	4000
953.773	3788
953.863	2613
953.953	3785
954.042	3156
954.132	4960
954.222	5039
954.312	4289
954.402	3710
954.492	3831
954.581	3353
954.671	4298
954.761	3421
954.850	3567
954.940	3332
955.030	2195
955.119	3252
955.209	3171
955.298	3518
955.388	4828
955.477	4347
955.567	4391
955.656	3176
955.746	3881
955.835	3364
955.925	3180
956.014	3426
956.103	4206
956.193	5746
956.282	5090
956.371	5314
956.461	3935
956.550	3602
956.639	4479
956.728	3562
956.817	3481
956.906	3088
956.995	4651
957.085	4651
957.174	3712
957.263	4589
957.352	4179
957.441	3426
957.530	4302
957.619	4576
957.708	3709
957.796	3669
957.885	3323
957.974	3375
958.063	3883
958.152	3902
958.241	3449
958.329	2488
958.418	3296
958.507	3698
958.596	4126
958.684	4167
958.773	4084
958.861	3975
958.950	3176
959.039	3064
959.127	2675
959.216	3276
959.304	3631
959.393	3818
959.481	3772
959.570	3881
959.658	3024
959.746	2481
959.835	2364
959.923	3504
960.011	3995
960.100	3231
960.188	3451
960.276	5089
960.365	4489
960.453	2455
960.541	3085
960.629	2641
960.717	3159
960.805	2479
960.893	1452
960.981	3216
961.069	4375
961.158	4808
961.245	5652
961.333	5355
961.421	4747
961.509	3744
961.597	3179
961.685	4193
961.773	2834
961.861	4230
961.949	4421
962.036	3517
962.124	3180
962.212	2820
962.299	2645
962.387	2822
962.475	3085
962.562	3072
962.650	3811
962.738	2718
962.825	2742
962.913	2679
963.000	2949
963.088	2952
963.175	4027
963.263	3762
963.350	2632
963.438	2478
963.525	3533
963.612	2838
963.700	3417
963.787	4253
963.874	5487
963.962	4555
964.049	2535
964.136	2059
964.223	3019
964.310	2424
964.398	2858
964.485	3225
964.572	2576
964.659	3497
964.746	2933
964.833	2486
964.920	2540
965.007	2660
965.094	2165
965.181	1999
965.268	3623
965.355	2947
965.441	3514
965.528	3922
965.615	3268
965.702	3256
965.789	2300
965.875	3432
965.962	3079
966.049	3140
966.136	3567
966.222	3743
966.309	4536
966.395	4432
966.482	4053
966.569	3685
966.655	3823
966.742	3434
966.828	3328
966.915	2455
967.001	3414
967.087	2169
967.174	2360
967.260	2580
967.347	2950
967.433	3013
967.519	3752
967.605	3422
967.692	3371
967.778	3214
967.864	3308
967.950	2686
968.036	2372
968.123	3306
968.209	3371
968.295	3113
968.381	1927
968.467	2607
968.553	1744
968.639	2345
968.725	2318
968.811	3218
968.897	4487
968.983	3891
969.069	2848
969.154	2318
969.240	2822
969.326	2083
969.412	1389
969.497	2154
969.583	2551
969.669	1978
969.755	3557
969.840	2809
969.926	3895
970.012	4996
970.097	6426
970.183	7157
970.268	5978
970.354	4030
970.439	3040
970.525	3190
970.610	2824
970.696	3232
970.781	3459
970.866	2153
970.952	2119
971.037	2075
971.122	3168
971.208	2973
971.293	3142
971.378	1894
971.463	3335
971.549	3333
971.634	3434
971.719	1936
971.804	3416
971.889	2647
971.974	2188
972.059	2804
972.144	2239
972.229	2116
972.314	2360
972.399	2858
972.484	2829
972.569	2442
972.654	1582
972.739	2673
972.824	2444
972.908	2280
972.993	1716
973.078	1786
973.163	1904
973.247	2838
973.332	1883
973.417	2459
973.501	2057
973.586	2271
973.671	2756
973.755	2021
973.840	1817
973.924	2146
974.009	2447
974.093	3652
974.178	4593
974.262	3865
974.346	2812
974.431	3100
974.515	3117
974.600	2084
974.684	3391
974.768	3134
974.852	2782
974.937	1726
975.021	3059
975.105	1888
975.189	1692
975.273	2605
975.358	1776
975.442	1836
975.526	2092
975.610	2476
975.694	2345
975.778	2456
975.862	1733
975.946	1651
976.030	2574
976.114	3334
976.198	2209
976.281	1995
976.365	3119
976.449	1866
976.533	2012
976.617	1667
976.700	2199
976.784	1811
976.868	1912
976.951	1376
977.035	3011
977.119	2048
977.202	1807
977.286	1626
977.369	3172
977.453	3190
977.536	4978
977.620	3976
977.703	4006
977.787	2944
977.870	3131
977.953	3519
978.037	2535
978.120	2781
978.203	2200
978.287	2657
978.370	3814
978.453	2394
978.536	2042
978.620	2767
978.703	2354
978.786	3005
978.869	2127
978.952	1608
979.035	2824
979.118	2305
979.201	2977
979.284	2305
979.367	2327
979.450	2534
979.533	1483
979.616	1656
979.699	1260
979.782	2089
979.865	2424
979.948	2014
980.030	2092
980.113	1992
980.196	2020
980.279	2316
980.361	2192
980.444	1225
980.526	2329
980.609	2393
980.692	4995
980.774	5588
980.857	4134
980.939	3806
981.022	4022
981.104	3145
981.187	2739
981.269	2829
981.352	2253
981.434	2597
981.516	2957
981.599	3216
981.681	2447
981.763	1884
981.846	2350
981.928	2154
982.010	2551
982.092	1888
982.174	3231
982.256	3049
982.339	2232
982.421	2189
982.503	2979
982.585	1781
982.667	2108
982.749	2343
982.831	2757
982.913	2127
982.995	2364
983.077	1599
983.158	3471
983.240	3112
983.322	3805
983.404	4079
983.486	5379
983.568	4939
983.649	4565
983.731	4151
983.813	3368
983.894	3688
983.976	2888
984.058	3702
984.139	3401
984.221	3130
984.302	3133
984.384	2897
984.465	2950
984.547	3066
984.628	3075
984.710	2849
984.791	3652
984.872	2922
984.954	2145
985.035	3242
985.116	2585
985.198	3300
985.279	4066
985.360	2440
985.441	3161
985.522	2838
985.604	3204
985.685	2835
985.766	3848
985.847	2902
985.928	3388
986.009	2968
986.090	3524
986.171	2830
986.252	3333
986.333	2377
986.414	2663
986.495	2653
986.576	3531
986.656	3979
986.737	4027
986.818	4130
986.899	3920
986.980	2971
987.060	3893
987.141	2643
987.222	4542
987.302	4746
987.383	4701
987.464	4732
987.544	4465
987.625	4426
987.705	5284
987.786	3950
987.866	5641
987.947	4658
988.027	4586
988.108	4761
988.188	4682
988.268	4658
988.349	4067
988.429	4520
988.509	4349
988.589	4001
988.670	3246
988.750	5260
988.830	3944
988.910	4045
988.990	4200
989.070	4683
989.151	3187
989.231	3450
989.311	3752
989.391	4181
989.471	3331
989.551	3641
989.631	3976
989.711	3730
989.791	3659
989.870	3094
989.950	3007
990.030	3516
990.110	3289
990.190	3398
990.269	2992
990.349	2560
990.429	3365
990.509	3823
990.588	2660
990.668	2283
990.747	3351
990.827	3721
990.907	2619
990.986	2938
991.066	4524
991.145	3134
991.225	3244
991.304	3271
991.383	3160
991.463	3205
991.542	3075
991.622	2244
991.701	3062
991.780	2549
991.859	2820
991.939	2263
992.018	2693
992.097	3399
992.176	3910
992.256	1559
992.335	2325
992.414	3780
992.493	2859
992.572	2991
992.651	2241
992.730	2767
992.809	3096
992.888	2465
992.967	2677
993.046	3263
993.125	2997
993.203	2165
993.282	2749
993.361	2640
993.440	2396
993.519	1950
993.597	2647
993.676	1863
993.755	1865
993.834	1909
993.912	2326
993.991	2022
994.069	2057
994.148	2092
994.226	1867
994.305	2050
994.384	2056
994.462	2098
994.540	2166
994.619	2070
994.697	2207
994.776	1753
994.854	2439
994.932	1716
995.011	1673
995.089	2129
995.167	2782
995.245	1823
995.324	828
995.402	1927
995.480	2086
995.558	2280
995.636	1246
995.714	1473
995.792	1767
995.870	1760
995.948	2078
996.026	1417
996.104	1793
996.182	1195
996.260	2269
996.338	512
996.416	978
996.494	1477
996.572	2272
996.649	1505
996.727	775
996.805	1002
996.883	1805
996.960	1186
997.038	1408
997.116	1549
997.193	1692
997.271	2142
997.348	1196
997.426	687
997.504	800
997.581	2452
997.658	2010
997.736	1086
997.813	370
997.891	377
997.968	1793
998.046	1371
998.123	1202
998.200	1246
998.277	1553
998.355	1125
998.432	1319
998.509	570
998.586	1029
998.663	769
998.741	1771
998.818	1402
998.895	957
998.972	326
999.049	676
999.126	1615
999.203	1325
999.280	748
999.357	460
999.434	1226
999.511	1139
999.587	325
999.664	480
999.741	1419
999.818	398
999.895	1457
999.971	971
1000.048	797
1000.125	1806
1000.202	703
1000.278	1053
1000.355	1108
1000.431	448
1000.508	1325
1000.584	837
1000.661	371
1000.738	105
1000.814	846
1000.890	1048
1000.967	954
1001.043	1124
1001.120	1059
1001.196	726
1001.272	641
1001.349	1137
1001.425	348
1001.501	1080
1001.577	525
1001.654	1323
1001.730	1013
1001.806	788
1001.882	236
1001.958	1069
1002.034	884
1002.110	340
1002.186	536
1002.262	704
1002.338	341
1002.414	851
1002.490	913
1002.566	-250
1002.642	-19
1002.718	391
1002.794	381
1002.870	765
1002.945	873
1003.021	51
1003.097	-172
1003.173	1126
1003.248	202
1003.324	186
1003.400	903
1003.475	1226
1003.551	177
1003.626	855
1003.702	330
1003.777	805
1003.853	93
1003.928	185
1004.004	121
1004.079	140
1004.155	969
1004.230	486
1004.305	702
1004.381	157
1004.456	-101
1004.531	283
1004.607	-52
1004.682	-267
1004.757	-187
1004.832	538
1004.907	1
1004.982	449
1005.057	153
1005.133	271
1005.208	517
1005.283	-349
1005.358	726
1005.433	-293
1005.508	294
1005.583	184
1005.657	446
1005.732	1016
1005.807	68
1005.882	-64
1005.957	-408
1006.032	-43
1006.106	-723
1006.181	-34
1006.256	-335
1006.331	-343
1006.405	232
1006.480	147
1006.554	-298
1006.629	99
1006.704	-629
1006.778	-503
1006.853	10
1006.927	37
1007.002	71
1007.076	-111
1007.150	67
1007.225	-217
1007.299	-39
1007.373	-1
1007.448	46
1007.522	631
1007.596	-190
1007.671	-50
1007.745	309
1007.819	97
1007.893	-72
1007.967	657
1008.041	-134
1008.115	303
1008.190	-291
1008.264	394
1008.338	-536
1008.412	376
1008.486	-535
1008.560	33
1008.633	118
1008.707	-406
1008.781	468
1008.855	63
1008.929	-202
1009.003	555
1009.076	-799
1009.150	-157
1009.224	327
1009.298	-181
1009.371	-382
1009.445	662
1009.519	-510
1009.592	-453
1009.666	-249
1009.739	-204
1009.813	-406
1009.886	93
1009.960	-175
1010.033	-314
1010.107	-319
1010.180	-60
1010.253	46
1010.327	-206
1010.400	-371
1010.473	-82
1010.547	6
1010.620	-474
1010.693	-644
1010.766	38
1010.840	-286
1010.913	-547
1010.986	-865
1011.059	-210
1011.132	-685
1011.205	-174
1011.278	-713
1011.351	387
1011.424	-177
1011.497	-181
1011.570	-611
1011.643	-97
1011.716	-600
1011.789	-192
1011.862	-642
1011.934	-64
1012.007	-1257
1012.080	-197
1012.153	-386
1012.225	56
1012.298	-758
1012.371	-231
1012.443	-782
1012.516	-34
1012.588	-673
1012.661	83
1012.733	244
1012.806	-256
1012.879	-595
1012.951	-365
1013.023	-425
1013.096	71
1013.168	-1052
1013.241	191
1013.313	-755
1013.385	262
1013.458	-569
1013.530	-783
1013.602	-355
1013.674	-182
1013.746	-836
1013.819	-940
1013.891	-545
1013.963	-518
1014.035	-224
1014.107	-639
1014.179	-676
1014.251	-1236
1014.323	262
1014.395	-746
1014.467	-1508
1014.539	-696
1014.611	-683
1014.683	-1055
1014.754	-571
1014.826	-733
1014.898	-488
1014.970	-871
1015.042	-1012
1015.113	-1135
1015.185	-1827
1015.257	-598
1015.328	-767
1015.400	-1214
1015.471	-619
1015.543	-361
1015.615	-412
1015.686	-593
1015.757	-738
1015.829	-519
1015.901	-1121
1015.972	-645
1016.043	-778
1016.115	-871
1016.186	-875
1016.257	-792
1016.328	-19
1016.400	-1093
1016.471	-1515
1016.542	-903
1016.613	-581
1016.685	-464
1016.756	-922
1016.827	-623
1016.898	-1348
1016.969	52
1017.040	-555
1017.111	-775
1017.182	-946
1017.253	31
1017.324	-459
1017.395	-998
1017.466	-700
1017.537	-510
1017.608	-1509
1017.678	-1551
1017.749	-1706
1017.820	-803
1017.891	-940
1017.961	-1607
1018.032	-1287
1018.103	-901
1018.173	-626
1018.244	-522
1018.315	-1295
1018.385	-949
1018.456	-1340
1018.526	-1463
1018.597	-1732
1018.667	-770
1018.738	-1720
1018.808	-723
1018.878	-1980
1018.949	-319
1019.019	-769
1019.089	-814
1019.160	-495
1019.230	-1734
1019.300	-1392
1019.371	-1581
1019.441	-703
1019.511	-610
1019.581	-1066
1019.651	-1532
1019.721	-1187
1019.791	-1130
1019.861	-546
1019.931	-576
1020.001	-1066
1020.071	-623
1020.141	-1681
1020.211	-945
1020.281	-615
1020.351	-1746
1020.421	-772
1020.491	-922
1020.560	-1088
1020.630	-1319
1020.700	-1148
1020.770	-1124
1020.839	-1584
1020.909	-983
1020.979	-1307
1021.048	-1493
1021.118	-1829
1021.187	-516
1021.257	-1421
1021.326	-1385
1021.396	-770
1021.465	-974
1021.535	-1040
1021.604	-1062
1021.674	-1123
1021.743	-1564
1021.812	-1536
1021.882	-1044
1021.951	-843
1022.020	-1056
1022.089	-846
1022.159	-690
1022.228	-882
1022.297	-547
1022.366	-1001
1022.435	-684
1022.504	-909
1022.573	-1506
1022.642	-590
1022.711	-1064
1022.781	-402
1022.849	-1021
1022.918	-1690
1022.987	-800
1023.056	-1683
1023.125	-787
1023.194	-1277
1023.263	-1115
1023.331	-1036
1023.400	-856
1023.469	-679
1023.538	-291
1023.606	-1198
1023.675	-1124
1023.744	-2172
1023.812	-1362
1023.881	-1093
1023.949	-1181
1024.018	-1534
1024.086	-1270
1024.155	-1074
1024.223	-678
1024.292	-1452
1024.360	-826
1024.429	-1098
1024.497	-1277
1024.565	-1048
1024.634	-1128
1024.702	-1383
1024.770	-1349
1024.838	-1477
1024.907	-1718
1024.975	-1100
1025.043	-596
1025.111	-1526
1025.179	-1278
1025.247	-1493
1025.315	-1021
1025.383	-1117
1025.451	-742
1025.519	-1842
1025.587	-674
1025.655	-1547
1025.723	-861
1025.791	-1248
1025.859	-1299
1025.927	-1860
1025.995	-1102
1026.062	-600
1026.130	-723
1026.198	-2006
1026.266	-1110
1026.333	-935
1026.401	-992
1026.469	-1661
1026.536	-776
1026.604	-1330
1026.671	-1091
1026.739	-931
1026.806	-1810
1026.874	-1463
1026.941	-1316
1027.009	-1477
1027.076	-1700
1027.144	-973
1027.211	-1032
1027.278	-1568
1027.345	-1687
1027.413	-371
1027.480	-1263
1027.547	-1433
1027.614	-1452
1027.682	-888
1027.749	-975
1027.816	-1124
1027.883	-1083
1027.950	-489
1028.017	-550
1028.084	-1384
1028.151	-1145
1028.218	-1289
1028.285	-1235
1028.352	-1542
1028.419	-1070
1028.486	-1747
1028.553	-1968
1028.619	-1197
1028.686	-1048
1028.753	-1040
1028.820	-657
1028.886	-1157
1028.953	-738
1029.020	-1270
1029.086	-1738
1029.153	-599
1029.220	-879
1029.286	-1126
1029.353	-1084
1029.419	-1556
1029.486	-737
1029.552	-1923
1029.619	-995
1029.685	-2097
1029.751	-696
1029.818	-453
1029.884	-2062
1029.951	-938
1030.017	-827
1030.083	-1701
1030.149	-1056
1030.216	-1632
1030.282	-697
1030.348	-1273
1030.414	-1241
1030.480	-1769
1030.546	-722
1030.612	-1513
1030.678	-1846
1030.744	-1080
1030.810	-1788
1030.876	-1839
1030.942	-1172
1031.008	-1211
1031.074	-1372
1031.140	-1416
1031.206	-956
1031.272	-2010
1031.337	-526
1031.403	-1796
1031.469	-941
1031.534	-1463
1031.600	-445
1031.666	-1433
1031.731	-1641
1031.797	-1541
1031.863	-654
1031.928	-1708
1031.994	-1696
1032.059	-788
1032.125	-1372
1032.190	-1068
1032.256	-1444
1032.321	-1687
1032.386	-1291
1032.452	-541
1032.517	-1132
1032.582	-1966
1032.647	-1724
1032.713	-1340
1032.778	-1599
1032.843	-1044
1032.908	-1080
1032.974	-1289
1033.039	-1104
1033.104	-1236
1033.169	-1095
1033.234	-1510
1033.299	-108
1033.364	-1147
1033.429	-842
1033.494	-660
1033.559	-715
1033.624	-522
1033.688	-723
1033.753	-1413
1033.818	-988
1033.883	-389
1033.948	-482
1034.013	-705
1034.077	-510
1034.142	1076
1034.207	1020
1034.271	940
1034.336	3259
1034.400	4554
1034.465	3927
1034.530	2458
1034.594	1039
1034.658	-576
1034.723	-1007
1034.787	-1004
1034.852	-1119
1034.916	-1270
1034.981	-177
1035.045	-1172
1035.109	-1390
1035.173	-1208
1035.238	-1581
1035.302	-1782
1035.366	-1824
1035.430	-1853
1035.495	-1736
1035.559	-1100
1035.623	-1752
1035.687	-1930
1035.751	-998
1035.815	-1856
1035.879	-1360
1035.943	-2025
1036.007	-1604
1036.071	-1701
1036.135	-1006
1036.198	-2449
1036.262	-1390
1036.326	-1803
1036.390	-1084
1036.454	-915
1036.517	-1263
1036.581	-1461
1036.645	-734
1036.709	-158
1036.772	-1119
1036.836	-552
1036.900	-1271
1036.963	-1570
1037.026	-1856
1037.090	-2254
1037.154	-1193
1037.217	-1298
1037.280	-1619
1037.344	-1087
1037.407	-1311
1037.471	-1519
1037.534	-2010
1037.597	-1825
1037.661	-1430
1037.724	-1105
1037.787	-860
1037.850	-1435
1037.913	-1015
1037.977	-1125
1038.040	-1602
1038.103	-1859
1038.166	-1807
1038.229	-2034
1038.292	-1252
1038.355	-1739
1038.418	-1307
1038.481	-1611
1038.544	-1674
1038.607	-1670
1038.670	-948
1038.732	-1472
1038.795	-2110
1038.858	-1782
1038.921	-1590
1038.984	-1816
1039.046	-1722
1039.109	-1389
1039.172	-658
1039.234	-2217
1039.297	-1219
1039.360	-2175
1039.422	-1656
1039.485	-1352
1039.547	-941
1039.610	-1372
1039.672	-1944
1039.734	-1436
1039.797	-1522
1039.859	-1965
1039.922	-1242
1039.984	-1907
1040.046	-1202
1040.109	-1460
1040.171	-1873
1040.233	-1470
1040.295	-1801
1040.358	-1704
1040.420	-1095
1040.482	-2101
1040.544	-1183
1040.606	-1171
1040.668	-1725
1040.730	-1935
1040.792	-928
1040.854	-1529
1040.916	-1697
1040.978	-2066
1041.040	-1729
1041.102	-1051
1041.164	-825
1041.225	-2033
1041.287	-1209
1041.349	-1753
1041.411	-1066
1041.472	-1512
1041.534	-1257
1041.596	-786
1041.657	-1744
1041.719	-1595
1041.781	-1068
1041.842	-1228
1041.904	-1656
1041.965	-1146
1042.027	-537
1042.088	-2124
1042.150	-1638
1042.211	-1294
1042.272	-663
1042.334	-1682
1042.395	-1287
1042.456	-1866
1042.518	-1232
1042.579	-1772
1042.640	-1921
1042.701	-1460
1042.763	-1766
1042.824	-975
1042.885	-1897
1042.946	-2360
1043.007	-1309
1043.068	-1512
1043.129	-1921
1043.190	-1138
1043.251	-936
1043.312	-1300
1043.373	-650
1043.434	-1738
1043.495	-1447
1043.556	-1983
1043.616	-2202
1043.677	-1316
1043.738	-1678
1043.799	-1563
1043.859	-783
1043.920	-1885
1043.981	-1862
1044.041	-1272
1044.102	-1411
1044.162	-1310
1044.223	-2054
1044.284	-1888
1044.344	-1671
1044.405	-1237
1044.465	-1642
1044.525	-1695
1044.586	-1663
1044.646	-1605
1044.707	-1077
1044.767	-1198
1044.827	-1840
1044.887	-1273
1044.948	-1659
1045.008	-1453
1045.068	-1522
1045.128	-1363
1045.188	-1322
1045.249	-987
1045.309	-1810
1045.369	-963
1045.429	-1399
1045.489	-1414
1045.549	-1139
1045.609	-1495
1045.669	-1194
1045.729	-1649
1045.789	-1587
1045.848	-1038
1045.908	-1903
1045.968	-1217
1046.028	-1737
1046.088	-1665
1046.147	-708
1046.207	-1454
1046.267	-1170
1046.326	-853
1046.386	-928
1046.446	-1030
1046.505	-1402
1046.565	-811
1046.624	-1178
1046.684	-445
1046.743	-537
1046.803	-754
1046.862	203
1046.922	0
