'Start Wavelength	183.907
'End Wavelength	1046.922
'Gate Delay	5.000
'Gate Width (ms)	1.050
'Laser Output Level	0.000
'X Position	0.000
'Y Position	0.000
'Z Position	0.000
'Grid Point Number	1.000
'Shot Number	100.000
183.907	253.000
183.977	33.000
184.047	426
184.116	565
184.186	354
184.256	-109
184.325	93
184.395	-326
184.465	371
184.534	606
184.604	-288
184.674	-408
184.743	-49
184.813	148
184.883	218
184.952	503
185.022	616
185.092	502
185.161	250
185.231	651
185.301	545
185.370	123
185.440	-422
185.509	408
185.579	147
185.649	-409
185.718	293
185.788	354
185.857	-32
185.927	351
185.996	318
186.066	-128
186.136	800
186.205	-276
186.275	209
186.344	-125
186.414	1100
186.483	189
186.553	1190
186.622	1671
186.692	427
186.761	-92
186.831	483
186.900	346
186.970	477
187.039	72
187.109	1324
187.178	450
187.248	697
187.317	1242
187.387	719
187.456	-143
187.526	218
187.595	353
187.664	605
187.734	-243
187.803	789
187.873	706
187.942	586
188.012	407
188.081	667
188.150	780
188.220	762
188.289	1273
188.358	346
188.428	234
188.497	937
188.567	848
188.636	474
188.705	786
188.775	729
188.844	489
188.913	1231
188.983	467
189.052	324
189.121	321
189.191	502
189.260	66
189.329	240
189.399	-200
189.468	311
189.537	-239
189.606	299
189.676	681
189.745	765
189.814	133
189.883	80
189.953	493
190.022	504
190.091	521
190.161	694
190.230	746
190.299	193
190.368	120
190.437	567
190.507	241
190.576	635
190.645	-479
190.714	155
190.783	-75
190.853	633
190.922	325
190.991	1211
191.060	608
191.129	101
191.198	583
191.268	308
191.337	307
191.406	1303
191.475	637
191.544	1169
191.613	910
191.682	1201
191.752	211
191.821	414
191.890	145
191.959	531
192.028	267
192.097	715
192.166	-295
192.235	250
192.304	289
192.373	866
192.442	211
192.511	860
192.580	16
192.650	-132
192.719	535
192.788	282
192.857	841
192.926	1034
192.995	618
193.064	990
193.133	70
193.202	766
193.271	1049
193.340	1350
193.409	485
193.478	48
193.547	1160
193.615	742
193.684	-595
193.753	217
193.822	671
193.891	453
193.960	508
194.029	465
194.098	655
194.167	673
194.236	578
194.305	524
194.374	626
194.443	119
194.512	43
194.580	541
194.649	915
194.718	1350
194.787	550
194.856	502
194.925	676
194.994	541
195.062	177
195.131	813
195.200	204
195.269	275
195.338	742
195.407	788
195.475	534
195.544	880
195.613	961
195.682	369
195.751	134
195.819	495
195.888	-376
195.957	955
196.026	454
196.094	-165
196.163	129
196.232	281
196.301	66
196.369	657
196.438	213
196.507	539
196.576	50
196.644	603
196.713	624
196.782	1004
196.850	288
196.919	12
196.988	118
197.056	1352
197.125	428
197.194	1083
197.262	63
197.331	260
197.400	528
197.468	497
197.537	320
197.606	731
197.674	611
197.743	389
197.812	-384
197.880	972
197.949	29
198.017	447
198.086	362
198.155	144
198.223	206
198.292	1144
198.360	898
198.429	546
198.497	539
198.566	-16
198.635	1321
198.703	681
198.772	876
198.840	1454
198.909	266
198.977	274
199.046	567
199.114	35
199.183	203
199.251	707
199.320	-226
199.388	39
199.457	229
199.525	-141
199.594	-337
199.662	731
199.731	704
199.799	754
199.867	783
199.936	364
200.004	-362
200.073	680
200.141	568
200.210	444
200.278	193
200.346	1407
200.415	1124
200.483	950
200.552	1160
200.620	933
200.688	386
200.757	44
200.825	350
200.893	416
200.962	-83
201.030	-357
201.098	57
201.167	980
201.235	808
201.303	761
201.372	1085
201.440	1640
201.508	1389
201.577	815
201.645	313
201.713	728
201.781	986
201.850	1723
201.918	869
201.986	573
202.055	394
202.123	517
202.191	1033
202.259	426
202.327	1108
202.396	1282
202.464	556
202.532	2073
202.600	5354
202.669	3155
202.737	1184
202.805	320
202.873	852
202.941	746
203.009	171
203.078	928
203.146	736
203.214	833
203.282	398
203.350	518
203.418	820
203.487	135
203.555	360
203.623	346
203.691	121
203.759	-470
203.827	562
203.895	855
203.963	891
204.031	1035
204.099	905
204.168	363
204.236	818
204.304	1580
204.372	100
204.440	464
204.508	-112
204.576	280
204.644	117
204.712	170
204.780	1219
204.848	708
204.916	600
204.984	-397
205.052	19
205.120	-82
205.188	51
205.256	562
205.324	349
205.392	324
205.460	582
205.528	891
205.596	437
205.664	504
205.732	902
205.799	709
205.867	1438
205.935	474
206.003	683
206.071	132
206.139	756
206.207	550
206.275	362
206.343	567
206.411	563
206.478	632
206.546	460
206.614	926
206.682	1143
206.750	403
206.818	1540
206.885	1097
206.953	749
207.021	892
207.089	564
207.157	796
207.225	558
207.292	-270
207.360	347
207.428	72
207.496	421
207.563	-374
207.631	649
207.699	75
207.767	1035
207.834	467
207.902	-50
207.970	714
208.038	668
208.105	361
208.173	244
208.241	587
208.309	541
208.376	896
208.444	583
208.512	1342
208.579	540
208.647	1215
208.715	1259
208.782	30
208.850	50
208.918	640
208.985	384
209.053	375
209.120	536
209.188	340
209.256	-6
209.323	182
209.391	-288
209.459	473
209.526	544
209.594	5
209.661	35
209.729	1149
209.796	89
209.864	922
209.932	-593
209.999	1371
210.067	565
210.134	1042
210.202	574
210.269	1432
210.337	2578
210.404	755
210.472	1009
210.539	-145
210.607	-13
210.674	-208
210.742	324
210.809	396
210.877	753
210.944	777
211.012	-243
211.079	1495
211.146	577
211.214	1397
211.281	2863
211.349	1571
211.416	729
211.484	456
211.551	664
211.618	1249
211.686	876
211.753	475
211.821	1089
211.888	1411
211.955	1150
212.023	1697
212.090	1149
212.157	201
212.225	582
212.292	721
212.359	1226
212.427	4189
212.494	312
212.561	582
212.629	325
212.696	1578
212.763	195
212.831	-590
212.898	921
212.965	195
213.032	-32
213.100	536
213.167	565
213.234	187
213.301	265
213.369	687
213.436	224
213.503	788
213.570	339
213.638	-201
213.705	-346
213.772	512
213.839	-148
213.906	319
213.973	588
214.041	110
214.108	219
214.175	30
214.242	874
214.309	513
214.376	974
214.444	-50
214.511	-43
214.578	1065
214.645	709
214.712	905
214.779	432
214.846	590
214.913	1570
214.980	1515
215.048	3039
215.115	3369
215.182	1547
215.249	1151
215.316	772
215.383	1483
215.450	567
215.517	986
215.584	1183
215.651	800
215.718	545
215.785	268
215.852	481
215.919	554
215.986	679
216.053	653
216.120	22
216.187	740
216.254	746
216.321	365
216.388	-2
216.455	685
216.522	1002
216.589	171
216.656	653
216.722	910
216.789	308
216.856	424
216.923	655
216.990	1040
217.057	23
217.124	883
217.191	-446
217.258	1195
217.324	-312
217.391	1073
217.458	290
217.525	216
217.592	849
217.659	-107
217.725	938
217.792	1175
217.859	823
217.926	241
217.993	212
218.059	825
218.126	915
218.193	468
218.260	-16
218.327	405
218.393	112
218.460	370
218.527	472
218.594	590
218.660	1313
218.727	848
218.794	-336
218.860	517
218.927	-80
218.994	658
219.061	-501
219.127	843
219.194	1569
219.261	678
219.327	91
219.394	795
219.461	-64
219.527	-36
219.594	1119
219.661	858
219.727	450
219.794	824
219.860	283
219.927	1860
219.994	5426
220.060	8932
220.127	6302
220.193	3342
220.260	213
220.326	1210
220.393	1623
220.460	1090
220.526	785
220.593	419
220.659	1238
220.726	929
220.792	2221
220.859	1496
220.925	1211
220.992	1127
221.058	2489
221.125	1962
221.191	1277
221.258	381
221.324	-192
221.391	474
221.457	-135
221.524	965
221.590	1411
221.657	3346
221.723	1176
221.789	2236
221.856	430
221.922	-65
221.989	-2
222.055	-32
222.121	229
222.188	3010
222.254	1495
222.321	1838
222.387	823
222.453	588
222.520	318
222.586	-201
222.652	497
222.719	414
222.785	5
222.851	491
222.918	315
222.984	549
223.050	-116
223.116	-515
223.183	896
223.249	-49
223.315	281
223.382	-437
223.448	217
223.514	28
223.580	857
223.647	282
223.713	-154
223.779	69
223.845	196
223.911	805
223.978	-179
224.044	-118
224.110	-618
224.176	328
224.242	131
224.309	-62
224.375	18
224.441	918
224.507	176
224.573	254
224.639	398
224.705	325
224.772	67
224.838	359
224.904	533
224.970	963
225.036	365
225.102	391
225.168	593
225.234	482
225.300	1271
225.366	177
225.432	593
225.499	432
225.565	906
225.631	755
225.697	-144
225.763	644
225.829	-3
225.895	1129
225.961	1035
226.027	444
226.093	533
226.159	2411
226.225	1868
226.291	2315
226.357	2595
226.423	910
226.489	1197
226.554	1330
226.620	469
226.686	535
226.752	1531
226.818	1446
226.884	4290
226.950	2821
227.016	1784
227.082	1330
227.148	2001
227.214	1446
227.279	1539
227.345	2351
227.411	3126
227.477	9237
227.543	17763
227.609	15674
227.674	7587
227.740	3400
227.806	1817
227.872	1380
227.938	1183
228.003	637
228.069	868
228.135	700
228.201	988
228.267	1109
228.332	136
228.398	254
228.464	207
228.530	476
228.595	643
228.661	24
228.727	72
228.792	978
228.858	343
228.924	-1216
228.990	1257
229.055	686
229.121	553
229.187	555
229.252	198
229.318	-113
229.384	-334
229.449	-338
229.515	-1233
229.581	-415
229.646	1324
229.712	-43
229.777	831
229.843	1070
229.909	537
229.974	682
230.040	570
230.105	1079
230.171	-65
230.236	587
230.302	878
230.368	240
230.433	374
230.499	317
230.564	192
230.630	644
230.695	93
230.761	1538
230.826	-472
230.892	442
230.957	-893
231.023	203
231.088	53
231.154	214
231.219	-79
231.284	1030
231.350	995
231.415	229
231.481	573
231.546	788
231.612	760
231.677	283
231.742	-280
231.808	781
231.873	256
231.939	-895
232.004	1231
232.069	862
232.135	181
232.200	1014
232.265	245
232.331	609
232.396	14
232.461	-243
232.527	72
232.592	377
232.657	1833
232.723	535
232.788	706
232.853	336
232.918	774
232.984	515
233.049	-148
233.114	1546
233.179	2363
233.245	2173
233.310	684
233.375	187
233.440	887
233.506	636
233.571	-143
233.636	265
233.701	568
233.766	16
233.832	87
233.897	492
233.962	-152
234.027	1287
234.092	577
234.157	1107
234.222	1920
234.288	1019
234.353	1226
234.418	1315
234.483	1009
234.548	-110
234.613	1239
234.678	743
234.743	259
234.808	1714
234.873	105
234.938	922
235.004	59
235.069	742
235.134	-407
235.199	883
235.264	969
235.329	196
235.394	593
235.459	1452
235.524	252
235.589	259
235.654	486
235.719	-290
235.784	794
235.849	539
235.913	1693
235.978	1192
236.043	491
236.108	1240
236.173	556
236.238	893
236.303	-79
236.368	311
236.433	784
236.498	635
236.563	1378
236.627	1772
236.692	8532
236.757	3499
236.822	673
236.887	609
236.952	831
237.017	736
237.081	1569
237.146	1006
237.211	2266
237.276	10431
237.341	11566
237.405	2856
237.470	1253
237.535	1105
237.600	931
237.664	1126
237.729	82
237.794	53
237.859	1514
237.923	-326
237.988	350
238.053	1014
238.118	784
238.182	2481
238.247	1740
238.312	563
238.376	311
238.441	-563
238.506	1511
238.570	423
238.635	1037
238.700	1568
238.764	459
238.829	1540
238.893	367
238.958	1029
239.023	336
239.087	1555
239.152	1518
239.216	1442
239.281	1025
239.346	1342
239.410	822
239.475	574
239.539	4041
239.604	1529
239.668	3363
239.733	5945
239.797	19207
239.862	34491
239.926	17881
239.991	6838
240.055	3671
240.120	3399
240.184	2117
240.249	1053
240.313	810
240.378	1372
240.442	1823
240.507	1938
240.571	808
240.635	506
240.700	1295
240.764	398
240.829	555
240.893	87
240.957	896
241.022	2279
241.086	1354
241.151	-8
241.215	-131
241.279	1788
241.344	961
241.408	1129
241.472	479
241.537	1320
241.601	712
241.665	220
241.730	580
241.794	715
241.858	369
241.922	880
241.987	941
242.051	385
242.115	944
242.179	256
242.244	-294
242.308	920
242.372	1107
242.436	282
242.501	-22
242.565	86
242.629	377
242.693	1190
242.757	696
242.822	804
242.886	784
242.950	813
243.014	-58
243.078	947
243.142	189
243.206	353
243.271	1426
243.335	728
243.399	981
243.463	4572
243.527	7527
243.591	1703
243.655	912
243.719	466
243.783	1694
243.847	1548
243.911	691
243.975	1125
244.040	-504
244.104	1522
244.168	1275
244.232	757
244.296	897
244.360	1411
244.424	351
244.488	373
244.552	625
244.615	-613
244.679	1020
244.743	1227
244.807	-137
244.871	864
244.935	280
244.999	830
245.063	943
245.127	1141
245.191	1444
245.255	1570
245.319	1412
245.383	307
245.446	2221
245.510	583
245.574	261
245.638	1213
245.702	-378
245.766	2304
245.829	2417
245.893	732
245.957	1209
246.021	1470
246.085	864
246.149	644
246.212	4483
246.276	3980
246.340	1112
246.404	1689
246.467	1304
246.531	445
246.595	1917
246.659	1725
246.722	848
246.786	1191
246.850	368
246.913	2295
246.977	1
247.041	1644
247.104	188
247.168	1677
247.232	3615
247.295	6592
247.359	2042
247.423	1197
247.486	1515
247.550	1887
247.614	1526
247.677	2426
247.741	1773
247.804	2052
247.868	3803
247.932	3399
247.995	5993
248.059	775
248.122	312
248.186	2796
248.249	3066
248.313	13197
248.376	8723
248.440	4914
248.503	1650
248.567	2670
248.630	1416
248.694	2186
248.757	6348
248.821	11758
248.884	4290
248.948	5923
249.011	9314
249.075	14909
249.138	7915
249.202	2790
249.265	1300
249.328	2318
249.392	1848
249.455	2390
249.519	2182
249.582	2019
249.645	3158
249.709	1831
249.772	1326
249.835	2122
249.899	2208
249.962	2651
250.025	1457
250.089	6038
250.152	4303
250.215	2298
250.279	963
250.342	1325
250.405	755
250.468	1551
250.532	2283
250.595	3832
250.658	18866
250.721	18115
250.785	3615
250.848	4688
250.911	1389
250.974	2913
251.038	5143
251.101	6649
251.164	2518
251.227	2392
251.290	2312
251.354	4995
251.417	25450
251.480	11890
251.543	12569
251.606	44595
251.669	15142
251.732	6216
251.795	9450
251.859	9712
251.922	23159
251.985	7265
252.048	4376
252.111	2600
252.174	2390
252.237	7868
252.300	12687
252.363	15622
252.426	27950
252.489	6096
252.552	3758
252.615	2579
252.678	5202
252.741	13319
252.804	16227
252.867	28844
252.930	11349
252.993	5691
253.056	4065
253.119	2513
253.182	1740
253.245	2808
253.308	2820
253.371	1279
253.434	2303
253.497	3095
253.559	6494
253.622	3314
253.685	3790
253.748	2310
253.811	1485
253.874	2827
253.937	1799
254.000	1905
254.062	5109
254.125	5475
254.188	3371
254.251	2956
254.314	1925
254.376	2294
254.439	2400
254.502	3034
254.565	5482
254.628	6717
254.690	2760
254.753	1469
254.816	1440
254.878	2357
254.941	5402
255.004	3923
255.067	2314
255.129	1498
255.192	1628
255.255	371
255.317	1848
255.380	2066
255.443	2701
255.505	2608
255.568	1195
255.631	1319
255.693	2701
255.756	2015
255.819	3197
255.881	2629
255.944	1713
256.006	1281
256.069	1701
256.132	1127
256.194	1072
256.257	2847
256.319	2554
256.382	4933
256.444	5548
256.507	4518
256.569	1988
256.632	1337
256.694	1633
256.757	6492
256.819	9969
256.882	2998
256.944	2842
257.007	2348
257.069	1938
257.132	1732
257.194	2411
257.257	1574
257.319	1665
257.381	2224
257.444	5205
257.506	18184
257.569	10286
257.631	5236
257.693	3692
257.756	1755
257.818	1668
257.880	1834
257.943	2708
258.005	1729
258.067	1968
258.130	1654
258.192	2001
258.254	2031
258.317	1787
258.379	2193
258.441	4357
258.503	2922
258.566	3116
258.628	3576
258.690	1752
258.753	2133
258.815	2268
258.877	2255
258.939	2991
259.001	2513
259.064	2001
259.126	1955
259.188	2363
259.250	2598
259.312	2128
259.375	2157
259.437	1259
259.499	2434
259.561	1921
259.623	2517
259.685	1318
259.747	2682
259.809	3325
259.872	3033
259.934	8102
259.996	4359
260.058	3107
260.120	2161
260.182	1841
260.244	1947
260.306	2283
260.368	2951
260.430	1321
260.492	2532
260.554	3747
260.616	2491
260.678	4390
260.740	4234
260.802	2304
260.864	1834
260.926	1245
260.988	3322
261.050	2815
261.112	2469
261.174	5267
261.236	3013
261.298	1905
261.359	3144
261.421	3143
261.483	2429
261.545	2861
261.607	1954
261.669	3077
261.731	3244
261.793	3045
261.854	1069
261.916	2067
261.978	2462
262.040	2207
262.102	2875
262.164	1700
262.225	2912
262.287	2600
262.349	3064
262.411	2578
262.472	3242
262.534	3466
262.596	2306
262.658	3043
262.719	2113
262.781	3473
262.843	3026
262.904	2972
262.966	3765
263.028	2607
263.090	7451
263.151	8716
263.213	4600
263.275	2738
263.336	3481
263.398	3183
263.459	2998
263.521	3009
263.583	4469
263.644	3258
263.706	2786
263.767	2457
263.829	2874
263.891	2843
263.952	2366
264.014	2166
264.075	2355
264.137	2568
264.198	2745
264.260	1988
264.321	2904
264.383	2630
264.444	3767
264.506	1856
264.567	2303
264.629	3628
264.690	2261
264.752	2304
264.813	2756
264.875	1761
264.936	3374
264.998	3747
265.059	4447
265.120	3317
265.182	3218
265.243	6516
265.305	4733
265.366	3511
265.427	2184
265.489	3931
265.550	1523
265.611	3606
265.673	2188
265.734	2760
265.795	2947
265.857	2415
265.918	2359
265.979	4960
266.040	11487
266.102	5802
266.163	4014
266.224	3287
266.286	3768
266.347	2686
266.408	2576
266.469	3110
266.530	3789
266.592	2474
266.653	4830
266.714	4560
266.775	3682
266.836	4737
266.898	4212
266.959	4973
267.020	4413
267.081	4780
267.142	4749
267.203	4252
267.264	4363
267.326	5286
267.387	4634
267.448	3980
267.509	4908
267.570	4521
267.631	3790
267.692	1891
267.753	4751
267.814	2409
267.875	3949
267.936	4003
267.997	2992
268.058	2376
268.119	2542
268.180	3038
268.241	2376
268.302	2404
268.363	2514
268.424	2523
268.485	2816
268.546	1724
268.607	3049
268.668	2054
268.729	2390
268.790	1982
268.851	2354
268.912	2844
268.972	3498
269.033	2034
269.094	1456
269.155	2476
269.216	2624
269.277	2471
269.338	2307
269.398	2840
269.459	1867
269.520	2815
269.581	2094
269.642	1891
269.702	2100
269.763	2828
269.824	3020
269.885	1779
269.945	2636
270.006	2467
270.067	1968
270.128	1650
270.188	1370
270.249	1705
270.310	2256
270.370	2893
270.431	1996
270.492	1201
270.553	2264
270.613	2994
270.674	3303
270.734	1625
270.795	2956
270.856	2395
270.916	1156
270.977	2345
271.038	2653
271.098	2557
271.159	2955
271.219	2282
271.280	3404
271.340	2128
271.401	2907
271.462	2201
271.522	3053
271.583	2110
271.643	3112
271.704	2414
271.764	3599
271.825	4844
271.885	15639
271.946	12367
272.006	6222
272.066	12102
272.127	15700
272.187	16525
272.248	7131
272.308	6024
272.369	10014
272.429	5784
272.489	5436
272.550	5120
272.610	5341
272.671	4030
272.731	5205
272.791	4806
272.852	5343
272.912	5396
272.972	4893
273.033	5302
273.093	5443
273.153	6985
273.214	6727
273.274	7471
273.334	11504
273.394	12234
273.455	10009
273.515	10662
273.575	11571
273.635	9745
273.696	14463
273.756	16886
273.816	11710
273.876	9897
273.936	10051
273.997	9287
274.057	6095
274.117	5416
274.177	7047
274.237	14932
274.297	7663
274.358	6474
274.418	8133
274.478	5425
274.538	5555
274.598	3523
274.658	5919
274.718	4518
274.778	4210
274.838	3547
274.898	5013
274.958	6203
275.018	11689
275.078	5640
275.138	4777
275.198	4103
275.258	3491
275.318	3170
275.378	4172
275.438	3334
275.498	4424
275.558	5250
275.618	8047
275.678	5344
275.738	5375
275.798	3397
275.858	3639
275.918	3111
275.978	3990
276.038	3720
276.098	3853
276.157	4733
276.217	5609
276.277	4888
276.337	3736
276.397	4098
276.457	4646
276.517	4519
276.576	5161
276.636	3672
276.696	4611
276.756	5792
276.815	4420
276.875	5693
276.935	4981
276.995	5591
277.055	6463
277.114	6809
277.174	5329
277.234	5785
277.293	5331
277.353	4636
277.413	5230
277.472	4796
277.532	6899
277.592	11864
277.651	48159
277.711	40850
277.771	26262
277.830	65832
277.890	35731
277.950	62365
278.009	87814
278.069	33736
278.128	58692
278.188	46679
278.248	36693
278.307	70518
278.367	26004
278.426	12881
278.486	10102
278.545	7413
278.605	8844
278.664	7040
278.724	8057
278.783	11450
278.843	12529
278.902	9263
278.962	8401
279.021	11784
279.081	20804
279.140	15696
279.199	13199
279.259	15124
279.318	18664
279.378	24876
279.437	43273
279.496	135058
279.556	344333
279.615	163945
279.675	60213
279.734	38075
279.793	49024
279.853	38754
279.912	21977
279.971	17213
280.031	17998
280.090	25451
280.149	34219
280.208	76387
280.268	259669
280.327	137322
280.386	45697
280.445	26656
280.505	16327
280.564	13965
280.623	12672
280.682	11826
280.742	11705
280.801	8769
280.860	8767
280.919	8421
280.978	9421
281.037	8039
281.097	8111
281.156	9842
281.215	8068
281.274	7642
281.333	10666
281.392	7467
281.451	6588
281.510	7020
281.569	6162
281.628	5756
281.688	6774
281.747	7620
281.806	5029
281.865	6087
281.924	5654
281.983	6156
282.042	4324
282.101	5408
282.160	6491
282.219	6669
282.278	6330
282.337	6225
282.396	5974
282.454	5548
282.513	5563
282.572	7292
282.631	7048
282.690	6444
282.749	5736
282.808	6461
282.867	7661
282.926	5909
282.985	7046
283.043	7229
283.102	7345
283.161	7682
283.220	9904
283.279	10508
283.338	8071
283.396	8473
283.455	9321
283.514	8946
283.573	9142
283.631	9195
283.690	9719
283.749	8575
283.808	11396
283.866	10627
283.925	11278
283.984	11872
284.043	12406
284.101	13868
284.160	13515
284.219	16594
284.277	17109
284.336	18393
284.395	22716
284.453	22683
284.512	24331
284.570	28370
284.629	32607
284.688	39682
284.746	48449
284.805	58852
284.863	74667
284.922	91779
284.981	119179
285.039	160124
285.098	219441
285.156	238899
285.215	191177
285.273	220245
285.332	241217
285.390	193365
285.449	145403
285.507	109351
285.566	84515
285.624	67335
285.683	54102
285.741	44619
285.799	37884
285.858	31647
285.916	27950
285.975	24588
286.033	21383
286.091	20540
286.150	17957
286.208	17033
286.267	16213
286.325	13808
286.383	13276
286.442	13029
286.500	12477
286.558	11605
286.616	10116
286.675	10089
286.733	9582
286.791	8951
286.850	9400
286.908	8493
286.966	8213
287.024	7287
287.083	7587
287.141	8088
287.199	7431
287.257	7271
287.315	7320
287.374	6847
287.432	6997
287.490	5471
287.548	6399
287.606	5930
287.664	6527
287.723	5277
287.781	6193
287.839	5648
287.897	6539
287.955	6723
288.013	7161
288.071	10064
288.129	38365
288.187	54644
288.245	17318
288.303	10630
288.361	7412
288.419	5608
288.477	6454
288.535	5697
288.593	5672
288.651	4745
288.709	4310
288.767	4990
288.825	4928
288.883	5414
288.941	4902
288.999	3407
289.057	4633
289.115	4070
289.173	3766
289.231	3711
289.289	3527
289.346	3580
289.404	5086
289.462	4442
289.520	5616
289.578	4134
289.636	3464
289.694	3699
289.751	4592
289.809	4612
289.867	3880
289.925	3914
289.983	3785
290.040	4079
290.098	3749
290.156	3421
290.214	4278
290.271	3132
290.329	4899
290.387	3833
290.444	3577
290.502	3747
290.560	3553
290.617	3899
290.675	3957
290.733	3584
290.790	4054
290.848	4521
290.906	4186
290.963	3328
291.021	3834
291.078	3737
291.136	3367
291.194	4753
291.251	4625
291.309	3346
291.366	4193
291.424	3535
291.481	4369
291.539	6858
291.596	5906
291.654	3862
291.711	4467
291.769	4325
291.826	3884
291.884	4045
291.941	3082
291.999	2908
292.056	3515
292.114	4351
292.171	3450
292.228	5125
292.286	4771
292.343	3668
292.401	3707
292.458	4162
292.515	3284
292.573	4456
292.630	5482
292.687	3801
292.745	3681
292.802	3884
292.859	6697
292.917	7794
292.974	4435
293.031	4030
293.089	3900
293.146	3611
293.203	3899
293.260	3669
293.318	4322
293.375	3764
293.432	4078
293.489	4515
293.546	3912
293.604	6185
293.661	13018
293.718	14100
293.775	8400
293.832	10800
293.889	11936
293.947	8716
294.004	5243
294.061	4665
294.118	6832
294.175	11322
294.232	13717
294.289	8678
294.346	6756
294.403	6009
294.460	5291
294.517	4618
294.574	4141
294.631	4702
294.688	4591
294.745	6750
294.802	10420
294.859	6962
294.916	5155
294.973	2875
295.030	3787
295.087	2937
295.144	3942
295.201	3895
295.258	3563
295.315	4666
295.372	6858
295.429	7220
295.486	4934
295.542	4381
295.599	4600
295.656	4081
295.713	5747
295.770	6353
295.827	3556
295.883	3206
295.940	4121
295.997	2870
296.054	3146
296.111	3134
296.167	3981
296.224	2526
296.281	2819
296.338	3215
296.394	3379
296.451	3347
296.508	4932
296.564	4475
296.621	6615
296.678	14384
296.734	10660
296.791	5142
296.848	4706
296.904	3656
296.961	5342
297.018	8086
297.074	4753
297.131	4304
297.187	3974
297.244	5253
297.301	12760
297.357	12702
297.414	5451
297.470	4897
297.527	4073
297.583	3651
297.640	3709
297.696	3015
297.753	2565
297.809	2931
297.866	2990
297.922	3675
297.979	3461
298.035	2444
298.092	4216
298.148	5929
298.204	5002
298.261	3767
298.317	9111
298.374	12305
298.430	7058
298.486	4019
298.543	2582
298.599	4415
298.656	3724
298.712	4412
298.768	5849
298.824	3409
298.881	3798
298.937	3257
298.993	3706
299.050	3525
299.106	3483
299.162	3457
299.218	4090
299.275	3665
299.331	5133
299.387	8483
299.443	22330
299.500	34758
299.556	19364
299.612	10972
299.668	14353
299.724	33381
299.780	24693
299.837	11800
299.893	12539
299.949	28287
300.005	27534
300.061	31840
300.117	35250
300.173	14209
300.229	8159
300.285	6892
300.341	7316
300.397	4724
300.453	5647
300.510	6215
300.566	7730
300.622	19014
300.678	53295
300.734	40438
300.790	20837
300.845	19041
300.901	31097
300.957	28896
301.013	13125
301.069	8432
301.125	6450
301.181	4737
301.237	5270
301.293	3986
301.349	4815
301.405	3474
301.461	4397
301.516	3741
301.572	3715
301.628	3836
301.684	3673
301.740	4168
301.796	4792
301.851	4538
301.907	5170
301.963	6645
302.019	16739
302.074	30383
302.130	21667
302.186	10164
302.242	5872
302.297	4436
302.353	4504
302.409	5231
302.464	4852
302.520	5023
302.576	8614
302.631	7075
302.687	4603
302.743	3175
302.798	3183
302.854	3012
302.910	4298
302.965	3088
303.021	3328
303.076	4072
303.132	3938
303.187	3850
303.243	3507
303.299	2822
303.354	2404
303.410	2922
303.465	2989
303.521	2990
303.576	3140
303.632	3350
303.687	6198
303.743	9824
303.798	6285
303.853	5080
303.909	3168
303.964	3176
304.020	3308
304.075	3496
304.130	3895
304.186	4628
304.241	4942
304.297	3409
304.352	3036
304.358	3019
304.407	2886
304.449	3272
304.463	3401
304.518	3250
304.539	3273
304.573	3310
304.629	3498
304.630	3535
304.684	5295
304.720	8288
304.739	9755
304.794	9807
304.811	8703
304.850	5967
304.902	3960
304.905	3842
304.960	2995
304.992	3361
305.015	3629
305.071	3467
305.083	3459
305.126	3388
305.173	2969
305.181	2904
305.236	2691
305.264	3015
305.292	3371
305.347	4287
305.354	4190
305.402	3549
305.445	3407
305.457	3340
305.512	4042
305.535	3655
305.567	3192
305.622	3021
305.626	3091
305.678	4793
305.716	6955
305.733	7598
305.788	6620
305.807	6379
305.843	6655
305.897	10680
305.898	10716
305.953	8176
305.988	6057
306.008	5132
306.063	3593
306.078	3553
306.118	3557
306.168	3168
306.173	3139
306.228	2987
306.259	3231
306.283	3402
306.338	3054
306.349	3111
306.393	3478
306.440	3478
306.448	3448
306.503	3444
306.530	3424
306.558	3656
306.613	4547
306.620	4617
306.668	5167
306.711	6494
306.723	6635
306.778	5059
306.801	4782
306.833	4554
306.888	3987
306.892	3922
306.943	3465
306.982	3491
306.997	3526
307.052	3854
307.072	3996
307.107	4244
307.162	3666
307.163	3668
307.217	3995
307.253	3775
307.272	3791
307.327	4192
307.343	4289
307.381	4529
307.434	4776
307.436	4798
307.491	5185
307.524	5605
307.546	5742
307.600	6120
307.614	5850
307.655	4796
307.704	4669
307.710	4733
307.765	4912
307.795	5129
307.819	5225
307.874	6031
307.885	6028
307.929	6216
307.975	6842
307.984	7112
308.038	8683
308.065	10111
308.093	16779
308.148	35148
308.156	38947
308.202	55084
308.246	56368
308.257	52510
308.312	25533
308.336	16264
308.366	13457
308.421	10886
308.426	10649
308.475	9696
308.517	10072
308.530	10342
308.585	10792
308.607	11190
308.639	11709
308.694	11852
308.697	11905
308.748	13209
308.787	13506
308.803	13707
308.857	15041
308.877	15605
308.912	18518
308.967	23938
308.967	24006
309.021	38331
309.058	50093
309.076	56968
309.130	78526
309.148	84871
309.185	114997
309.238	170237
309.239	171059
309.293	192941
309.328	191477
309.348	170208
309.402	106088
309.418	88988
309.457	74011
309.508	58341
309.511	59144
309.566	77101
309.598	91965
309.620	117412
309.674	187380
309.688	203148
309.729	184620
309.778	146906
309.783	142745
309.837	92017
309.868	64525
309.892	56415
309.946	40374
309.959	37068
310.001	31737
310.049	25792
310.055	25063
310.109	19337
310.139	16176
310.163	14741
310.218	11987
310.229	11465
310.272	11004
310.319	10701
310.326	10485
310.381	8936
310.409	8169
310.435	8174
310.489	7703
310.499	7747
310.543	7701
310.589	7274
310.598	7223
310.652	7241
310.679	7040
310.706	6851
310.760	6456
310.769	6427
310.814	6866
310.859	7170
310.868	7155
310.923	6988
310.948	6954
310.977	6775
311.031	6221
311.038	6160
311.085	6487
311.128	6608
311.139	6583
311.193	6611
311.218	6529
311.247	6460
311.301	6286
311.308	6269
311.356	5858
311.398	5399
311.410	5471
311.464	5741
311.488	5874
311.518	5922
311.572	6034
311.578	6022
311.626	6044
311.668	6125
311.680	6019
311.734	5410
311.758	5150
311.788	5721
311.842	6701
311.847	6791
311.896	6813
311.937	6802
311.950	6733
312.004	6350
312.027	6174
312.058	5897
312.112	5389
312.117	5330
312.165	5694
312.207	5997
312.297	5541
312.386	5155
312.476	5632
312.566	6952
312.656	5923
312.745	6007
312.835	6744
312.925	6376
313.015	6660
313.104	6534
313.194	7648
313.284	7801
313.374	8093
313.463	9583
313.553	8351
313.643	8605
313.732	8937
313.822	10246
313.912	10893
314.001	11367
314.091	12378
314.180	11067
314.270	12674
314.360	12029
314.449	11156
314.539	11202
314.628	10855
314.718	10802
314.808	11705
314.897	13816
314.987	14958
315.076	15531
315.166	15017
315.255	13250
315.345	13332
315.434	11722
315.524	12021
315.613	13967
315.703	17567
315.792	50912
315.881	156139
315.971	42903
316.060	14199
316.150	12851
316.239	12262
316.328	12674
316.418	12198
316.507	13829
316.597	15139
316.686	16017
316.775	14962
316.865	13552
316.954	11589
317.043	12215
317.133	10532
317.222	10431
317.311	9100
317.400	8894
317.490	10392
317.579	11078
317.668	12194
317.757	21992
317.847	82557
317.936	229087
318.025	60668
318.114	61159
318.203	26794
318.293	15000
318.382	21588
318.471	22258
318.560	19458
318.649	17354
318.738	11954
318.828	9370
318.917	7245
319.006	7452
319.095	8527
319.184	13461
319.273	10138
319.362	8851
319.451	7882
319.540	7347
319.629	8515
319.718	9221
319.807	7318
319.896	9690
319.985	15497
320.074	10867
320.163	8328
320.252	9809
320.341	8912
320.430	10095
320.519	11589
320.608	11183
320.697	13039
320.786	15711
320.875	18088
320.964	19545
321.053	19074
321.142	22093
321.230	24515
321.319	27161
321.408	31312
321.497	28788
321.586	24169
321.675	21408
321.764	19636
321.852	18942
321.941	20483
322.030	20084
322.119	21941
322.207	28913
322.296	30578
322.385	36254
322.474	41267
322.562	42518
322.651	30999
322.740	24953
322.829	22008
322.917	18633
323.006	16866
323.095	15420
323.183	14557
323.272	13570
323.361	12910
323.449	14542
323.538	11255
323.626	13163
323.715	11225
323.804	9896
323.892	11014
323.981	10129
324.069	8690
324.158	9979
324.246	10051
324.335	9758
324.424	9851
324.512	9371
324.601	9154
324.689	8827
324.778	8995
324.866	9039
324.954	7052
325.043	7841
325.131	7097
325.220	8399
325.308	7555
325.397	8018
325.485	7808
325.574	7492
325.662	7356
325.750	7260
325.839	7196
325.927	7807
326.015	7141
326.104	7866
326.192	7419
326.280	7781
326.369	7153
326.457	7433
326.545	6809
326.634	7391
326.722	7191
326.810	8158
326.898	10526
326.987	9717
327.075	9003
327.163	8616
327.251	8031
327.340	8886
327.428	13864
327.516	17746
327.604	12703
327.692	10067
327.781	8641
327.869	7740
327.957	6422
328.045	6961
328.133	6443
328.221	6075
328.309	6752
328.397	7435
328.485	8247
328.574	15561
328.662	21969
328.750	13456
328.838	9804
328.926	8085
329.014	6850
329.102	7395
329.190	7539
329.278	7244
329.366	7279
329.454	6794
329.542	6710
329.630	6976
329.718	6916
329.806	6898
329.893	6856
329.981	5837
330.069	6710
330.157	7936
330.245	9684
330.333	7503
330.421	7435
330.509	7830
330.597	8035
330.684	7958
330.772	6712
330.860	7135
330.948	7427
331.036	7450
331.123	5927
331.211	7169
331.299	7215
331.387	7576
331.475	7105
331.562	7394
331.650	7835
331.738	6885
331.825	7243
331.913	6852
332.001	7321
332.089	7613
332.176	7258
332.264	8818
332.352	8064
332.439	7439
332.527	8497
332.614	7700
332.702	8003
332.790	8281
332.877	11106
332.965	31117
333.052	25041
333.140	33295
333.228	82228
333.315	22968
333.403	11205
333.490	12922
333.578	33480
333.665	122419
333.753	45382
333.840	14922
333.928	14635
334.015	15795
334.103	19445
334.190	28026
334.278	33108
334.365	47404
334.452	46382
334.540	30901
334.627	30059
334.715	36479
334.802	53097
334.889	88293
334.977	113957
335.064	71546
335.151	35386
335.239	27038
335.326	21723
335.413	23653
335.501	24929
335.588	23417
335.675	26621
335.762	33331
335.850	44165
335.937	64444
336.024	103240
336.111	162380
336.199	138622
336.286	66660
336.373	36955
336.460	26408
336.547	21120
336.635	17820
336.722	15079
336.809	14089
336.896	12823
336.983	13302
337.070	15394
337.157	18770
337.245	14622
337.332	13780
337.419	12412
337.506	11483
337.593	10981
337.680	10953
337.767	12789
337.854	10338
337.941	9396
338.028	9766
338.115	8993
338.202	10513
338.289	10518
338.376	11913
338.463	9399
338.550	10596
338.637	10558
338.724	8228
338.811	9116
338.898	8094
338.984	8234
339.071	8258
339.158	7437
339.245	8347
339.332	8803
339.419	8282
339.506	8448
339.593	8672
339.679	8251
339.766	8632
339.853	8086
339.940	8410
340.027	7316
340.113	7382
340.200	6761
340.287	7755
340.374	7757
340.460	7627
340.547	6532
340.634	7812
340.720	10021
340.807	7275
340.894	7211
340.980	7791
341.067	7496
341.154	8402
341.240	7622
341.327	8698
341.414	7784
341.500	7526
341.587	7764
341.674	8297
341.760	8463
341.847	8308
341.933	7879
342.020	8023
342.106	8004
342.193	7964
342.279	7744
342.366	8181
342.452	6958
342.539	6988
342.625	8149
342.712	9570
342.798	8236
342.885	6601
342.971	7056
343.058	7644
343.144	6206
343.230	7667
343.317	7477
343.403	6841
343.490	7061
343.576	7310
343.662	7196
343.749	7221
343.835	7761
343.921	9641
344.008	29087
344.094	50876
344.180	13848
344.267	8186
344.353	13193
344.439	12229
344.525	8057
344.612	7491
344.698	7581
344.784	6753
344.870	7517
344.957	6799
345.043	7556
345.129	6926
345.215	7832
345.301	7400
345.387	6769
345.474	7054
345.560	6260
345.646	7071
345.732	6942
345.818	7236
345.904	6949
345.990	7764
346.076	6366
346.162	6494
346.249	7896
346.335	6432
346.421	7386
346.507	9713
346.593	18061
346.679	9113
346.765	9119
346.851	16961
346.937	13042
347.023	8994
347.108	7938
347.194	8157
347.280	8066
347.366	12387
347.452	33773
347.538	47555
347.624	22553
347.710	14277
347.796	8713
347.882	8923
347.967	8203
348.053	7636
348.139	7765
348.225	7955
348.311	7975
348.397	7408
348.482	9146
348.568	9656
348.654	15809
348.740	46651
348.825	48388
348.911	18948
348.997	16542
349.083	22316
349.168	9809
349.254	8750
349.340	8713
349.425	7762
349.511	8123
349.597	9533
349.682	9315
349.768	13451
349.854	10369
349.939	8706
350.025	7389
350.110	7813
350.196	7962
350.282	8048
350.367	8154
350.453	8952
350.538	7520
350.624	8024
350.709	7823
350.795	7406
350.880	7810
350.966	8181
351.051	7846
351.137	7497
351.222	7646
351.308	9322
351.393	11310
351.479	8595
351.564	7162
351.649	7335
351.735	7051
351.820	8720
351.906	8203
351.991	7613
352.076	10115
352.162	11292
352.247	7180
352.332	7835
352.418	7405
352.503	8553
352.588	12174
352.673	10775
352.759	7797
352.844	7727
352.929	7481
353.014	7602
353.100	7528
353.185	8525
353.270	8506
353.355	7866
353.441	7431
353.526	7708
353.611	7921
353.696	8285
353.781	8281
353.866	7301
353.952	8366
354.037	8086
354.122	8882
354.207	9607
354.292	8626
354.377	7988
354.462	8414
354.547	8179
354.632	7577
354.717	8500
354.802	9329
354.887	7582
354.972	7634
355.057	8229
355.142	6447
355.227	8215
355.312	8191
355.397	8157
355.482	10412
355.567	9333
355.652	8814
355.737	9237
355.822	13114
355.907	12618
355.991	8290
356.076	7864
356.161	8959
356.246	8621
356.331	8816
356.416	10774
356.501	24826
356.585	24429
356.670	9369
356.755	10414
356.840	10407
356.924	21107
357.009	52142
357.094	22690
357.179	9377
357.263	9277
357.348	9674
357.433	8953
357.517	9544
357.602	8976
357.687	9116
357.771	9901
357.856	11940
357.941	11241
358.025	22516
358.110	67524
358.195	32951
358.279	11654
358.364	11070
358.448	13756
358.533	18590
358.617	16385
358.702	16533
358.787	11219
358.871	10523
358.956	10460
359.040	9927
359.125	9814
359.209	9725
359.294	10961
359.378	18030
359.462	16111
359.547	10142
359.631	8802
359.716	8313
359.800	8164
359.885	9200
359.969	8955
360.053	8461
360.138	9403
360.222	8273
360.306	9320
360.391	9551
360.475	9858
360.559	11784
360.644	12210
360.728	11731
360.812	19014
360.896	33575
360.981	16366
361.065	11206
361.149	10777
361.233	10751
361.318	10887
361.402	10662
361.486	11955
361.570	11861
361.654	12599
361.739	14861
361.823	29379
361.907	39804
361.991	20164
362.075	20955
362.159	28958
362.243	53293
362.327	126514
362.411	170557
362.495	71856
362.580	35642
362.664	31773
362.748	37984
362.832	58912
362.916	122807
363.000	300971
363.084	396394
363.168	175658
363.252	57112
363.336	32971
363.420	27125
363.503	27112
363.587	26033
363.671	21597
363.755	21868
363.839	25630
363.923	27081
364.007	33355
364.091	44760
364.175	71130
364.258	150480
364.342	350994
364.426	552815
364.510	310813
364.594	99963
364.677	51043
364.761	49773
364.845	37112
364.929	21355
365.013	18124
365.096	16088
365.180	15290
365.264	15230
365.347	20967
365.431	14579
365.515	11841
365.598	11263
365.682	12790
365.766	11229
365.849	12226
365.933	12309
366.017	13340
366.100	11754
366.184	12243
366.267	12208
366.351	11664
366.435	10542
366.518	12109
366.602	11691
366.685	10682
366.769	11693
366.852	12380
366.936	12505
367.019	12422
367.103	12329
367.186	12648
367.270	11750
367.353	13138
367.436	14173
367.520	14478
367.603	14187
367.687	13768
367.770	13122
367.853	14218
367.937	17181
368.020	18397
368.104	12757
368.187	12161
368.270	12326
368.353	11324
368.437	10946
368.520	11843
368.603	11067
368.687	13944
368.770	16854
368.853	10840
368.936	10916
369.020	11808
369.103	9399
369.186	9668
369.269	9470
369.352	10831
369.436	11118
369.519	10216
369.602	8505
369.685	11106
369.768	9884
369.851	11258
369.934	10028
370.018	10419
370.101	10746
370.184	12500
370.267	11404
370.350	12378
370.433	14978
370.516	38401
370.599	86106
370.682	44638
370.765	18641
370.848	18333
370.931	23392
371.014	17369
371.097	12543
371.180	13295
371.263	13759
371.346	13273
371.429	15311
371.511	14819
371.594	15685
371.677	15934
371.760	18657
371.843	20326
371.926	43745
372.009	75851
372.091	42678
372.174	28339
372.257	33963
372.340	27602
372.423	25401
372.505	23649
372.588	18101
372.671	19718
372.754	25851
372.836	20665
372.919	20133
373.002	21660
373.085	19841
373.167	20437
373.250	21179
373.332	28315
373.415	44041
373.498	77118
373.580	53071
373.663	131386
373.746	138076
373.828	31347
373.911	17219
373.993	16545
374.076	18869
374.159	17621
374.241	15673
374.324	22113
374.406	20442
374.489	30514
374.571	53995
374.654	29597
374.736	22598
374.819	37572
374.901	55105
374.983	56507
375.066	23174
375.148	19289
375.231	20645
375.313	24498
375.395	20543
375.478	18776
375.560	18469
375.643	18241
375.725	22294
375.807	44108
375.890	35043
375.972	16071
376.054	15611
376.136	14655
376.219	14188
376.301	19328
376.383	31499
376.465	19468
376.548	13683
376.630	16492
376.712	25305
376.794	17294
376.877	11461
376.959	10749
377.041	10089
377.123	10457
377.205	11231
377.287	10842
377.369	11920
377.452	12403
377.534	11945
377.616	11634
377.698	11721
377.780	12368
377.862	11518
377.944	12633
378.026	11250
378.108	11552
378.190	10723
378.272	11057
378.354	11476
378.436	11222
378.518	11008
378.600	12498
378.682	11192
378.764	16013
378.846	14844
378.928	11321
379.010	11425
379.091	11352
379.173	12184
379.255	10903
379.337	11834
379.419	13055
379.501	18399
379.583	14520
379.664	12073
379.746	12683
379.828	16813
379.910	17941
379.991	17427
380.073	11794
380.155	12911
380.237	12024
380.318	11342
380.400	13235
380.482	14295
380.564	13546
380.645	14897
380.727	14562
380.809	13329
380.890	13627
380.972	13542
381.053	15123
381.135	15195
381.217	16734
381.298	20235
381.380	17245
381.461	18853
381.543	30563
381.624	36516
381.706	20529
381.787	19057
381.869	20502
381.951	31393
382.032	61344
382.113	48113
382.195	26541
382.276	28676
382.358	34327
382.439	46315
382.521	59050
382.602	78968
382.684	73643
382.765	127415
382.846	327579
382.928	624177
383.009	425515
383.090	353053
383.172	747037
383.253	886124
383.334	385911
383.416	171378
383.497	134317
383.578	160891
383.659	302389
383.741	700855
383.822	1065888
383.903	679516
383.984	248927
384.066	128297
384.147	84085
384.228	57975
384.309	50077
384.390	46122
384.471	41471
384.553	37450
384.634	35576
384.715	35003
384.796	33005
384.877	33797
384.958	37181
385.039	34504
385.120	29063
385.201	26684
385.282	27086
385.363	33265
385.444	40510
385.525	40017
385.606	43950
385.687	39224
385.768	29121
385.849	29212
385.930	46402
386.011	62597
386.092	34751
386.173	27120
386.254	24007
386.335	22720
386.416	22647
386.496	23883
386.577	26482
386.658	22302
386.739	21917
386.820	23022
386.901	23387
386.981	26272
387.062	29181
387.143	32437
387.224	36711
387.304	38716
387.385	35190
387.466	32893
387.547	36443
387.627	37727
387.708	39747
387.789	44371
387.869	42658
387.950	32085
388.031	27439
388.111	25308
388.192	27682
388.273	29261
388.353	25785
388.434	19498
388.514	21171
388.595	33843
388.676	34856
388.756	22092
388.837	19366
388.917	18223
388.998	15274
389.078	16500
389.159	15950
389.239	15101
389.320	17240
389.400	15044
389.480	18043
389.561	20901
389.641	18864
389.722	15651
389.802	15793
389.883	18101
389.963	22944
390.043	19007
390.124	15004
390.204	15745
390.284	19171
390.365	17633
390.445	18023
390.525	22532
390.605	22200
390.686	17008
390.766	17041
390.846	16867
390.927	16108
391.007	16018
391.087	17763
391.167	17373
391.247	17187
391.328	18564
391.408	19035
391.488	19105
391.568	19311
391.648	20216
391.728	22314
391.808	22833
391.888	24396
391.969	27080
392.049	30051
392.129	29448
392.209	31439
392.289	39286
392.369	38390
392.449	37588
392.529	41792
392.609	47812
392.689	53889
392.769	66046
392.849	80747
392.929	98528
393.009	137186
393.089	204230
393.169	364741
393.248	752061
393.328	1244458
393.408	1208008
393.488	717226
393.568	346901
393.648	190013
393.728	121515
393.807	87149
393.887	69203
393.967	55150
394.047	47250
394.127	40055
394.206	38924
394.286	55347
394.366	137935
394.446	147808
394.525	47495
394.605	27934
394.685	27038
394.764	31095
394.844	52926
394.924	65248
395.003	36016
395.083	23463
395.163	23248
395.242	21196
395.322	23042
395.402	21096
395.481	23660
395.561	31825
395.640	78643
395.720	141208
395.799	82750
395.879	36447
395.958	33577
396.038	63816
396.117	180513
396.197	202483
396.276	72273
396.356	53386
396.435	63905
396.515	86239
396.594	133957
396.673	278825
396.753	665154
396.832	1117640
396.912	891505
396.991	388139
397.070	167598
397.150	99211
397.229	84493
397.308	136184
397.388	219362
397.467	120485
397.546	45340
397.625	32069
397.705	29934
397.784	25637
397.863	24245
397.942	21931
398.022	19966
398.101	19684
398.180	20561
398.259	18743
398.338	17458
398.417	16277
398.497	15970
398.576	15846
398.655	14313
398.734	14890
398.813	14169
398.892	15471
398.971	16739
399.050	14667
399.129	11368
399.208	12167
399.287	12057
399.366	10614
399.445	11128
399.524	11288
399.603	9251
399.682	12232
399.761	12910
399.840	15670
399.919	14837
399.998	10610
400.077	8587
400.156	10033
400.235	11618
400.313	9603
400.392	9069
400.471	12097
400.550	13038
400.629	10021
400.708	9466
400.786	8725
400.865	8328
400.944	8561
401.023	10503
401.102	8381
401.180	7612
401.259	8630
401.338	8156
401.416	8351
401.495	7033
401.574	8442
401.652	7594
401.731	8785
401.810	7788
401.888	7709
401.967	7291
402.046	7697
402.124	7785
402.203	7448
402.281	7986
402.360	7385
402.438	8336
402.517	7208
402.596	6754
402.674	7138
402.753	7425
402.831	7772
402.910	7496
402.988	10798
403.066	19694
403.145	16058
403.223	12278
403.302	17835
403.380	16930
403.459	16485
403.537	11705
403.615	10624
403.694	8671
403.772	10002
403.850	8807
403.929	8586
404.007	8030
404.085	9769
404.164	9193
404.242	8715
404.320	12202
404.398	18977
404.477	18492
404.555	28823
404.633	28723
404.711	15692
404.789	11795
404.868	7899
404.946	7225
405.024	7838
405.102	6183
405.180	6242
405.258	5573
405.336	7329
405.415	5969
405.493	8544
405.571	7508
405.649	7432
405.727	8113
405.805	11269
405.883	11204
405.961	10558
406.039	8218
406.117	6371
406.195	7996
406.273	9788
406.351	19613
406.429	16045
406.507	7531
406.585	5985
406.663	6324
406.740	6620
406.818	6029
406.896	5668
406.974	6764
407.052	6021
407.130	13260
407.208	17232
407.285	8632
407.363	6260
407.441	6326
407.519	6934
407.596	7607
407.674	11392
407.752	23160
407.830	20986
407.907	9081
407.985	6317
408.063	6433
408.141	6206
408.218	7418
408.296	6325
408.373	7918
408.451	9000
408.529	9213
408.606	8847
408.684	9645
408.762	10109
408.839	10565
408.917	10443
408.994	11714
409.072	14005
409.149	17411
409.227	29973
409.304	41824
409.382	47309
409.459	53907
409.537	66634
409.614	61356
409.692	49398
409.769	49370
409.846	68250
409.924	81142
410.001	62045
410.079	42789
410.156	32463
410.233	24121
410.311	20442
410.388	17956
410.465	16839
410.543	16239
410.620	15269
410.697	14506
410.775	15331
410.852	14227
410.929	16458
411.006	16964
411.083	16007
411.161	13507
411.238	13775
411.315	12366
411.392	12032
411.469	11559
411.547	10929
411.624	9307
411.701	9450
411.778	9074
411.855	9822
411.932	7887
412.009	8028
412.086	8602
412.163	8395
412.240	7414
412.317	9160
412.394	7514
412.471	8789
412.548	6357
412.625	7329
412.702	7158
412.779	7321
412.856	6638
412.933	6452
413.010	6434
413.087	7114
413.164	7455
413.241	9396
413.318	6568
413.395	7006
413.471	6704
413.548	6692
413.625	7094
413.702	5679
413.779	5655
413.855	5847
413.932	5777
414.009	5873
414.086	5978
414.162	6514
414.239	5630
414.316	7910
414.393	10986
414.469	6979
414.546	5088
414.623	6327
414.699	5806
414.776	5583
414.853	5482
414.929	6097
415.006	4783
415.082	4628
415.159	5633
415.236	5835
415.312	5621
415.389	5500
415.465	5022
415.542	5864
415.618	4905
415.695	6447
415.771	4404
415.848	4936
415.924	5630
416.000	6019
416.077	5761
416.153	5132
416.230	3845
416.306	5524
416.383	5466
416.459	6026
416.535	5704
416.612	5906
416.688	7353
416.764	7985
416.841	7211
416.917	6819
416.993	6108
417.069	7246
417.146	6296
417.222	6020
417.298	6026
417.374	5690
417.451	5721
417.527	6274
417.603	5618
417.679	5436
417.755	5432
417.831	4915
417.908	5699
417.984	5026
418.060	5017
418.136	6390
418.212	6099
418.288	5977
418.364	5270
418.440	5878
418.516	5796
418.592	6207
418.668	6028
418.744	6494
418.820	6412
418.896	6433
418.972	5893
419.048	6253
419.124	6596
419.200	5795
419.276	6277
419.352	6374
419.428	7299
419.504	6478
419.579	7316
419.655	7889
419.731	7897
419.807	7962
419.883	8844
419.959	8845
420.034	7995
420.110	9024
420.186	10430
420.262	11808
420.337	9841
420.413	11105
420.489	11260
420.565	12814
420.640	11804
420.716	13774
420.792	12668
420.867	14641
420.943	14105
421.019	16023
421.094	17435
421.170	18602
421.245	18903
421.321	20609
421.397	21844
421.472	28419
421.548	34552
421.623	36007
421.699	34274
421.774	38807
421.850	42002
421.925	51674
422.001	60198
422.076	73124
422.152	91255
422.227	119190
422.302	164018
422.378	238439
422.453	368649
422.529	540294
422.604	604196
422.679	494776
422.755	580183
422.830	555032
422.905	376945
422.981	257549
423.056	182221
423.131	137187
423.207	104148
423.282	81652
423.357	67720
423.432	56540
423.508	50000
423.583	42859
423.658	38382
423.733	34709
423.808	31548
423.883	31267
423.959	34219
424.034	39599
424.109	37634
424.184	27143
424.259	21570
424.334	19666
424.409	16440
424.484	16025
424.559	14804
424.634	13615
424.709	12882
424.784	13193
424.859	12588
424.934	10904
425.009	12992
425.084	13679
425.159	10251
425.234	11076
425.309	9463
425.384	10500
425.459	9670
425.534	9736
425.609	7739
425.683	8918
425.758	8316
425.833	8207
425.908	8196
425.983	8875
426.058	10508
426.132	9118
426.207	6833
426.282	8822
426.357	6360
426.431	7252
426.506	6952
426.581	7233
426.655	6600
426.730	6366
426.805	6276
426.879	7031
426.954	5853
427.029	6210
427.103	9469
427.178	15704
427.253	10580
427.327	7379
427.402	6117
427.476	7131
427.551	6541
427.625	7058
427.700	6632
427.774	5569
427.849	6867
427.923	6487
427.998	7875
428.072	9864
428.147	23159
428.221	91290
428.296	230965
428.370	150063
428.444	27534
428.519	11068
428.593	9092
428.667	10149
428.742	13273
428.816	39992
428.890	145093
428.965	221197
429.039	70650
429.113	14476
429.188	8555
429.262	7796
429.336	7408
429.410	8339
429.485	7838
429.559	7856
429.633	9121
429.707	12680
429.781	34609
429.855	137608
429.930	198560
430.004	66409
430.078	36807
430.152	112040
430.226	307192
430.300	317500
430.374	88564
430.448	25651
430.522	15759
430.596	19937
430.670	55749
430.744	178942
430.818	203855
430.892	47309
430.966	11215
431.040	7953
431.114	5629
431.188	4415
431.262	5187
431.336	4787
431.410	5496
431.484	6218
431.557	6491
431.631	8065
431.705	17302
431.779	73969
431.853	217734
431.927	166876
432.000	29813
432.074	8598
432.148	5164
432.222	3778
432.295	3819
432.369	3394
432.443	3697
432.516	6509
432.590	13284
432.664	7003
432.737	3065
432.811	2889
432.885	2545
432.958	3029
433.032	2942
433.106	2674
433.179	2519
433.253	2624
433.326	2953
433.400	2635
433.473	3098
433.547	2545
433.620	2973
433.694	2367
433.767	3439
433.841	2784
433.914	3698
433.988	3697
434.061	3074
434.134	3861
434.208	3495
434.281	2521
434.355	3283
434.428	3758
434.501	3253
434.575	2697
434.648	2978
434.721	3318
434.795	2983
434.868	3707
434.941	4128
435.014	4429
435.088	6277
435.161	9435
435.234	12859
435.307	14612
435.381	14865
435.454	20368
435.527	31224
435.600	35701
435.673	29115
435.746	21236
435.819	15217
435.892	12284
435.966	9945
436.039	7522
436.112	6669
436.185	5287
436.258	5407
436.331	3688
436.404	4287
436.477	3994
436.550	4067
436.623	3539
436.696	3303
436.769	3764
436.842	2755
436.915	2914
436.987	3285
437.060	3240
437.133	2891
437.206	2387
437.279	2280
437.352	2375
437.425	2331
437.498	2784
437.570	3730
437.643	2750
437.716	1982
437.789	2651
437.861	2570
437.934	2372
438.007	1861
438.080	1874
438.152	2770
438.225	3763
438.298	8790
438.370	21736
438.443	9863
438.516	3148
438.588	1948
438.661	2616
438.734	2122
438.806	2109
438.879	2157
438.951	2547
439.024	2275
439.096	2137
439.169	2246
439.241	2052
439.314	1117
439.386	1632
439.459	3029
439.531	2259
439.604	2399
439.676	2857
439.749	2441
439.821	2233
439.893	1645
439.966	2347
440.038	2053
440.110	3023
440.183	2001
440.255	2056
440.327	2861
440.400	5070
440.472	9964
440.544	7628
440.617	2461
440.689	3877
440.761	2948
440.833	3362
440.905	3229
440.978	3179
441.050	2566
441.122	3395
441.194	2430
441.266	2623
441.338	3289
441.411	3937
441.483	4537
441.555	6023
441.627	3343
441.699	4431
441.771	4003
441.843	3474
441.915	3981
441.987	4590
442.059	4871
442.131	6354
442.203	7208
442.275	10436
442.347	18071
442.419	49256
442.491	184693
442.563	349468
442.635	159577
442.706	33215
442.778	15978
442.850	11320
442.922	9555
442.994	9988
443.066	11603
443.137	13287
443.209	17833
443.281	30863
443.353	68695
443.425	214608
443.496	513817
443.568	540282
443.640	244658
443.711	60868
443.783	24075
443.855	16046
443.926	11668
443.998	9525
444.070	7786
444.141	7820
444.213	6390
444.285	6741
444.356	6435
444.428	6570
444.499	6357
444.571	6097
444.642	6478
444.714	7447
444.785	7894
444.857	8713
444.928	9333
445.000	12312
445.071	13839
445.143	18856
445.214	29199
445.285	51326
445.357	128174
445.428	362629
445.500	592259
445.571	498881
445.642	336155
445.714	120909
445.785	38986
445.856	19734
445.928	14120
445.999	10439
446.070	8545
446.141	7339
446.213	6643
446.284	4997
446.355	4912
446.426	3400
446.497	3887
446.569	3955
446.640	3049
446.711	4172
446.782	3232
446.853	3368
446.924	2421
446.995	2285
447.066	2392
447.138	2242
447.209	1411
447.280	1167
447.351	1672
447.422	1742
447.493	1406
447.564	1962
447.635	1212
447.706	902
447.777	1863
447.847	1321
447.918	1038
447.989	1344
448.060	1127
448.131	1906
448.202	848
448.273	1766
448.344	1160
448.414	1132
448.485	1598
448.556	1762
448.627	771
448.698	1822
448.768	735
448.839	968
448.910	653
448.981	1488
449.051	280
449.122	901
449.193	1013
449.263	1033
449.334	58
449.405	1350
449.475	1675
449.546	1974
449.616	2565
449.687	3611
449.758	1771
449.828	2000
449.899	295
449.969	739
450.040	1181
450.110	949
450.181	946
450.251	737
450.322	838
450.392	1834
450.463	940
450.533	1316
450.604	1375
450.674	1785
450.744	2546
450.815	2794
450.885	2886
450.955	3302
451.026	2941
451.096	2161
451.166	2824
451.237	3831
451.307	5508
451.377	3056
451.447	1931
451.518	2355
451.588	1298
451.658	1127
451.728	1074
451.799	1707
451.869	1468
451.939	1043
452.009	1710
452.079	955
452.149	1196
452.219	1300
452.289	2123
452.360	1968
452.430	2774
452.500	4153
452.570	8130
452.640	22898
452.710	56681
452.780	61075
452.850	29540
452.920	13211
452.990	7725
453.060	4296
453.129	2863
453.199	2307
453.269	2724
453.339	3449
453.409	4188
453.479	3264
453.549	4656
453.619	3768
453.688	1810
453.758	1401
453.828	443
453.898	1355
453.968	151
454.037	1175
454.087	599
454.107	349
454.168	625
454.177	651
454.247	66
454.249	97
454.316	349
454.330	433
454.386	717
454.411	771
454.456	809
454.492	859
454.525	863
454.574	803
454.595	773
454.655	157
454.665	31
454.734	870
454.736	898
454.804	1177
454.817	1290
454.873	1731
454.898	1671
454.943	1556
454.979	1249
455.013	907
455.060	709
455.082	608
455.141	777
455.152	791
455.221	692
455.222	732
455.291	2034
455.303	2047
455.360	2032
455.384	2635
455.430	3509
455.465	2846
455.499	2329
455.546	1963
455.569	1753
455.627	1514
455.638	1451
455.707	1112
455.708	1132
455.777	1275
455.789	1338
455.846	1650
455.869	1619
455.916	1456
455.950	1348
455.985	1281
456.031	1835
456.054	1980
456.112	1522
456.124	1454
456.193	1434
456.193	1419
456.262	1596
456.274	1737
456.332	2368
456.355	2311
456.401	2100
456.436	1927
456.470	1664
456.516	1962
456.540	2139
456.597	2389
456.609	2404
456.678	2493
456.678	2476
456.747	1877
456.759	1876
456.817	1916
456.840	2284
456.886	2968
456.920	3150
456.955	3274
457.001	3311
457.024	3372
457.082	3819
457.093	3788
457.162	4511
457.163	4530
457.232	4134
457.243	4102
457.301	4089
457.324	3949
457.370	3671
457.405	4263
457.439	5019
457.485	5643
457.508	6185
457.566	8254
457.577	9420
457.646	17038
457.647	17208
457.715	35143
457.727	39606
457.784	60593
457.808	78930
457.853	98353
457.889	110052
457.922	118556
457.969	86577
457.991	80999
458.050	92899
458.060	94570
458.129	155541
458.130	157267
458.198	155325
458.211	135653
458.267	75736
458.292	56345
458.336	40686
458.372	43500
458.405	58370
458.453	87291
458.474	100146
458.533	157227
458.543	158755
458.611	224862
458.614	224518
458.680	146795
458.694	117255
458.749	47989
458.775	34734
458.818	19458
458.855	14936
458.887	11997
458.936	9950
458.955	9277
459.016	8058
459.024	7950
459.093	6721
459.097	6704
459.162	5951
459.177	5793
459.230	5425
459.257	5315
459.299	5171
459.338	5116
459.368	5028
459.418	4967
459.437	4982
459.499	4634
459.505	4583
459.574	5060
459.579	5032
459.643	4111
459.659	4037
459.711	4557
459.740	4703
459.780	4246
459.820	4224
459.849	4491
459.900	4168
459.917	3949
459.981	3706
459.986	3694
460.054	3836
460.061	3865
460.123	4429
460.141	4441
460.191	4154
460.222	4278
460.260	4317
460.302	4018
460.328	3985
460.382	4464
460.397	4686
460.462	5111
460.465	5271
460.534	9484
460.543	10038
460.602	15043
460.623	17269
460.671	23650
460.703	30089
460.739	25563
460.783	16292
460.808	15004
460.864	6079
460.876	4835
460.944	4564
460.945	4553
461.013	4101
461.024	4108
461.081	4642
461.104	4659
461.150	4282
461.184	4229
461.218	4300
461.264	4735
461.286	4875
461.345	4375
461.355	4263
461.423	4245
461.425	4238
461.491	3987
461.505	3954
461.559	3917
461.585	4069
461.628	4616
461.665	4816
461.696	4670
461.745	4623
461.764	4625
461.825	4420
461.832	4420
461.901	4506
461.905	4511
461.969	3989
461.985	3926
462.037	4741
462.065	5108
462.105	4653
462.145	4324
462.173	4720
462.225	4925
462.241	4788
462.305	4826
462.310	4884
462.378	5805
462.385	5884
462.446	5339
462.465	5161
462.514	5097
462.545	4997
462.582	4772
462.625	4489
462.650	4213
462.705	3914
462.718	4072
462.785	4532
462.786	4532
462.854	4526
462.865	4540
462.922	4836
462.945	4950
462.990	5030
463.025	4859
463.058	4784
463.104	5039
463.126	4943
463.184	4461
463.194	4481
463.262	4569
463.264	4570
463.330	4826
463.344	4906
463.398	5418
463.424	5598
463.466	4927
463.504	4302
463.533	4415
463.583	4612
463.601	4643
463.663	4637
463.669	4611
463.737	4446
463.743	4434
463.805	5344
463.823	5584
463.873	5640
463.903	5611
463.940	5489
463.982	5414
464.008	5331
464.062	4964
464.076	4925
464.142	4905
464.144	4914
464.211	4936
464.221	4925
464.279	4609
464.301	4448
464.347	4611
464.381	4877
464.414	4825
464.461	4569
464.482	4762
464.540	5366
464.550	5260
464.617	4560
464.620	4524
464.685	4881
464.699	4961
464.753	5153
464.779	5209
464.820	5567
464.859	6012
464.888	5599
464.938	4635
464.956	4805
465.018	5577
465.023	5625
465.091	6042
465.098	6083
465.158	5006
465.177	4664
465.226	5365
465.257	5707
465.293	5503
465.336	5366
465.361	5340
465.416	5195
465.428	5301
465.495	5894
465.496	5904
465.563	5748
465.575	5718
465.631	5684
465.654	5673
465.698	5861
465.734	5950
465.765	5699
465.813	5263
465.833	5511
465.893	6298
465.900	6209
465.968	5295
465.972	5221
466.035	5285
466.052	5296
466.102	5196
466.131	5112
466.170	5196
466.210	5320
466.237	5586
466.290	5957
466.304	5829
466.369	5297
466.372	5316
466.439	5560
466.449	5575
466.506	5876
466.528	5977
466.573	6528
466.607	6962
466.641	7253
466.687	7565
466.708	7175
466.766	6076
466.775	6115
466.842	6273
466.845	6270
466.909	6622
466.925	6680
466.977	7088
467.004	7305
467.044	7514
467.083	7666
467.111	7507
467.163	7190
467.178	7221
467.242	7262
467.245	7271
467.312	7188
467.321	7163
467.379	8184
467.400	8532
467.446	8197
467.480	7925
467.559	8662
467.638	7852
467.717	8191
467.796	9638
467.875	8928
467.955	10088
468.034	13354
468.113	15186
468.192	19226
468.271	25608
468.350	35976
468.429	45018
468.508	42239
468.588	24566
468.667	16278
468.746	13565
468.825	11067
468.904	10127
468.983	9322
469.062	9316
469.141	8832
469.220	7274
469.299	8804
469.378	7328
469.456	9155
469.535	7935
469.614	7513
469.693	8488
469.772	9327
469.851	8769
469.930	9893
470.009	10505
470.088	15421
470.166	25929
470.245	42006
470.324	48043
470.403	28825
470.482	17373
470.560	12734
470.639	9916
470.718	10394
470.797	7964
470.875	8192
470.954	7891
471.033	8753
471.111	7143
471.190	7952
471.269	7370
471.347	7732
471.426	7660
471.505	7453
471.583	7803
471.662	7256
471.740	7311
471.819	6545
471.898	6743
471.976	8254
472.055	6415
472.133	6953
472.212	8226
472.290	7654
472.369	6578
472.447	6762
472.526	7421
472.604	7589
472.683	8212
472.761	8424
472.839	8100
472.918	8520
472.996	8120
473.075	7650
473.153	8773
473.231	8658
473.310	7850
473.388	7529
473.466	7901
473.545	8137
473.623	8320
473.701	8870
473.780	9119
473.858	7779
473.936	8441
474.014	8876
474.093	9264
474.171	8953
474.249	9154
474.327	7936
474.405	8287
474.484	7868
474.562	7984
474.640	7927
474.718	7417
474.796	7851
474.874	7942
474.952	7347
475.030	7387
475.108	8287
475.187	7818
475.265	8380
475.343	8182
475.421	8308
475.499	7801
475.577	7842
475.655	8394
475.733	8232
475.811	7282
475.889	8809
475.966	7893
476.044	7859
476.122	7757
476.200	8543
476.278	7051
476.356	7699
476.434	7772
476.512	7722
476.590	8822
476.667	8585
476.745	6725
476.823	7610
476.901	7246
476.979	7800
477.056	6620
477.134	7117
477.212	7114
477.290	7333
477.367	7455
477.445	7028
477.523	6555
477.601	6780
477.678	7272
477.756	6828
477.834	6937
477.911	8195
477.989	7371
478.066	7855
478.144	7628
478.222	7960
478.299	9262
478.377	8520
478.454	7988
478.532	7575
478.609	6702
478.687	7508
478.764	7099
478.842	7932
478.919	7081
478.997	7496
479.074	6987
479.152	7893
479.229	7235
479.307	7550
479.384	6729
479.461	7334
479.539	7114
479.616	6944
479.694	6656
479.771	7571
479.848	6896
479.926	6654
480.003	7764
480.080	7557
480.157	7077
480.235	8076
480.312	7905
480.389	7879
480.467	9005
480.544	9667
480.621	10080
480.698	9978
480.775	10330
480.853	10107
480.930	8122
481.007	8664
481.084	8387
481.161	9866
481.238	9231
481.315	8316
481.392	8463
481.470	9650
481.547	8677
481.624	8905
481.701	9044
481.778	10470
481.855	10672
481.932	11835
482.009	12049
482.086	14049
482.163	15360
482.240	18983
482.317	17062
482.393	15052
482.470	14390
482.547	13120
482.624	12379
482.701	11163
482.778	11741
482.855	11853
482.932	13232
483.009	14116
483.085	15552
483.162	17984
483.239	18778
483.316	19039
483.393	18143
483.469	15216
483.546	14414
483.623	12638
483.699	10872
483.776	10132
483.853	9954
483.930	10423
484.006	10248
484.083	12539
484.160	12146
484.236	13997
484.313	12848
484.389	13966
484.466	17874
484.543	22781
484.619	27430
484.696	27416
484.772	17300
484.849	13293
484.925	12967
485.002	11676
485.078	10832
485.155	9285
485.231	9368
485.308	9522
485.384	9813
485.461	9903
485.537	8857
485.614	10480
485.690	8379
485.766	9664
485.843	9812
485.919	9356
485.995	9740
486.072	8617
486.148	8292
486.224	10006
486.301	9437
486.377	10017
486.453	9118
486.530	10638
486.606	11154
486.682	10421
486.758	11248
486.835	11869
486.911	11815
486.987	15003
487.063	15525
487.139	16196
487.215	18436
487.292	21880
487.368	25293
487.444	33786
487.520	52031
487.596	104562
487.672	292931
487.748	649050
487.824	797567
487.900	241003
487.976	76799
488.052	41760
488.128	29289
488.204	21840
488.280	18932
488.356	16698
488.432	14795
488.508	15902
488.584	11385
488.660	12540
488.736	10963
488.812	10666
488.888	10704
488.964	10920
489.039	12394
489.115	13033
489.191	10510
489.267	10304
489.343	10058
489.418	9924
489.494	10204
489.570	9227
489.646	9986
489.722	10304
489.797	9679
489.873	10788
489.949	11469
490.024	10814
490.100	10136
490.176	10357
490.251	10626
490.327	10576
490.403	9870
490.478	10790
490.554	10509
490.629	9114
490.705	10061
490.781	10802
490.856	9585
490.932	11067
491.007	9616
491.083	9831
491.158	9401
491.234	10662
491.309	10019
491.385	9771
491.460	8541
491.536	9409
491.611	8094
491.686	9152
491.762	8855
491.837	9745
491.913	12581
491.988	12633
492.063	12604
492.139	8985
492.214	8560
492.289	9693
492.365	9554
492.440	9508
492.515	7402
492.590	8449
492.666	7545
492.741	9059
492.816	9103
492.891	8351
492.967	9279
493.042	9453
493.117	7972
493.192	9457
493.267	11032
493.342	14120
493.418	13631
493.493	8650
493.568	8948
493.643	8991
493.718	8590
493.793	8809
493.868	9020
493.943	8224
494.018	9038
494.093	9431
494.168	8202
494.243	8098
494.318	9164
494.393	8740
494.468	9345
494.543	9291
494.618	8797
494.693	9913
494.768	9214
494.842	9343
494.917	10072
494.992	8937
495.067	9209
495.142	9793
495.217	8861
495.292	8509
495.366	9419
495.441	8694
495.516	10342
495.591	10951
495.665	14772
495.740	19464
495.815	11239
495.890	10017
495.964	8766
496.039	11387
496.114	10756
496.188	12684
496.263	11292
496.338	10675
496.412	9538
496.487	10063
496.561	10100
496.636	9792
496.710	9741
496.785	9766
496.860	10893
496.934	9627
497.009	9451
497.083	10698
497.158	10472
497.232	11387
497.307	11991
497.381	12755
497.455	12309
497.530	10766
497.604	9465
497.679	9751
497.753	9826
497.827	9817
497.902	9876
497.976	11838
498.050	16657
498.125	26170
498.199	20474
498.273	12445
498.348	11561
498.422	12819
498.496	14682
498.570	16317
498.645	8756
498.719	7808
498.793	7862
498.867	9837
498.941	10678
499.016	16366
499.090	23317
499.164	11936
499.238	10959
499.312	12137
499.386	12373
499.460	13685
499.534	15932
499.609	17849
499.683	12037
499.757	8255
499.831	11631
499.905	17427
499.979	13684
500.053	9534
500.127	9716
500.201	9655
500.275	12112
500.349	11765
500.422	13212
500.496	14796
500.570	20391
500.644	26835
500.718	23969
500.792	8793
500.866	9092
500.940	8113
501.013	7822
501.087	7941
501.161	8394
501.235	9115
501.309	12115
501.382	14852
501.456	11911
501.530	8209
501.603	7722
501.677	7654
501.751	7144
501.825	9168
501.898	8129
501.972	9862
502.046	7194
502.119	6841
502.193	7929
502.266	10550
502.340	7476
502.413	8269
502.487	9694
502.561	8367
502.634	8322
502.708	9356
502.781	7184
502.855	8634
502.928	6339
503.002	8149
503.075	8297
503.149	7901
503.222	8619
503.295	9440
503.369	10824
503.442	12155
503.516	14708
503.589	18449
503.662	18525
503.736	21949
503.809	30058
503.882	42115
503.956	76464
504.029	183639
504.102	415145
504.175	475230
504.249	173834
504.322	68447
504.395	38372
504.468	26019
504.542	18850
504.615	14184
504.688	12808
504.761	10807
504.834	10883
504.907	9950
504.980	9376
505.053	8329
505.127	6745
505.200	8754
505.273	6655
505.346	6654
505.419	7530
505.492	7411
505.565	7714
505.638	7310
505.711	6105
505.784	5439
505.857	5510
505.930	7251
506.003	5049
506.076	7230
506.149	5552
506.221	4271
506.294	7398
506.367	6106
506.440	8444
506.513	6809
506.586	5244
506.659	5375
506.731	5516
506.804	5757
506.877	5125
506.950	5436
507.022	5577
507.095	5217
507.168	5841
507.241	5569
507.313	5081
507.386	5190
507.459	4933
507.531	5339
507.604	4157
507.677	5655
507.749	4692
507.822	6507
507.894	5731
507.967	5823
508.040	4292
508.112	6044
508.185	5641
508.257	4424
508.330	6918
508.402	4856
508.475	6029
508.547	5351
508.620	5381
508.692	5433
508.765	4962
508.837	4751
508.909	5953
508.982	5270
509.054	5691
509.127	4875
509.199	5246
509.271	4309
509.344	5190
509.416	5247
509.488	5109
509.560	5590
509.633	5350
509.705	4932
509.777	5285
509.849	5963
509.922	3919
509.994	5960
510.066	6276
510.138	4734
510.210	6262
510.283	5199
510.355	6360
510.427	5183
510.499	5207
510.571	5623
510.643	4533
510.715	6197
510.787	4691
510.859	6035
510.931	4756
511.003	5862
511.076	6567
511.148	5781
511.219	5362
511.291	6428
511.363	6090
511.435	5328
511.507	5052
511.579	5488
511.651	6226
511.723	4642
511.795	5325
511.867	5274
511.939	5471
512.010	5766
512.082	6123
512.154	5354
512.226	5825
512.298	7629
512.369	6273
512.441	5863
512.513	6226
512.585	5366
512.656	6501
512.728	5800
512.800	5967
512.871	5992
512.943	5902
513.015	5949
513.086	5521
513.158	6049
513.230	5721
513.301	7087
513.373	6472
513.444	5895
513.516	6462
513.588	6344
513.659	5632
513.731	6086
513.802	5310
513.874	8935
513.945	6980
514.016	6323
514.088	6084
514.159	6062
514.231	6473
514.302	7095
514.374	6286
514.445	6012
514.516	8703
514.588	6639
514.659	7016
514.730	6314
514.802	7433
514.873	5331
514.944	8594
515.016	7595
515.087	6516
515.158	7163
515.229	7646
515.301	7619
515.372	8159
515.443	7608
515.514	8357
515.585	7382
515.656	8908
515.728	8993
515.799	9485
515.870	10772
515.941	10759
516.012	11144
516.083	13513
516.154	13612
516.225	17173
516.296	19582
516.367	23495
516.438	30532
516.509	45525
516.580	111189
516.651	397886
516.722	820842
516.793	214148
516.864	50710
516.935	46991
517.006	60945
517.077	112845
517.148	349312
517.219	1094181
517.289	1015081
517.360	156866
517.431	52505
517.502	34901
517.573	30138
517.643	26942
517.714	27018
517.785	30150
517.856	31168
517.926	40800
517.997	51930
518.068	68348
518.138	111953
518.209	277199
518.280	907450
518.350	1591345
518.421	544577
518.492	136650
518.562	95402
518.633	108916
518.703	177284
518.774	392033
518.845	759917
518.915	522651
518.986	161511
519.056	75205
519.127	49579
519.197	37702
519.268	29644
519.338	22775
519.408	18683
519.479	16365
519.549	14529
519.620	13539
519.690	11320
519.760	11774
519.831	10385
519.901	9844
519.971	9755
520.042	9651
520.112	8203
520.182	9080
520.253	9215
520.323	8276
520.393	8020
520.463	9550
520.534	6641
520.604	10603
520.674	8707
520.744	8560
520.814	8404
520.885	8705
520.955	9562
521.025	11566
521.095	7889
521.165	7765
521.235	6776
521.305	7160
521.375	7625
521.445	7355
521.515	7634
521.585	8653
521.655	6786
521.725	8698
521.795	7701
521.865	5640
521.935	9075
522.005	6346
522.075	7858
522.145	8260
522.215	5978
522.285	7754
522.355	7750
522.424	8453
522.494	8077
522.564	7627
522.634	9339
522.704	13042
522.774	7891
522.843	8026
522.913	8111
522.983	8146
523.053	7955
523.122	8085
523.192	8240
523.262	10563
523.331	9391
523.401	8363
523.471	7856
523.540	8700
523.610	7407
523.680	9748
523.749	8455
523.819	9717
523.888	8891
523.958	9716
524.027	9264
524.097	8872
524.166	9691
524.236	8724
524.305	10961
524.375	8198
524.444	8584
524.514	9286
524.583	8874
524.653	8621
524.722	9497
524.791	8849
524.861	11759
524.930	10396
524.999	10138
525.069	11974
525.138	11917
525.207	12421
525.277	13386
525.346	13641
525.415	16322
525.484	18494
525.554	21110
525.623	24402
525.692	30938
525.761	36413
525.830	47042
525.900	66224
525.969	129679
526.038	263284
526.107	625413
526.176	1225496
526.245	706134
526.314	309146
526.383	733599
526.452	797068
526.522	1155196
526.591	676864
526.660	134226
526.729	90336
526.797	111061
526.867	218471
526.935	673342
527.004	1484141
527.073	641248
527.142	120361
527.211	56451
527.280	37122
527.349	28529
527.418	20519
527.487	19275
527.555	15619
527.624	14776
527.693	13068
527.762	13117
527.831	11474
527.899	12496
527.968	11245
528.037	9405
528.106	11034
528.174	11159
528.243	10311
528.312	10876
528.380	8868
528.449	9113
528.518	10343
528.586	8118
528.655	10408
528.723	8791
528.792	8831
528.861	8621
528.929	6893
528.998	9264
529.066	7975
529.135	8432
529.203	8602
529.272	7817
529.340	9195
529.409	8223
529.477	7549
529.545	8158
529.614	9939
529.682	8931
529.751	8221
529.819	11763
529.887	9318
529.956	9463
530.024	8950
530.092	8731
530.161	9442
530.229	9191
530.297	9346
530.365	9580
530.434	8945
530.502	9180
530.570	9833
530.638	7358
530.707	9579
530.775	10847
530.843	9362
530.911	9338
530.979	10245
531.047	9822
531.115	9493
531.183	9163
531.252	9332
531.320	9363
531.388	8910
531.456	9777
531.524	8198
531.592	10594
531.660	10544
531.728	9828
531.796	9656
531.864	10673
531.932	9543
532.000	9649
532.067	9600
532.135	10722
532.203	11836
532.271	12767
532.339	13169
532.407	14054
532.475	12229
532.542	12925
532.610	12256
532.678	11927
532.746	20115
532.814	23373
532.881	12516
532.949	12470
533.017	11616
533.084	11255
533.152	10426
533.220	11391
533.287	10893
533.355	11230
533.423	11822
533.490	11424
533.558	12480
533.625	12826
533.693	11520
533.761	12578
533.828	13338
533.896	11621
533.963	15445
534.031	16809
534.098	19737
534.166	20711
534.233	20763
534.300	22778
534.368	22746
534.435	23064
534.503	24836
534.570	27304
534.637	31873
534.705	39294
534.772	65985
534.840	189785
534.907	670214
534.974	459258
535.041	56605
535.109	28441
535.176	21965
535.243	22125
535.310	20343
535.378	19624
535.445	20042
535.512	19972
535.579	18913
535.646	19397
535.714	20913
535.781	21856
535.848	22382
535.915	20372
535.982	19859
536.049	19591
536.116	20154
536.183	18851
536.250	18746
536.317	19833
536.384	20255
536.451	21672
536.518	20797
536.585	19754
536.652	22220
536.719	21895
536.786	18631
536.853	20810
536.920	21610
536.987	22132
537.053	20700
537.120	28528
537.187	25608
537.254	24068
537.321	22516
537.388	23010
537.454	21588
537.521	21748
537.588	21541
537.654	24687
537.721	24606
537.788	23344
537.855	21885
537.921	22579
537.988	21031
538.055	21742
538.121	19417
538.188	19297
538.254	18990
538.321	20731
538.388	22514
538.454	25462
538.521	24937
538.587	24385
538.654	23047
538.720	22829
538.787	22923
538.853	23441
538.920	20749
538.986	20209
539.053	20876
539.119	20868
539.185	21373
539.252	23982
539.318	23683
539.385	25600
539.451	23506
539.517	24068
539.583	23671
539.650	25193
539.716	25119
539.782	21567
539.849	21608
539.915	22443
539.981	21681
540.047	21518
540.114	21414
540.180	24389
540.246	24717
540.312	24901
540.378	25015
540.444	25459
540.510	26966
540.576	27428
540.643	22989
540.709	21303
540.775	23430
540.841	21694
540.907	22551
540.973	22500
541.039	22822
541.105	25246
541.171	25898
541.237	25697
541.303	25404
541.369	25371
541.435	24877
541.500	23925
541.566	21520
541.632	21915
541.698	23546
541.764	24800
541.830	22991
541.896	22813
541.961	23112
542.027	23484
542.093	26089
542.159	25260
542.224	23219
542.290	25168
542.356	23729
542.421	23959
542.487	20891
542.553	21572
542.618	22059
542.684	23196
542.750	22867
542.815	24638
542.881	24307
542.947	29024
543.012	26426
543.078	22553
543.143	23028
543.209	23229
543.274	22313
543.340	24190
543.405	24943
543.471	25774
543.536	25167
543.602	24353
543.667	22890
543.732	25136
543.798	25086
543.863	26661
543.928	24098
543.994	24338
544.059	26391
544.124	26454
544.190	27232
544.255	26740
544.320	26574
544.386	27056
544.451	28409
544.516	27267
544.581	26965
544.646	30918
544.712	30649
544.777	29095
544.842	27473
544.907	27720
544.972	28560
545.037	28125
545.102	29903
545.168	31084
545.233	31096
545.298	32106
545.363	29991
545.428	32783
545.493	34119
545.558	34737
545.623	32467
545.688	33178
545.753	34427
545.818	36351
545.883	37610
545.947	39042
546.012	40430
546.077	40280
546.142	44005
546.207	44083
546.272	48746
546.337	48646
546.401	50154
546.466	53837
546.531	53718
546.596	59239
546.661	60192
546.725	65778
546.790	68394
546.855	75138
546.919	83384
546.984	91365
547.049	99165
547.113	113320
547.178	125429
547.243	143893
547.307	167423
547.372	180170
547.436	180040
547.501	193265
547.565	196544
547.630	179092
547.695	176167
547.759	176708
547.823	180042
547.888	184586
547.952	189241
548.017	196774
548.081	196874
548.146	196439
548.210	206074
548.274	221775
548.339	207171
548.403	192568
548.468	180910
548.532	183573
548.596	183639
548.660	189791
548.725	210694
548.789	220572
548.853	208592
548.917	202861
548.982	192183
549.046	171101
549.110	159493
549.174	174945
549.238	203245
549.303	215728
549.367	217382
549.431	202629
549.495	193735
549.559	200257
549.623	236329
549.687	241456
549.751	250101
549.815	293673
549.879	286014
549.943	282317
550.007	294454
550.071	278656
550.135	248418
550.199	244582
550.263	235666
550.327	226454
550.391	240038
550.455	267472
550.519	277375
550.582	303151
550.646	332827
550.710	332192
550.774	330354
550.838	337593
550.901	352622
550.965	377040
551.029	402305
551.093	443710
551.156	512107
551.220	604425
551.284	592079
551.347	432339
551.411	365014
551.475	349711
551.538	351090
551.602	319425
551.666	302241
551.729	282479
551.793	277393
551.856	269897
551.920	267872
551.983	266966
552.047	264794
552.110	267578
552.174	270840
552.237	270275
552.301	247855
552.364	239037
552.428	235381
552.491	249779
552.554	251404
552.618	252029
552.681	260680
552.745	267827
552.808	337892
552.871	362305
552.934	287054
552.998	253264
553.061	244777
553.124	231572
553.187	232883
553.251	238333
553.314	236462
553.377	241156
553.440	258314
553.503	259953
553.567	256457
553.630	251326
553.693	245036
553.756	244810
553.819	236403
553.882	225833
553.945	231202
554.008	229529
554.071	234794
554.134	229288
554.197	213156
554.260	209070
554.323	215700
554.386	223861
554.449	233057
554.512	228959
554.575	221472
554.638	216689
554.701	218267
554.764	209732
554.827	203634
554.889	191394
554.952	182542
555.015	182101
555.078	187102
555.141	190432
555.203	184556
555.266	185262
555.329	180531
555.391	174855
555.454	172270
555.517	169161
555.580	164206
555.642	157961
555.705	155673
555.768	152790
555.830	147284
555.893	139186
555.955	135288
556.018	136823
556.080	140627
556.143	144805
556.206	138304
556.268	137268
556.330	132551
556.393	130376
556.455	126223
556.518	123065
556.580	120200
556.643	116507
556.705	114338
556.767	111102
556.830	110689
556.892	109853
556.955	109040
557.017	106330
557.079	106625
557.142	102965
557.204	103630
557.266	106556
557.328	92871
557.391	88876
557.453	87584
557.515	89492
557.577	90746
557.639	91986
557.701	89877
557.764	91885
557.826	93250
557.888	100425
557.950	107761
558.012	127729
558.074	205212
558.136	550313
558.198	776131
558.260	199600
558.322	109735
558.384	107546
558.446	112063
558.508	123408
558.570	140005
558.632	172344
558.694	255283
558.756	524719
558.818	1381163
558.880	1680988
558.942	840095
559.003	885009
559.065	294884
559.127	150768
559.189	146875
559.251	180813
559.312	319267
559.374	846062
559.436	1460410
559.498	516717
559.559	176129
559.621	151923
559.683	198539
559.744	402094
559.806	1111160
559.868	900156
559.929	223700
559.991	201066
560.052	439422
560.114	870631
560.176	416544
560.237	655508
560.299	599701
560.360	110657
560.422	60083
560.483	51506
560.545	48557
560.606	44896
560.667	43688
560.729	40446
560.790	38952
560.852	37673
560.913	36882
560.974	35926
561.036	35353
561.097	35012
561.158	34892
561.220	34080
561.281	32669
561.342	31315
561.403	31283
561.465	30364
561.526	32135
561.587	31609
561.648	28305
561.709	29914
561.771	28552
561.832	27560
561.893	27143
561.954	27494
562.015	27433
562.076	26076
562.137	26721
562.198	25642
562.259	26373
562.320	26863
562.381	26131
562.442	25863
562.503	25541
562.564	25282
562.625	24414
562.686	24828
562.747	23982
562.808	23344
562.869	23639
562.930	23415
562.991	22458
563.051	22366
563.112	22858
563.173	22496
563.234	21296
563.294	22603
563.355	20580
563.416	21618
563.477	21752
563.537	20826
563.598	21016
563.659	21183
563.720	20508
563.780	21491
563.841	22049
563.901	21872
563.962	19568
564.023	19988
564.083	20891
564.144	20353
564.204	19514
564.265	19644
564.325	19295
564.386	20324
564.446	20064
564.507	18347
564.567	18251
564.628	18130
564.688	18085
564.749	17977
564.809	19312
564.869	19025
564.930	17717
564.990	18050
565.050	17785
565.111	19470
565.171	17815
565.231	17709
565.292	19108
565.352	17310
565.412	18382
565.472	19830
565.532	17509
565.593	18212
565.653	18027
565.713	17469
565.773	18997
565.833	19091
565.893	19288
565.953	17117
566.013	17337
566.074	16923
566.134	16715
566.194	16921
566.254	16937
566.314	16855
566.374	16489
566.434	16070
566.494	16232
566.554	16477
566.614	17015
566.673	16856
566.733	17562
566.793	17723
566.853	17002
566.913	16635
566.973	17090
567.033	19063
567.092	18008
567.152	17781
567.212	17908
567.272	18891
567.331	18429
567.391	18386
567.451	19493
567.511	20267
567.570	18001
567.630	17959
567.690	18013
567.749	18034
567.809	17580
567.868	18115
567.928	17104
567.988	18297
568.047	18394
568.107	18785
568.166	18101
568.226	18176
568.285	19234
568.345	19696
568.404	18900
568.464	18560
568.523	18292
568.582	18050
568.642	17961
568.701	18099
568.761	17353
568.820	17303
568.879	17504
568.939	18559
568.998	17657
569.057	17076
569.116	18226
569.176	17435
569.235	17199
569.294	17698
569.353	16756
569.413	16124
569.472	15097
569.531	16279
569.590	15192
569.649	16342
569.708	15441
569.767	16127
569.827	16273
569.886	15497
569.945	16024
570.004	16464
570.063	16502
570.122	17925
570.181	16946
570.240	17519
570.299	17381
570.358	17953
570.417	17566
570.475	17397
570.534	19192
570.593	18799
570.652	18802
570.711	17544
570.770	17934
570.829	18326
570.887	17665
570.946	20012
571.005	19469
571.064	23816
571.122	24296
571.181	20543
571.240	18024
571.299	17588
571.357	17330
571.416	17208
571.475	16589
571.533	18888
571.592	20079
571.650	19086
571.709	21528
571.768	25133
571.826	23616
571.885	21406
571.943	18222
572.002	16709
572.060	16902
572.119	17087
572.177	16396
572.236	17293
572.294	18486
572.352	19982
572.411	18883
572.469	17955
572.528	16967
572.586	16529
572.644	16562
572.703	16839
572.761	15700
572.819	14955
572.877	14812
572.936	14574
572.994	15051
573.052	16089
573.110	16591
573.169	17225
573.227	16884
573.285	16068
573.343	15723
573.401	16244
573.459	17104
573.517	18510
573.576	18312
573.634	18413
573.692	18935
573.750	17990
573.808	17122
573.866	15963
573.924	16088
573.982	16873
574.040	15782
574.098	16450
574.155	16444
574.213	16341
574.271	18323
574.329	20520
574.387	16864
574.445	15495
574.503	14688
574.560	15662
574.618	14241
574.676	15705
574.734	14671
574.792	15170
574.849	14203
574.907	12284
574.965	12372
575.022	12173
575.080	11182
575.138	12127
575.195	11431
575.253	11358
575.311	11170
575.368	12749
575.426	10910
575.483	12724
575.541	11994
575.598	12349
575.656	13284
575.713	14679
575.771	13711
575.828	13999
575.886	11535
575.943	11558
576.001	10934
576.058	11008
576.115	11193
576.173	12976
576.230	12449
576.287	12229
576.345	12173
576.402	13734
576.459	13951
576.517	12005
576.574	10174
576.631	11435
576.688	10939
576.746	10363
576.803	11432
576.860	11012
576.917	11145
576.974	10574
577.031	10561
577.089	10812
577.146	9947
577.203	9844
577.260	9876
577.317	9328
577.374	10130
577.431	10277
577.488	10174
577.545	9849
577.602	9618
577.659	10532
577.716	10319
577.773	11101
577.830	10131
577.886	10449
577.943	10139
578.000	10392
578.057	9594
578.114	9602
578.171	10681
578.227	10965
578.284	9574
578.341	10216
578.398	10410
578.454	10326
578.511	9807
578.568	10622
578.625	9929
578.681	10590
578.738	9795
578.794	10414
578.851	10046
578.908	10619
578.964	10105
579.021	10070
579.077	9194
579.134	9903
579.190	10955
579.247	10732
579.303	10340
579.360	10246
579.416	9748
579.473	10412
579.529	9599
579.586	9990
579.642	10998
579.698	10269
579.755	10750
579.811	10293
579.867	9954
579.924	10540
579.980	10420
580.036	10540
580.093	12073
580.149	12039
580.205	11298
580.261	12027
580.317	12022
580.374	12245
580.430	11604
580.486	12295
580.542	11586
580.598	12076
580.619	11876
580.654	11539
580.692	11512
580.710	11512
580.765	11609
580.767	11618
580.823	12444
580.838	12520
580.879	12760
580.911	12470
580.935	12268
580.984	11990
580.991	11954
581.047	12556
581.057	12486
581.103	12242
581.130	11833
581.159	11401
581.203	11557
581.215	11599
581.270	11196
581.276	11116
581.326	10422
581.349	10837
581.382	11457
581.422	11321
581.438	11256
581.494	11164
581.494	11152
581.550	10146
581.567	10425
581.606	11002
581.640	10778
581.661	10656
581.713	11873
581.717	11965
581.773	11196
581.786	11134
581.829	11004
581.859	11515
581.885	11905
581.932	11750
581.940	11741
581.996	11809
582.004	11838
582.052	11875
582.077	11338
582.107	10757
582.150	11438
582.163	11618
582.219	10676
582.223	10701
582.274	11113
582.296	11068
582.330	10989
582.368	11256
582.386	11386
582.441	11406
582.441	11405
582.497	11312
582.514	11437
582.552	11784
582.587	11492
582.608	11348
582.659	12050
582.663	12091
582.719	12754
582.732	12592
582.774	12135
582.805	12143
582.830	12185
582.877	12650
582.885	12697
582.941	11869
582.950	12051
582.996	12956
583.023	12629
583.052	12410
583.095	12456
583.107	12436
583.162	12483
583.168	12531
583.218	12841
583.240	12355
583.273	11811
583.313	11718
583.328	11622
583.384	12461
583.385	12458
583.439	12516
583.458	12562
583.494	12572
583.531	12465
583.549	12449
583.603	12620
583.605	12625
583.660	12621
583.676	12740
583.715	13025
583.748	12909
583.770	12866
583.820	13140
583.825	13160
583.881	12890
583.893	13096
583.936	13788
583.965	13340
583.991	12978
584.038	13297
584.046	13412
584.101	13833
584.110	13911
584.156	13957
584.183	14166
584.211	14416
584.255	14510
584.266	14582
584.321	15179
584.328	15153
584.376	14868
584.400	14873
584.431	14940
584.472	15559
584.486	15727
584.541	16123
584.545	16143
584.596	16908
584.617	17115
584.651	17594
584.689	18038
584.706	18129
584.761	19163
584.762	19162
584.816	19793
584.834	20042
584.871	20988
584.906	22320
584.926	22859
584.978	23024
584.980	23081
585.035	26577
585.051	27351
585.090	29221
585.123	30978
585.145	32785
585.195	36906
585.200	37378
585.254	43610
585.267	45501
585.309	53090
585.340	59495
585.364	65677
585.412	80594
585.419	83166
585.473	108474
585.484	116410
585.528	157726
585.556	202005
585.583	271820
585.628	442292
585.637	507699
585.692	1049343
585.700	1096333
585.747	1285189
585.772	1207934
585.801	801479
585.845	358696
585.856	304767
585.910	131055
585.917	112229
585.965	80191
585.989	66939
586.019	59151
586.061	49724
586.074	47948
586.128	42266
586.133	41791
586.183	39523
586.205	38350
586.237	37064
586.277	35814
586.292	35611
586.346	35071
586.349	35027
586.401	34962
586.421	34597
586.455	34389
586.493	34440
586.509	34764
586.564	35491
586.565	35511
586.618	39799
586.637	41415
586.672	46865
586.709	54191
586.727	58561
586.781	65963
586.781	66019
586.835	51406
586.853	47822
586.889	41444
586.925	36297
586.944	35525
586.996	34087
586.998	34131
587.052	33826
587.068	33768
587.106	34317
587.140	34223
587.161	33989
587.212	34615
587.215	34724
587.269	34498
587.284	34634
587.323	35694
587.356	36217
587.377	36817
587.427	37778
587.431	37860
587.485	38850
587.499	38851
587.539	39324
587.571	40024
587.593	41392
587.643	44489
587.648	44669
587.702	44973
587.715	44962
587.755	45579
587.786	45642
587.810	45848
587.858	46365
587.864	46479
587.917	46978
587.930	46876
587.971	46992
588.001	47087
588.025	47640
588.073	48377
588.079	48424
588.133	47565
588.145	47536
588.187	48731
588.217	48950
588.241	49287
588.288	49890
588.295	50301
588.348	53051
588.360	53462
588.402	54563
588.431	55045
588.456	55342
588.503	56459
588.510	57134
588.564	61547
588.575	62339
588.617	65472
588.646	67587
588.671	70289
588.718	76488
588.725	78012
588.778	91464
588.789	95232
588.832	130238
588.861	159629
588.886	231325
588.932	396331
588.939	425602
588.993	583817
589.004	602316
589.047	334533
589.075	182957
589.100	143626
589.147	76206
589.154	75683
589.207	71099
589.218	70123
589.261	70987
589.290	71699
589.314	74069
589.361	79617
589.368	81699
589.421	101016
589.433	106168
589.475	169780
589.504	225045
589.528	321701
589.576	490426
589.582	477726
589.635	296121
589.647	264201
589.689	149904
589.718	71820
589.742	68285
589.790	60543
589.795	60413
589.849	58203
589.861	57529
589.902	57229
589.932	56762
589.955	56343
590.004	54887
590.009	55046
590.062	55481
590.075	55408
590.115	55147
590.146	54613
590.168	54641
590.218	54473
590.222	54697
590.275	55721
590.289	55826
590.328	57087
590.360	57681
590.381	58267
590.431	59266
590.435	59450
590.488	59968
590.503	59861
590.541	60524
590.574	60918
590.594	61879
590.645	63659
590.647	63913
590.700	65964
590.716	66390
590.753	68174
590.787	69360
590.806	70327
590.859	72654
590.859	72882
590.912	73833
590.930	74099
590.965	75187
591.001	75557
591.018	75480
591.071	74699
591.072	74468
591.124	73750
591.143	73332
591.177	74267
591.214	74737
591.230	75387
591.283	76759
591.285	76579
591.336	76370
591.356	76113
591.389	76290
591.427	75725
591.442	75767
591.495	75354
591.498	75088
591.547	76438
591.569	76790
591.600	78376
591.640	79785
591.653	80263
591.706	81201
591.711	81065
591.759	82929
591.782	83520
591.811	85484
591.853	87604
591.864	88028
591.917	88686
591.924	88514
591.969	88343
591.995	87825
592.022	88776
592.066	89669
592.075	90365
592.127	92868
592.137	93042
592.180	94717
592.208	95344
592.233	96396
592.279	97571
592.285	98302
592.338	101863
592.350	102345
592.390	101822
592.421	100886
592.443	102551
592.491	105174
592.495	105633
592.548	107279
592.562	107386
592.600	107874
592.633	107653
592.653	107733
592.704	106433
592.705	107100
592.775	109810
592.846	114338
592.916	113361
592.987	115349
593.058	115779
593.128	118556
593.199	118003
593.270	118451
593.341	121446
593.411	125198
593.482	129349
593.553	134818
593.623	134972
593.694	139345
593.764	144222
593.835	141688
593.906	141693
593.976	143703
594.047	147168
594.117	155061
594.188	159990
594.258	159531
594.329	159786
594.399	164071
594.470	167762
594.540	173784
594.611	179712
594.681	177132
594.751	176419
594.822	183327
594.892	190911
594.963	197130
595.033	202931
595.103	210379
595.174	210127
595.244	213543
595.314	223289
595.384	224851
595.455	233401
595.525	241610
595.595	249297
595.665	252537
595.736	245992
595.806	249980
595.876	254702
595.946	255310
596.016	266572
596.087	275869
596.157	276314
596.227	275985
596.297	289814
596.367	307258
596.437	328732
596.507	326958
596.577	325311
596.647	335203
596.717	353160
596.787	360977
596.857	360141
596.927	362697
596.997	364969
597.067	367390
597.137	372579
597.207	374097
597.277	379911
597.347	365244
597.417	351732
597.487	349423
597.557	356991
597.626	369118
597.696	370987
597.766	370544
597.836	352756
597.906	329355
597.975	323760
598.045	327705
598.115	342104
598.185	363492
598.254	403975
598.324	443359
598.394	455893
598.464	442200
598.533	435499
598.603	410844
598.672	391163
598.742	396357
598.812	401360
598.881	411978
598.951	411978
599.020	413019
599.090	426722
599.159	438995
599.229	422801
599.299	407560
599.368	417201
599.437	416547
599.507	386833
599.576	365018
599.646	360566
599.715	352871
599.785	350041
599.854	341354
599.924	334890
599.993	332024
600.062	341655
600.132	349736
600.201	362396
600.270	420149
600.340	459775
600.409	447690
600.478	438906
600.547	446254
600.617	422089
600.686	326770
600.755	288629
600.824	267669
600.894	262137
600.963	261199
601.032	258768
601.101	247560
601.170	236644
601.239	227989
601.308	222750
601.378	222975
601.447	224844
601.516	226748
601.585	226176
601.654	231875
601.723	231447
601.792	238931
601.861	245952
601.930	254665
601.999	259306
602.068	256306
602.137	260960
602.206	264573
602.275	269690
602.343	268131
602.412	273792
602.481	277305
602.550	280744
602.619	288852
602.688	292008
602.756	294322
602.825	298023
602.894	305754
602.963	311462
603.032	316491
603.100	318804
603.169	315562
603.238	320244
603.307	322856
603.375	327324
603.444	332219
603.513	343696
603.581	347445
603.650	354604
603.719	349212
603.787	360325
603.856	370170
603.924	378586
603.993	394180
604.061	411404
604.130	428517
604.198	436392
604.267	446407
604.335	453010
604.404	460955
604.472	467163
604.541	473037
604.609	477807
604.678	477197
604.746	478652
604.815	491419
604.883	503545
604.951	502598
605.020	511081
605.088	521910
605.156	536464
605.225	543649
605.293	543583
605.361	545297
605.429	554085
605.498	560700
605.566	578997
605.634	603834
605.702	627073
605.771	645870
605.839	650332
605.907	637340
605.975	613971
606.043	601396
606.111	605601
606.180	596389
606.248	596852
606.316	589173
606.384	587221
606.452	588127
606.520	605773
606.588	630996
606.656	633257
606.724	625831
606.792	589560
606.860	542278
606.928	487043
606.996	465808
607.064	455021
607.132	464484
607.200	490458
607.267	513978
607.335	519241
607.403	535468
607.471	523878
607.539	496875
607.607	506730
607.674	448441
607.742	438813
607.810	439037
607.878	437923
607.946	447556
608.013	466765
608.081	481052
608.149	483525
608.216	496999
608.284	515693
608.352	513800
608.419	516769
608.487	502075
608.555	490854
608.622	508692
608.690	531349
608.757	584564
608.825	610524
608.893	593975
608.960	563771
609.028	528227
609.095	528341
609.163	531196
609.230	490673
609.298	432270
609.365	456219
609.432	492636
609.500	535255
609.567	604140
609.635	683704
609.702	729575
609.769	710384
609.837	581924
609.904	483707
609.971	501351
610.039	548069
610.106	645708
610.173	965431
610.241	1887094
610.308	1606071
610.375	656237
610.442	528608
610.509	495332
610.577	488363
610.644	495152
610.711	508831
610.778	524660
610.845	541390
610.912	572542
610.980	595990
611.047	601056
611.114	589865
611.181	573605
611.248	569025
611.315	596231
611.382	616007
611.449	634452
611.516	648182
611.583	638924
611.650	646217
611.717	655891
611.784	670634
611.851	701319
611.918	741162
611.984	831298
612.051	1019551
612.118	1485739
612.185	2580409
612.252	2472096
612.319	1121797
612.386	864492
612.452	794311
612.519	737771
612.586	715458
612.653	719628
612.719	745276
612.786	730549
612.853	678457
612.919	652210
612.986	664700
613.053	634078
613.120	597662
613.186	568964
613.253	569451
613.319	570637
613.386	572876
613.453	580177
613.519	584267
613.586	574434
613.652	581941
613.719	575704
613.785	579053
613.852	593821
613.918	589470
613.985	586329
614.051	610343
614.118	609154
614.184	591056
614.250	580318
614.317	601770
614.383	588467
614.449	600418
614.516	596298
614.582	597279
614.648	589503
614.715	582708
614.781	572500
614.847	567579
614.914	570577
614.980	551957
615.046	551197
615.112	564987
615.179	570496
615.245	579790
615.311	573855
615.377	575327
615.443	587367
615.509	589713
615.575	611041
615.642	613704
615.708	622392
615.774	655911
615.840	701154
615.906	750745
615.972	854147
616.038	1094787
616.104	1714924
616.170	2702585
616.236	2839294
616.302	1512711
616.368	1113922
616.434	867178
616.500	752337
616.565	792859
616.631	999698
616.697	915618
616.763	864859
616.829	1100864
616.895	1812120
616.961	2002064
617.026	1069193
617.092	690416
617.158	618628
617.224	602213
617.289	553533
617.355	521882
617.421	514191
617.487	512896
617.552	489258
617.618	479095
617.684	479486
617.749	481380
617.815	460054
617.880	450713
617.946	448261
618.012	457338
618.077	467051
618.143	448310
618.208	442049
618.274	474869
618.339	488861
618.405	412537
618.470	388756
618.536	396499
618.601	383444
618.667	361631
618.732	338880
618.798	332669
618.863	331025
618.928	329764
618.994	334125
619.059	330681
619.124	335619
619.190	333803
619.255	329784
619.320	328462
619.386	329896
619.451	330135
619.516	315377
619.581	315838
619.647	327338
619.712	330757
619.777	311318
619.842	309845
619.907	315668
619.972	321899
620.038	323370
620.103	311332
620.168	312428
620.233	319474
620.298	319811
620.363	323041
620.428	331943
620.493	340771
620.558	348740
620.623	351797
620.688	351002
620.753	345620
620.818	355694
620.883	357170
620.948	356220
621.013	350111
621.078	344034
621.143	344707
621.207	353079
621.272	346764
621.337	334536
621.402	328606
621.467	324098
621.532	321941
621.596	326522
621.661	317965
621.726	311640
621.791	315460
621.855	317850
621.920	311109
621.985	318248
622.049	323577
622.114	328898
622.179	331513
622.243	339346
622.308	350763
622.373	363063
622.437	361574
622.502	339095
622.566	335532
622.631	332519
622.695	337943
622.760	338732
622.824	337636
622.889	339833
622.953	338166
623.018	355173
623.082	366588
623.147	361244
623.211	352331
623.276	349690
623.340	340548
623.404	324707
623.469	325298
623.533	328320
623.597	323838
623.662	317392
623.726	300598
623.790	275553
623.854	265621
623.919	269997
623.983	275264
624.047	283404
624.111	283173
624.176	289397
624.240	291136
624.304	300231
624.368	294397
624.432	291442
624.496	299398
624.560	313729
624.625	325325
624.689	314309
624.753	331609
624.817	322629
624.881	311309
624.945	286869
625.009	267314
625.073	273699
625.137	281799
625.201	295186
625.265	302600
625.329	288638
625.393	289858
625.456	295680
625.520	303475
625.584	307752
625.648	316105
625.712	325953
625.776	325661
625.839	308805
625.903	269126
625.967	240097
626.031	247718
626.095	293008
626.158	301649
626.222	230575
626.286	205449
626.349	197049
626.413	186488
626.477	178283
626.540	184233
626.604	183749
626.668	180314
626.731	177406
626.795	178495
626.858	179261
626.922	178330
626.986	175625
627.049	176098
627.113	182317
627.176	181258
627.240	171981
627.303	172914
627.366	173377
627.430	174008
627.493	174035
627.557	171361
627.620	171818
627.684	180256
627.747	183863
627.810	174666
627.874	152787
627.937	145251
628.000	146692
628.064	146510
628.127	132122
628.190	128165
628.253	122992
628.317	121249
628.380	113129
628.443	110478
628.506	108082
628.569	105468
628.632	99802
628.696	99234
628.759	98900
628.822	95108
628.885	92988
628.948	91147
629.011	89901
629.074	86886
629.137	82887
629.200	82905
629.263	80852
629.326	80605
629.389	81645
629.452	80468
629.515	79124
629.578	77184
629.641	78897
629.704	81180
629.767	79485
629.830	77105
629.892	75638
629.955	75806
630.018	76999
630.081	76895
630.144	76483
630.207	75147
630.269	74193
630.332	73524
630.395	72358
630.458	72519
630.520	68327
630.583	69711
630.646	69545
630.708	71439
630.771	73179
630.834	77557
630.896	78124
630.959	75166
631.021	75048
631.084	74573
631.146	74162
631.209	76289
631.272	75559
631.334	79130
631.397	79987
631.459	80690
631.522	84472
631.584	88007
631.646	92927
631.709	97904
631.771	98894
631.834	95489
631.896	89458
631.958	83072
632.021	80103
632.083	75635
632.145	75027
632.208	73457
632.270	74556
632.332	72718
632.395	71216
632.457	71828
632.519	70501
632.581	71246
632.643	69173
632.706	71271
632.768	69053
632.830	69378
632.892	72287
632.954	73847
633.016	74412
633.078	72693
633.141	73474
633.203	72683
633.265	71809
633.327	71363
633.389	71981
633.451	73858
633.513	72616
633.575	75485
633.637	75076
633.698	77236
633.760	80208
633.822	83231
633.884	85538
633.946	88219
634.008	91546
634.070	93949
634.132	100240
634.193	109118
634.255	118763
634.317	123533
634.379	121855
634.441	111231
634.502	98666
634.564	89514
634.626	82995
634.687	78840
634.749	73201
634.811	73454
634.873	70528
634.934	72571
634.996	70575
635.057	72217
635.119	72962
635.181	75430
635.242	75505
635.304	74160
635.365	76952
635.427	74914
635.488	74592
635.550	74451
635.611	76701
635.673	77888
635.734	82658
635.796	86811
635.857	95978
635.918	102698
635.980	113373
636.041	123363
636.102	132066
636.164	133232
636.225	128533
636.286	114035
636.348	99534
636.409	88114
636.470	79996
636.531	76404
636.593	73049
636.654	70049
636.715	65489
636.776	65470
636.838	64463
636.899	61200
636.960	61482
637.021	61117
637.082	58996
637.143	58297
637.204	56607
637.265	56615
637.326	57381
637.387	58874
637.448	58557
637.509	58766
637.570	56995
637.631	57492
637.692	55473
637.753	53562
637.814	52928
637.875	52239
637.936	52476
637.997	51538
638.058	51226
638.119	50880
638.179	51945
638.240	51744
638.301	52107
638.362	51377
638.423	48731
638.483	48982
638.544	46867
638.605	48094
638.666	47251
638.726	48128
638.787	46859
638.848	47790
638.908	46456
638.969	44188
639.030	43398
639.090	44380
639.151	44299
639.211	46297
639.272	46813
639.332	47235
639.393	48256
639.453	51705
639.514	55860
639.574	48467
639.635	44050
639.695	42217
639.756	41736
639.816	42620
639.877	41019
639.937	42344
639.997	41554
640.058	41484
640.118	41618
640.178	42512
640.239	42719
640.299	42710
640.359	43853
640.420	47015
640.480	52078
640.540	61458
640.600	65430
640.661	57181
640.721	50204
640.781	52329
640.841	44578
640.901	43780
640.961	43238
641.021	44854
641.082	49912
641.142	45971
641.202	42001
641.262	37849
641.322	39489
641.382	38810
641.442	38947
641.502	38925
641.562	39328
641.622	39949
641.682	43870
641.742	50459
641.802	50687
641.861	42106
641.921	39290
641.981	37644
642.041	35855
642.101	35860
642.161	35894
642.221	36297
642.280	36190
642.340	36159
642.400	36763
642.460	39032
642.519	38444
642.579	38338
642.639	38721
642.698	37342
642.758	41907
642.818	40095
642.877	39295
642.937	39609
642.997	38908
643.056	39424
643.116	38807
643.175	41187
643.235	42800
643.294	46166
643.354	48566
643.414	54297
643.473	66101
643.532	82851
643.592	109919
643.651	156090
643.711	231645
643.770	379571
643.830	724916
643.889	1608366
643.948	939194
644.008	205709
644.067	101102
644.126	72739
644.186	59662
644.245	51567
644.304	46770
644.363	46580
644.423	44013
644.482	44790
644.541	48619
644.600	53986
644.659	67828
644.719	83154
644.778	114820
644.837	171534
644.896	298855
644.955	719488
645.014	504581
645.073	99115
645.132	61943
645.191	54144
645.250	51876
645.309	52968
645.368	58137
645.427	72250
645.486	106292
645.545	234520
645.604	122526
645.663	47941
645.722	46585
645.781	52423
645.840	59548
645.898	77230
645.957	102157
646.016	144314
646.075	217847
646.134	359119
646.192	742252
646.251	1454751
646.310	564206
646.369	135211
646.427	89526
646.486	72358
646.545	52628
646.603	46540
646.662	42510
646.721	41447
646.779	43419
646.838	48558
646.896	59073
646.955	77462
647.014	105864
647.072	177748
647.131	453344
647.189	471322
647.248	79063
647.306	40909
647.365	35648
647.423	31215
647.481	31675
647.540	28419
647.598	30150
647.657	30034
647.715	28848
647.773	26395
647.832	27554
647.890	25111
647.948	24619
648.007	25106
648.065	23326
648.123	23301
648.181	24615
648.240	23328
648.298	22883
648.356	22782
648.414	23803
648.472	23211
648.531	23530
648.589	22776
648.647	22041
648.705	23865
648.763	24331
648.821	26646
648.879	28330
648.937	34996
648.995	43372
649.053	56374
649.111	79685
649.169	115494
649.227	176099
649.285	311509
649.343	811466
649.401	826071
649.459	149930
649.516	60373
649.574	44791
649.632	45640
649.690	50744
649.748	61517
649.806	81563
649.863	131712
649.921	318137
649.979	436530
650.037	83602
650.094	30334
650.152	24378
650.210	22232
650.268	22089
650.325	19883
650.383	19040
650.440	17797
650.498	17878
650.556	17979
650.613	17323
650.671	18001
650.728	17060
650.786	19428
650.843	25297
650.901	28143
650.958	16886
651.016	16193
651.073	15444
651.131	15959
651.188	14071
651.246	15120
651.303	13257
651.360	15002
651.418	13263
651.475	14101
651.532	13252
651.590	15538
651.647	12877
651.704	13337
651.762	13074
651.819	13270
651.876	12131
651.933	13098
651.990	12392
652.048	11732
652.105	12249
652.162	13194
652.219	11889
652.276	12765
652.333	12538
652.390	11592
652.448	11883
652.505	11871
652.562	12057
652.619	11378
652.676	12454
652.733	13043
652.790	12049
652.847	10782
652.904	11139
652.961	10770
653.017	10433
653.074	12118
653.131	10737
653.188	10587
653.245	12119
653.302	11104
653.359	10946
653.415	11605
653.472	11226
653.529	11271
653.586	10515
653.642	11854
653.699	10967
653.756	10826
653.813	10756
653.869	11588
653.926	11178
653.983	11779
654.039	11962
654.096	10891
654.152	12245
654.209	9546
654.266	10650
654.322	9424
654.379	11192
654.435	11397
654.492	10224
654.548	10172
654.605	10630
654.661	11321
654.717	10163
654.774	9630
654.830	10148
654.887	10711
654.943	10263
655.000	10026
655.056	10477
655.112	10472
655.168	9825
655.225	11454
655.281	12231
655.337	10716
655.394	10079
655.450	9649
655.506	10566
655.562	9518
655.618	11389
655.675	9318
655.731	10831
655.787	9277
655.843	11050
655.899	10706
655.955	10872
656.011	11375
656.067	10741
656.123	11351
656.179	11826
656.235	12952
656.291	10947
656.347	13270
656.403	11280
656.459	10724
656.515	10562
656.571	10444
656.627	9856
656.683	10199
656.739	10305
656.795	10338
656.850	10497
656.906	10189
656.962	12622
657.018	11933
657.074	14633
657.129	19512
657.185	27778
657.241	59054
657.297	68104
657.352	18408
657.408	10270
657.464	10948
657.519	8105
657.575	9223
657.630	8809
657.686	9618
657.742	7987
657.797	8089
657.853	8759
657.908	9772
657.964	8090
658.019	9273
658.075	8675
658.130	8955
658.186	8063
658.241	8891
658.297	7441
658.352	7941
658.407	9472
658.463	7732
658.518	7699
658.573	7829
658.629	7705
658.684	8245
658.739	8332
658.795	7368
658.850	8602
658.905	7464
658.960	8035
659.016	7391
659.071	7042
659.126	7524
659.181	7762
659.236	7843
659.291	7754
659.346	7082
659.401	6851
659.457	8019
659.512	6715
659.567	8405
659.622	6694
659.677	7454
659.732	6267
659.787	7422
659.842	7104
659.897	7113
659.952	7696
660.007	6928
660.061	7102
660.116	6347
660.171	7000
660.226	7088
660.281	7893
660.336	6860
660.391	6742
660.445	6700
660.500	6019
660.555	7411
660.610	6537
660.664	7164
660.719	6740
660.774	6765
660.828	6446
660.883	6494
660.938	6229
660.992	6879
661.047	6861
661.101	6659
661.156	6635
661.211	6365
661.265	5836
661.320	6614
661.374	6583
661.429	6785
661.483	6297
661.538	6263
661.592	5799
661.647	6922
661.701	7124
661.755	7780
661.810	7062
661.864	6788
661.919	5988
661.973	6961
662.027	6495
662.081	5701
662.136	6907
662.190	6300
662.244	6614
662.299	6583
662.353	7029
662.407	6219
662.461	7086
662.515	6882
662.569	5351
662.624	6794
662.678	6440
662.732	6271
662.786	6185
662.840	6540
662.894	6046
662.948	6578
663.002	6217
663.056	6879
663.110	6155
663.164	6988
663.218	6896
663.272	7182
663.326	7067
663.380	7402
663.434	6776
663.488	6859
663.542	6562
663.595	7038
663.649	7054
663.703	7748
663.757	6747
663.811	6547
663.864	6735
663.918	7279
663.972	6230
664.026	7241
664.079	6722
664.133	7184
664.187	8112
664.240	6654
664.294	6686
664.348	7610
664.401	5732
664.455	7154
664.508	6464
664.562	6537
664.615	6695
664.669	6311
664.722	6139
664.776	7099
664.829	6064
664.883	6511
664.936	6476
664.990	6900
665.043	7320
665.097	6999
665.150	7738
665.203	6587
665.257	7860
665.310	7333
665.363	7528
665.417	7547
665.470	7725
665.523	7551
665.576	7243
665.630	8815
665.683	7117
665.736	8142
665.789	8328
665.842	7054
665.895	7023
665.949	8313
666.002	7130
666.055	8265
666.108	8684
666.161	7577
666.214	7860
666.267	8668
666.320	8129
666.373	8106
666.426	8402
666.479	8578
666.532	8068
666.585	9314
666.638	9689
666.691	8354
666.744	7965
666.796	8339
666.849	8351
666.902	8282
666.955	7982
667.008	7642
667.060	7924
667.113	7658
667.166	8465
667.219	8803
667.271	8796
667.324	8584
667.377	8258
667.430	8803
667.482	7933
667.535	8261
667.587	8291
667.640	7384
667.693	7371
667.745	8799
667.798	8896
667.850	9103
667.903	7956
667.955	8693
668.008	7810
668.060	9164
668.113	8092
668.165	8586
668.218	8113
668.270	8137
668.322	8130
668.375	8242
668.427	8741
668.479	7794
668.532	8498
668.584	7822
668.636	7288
668.689	8640
668.741	7467
668.793	8704
668.845	7271
668.898	8363
668.950	7723
669.002	7645
669.054	7898
669.106	7636
669.158	7342
669.211	7183
669.263	7870
669.315	7925
669.367	6464
669.419	6856
669.471	8051
669.523	6788
669.575	7407
669.627	7445
669.679	7083
669.731	7182
669.783	7531
669.835	7911
669.886	6746
669.938	7095
669.990	8138
670.042	7199
670.094	6406
670.146	7257
670.197	7396
670.249	7740
670.301	6930
670.353	8874
670.404	7821
670.456	8496
670.508	9478
670.560	11997
670.611	13591
670.663	17177
670.715	27844
670.766	55189
670.818	37122
670.869	12388
670.921	9751
670.972	11225
671.024	9707
671.075	8819
671.127	8436
671.178	9862
671.230	11798
671.281	14172
671.333	17348
671.384	20897
671.436	28108
671.487	39187
671.538	51714
671.590	72477
671.641	105129
671.692	164839
671.744	321306
671.795	381474
671.846	179166
671.897	71093
671.949	38924
672.000	27897
672.051	20037
672.102	15562
672.153	12726
672.204	11657
672.256	11196
672.307	10618
672.358	8248
672.409	8171
672.460	7777
672.511	8620
672.562	6951
672.613	6884
672.664	6630
672.715	6850
672.766	6683
672.817	6138
672.868	6190
672.919	6106
672.970	5088
673.021	6144
673.071	4847
673.122	6272
673.173	5579
673.224	5755
673.275	5518
673.326	5913
673.376	5955
673.427	4711
673.478	6440
673.528	6226
673.579	5774
673.630	6109
673.680	5567
673.731	5424
673.782	5223
673.832	6050
673.883	5400
673.934	5095
673.984	6213
674.035	6658
674.085	6187
674.136	6631
674.186	6326
674.237	7461
674.287	5642
674.338	6863
674.388	6639
674.438	6699
674.489	7735
674.539	7416
674.589	7594
674.640	7652
674.690	7702
674.740	6942
674.791	6658
674.841	6645
674.891	6181
674.942	5400
674.992	5449
675.042	5557
675.092	5324
675.142	5537
675.193	4463
675.243	4957
675.293	6077
675.343	5729
675.393	6092
675.443	6062
675.493	5855
675.543	5560
675.593	5925
675.643	6364
675.693	5886
675.743	5694
675.793	5073
675.843	4403
675.893	3947
675.943	4350
675.993	3784
676.043	3573
676.093	4831
676.142	4761
676.192	4801
676.242	4339
676.292	4823
676.341	4452
676.391	3301
676.441	4415
676.491	4210
676.540	3560
676.590	3969
676.640	4119
676.689	4130
676.739	3074
676.789	3057
676.838	3620
676.888	3250
676.937	3076
676.987	4100
677.037	3694
677.086	3848
677.136	3001
677.185	3206
677.235	3314
677.284	3141
677.333	3399
677.383	3657
677.432	3368
677.482	2943
677.531	4551
677.580	2359
677.630	4166
677.679	3573
677.728	2940
677.778	3057
677.827	3270
677.876	2577
677.925	3843
677.975	3945
678.024	3748
678.073	4329
678.122	4335
678.171	4303
678.220	5244
678.269	4999
678.319	6723
678.368	7789
678.417	7928
678.466	5486
678.515	4450
678.564	4049
678.613	3171
678.662	2692
678.711	3686
678.760	2831
678.809	4288
678.857	3390
678.906	4056
678.955	3548
679.004	4287
679.053	2398
679.102	2756
679.151	3189
679.199	3783
679.248	3138
679.297	3626
679.346	2601
679.394	2095
679.443	2540
679.492	2902
679.540	2796
679.589	2692
679.638	3956
679.686	3972
679.735	4139
679.784	5206
679.832	6485
679.881	6077
679.929	4351
679.978	3908
680.026	3151
680.075	3674
680.123	3183
680.172	3435
680.220	2697
680.268	2868
680.317	2609
680.365	2690
680.414	2265
680.462	2522
680.510	3081
680.559	2658
680.607	2932
680.655	2433
680.703	3105
680.752	3237
680.800	3444
680.848	2377
680.896	2556
680.945	2397
680.993	2178
681.041	2608
681.089	2905
681.137	2222
681.185	1940
681.233	2215
681.258	2374
681.281	2517
681.329	2531
681.377	1947
681.380	2028
681.425	3393
681.473	2877
681.502	2964
681.521	3011
681.569	3804
681.617	3451
681.624	3478
681.665	3591
681.713	2920
681.745	2840
681.761	2791
681.809	3272
681.857	3435
681.867	3296
681.904	2763
681.952	3392
681.989	3245
682.000	3197
682.048	2560
682.096	2773
682.111	2643
682.143	2349
682.191	3637
682.233	3076
682.239	2979
682.286	3082
682.334	2756
682.354	2758
682.382	2754
682.430	3132
682.476	3039
682.477	3029
682.525	3234
682.572	3059
682.598	3098
682.620	3123
682.667	3563
682.715	3642
682.720	3603
682.763	3172
682.810	2737
682.841	3123
682.857	3299
682.905	2529
682.952	3392
682.963	3149
683.000	2269
683.047	3136
683.085	3215
683.095	3237
683.142	2902
683.190	2594
683.206	2673
683.237	2784
683.284	2500
683.328	2908
683.332	2935
683.379	3089
683.426	2723
683.449	2613
683.473	2533
683.521	2925
683.568	3381
683.571	3369
683.615	2977
683.662	3111
683.693	3381
683.709	3545
683.757	2425
683.804	3078
683.814	2988
683.851	2586
683.898	2996
683.936	2772
683.945	2733
683.992	2960
684.039	2442
684.057	2972
684.086	3770
684.133	2922
684.179	3070
684.180	3070
684.227	2677
684.274	3102
684.300	3129
684.321	3218
684.368	2582
684.415	3397
684.422	3479
684.462	3780
684.509	2793
684.543	3131
684.556	3275
684.603	3018
684.649	3305
684.665	3399
684.696	3506
684.743	3911
684.786	3094
684.790	3023
684.837	3458
684.883	2945
684.908	2615
684.930	2305
684.977	3352
685.023	3390
685.029	3358
685.070	3165
685.117	3418
685.150	3345
685.164	3302
685.210	3330
685.257	3883
685.272	3692
685.303	3239
685.350	3546
685.393	3953
685.396	3979
685.443	3084
685.490	3736
685.514	3552
685.536	3381
685.583	3701
685.629	3162
685.636	3147
685.675	3127
685.722	3233
685.757	3321
685.768	3336
685.815	3402
685.861	4310
685.878	4032
685.908	3517
685.954	3454
686.000	3484
686.000	3483
686.047	3592
686.093	3383
686.121	3772
686.139	4030
686.185	3536
686.232	3623
686.242	3558
686.278	3329
686.324	4135
686.363	3781
686.370	3707
686.416	3076
686.463	3576
686.484	3671
686.509	3827
686.555	3272
686.601	3195
686.606	3267
686.647	3781
686.693	4047
686.727	3496
686.739	3330
686.785	3524
686.831	3491
686.848	3724
686.877	4087
686.923	3598
686.969	3666
686.969	3666
687.015	4115
687.061	3956
687.090	4016
687.107	4073
687.153	4457
687.199	4050
687.211	4170
687.245	4391
687.291	3632
687.332	3847
687.336	3881
687.382	4313
687.428	4825
687.453	4505
687.474	4178
687.520	4099
687.565	3961
687.574	4042
687.611	4444
687.657	4100
687.695	4775
687.702	4914
687.748	4444
687.794	4879
687.816	4706
687.839	4409
687.885	5316
687.931	4621
687.937	4588
687.976	4555
688.022	4699
688.058	4480
688.067	4409
688.113	4395
688.158	4910
688.179	4598
688.204	4324
688.249	4410
688.295	4470
688.300	4592
688.340	5233
688.386	4594
688.421	4370
688.431	4369
688.477	4042
688.522	5010
688.542	5007
688.567	4971
688.613	4791
688.658	4933
688.663	4911
688.703	4961
688.749	4878
688.784	5197
688.794	5205
688.839	4959
688.884	4962
688.905	5063
688.930	5210
688.975	4676
689.020	4696
689.026	4675
689.065	4677
689.110	4534
689.146	4915
689.155	5070
689.201	4970
689.246	5300
689.267	5393
689.291	5286
689.336	5466
689.381	5175
689.388	5221
689.426	5523
689.471	4968
689.509	5341
689.516	5446
689.561	5574
689.606	5344
689.630	5247
689.651	5018
689.696	5069
689.741	5070
689.750	5033
689.785	5246
689.830	5396
689.871	5503
689.875	5505
689.920	5275
689.965	5822
689.992	5898
690.010	5878
690.054	5503
690.099	5183
690.112	5167
690.144	5167
690.189	4688
690.233	4738
690.233	4745
690.278	5040
690.323	4889
690.354	4815
690.367	4803
690.412	4910
690.457	5124
690.474	5312
690.501	5573
690.546	5230
690.590	5352
690.595	5340
690.635	5263
690.680	5224
690.716	5150
690.724	5140
690.769	5186
690.813	5101
690.836	5021
690.857	5082
690.902	5566
690.946	6031
690.957	6003
690.991	6033
691.035	6716
691.077	7595
691.080	7641
691.124	7584
691.168	7775
691.198	7303
691.213	6840
691.257	6350
691.301	5580
691.318	5368
691.346	5453
691.390	5559
691.434	5449
691.439	5452
691.478	5444
691.522	5692
691.559	5544
691.567	5542
691.611	5539
691.655	5593
691.680	5331
691.699	5168
691.743	5660
691.787	5943
691.800	5823
691.831	5470
691.875	5500
691.919	5562
691.921	5547
691.964	5413
692.008	5520
692.041	5380
692.052	5432
692.096	5772
692.139	6058
692.162	6165
692.183	6056
692.227	5848
692.271	6119
692.282	5978
692.315	5656
692.359	5564
692.402	5665
692.403	5676
692.447	5658
692.490	5732
692.523	5848
692.534	5922
692.578	5865
692.622	5983
692.643	5953
692.666	5753
692.709	5632
692.753	5281
692.763	5269
692.797	5700
692.840	5900
692.884	6020
692.884	6030
692.928	6141
692.971	6121
693.004	5965
693.015	5938
693.059	5793
693.102	6086
693.124	6082
693.146	6088
693.189	5985
693.233	5832
693.245	5830
693.276	5907
693.320	5954
693.363	5800
693.365	5789
693.407	5984
693.450	6268
693.485	6538
693.493	6604
693.537	6571
693.580	6655
693.605	6750
693.624	6876
693.667	6990
693.710	7224
693.725	7254
693.753	7762
693.797	8850
693.840	9809
693.845	9888
693.883	9665
693.926	9398
693.966	8783
693.970	8693
694.013	8049
694.056	7197
694.086	6834
694.099	6822
694.142	6447
694.185	6418
694.206	6168
694.229	6246
694.272	6447
694.315	6858
694.326	6913
694.358	6573
694.401	6012
694.444	5853
694.446	5810
694.487	6021
694.530	6591
694.566	6836
694.573	6808
694.616	6720
694.659	6420
694.686	6487
694.702	6787
694.745	7133
694.787	7662
694.806	7806
694.830	7618
694.873	7420
694.916	7114
694.926	7038
694.959	7150
695.002	7256
695.044	7434
695.046	7430
695.087	7830
695.130	7947
695.166	8040
695.172	8075
695.215	8294
695.258	8612
695.286	8737
695.301	8677
695.343	8200
695.386	8207
695.406	8001
695.428	8408
695.471	9295
695.514	10273
695.526	10570
695.556	11662
695.599	13108
695.641	14318
695.646	14424
695.684	13686
695.726	12824
695.766	12144
695.769	12138
695.811	11550
695.854	11044
695.886	10630
695.896	10692
695.938	10790
695.981	10956
696.005	11036
696.023	11383
696.065	12256
696.108	13110
696.125	13367
696.150	13671
696.192	14341
696.235	14900
696.245	14978
696.277	14944
696.319	15067
696.361	15002
696.365	14975
696.404	14691
696.446	14258
696.485	14016
696.488	14073
696.530	14213
696.572	14408
696.604	14532
696.614	14514
696.656	14409
696.698	14173
696.724	13975
696.740	13889
696.783	13719
696.825	13549
696.844	13427
696.867	13738
696.909	14220
696.951	14746
696.964	14888
696.992	15107
697.034	15215
697.076	15483
697.083	15493
697.118	16146
697.160	16999
697.202	17590
697.203	17571
697.244	17133
697.286	16648
697.323	16271
697.327	16335
697.369	16362
697.411	16517
697.442	16644
697.453	16710
697.494	16806
697.536	16827
697.562	16837
697.578	16767
697.620	16431
697.661	16173
697.682	16015
697.703	16415
697.744	17140
697.786	17871
697.801	18067
697.828	18247
697.869	18436
697.911	18652
697.921	18693
697.952	18276
697.994	17595
698.035	16906
698.040	16783
698.077	17015
698.118	17312
698.160	17550
698.160	17514
698.201	18094
698.243	18726
698.279	19216
698.284	19326
698.325	19963
698.367	20631
698.399	21044
698.408	21131
698.449	21348
698.491	21608
698.518	21703
698.532	21726
698.573	21671
698.614	21568
698.638	21509
698.656	21550
698.697	21469
698.738	21416
698.757	21340
698.779	21541
698.820	21838
698.862	22133
698.877	22196
698.903	22176
698.944	22056
698.985	21949
698.996	21871
699.026	21841
699.067	21737
699.116	21565
699.235	22044
699.354	21517
699.474	19418
699.593	20072
699.713	19474
699.832	19836
699.951	20965
700.070	21093
700.190	19815
700.309	18826
700.428	19085
700.547	18247
700.667	17641
700.786	18729
700.905	16721
701.024	17228
701.143	18411
701.262	17851
701.381	19285
701.500	19891
701.619	18331
701.738	20214
701.857	17949
701.976	18523
702.095	18434
702.214	19822
702.333	18504
702.452	19532
702.571	19888
702.690	19031
702.809	19364
702.928	18319
703.047	17291
703.165	17486
703.284	18452
703.403	17776
703.522	17833
703.640	17297
703.759	16455
703.878	16540
703.997	16726
704.115	18060
704.234	17397
704.353	17097
704.471	15137
704.590	15930
704.708	15975
704.827	15581
704.946	14856
705.064	16136
705.183	14681
705.301	16775
705.420	15121
705.538	15571
705.656	13349
705.775	12782
705.893	14964
706.012	14919
706.130	14098
706.249	15001
706.367	14080
706.485	13705
706.604	13158
706.722	13855
706.840	14592
706.958	14989
707.077	13106
707.195	12943
707.313	13327
707.431	12172
707.549	12765
707.668	11603
707.786	14025
707.904	13679
708.022	13248
708.140	12706
708.258	12203
708.376	13675
708.494	13016
708.612	13686
708.730	13617
708.848	13389
708.966	13538
709.084	13075
709.202	13806
709.320	12877
709.438	11108
709.556	12741
709.674	10966
709.791	11429
709.909	11117
710.027	10952
710.145	11553
710.263	10710
710.380	11606
710.498	10890
710.616	9958
710.733	10385
710.851	10837
710.969	10553
711.086	10063
711.204	10823
711.322	11473
711.439	11793
711.557	8993
711.674	10536
711.792	9972
711.909	10321
712.027	10110
712.144	9739
712.262	9940
712.379	10757
712.497	10363
712.614	9820
712.732	10851
712.849	10331
712.966	10035
713.084	11495
713.201	8703
713.318	9831
713.436	11958
713.553	10955
713.670	11819
713.787	12336
713.905	11483
714.022	12372
714.139	13235
714.256	18451
714.373	27710
714.490	59948
714.608	159331
714.725	686663
714.842	923608
714.959	92543
715.076	26367
715.193	19634
715.310	17419
715.427	11700
715.544	11796
715.661	12564
715.778	10495
715.895	9904
716.011	11086
716.128	10416
716.245	9815
716.362	9934
716.479	8751
716.596	8755
716.713	8314
716.829	9234
716.946	7545
717.063	7577
717.180	6891
717.296	7763
717.413	9041
717.530	8732
717.646	6533
717.763	7770
717.880	7785
717.996	6957
718.113	6717
718.229	6887
718.346	6256
718.462	6660
718.579	7007
718.695	8167
718.812	7658
718.928	7214
719.045	6510
719.161	7300
719.277	8529
719.394	8713
719.510	8537
719.626	10735
719.743	13884
719.859	27054
719.975	63157
720.092	250939
720.208	709697
720.324	114387
720.440	18148
720.557	12026
720.673	11822
720.789	9604
720.905	7914
721.021	8869
721.137	6817
721.253	7397
721.369	6881
721.486	6969
721.602	6430
721.718	6458
721.834	6328
721.950	7019
722.066	5820
722.181	6460
722.297	5464
722.413	6091
722.529	6801
722.645	5993
722.761	5860
722.877	6786
722.993	7994
723.108	12785
723.224	9550
723.340	6776
723.456	6103
723.571	5893
723.687	4410
723.803	5737
723.918	5985
724.034	5730
724.150	5406
724.265	5637
724.381	4498
724.497	5281
724.612	5355
724.728	5578
724.843	4834
724.959	5081
725.074	5554
725.190	5597
725.305	5260
725.421	5357
725.536	4632
725.651	5881
725.767	3977
725.882	5818
725.997	4129
726.113	6271
726.228	5251
726.343	5132
726.459	4479
726.574	4436
726.689	4532
726.804	5134
726.920	4151
727.035	5347
727.150	4775
727.265	4920
727.380	4996
727.495	5580
727.610	4761
727.725	5175
727.841	4966
727.956	4979
728.071	4780
728.186	5389
728.301	3763
728.416	5938
728.531	5119
728.645	4714
728.760	5002
728.875	5041
728.990	4567
729.105	4841
729.220	4821
729.335	5451
729.449	4984
729.564	5273
729.679	4226
729.794	5009
729.908	5406
730.023	5385
730.138	5498
730.253	6239
730.367	5103
730.482	5896
730.596	5610
730.711	6279
730.826	9751
730.940	9612
731.055	8065
731.169	8711
731.284	8319
731.398	9544
731.513	8860
731.627	11127
731.742	12811
731.856	18808
731.970	19238
732.085	25442
732.199	37392
732.313	74525
732.428	193782
732.542	629771
732.656	459062
732.771	72145
732.885	33549
732.999	28382
733.113	28932
733.227	27126
733.342	25490
733.456	24324
733.570	22843
733.684	21882
733.798	20220
733.912	20565
734.026	21394
734.140	20786
734.254	19756
734.368	19270
734.482	18968
734.596	20251
734.710	18199
734.824	19077
734.938	18619
735.052	18703
735.166	17888
735.280	18477
735.393	17037
735.507	17928
735.621	17576
735.735	17159
735.849	16943
735.962	16442
736.076	17060
736.190	17048
736.303	16433
736.417	17036
736.531	14681
736.644	17106
736.758	15126
736.872	16838
736.985	15911
737.099	15691
737.212	15510
737.326	14767
737.439	15805
737.553	14686
737.666	15610
737.780	14034
737.893	15835
738.007	14808
738.120	16674
738.233	12582
738.347	15328
738.460	12976
738.573	15538
738.687	13983
738.800	13840
738.913	15100
739.026	14432
739.140	13731
739.253	13911
739.366	13819
739.479	12842
739.592	14435
739.705	12097
739.818	14174
739.932	13287
740.045	13316
740.158	13450
740.271	14179
740.384	13288
740.497	10938
740.610	12535
740.723	11897
740.836	11807
740.949	13062
741.062	14383
741.174	12085
741.287	12075
741.400	13270
741.513	10216
741.626	13299
741.739	11764
741.851	11153
741.964	12254
742.077	11692
742.189	11627
742.302	13310
742.415	12453
742.527	11531
742.640	11551
742.753	8778
742.865	11463
742.978	12434
743.090	10305
743.203	11149
743.316	10800
743.428	10959
743.541	11313
743.653	8412
743.766	10268
743.878	12337
743.990	9288
744.103	12656
744.215	14699
744.327	10155
744.440	12128
744.552	10748
744.664	8935
744.777	10934
744.889	10810
745.001	8738
745.113	10012
745.226	11115
745.338	8037
745.450	10503
745.562	9424
745.674	8288
745.786	10281
745.898	10306
746.010	8305
746.122	10588
746.234	10572
746.347	9632
746.459	9159
746.570	8224
746.682	10855
746.794	17483
746.906	10011
747.018	9193
747.130	10269
747.242	8942
747.354	7721
747.466	9699
747.577	7945
747.689	8729
747.801	9476
747.913	7109
748.024	8090
748.136	8863
748.248	7633
748.359	8324
748.471	8522
748.583	7913
748.694	7063
748.806	8241
748.918	7318
749.029	8124
749.141	8266
749.252	8380
749.364	6392
749.475	7576
749.587	7295
749.698	7125
749.809	6335
749.921	7510
750.032	7582
750.144	6650
750.255	6772
750.366	6960
750.478	6362
750.589	6965
750.700	6289
750.811	7088
750.923	6756
751.034	5980
751.145	7562
751.256	7355
751.367	6410
751.479	6825
751.590	5806
751.701	6324
751.812	4621
751.923	5360
752.034	8026
752.145	6935
752.256	7038
752.367	6505
752.478	6526
752.589	6535
752.700	7575
752.811	6262
752.922	5715
753.032	7389
753.143	7246
753.254	6044
753.365	8384
753.476	7523
753.586	6287
753.697	5155
753.808	5741
753.919	6105
754.029	6370
754.140	6228
754.251	6159
754.361	6676
754.472	6427
754.582	5898
754.693	5749
754.804	7871
754.914	5088
755.025	4745
755.135	5817
755.246	6248
755.356	6033
755.466	5358
755.577	4963
755.687	6075
755.798	5522
755.908	4967
756.018	4986
756.129	6265
756.239	5649
756.349	6754
756.460	6096
756.570	9231
756.680	6299
756.790	6270
756.900	6032
757.011	5457
757.121	4132
757.231	5152
757.341	5751
757.451	4780
757.561	4423
757.671	4800
757.781	6331
757.891	5631
758.001	4128
758.111	6168
758.221	7031
758.331	8078
758.441	6520
758.551	7221
758.661	6917
758.771	7348
758.880	6996
758.990	6102
759.100	5806
759.210	5662
759.320	7294
759.429	6752
759.539	7929
759.649	9212
759.758	10119
759.868	11514
759.978	11278
760.087	13333
760.197	12958
760.307	12414
760.416	10001
760.526	9535
760.635	9697
760.745	12392
760.854	13163
760.964	16126
761.073	15912
761.182	14270
761.292	11464
761.401	9545
761.511	7051
761.620	6464
761.729	6247
761.839	6332
761.948	4674
762.057	4932
762.166	5522
762.276	5871
762.385	6595
762.494	5984
762.603	6123
762.712	5384
762.822	5033
762.931	5371
763.040	3698
763.149	4619
763.258	4015
763.367	4595
763.476	4713
763.585	4499
763.694	4493
763.803	5175
763.912	5296
764.021	4980
764.130	4679
764.238	5715
764.347	5517
764.456	6799
764.565	6067
764.674	5587
764.783	5666
764.891	4972
765.000	6159
765.109	5573
765.217	5382
765.326	6594
765.435	7953
765.543	8772
765.652	10417
765.761	10569
765.869	15085
765.978	22384
766.086	38649
766.195	76986
766.303	187396
766.412	490427
766.520	529119
766.629	164351
766.737	53638
766.846	30374
766.954	20357
767.062	15784
767.171	12284
767.279	9847
767.387	8231
767.496	7791
767.604	6749
767.712	6237
767.820	5707
767.928	6474
768.037	4846
768.145	6152
768.253	5212
768.361	4865
768.469	4883
768.577	4731
768.685	5371
768.793	5622
768.901	5616
769.009	6055
769.117	5948
769.225	8483
769.333	12229
769.441	17642
769.549	32617
769.657	67914
769.765	201300
769.873	465707
769.981	220585
770.088	46372
770.196	21327
770.304	15863
770.412	13174
770.519	11133
770.627	8873
770.735	8355
770.842	8380
770.950	7933
771.058	9265
771.165	9275
771.273	10620
771.380	11020
771.488	13817
771.595	17877
771.703	15211
771.810	13708
771.918	13893
772.025	17221
772.133	20187
772.240	17848
772.348	21024
772.455	20502
772.562	18355
772.670	17684
772.777	17855
772.884	18516
772.991	16043
773.099	18665
773.206	16186
773.313	17298
773.420	16857
773.528	17443
773.635	15204
773.742	16977
773.849	15303
773.956	17057
774.063	14538
774.170	16921
774.277	16327
774.384	15750
774.491	14534
774.598	15497
774.705	14102
774.812	15101
774.919	14286
775.026	15796
775.133	14136
775.239	15651
775.346	13782
775.453	13672
775.560	13345
775.667	13573
775.773	14053
775.880	13989
775.987	13649
776.093	13172
776.200	15513
776.307	11899
776.413	11852
776.520	15458
776.627	13555
776.733	11280
776.840	11068
776.946	17638
777.053	16463
777.159	22583
777.266	17092
777.372	18976
777.478	20300
777.585	16505
777.691	10781
777.798	12940
777.904	10759
778.010	10597
778.117	11752
778.223	11256
778.329	11579
778.435	10381
778.542	11935
778.648	11266
778.754	9961
778.860	10973
778.966	10813
779.072	10254
779.178	10865
779.284	8647
779.391	9824
779.497	11387
779.603	10747
779.708	9897
779.815	9120
779.920	12269
780.026	13426
780.132	10528
780.238	10659
780.344	8082
780.450	11591
780.556	8625
780.661	7553
780.767	12063
780.873	7282
780.979	8129
781.085	10819
781.190	8642
781.296	8268
781.402	9187
781.507	9367
781.613	7274
781.719	7233
781.824	10294
781.930	7637
782.035	8495
782.141	10802
782.246	7052
782.352	7316
782.457	8910
782.563	8515
782.668	9076
782.773	7516
782.879	6852
782.984	8256
783.090	8738
783.195	7664
783.300	9446
783.405	6865
783.511	6162
783.616	6780
783.721	8340
783.826	7642
783.932	5894
784.037	7549
784.142	7557
784.247	6962
784.352	7580
784.457	5633
784.562	6559
784.667	8242
784.772	6124
784.877	4760
784.982	7402
785.087	7551
785.192	5593
785.297	6399
785.402	7752
785.507	7073
785.611	6526
785.716	4946
785.821	6416
785.926	6277
786.031	6077
786.135	5959
786.240	6802
786.345	5472
786.450	5339
786.554	5703
786.659	5533
786.763	6057
786.868	6353
786.973	6195
787.077	5119
787.182	4406
787.286	5952
787.391	7638
787.495	5203
787.600	3662
787.704	4595
787.809	5371
787.913	6047
788.017	5217
788.122	6725
788.226	4530
788.330	3789
788.435	5170
788.539	6079
788.643	4578
788.747	3416
788.852	4384
788.956	4915
789.060	4893
789.164	5278
789.268	3975
789.372	6354
789.476	5006
789.580	3463
789.684	2304
789.788	5311
789.892	5257
789.996	2891
790.100	2155
790.204	4543
790.308	4741
790.412	3566
790.516	2798
790.620	4142
790.724	5420
790.828	4795
790.931	2726
791.035	3948
791.139	3736
791.242	4867
791.346	4674
791.450	4100
791.554	3877
791.657	2669
791.761	3823
791.864	4178
791.968	4871
792.072	5027
792.175	3467
792.279	3531
792.382	4085
792.486	2754
792.589	3109
792.693	4583
792.796	3086
792.899	3597
793.003	4103
793.106	3955
793.209	4119
793.313	3912
793.416	2362
793.519	3121
793.623	4977
793.726	4396
793.829	2909
793.932	2361
794.035	2028
794.138	3923
794.242	5131
794.345	3416
794.448	1554
794.551	3000
794.654	4749
794.757	5781
794.860	3365
794.963	3204
795.066	2929
795.169	4018
795.272	2843
795.375	4479
795.477	2679
795.580	2451
795.683	1596
795.786	4092
795.889	2198
795.991	3300
796.094	2749
796.197	3314
796.300	4195
796.402	4416
796.505	2897
796.608	1734
796.710	2424
796.813	3753
796.915	4164
797.018	3631
797.120	3432
797.223	2813
797.326	5279
797.428	2605
797.530	1588
797.633	2220
797.735	3852
797.838	3786
797.940	4638
798.042	3551
798.145	2582
798.247	2726
798.349	1270
798.452	2900
798.554	3104
798.656	4427
798.758	4912
798.860	3781
798.962	2713
799.065	1818
799.167	2429
799.269	3071
799.371	3454
799.473	6033
799.575	4915
799.677	2855
799.779	2704
799.881	2033
799.983	3906
800.085	2188
800.187	3073
800.289	1989
800.390	1945
800.492	3548
800.594	2922
800.696	2020
800.798	2241
800.899	2383
801.001	2685
801.103	2629
801.205	2809
801.306	3284
801.408	2719
801.509	2384
801.611	1645
801.713	2998
801.814	1697
801.916	1725
802.017	1536
802.119	1352
802.220	986
802.322	2344
802.423	2775
802.525	1419
802.626	1306
802.727	3501
802.829	2602
802.930	-97
803.031	2668
803.133	1987
803.234	1808
803.335	2022
803.436	1315
803.538	1445
803.639	1257
803.740	2881
803.841	1522
803.942	2733
804.043	2292
804.144	2262
804.245	1629
804.346	1783
804.447	1294
804.548	1654
804.649	2152
804.750	1247
804.851	801
804.952	2116
805.053	1734
805.154	1573
805.255	2380
805.355	1841
805.456	1292
805.557	1616
805.658	915
805.758	1533
805.859	1330
805.960	1244
806.061	2350
806.161	1626
806.262	438
806.362	824
806.463	903
806.564	1913
806.664	1483
806.765	1363
806.865	1662
806.966	1697
807.066	-62
807.166	1586
807.267	2008
807.367	962
807.468	1553
807.568	473
807.668	826
807.769	2314
807.869	1227
807.969	1655
808.069	1135
808.170	499
808.270	954
808.370	1864
808.470	1351
808.570	804
808.670	1340
808.770	1675
808.870	868
808.970	1048
809.070	1394
809.170	572
809.271	1072
809.370	1922
809.470	1426
809.570	974
809.670	620
809.770	525
809.870	1999
809.970	1353
810.070	1509
810.169	1641
810.269	632
810.369	1818
810.469	804
810.568	1993
810.668	1171
810.768	910
810.867	533
810.967	668
811.066	655
811.166	1876
811.265	1918
811.365	876
811.464	1391
811.564	1582
811.663	457
811.763	1566
811.862	1497
811.962	2021
812.061	1288
812.160	1155
812.260	699
812.359	874
812.458	814
812.557	1893
812.657	642
812.756	1669
812.855	1130
812.954	1280
813.053	955
813.153	1121
813.252	318
813.351	1611
813.450	2393
813.549	1647
813.648	1008
813.747	618
813.846	1480
813.945	1113
814.044	2194
814.143	1542
814.242	1775
814.341	908
814.439	1729
814.538	2214
814.637	1494
814.736	2832
814.835	3207
814.933	3031
815.032	2852
815.131	4798
815.229	8787
815.328	15321
815.427	10187
815.525	9398
815.624	8521
815.722	8281
815.821	9270
815.919	10201
816.018	9410
816.116	8989
816.215	8353
816.313	10508
816.412	12471
816.510	12658
816.609	11816
816.707	13681
816.805	13491
816.904	12447
817.002	12176
817.100	13639
817.198	12737
817.296	12545
817.395	12045
817.493	12547
817.591	11320
817.689	10981
817.787	11755
817.885	10614
817.983	9305
818.081	11336
818.179	10012
818.277	14621
818.375	12881
818.473	11566
818.571	9963
818.669	11351
818.767	13489
818.865	10042
818.963	6932
819.061	10365
819.158	9374
819.256	11796
819.354	11529
819.452	15895
819.549	12705
819.647	11180
819.745	8714
819.842	8142
819.940	10097
820.038	9458
820.135	8053
820.233	8955
820.330	8973
820.428	8192
820.525	8532
820.623	8852
820.720	7731
820.818	8888
820.915	8936
821.012	8813
821.110	6626
821.207	9562
821.304	7487
821.402	8594
821.499	9721
821.596	9511
821.693	8138
821.791	9085
821.888	7768
821.985	9529
822.082	6766
822.179	7400
822.276	9242
822.373	7418
822.470	6882
822.567	7827
822.664	6390
822.761	6647
822.858	7252
822.955	7892
823.052	5953
823.149	7580
823.246	8149
823.343	4742
823.440	6493
823.536	7532
823.633	7760
823.730	6112
823.827	6615
823.923	6752
824.020	5670
824.117	7375
824.213	8378
824.310	6426
824.407	4584
824.503	6426
824.600	6925
824.696	5615
824.793	8049
824.889	6927
824.986	5938
825.082	4916
825.179	4979
825.275	6538
825.371	8244
825.468	5617
825.564	2934
825.660	5231
825.757	8319
825.853	5563
825.949	3942
826.045	4944
826.142	5271
826.238	6830
826.334	6145
826.430	5592
826.526	4240
826.622	2450
826.718	5996
826.814	7455
826.910	5294
827.006	3566
827.102	3428
827.198	6295
827.294	6521
827.390	6476
827.486	4473
827.582	2866
827.678	3131
827.774	6413
827.869	4253
827.965	4391
828.061	3360
828.157	5493
828.252	6181
828.348	4216
828.444	2842
828.539	3747
828.635	5159
828.731	4899
828.826	2967
828.922	5625
829.017	5313
829.113	6802
829.208	4136
829.304	4417
829.399	5844
829.495	6364
829.590	4327
829.685	4471
829.781	5652
829.876	5516
829.971	2304
830.066	2194
830.162	3968
830.257	7192
830.352	4645
830.447	3716
830.543	3242
830.638	4516
830.733	5894
830.828	3097
830.923	4489
831.018	4314
831.113	5167
831.208	3907
831.303	1936
831.398	2718
831.493	3991
831.588	6850
831.683	4869
831.778	2349
831.873	3377
831.967	3677
832.062	4386
832.157	2992
832.252	3409
832.346	2664
832.441	3978
832.536	4242
832.631	4065
832.725	2263
832.820	2717
832.914	4715
833.009	2478
833.104	2148
833.198	2343
833.293	3344
833.387	4639
833.482	3619
833.576	3533
833.670	3546
833.765	3130
833.859	4696
833.954	4528
834.048	3072
834.142	2672
834.237	2213
834.331	2553
834.425	4084
834.519	2653
834.613	2737
834.708	1900
834.802	2373
834.896	2064
834.990	3356
835.084	2528
835.178	1147
835.272	2377
835.366	4194
835.460	4684
835.554	2748
835.648	1262
835.742	1053
835.836	1618
835.930	1791
836.024	2999
836.117	3494
836.211	1521
836.305	2535
836.399	1480
836.493	1456
836.586	3101
836.680	2158
836.774	1639
836.867	1674
836.961	1334
837.055	1696
837.148	1410
837.242	2355
837.335	2494
837.429	1584
837.522	1012
837.616	1197
837.709	1861
837.803	2421
837.896	2965
837.989	3275
838.083	1163
838.176	1266
838.269	-129
838.363	1420
838.456	1609
838.549	2263
838.642	1593
838.735	2026
838.829	1950
838.922	1649
839.015	2379
839.108	1577
839.201	1423
839.294	1795
839.387	1769
839.480	838
839.573	918
839.666	1187
839.759	582
839.852	1761
839.945	2141
840.038	1492
840.131	681
840.223	1475
840.316	1231
840.409	2203
840.502	1870
840.594	2658
840.687	942
840.780	1083
840.873	-196
840.965	350
841.058	1898
841.150	2025
841.243	491
841.336	2120
841.428	715
841.521	473
841.613	844
841.706	1348
841.798	1509
841.890	2193
841.983	285
842.075	742
842.167	665
842.260	1952
842.352	1278
842.444	2288
842.537	1270
842.629	907
842.721	274
842.813	1053
842.905	753
842.997	1728
843.090	1008
843.182	1795
843.274	328
843.366	1438
843.458	847
843.550	1974
843.642	1081
843.734	795
843.826	431
843.918	503
844.009	1308
844.101	609
844.193	857
844.285	993
844.377	2233
844.469	1889
844.560	1243
844.652	2215
844.744	789
844.835	911
844.927	761
845.019	1212
845.110	206
845.202	992
845.293	507
845.385	-354
845.476	785
845.568	1348
845.659	516
845.751	1362
845.842	564
845.934	672
846.025	882
846.116	1004
846.208	707
846.299	231
846.390	-431
846.482	404
846.573	809
846.664	520
846.755	693
846.846	1134
846.937	-537
847.029	913
847.120	212
847.211	249
847.302	1806
847.393	758
847.484	1454
847.575	873
847.666	1063
847.757	443
847.847	537
847.938	2040
848.029	1067
848.120	1244
848.211	260
848.302	-429
848.392	-274
848.483	941
848.574	-117
848.664	889
848.755	922
848.846	787
848.936	148
849.027	858
849.118	1791
849.208	2534
849.299	3702
849.389	7282
849.480	15008
849.570	29301
849.661	47380
849.751	90993
849.841	42529
849.932	6345
850.022	1661
850.112	2023
850.203	1125
850.293	1228
850.383	857
850.474	711
850.564	609
850.654	725
850.744	1070
850.834	938
850.924	1088
851.014	2550
851.104	1497
851.194	266
851.284	211
851.374	1067
851.464	1067
851.554	271
851.644	131
851.734	1023
851.824	1435
851.914	211
852.004	765
852.094	452
852.183	157
852.273	895
852.363	837
852.452	1254
852.542	1620
852.632	-152
852.721	1158
852.811	291
852.901	1612
852.990	1510
853.080	1486
853.169	2068
853.259	2254
853.348	2314
853.438	3592
853.527	6222
853.617	8091
853.706	16796
853.795	28745
853.885	57908
853.974	105391
854.063	162131
854.152	257689
854.242	141652
854.331	34244
854.420	13273
854.509	8606
854.598	6383
854.687	5037
854.777	4073
854.866	2221
854.955	2938
855.044	572
855.133	1554
855.222	1399
855.311	1388
855.400	889
855.488	552
855.577	220
855.666	902
855.755	1244
855.844	1071
855.933	488
856.021	1160
856.110	432
856.199	223
856.288	476
856.376	308
856.465	-95
856.554	1253
856.642	359
856.731	2183
856.819	201
856.908	513
856.996	538
857.085	-37
857.173	1336
857.262	-282
857.350	-122
857.438	-555
857.527	-169
857.615	1217
857.703	695
857.792	555
857.880	369
857.968	376
858.056	562
858.145	281
858.233	329
858.321	-86
858.409	399
858.497	371
858.585	396
858.673	772
858.761	99
858.849	-24
858.937	536
859.025	166
859.113	850
859.201	876
859.289	988
859.377	1289
859.465	232
859.552	291
859.640	-287
859.728	642
859.816	-701
859.903	685
859.991	340
860.079	868
860.166	280
860.254	292
860.342	797
860.429	-196
860.517	389
860.604	1327
860.692	665
860.779	-92
860.867	-599
860.954	537
861.042	-81
861.129	902
861.216	567
861.304	855
861.391	969
861.478	425
861.565	55
861.653	1292
861.740	-51
861.827	78
861.914	57
862.001	779
862.089	22
862.176	1076
862.263	1168
862.350	-22
862.437	224
862.524	614
862.611	324
862.698	1593
862.785	1311
862.871	2548
862.958	1662
863.045	723
863.132	949
863.219	912
863.306	-480
863.392	556
863.479	751
863.566	1253
863.652	1261
863.739	1729
863.826	1074
863.912	1462
863.999	1393
864.086	825
864.172	542
864.259	1764
864.345	1109
864.432	2102
864.518	1827
864.604	1547
864.691	1866
864.777	2282
864.863	2536
864.950	5352
865.036	6124
865.122	12418
865.209	13682
865.295	12099
865.381	12088
865.467	11491
865.553	13910
865.639	15922
865.726	21740
865.812	37643
865.898	59315
865.984	85513
866.070	130301
866.156	173717
866.242	71677
866.328	23870
866.414	13544
866.499	12712
866.585	10567
866.671	10639
866.757	10042
866.843	10168
866.928	9355
867.014	8662
867.100	9095
867.186	8421
867.271	8441
867.357	8241
867.442	7936
867.528	8528
867.614	7536
867.699	8775
867.785	9256
867.870	8733
867.956	9221
868.041	8904
868.127	7517
868.212	8791
868.297	7838
868.383	8497
868.468	7014
868.553	8757
868.639	7231
868.724	6627
868.809	7999
868.894	6530
868.979	7204
869.065	7966
869.150	6118
869.235	6748
869.320	6366
869.405	5479
869.490	6460
869.575	7563
869.660	5935
869.745	5989
869.830	8107
869.915	6404
870.000	5761
870.085	6830
870.169	6983
870.254	9062
870.339	5658
870.424	5345
870.509	6425
870.593	7103
870.678	7627
870.763	5819
870.847	5028
870.932	6119
871.016	6759
871.101	5496
871.186	5223
871.270	8635
871.355	5789
871.439	5219
871.523	7095
871.608	5807
871.692	4647
871.777	7277
871.861	6293
871.945	4971
872.030	5256
872.114	5827
872.198	4107
872.282	4912
872.367	4474
872.451	5929
872.535	5235
872.619	6122
872.703	4434
872.787	5808
872.871	5007
872.955	4806
873.039	2841
873.123	4654
873.207	6164
873.291	3212
873.375	4097
873.459	5964
873.543	5379
873.627	4486
873.711	3195
873.794	5140
873.878	5118
873.962	3682
874.045	3213
874.129	5034
874.137	4951
874.213	4117
874.245	4367
874.296	4775
874.352	3882
874.380	3442
874.460	5528
874.464	5612
874.547	4458
874.568	4608
874.631	5082
874.676	4931
874.714	4781
874.784	5055
874.798	5106
874.881	4602
874.892	4412
874.965	3196
874.999	3686
875.048	4338
875.107	4997
875.131	5221
875.215	3357
875.215	3356
875.298	2365
875.323	2797
875.381	3876
875.430	5076
875.465	5827
875.538	5278
875.548	5197
875.631	3803
875.646	3652
875.714	3140
875.753	3144
875.798	3129
875.861	3941
875.881	4166
875.964	4679
875.968	4587
876.047	2887
876.076	3170
876.130	3905
876.183	4100
876.213	4137
876.291	4524
876.296	4541
876.379	4466
876.398	4179
876.462	3290
876.506	2964
876.545	2744
876.613	3499
876.628	3644
876.711	3892
876.721	3985
876.794	5011
876.828	5076
876.877	4784
876.935	3747
876.960	3401
877.043	2554
877.043	2558
877.125	4031
877.150	4298
877.208	4861
877.258	4788
877.291	4531
877.365	2801
877.374	2636
877.456	3217
877.472	3146
877.539	2831
877.579	3176
877.622	3790
877.687	4700
877.704	4777
877.787	4151
877.794	4079
877.869	4029
877.901	4528
877.952	4681
878.008	3486
878.034	3142
878.115	2488
878.117	2478
878.199	3007
878.222	3322
878.282	4470
878.329	4600
878.364	4481
878.437	4754
878.447	4747
878.529	3514
878.544	3344
878.611	2561
878.651	2661
878.694	3432
878.758	4653
878.776	4813
878.858	4388
878.865	4387
878.941	3955
878.972	3505
879.023	2911
879.078	3086
879.105	3549
879.185	5022
879.187	5034
879.269	4382
879.292	4352
879.351	4572
879.399	4586
879.433	4339
879.506	3816
879.516	3814
879.598	4251
879.613	4185
879.680	3726
879.720	3716
879.762	4062
879.827	4255
879.844	4100
879.926	4088
879.933	4099
880.007	5206
880.040	5276
880.089	4702
880.147	5034
880.171	5755
880.253	9809
880.254	9819
880.335	10695
880.360	11263
880.417	14952
880.467	20081
880.499	24474
880.574	33292
880.580	33004
880.662	18326
880.680	15676
880.744	8081
880.787	4710
880.825	3807
880.893	4600
880.907	4747
880.989	2905
881.000	2946
881.070	4430
881.106	4790
881.152	4519
881.213	3706
881.233	3438
881.315	3275
881.319	3281
881.396	4462
881.426	4503
881.478	4292
881.532	4628
881.559	4888
881.639	4924
881.641	4895
881.722	3720
881.745	3267
881.803	3722
881.852	4573
881.885	4685
881.958	4144
881.966	4056
882.047	3354
882.064	3215
882.129	3525
882.171	3650
882.210	2958
882.277	1852
882.291	2001
882.372	3442
882.383	3640
882.454	5354
882.489	5832
882.535	5364
882.596	4870
882.616	5024
882.697	5712
882.702	5720
882.778	4394
882.808	3886
882.859	3296
882.914	2836
882.940	2998
883.020	3445
883.021	3454
883.102	3949
883.127	4174
883.183	5737
883.233	6625
883.264	5826
883.339	3460
883.345	3364
883.426	2731
883.445	2563
883.507	2415
883.551	2375
883.587	3314
883.657	5551
883.668	5716
883.749	6112
883.763	6085
883.830	4686
883.869	4051
883.910	3547
883.975	2838
883.991	3039
884.072	4075
884.081	4215
884.152	5290
884.187	5682
884.233	6625
884.292	7389
884.314	6730
884.394	3825
884.398	3714
884.475	2660
884.504	2190
884.555	2444
884.610	2607
884.636	2905
884.716	4129
884.716	4149
884.797	5824
884.821	6152
884.877	5759
884.927	5365
884.958	4923
885.033	3842
885.038	3804
885.118	3434
885.139	3210
885.199	2933
885.244	2835
885.279	3052
885.350	3642
885.359	3968
885.439	6867
885.456	7324
885.520	6214
885.561	5434
885.600	4240
885.667	2510
885.680	2829
885.760	4793
885.773	5043
885.840	3705
885.878	3032
885.920	3133
885.984	3161
886.000	3329
886.080	4374
886.089	4460
886.160	5313
886.195	5775
886.240	5486
886.300	4663
886.320	4688
886.400	5284
886.406	5286
886.480	3947
886.511	3537
886.560	3753
886.616	3720
886.640	3717
886.720	3823
886.722	3815
886.800	4300
886.827	4498
886.879	4566
886.932	4543
886.959	5035
887.038	6405
887.039	6406
887.119	5021
887.143	4555
887.198	4602
887.248	4642
887.278	4518
887.354	4156
887.358	4186
887.437	4543
887.459	4685
887.517	4997
887.564	4982
887.596	4723
887.669	4271
887.676	4169
887.755	2822
887.774	2482
887.835	2816
887.880	3139
887.914	3292
887.985	3376
887.994	3608
888.073	5704
888.090	6126
888.153	7377
888.195	8104
888.232	7000
888.300	5033
888.311	4927
888.391	4031
888.405	3866
888.470	4354
888.510	4570
888.549	4017
888.615	3241
888.628	3514
888.708	4967
888.720	5187
888.787	5464
888.825	5542
888.866	4540
888.930	3054
888.945	3050
889.024	2994
889.035	2978
889.103	5060
889.140	6117
889.182	5253
889.245	4016
889.261	4241
889.340	5194
889.349	5295
889.419	4930
889.454	4719
889.498	4146
889.559	3320
889.577	3622
889.656	4924
889.664	5045
889.735	5956
889.768	6366
889.814	5514
889.873	4349
889.978	5337
890.083	4101
890.187	5071
890.292	6151
890.397	3951
890.501	3990
890.606	3238
890.710	3516
890.815	7231
890.919	5440
891.024	4045
891.128	3933
891.233	3201
891.337	4665
891.442	6841
891.546	3886
891.650	4397
891.755	3437
891.859	5304
891.963	6894
892.068	5400
892.172	3860
892.276	2949
892.380	3284
892.484	5135
892.589	6884
892.693	5955
892.797	2653
892.901	2276
893.005	3201
893.109	6678
893.213	6570
893.317	5492
893.421	2538
893.525	2566
893.629	2236
893.733	6111
893.837	4767
893.941	4331
894.045	3348
894.148	2533
894.252	2393
894.356	4436
894.460	7004
894.564	4194
894.667	4298
894.771	3316
894.875	2415
894.978	3324
895.082	3252
895.186	5911
895.289	3682
895.393	3800
895.496	5466
895.600	4778
895.703	1768
895.807	3491
895.910	2980
896.014	4732
896.117	2657
896.221	3936
896.324	4957
896.427	3229
896.531	2714
896.634	3283
896.737	2853
896.840	3754
896.944	5112
897.047	6109
897.150	4487
897.253	3211
897.356	1286
897.460	1989
897.563	2162
897.666	3895
897.769	5185
897.872	2529
897.975	1962
898.078	3008
898.181	2402
898.284	2755
898.387	4312
898.490	5913
898.593	2887
898.695	2987
898.798	2858
898.901	2807
899.004	2954
899.107	3659
899.209	2051
899.312	5319
899.415	3715
899.518	2916
899.620	1891
899.723	2299
899.826	3325
899.928	2724
900.031	3536
900.133	4828
900.236	2989
900.338	1886
900.441	1843
900.543	3658
900.646	2910
900.748	4010
900.851	3540
900.953	3742
901.055	2061
901.158	3253
901.260	2039
901.362	2574
901.465	1668
901.567	3434
901.669	4570
901.771	2110
901.873	3372
901.976	3309
902.078	3527
902.180	2796
902.282	2127
902.384	3700
902.486	4593
902.588	4535
902.690	2213
902.792	1954
902.894	2454
902.996	5400
903.098	3806
903.200	3657
903.302	1659
903.404	2378
903.505	1601
903.607	3318
903.709	3739
903.811	5564
903.913	3174
904.014	937
904.116	600
904.218	2126
904.319	3311
904.421	5603
904.523	4504
904.624	3800
904.726	2209
904.827	1911
904.929	2749
905.030	2902
905.132	4445
905.233	4884
905.335	1310
905.436	2448
905.537	1645
905.639	2903
905.740	2034
905.841	4862
905.943	2991
906.044	3422
906.145	2138
906.247	2509
906.348	2128
906.449	3733
906.550	3182
906.651	3046
906.752	1998
906.854	2520
906.955	1448
907.056	2882
907.157	3183
907.258	4492
907.359	2578
907.460	2414
907.561	1264
907.662	2350
907.762	2707
907.863	3514
907.964	3832
908.065	2288
908.166	2050
908.267	2577
908.367	2556
908.468	2129
908.569	1504
908.670	4070
908.770	2103
908.871	2831
908.971	3093
909.072	3775
909.173	2334
909.273	2669
909.374	3179
909.474	4057
909.575	2262
909.675	2800
909.776	3098
909.876	3663
909.977	2727
910.077	2621
910.177	3194
910.278	3704
910.378	1852
910.478	2614
910.579	2708
910.679	3428
910.779	3133
910.879	3193
910.980	2784
911.080	4010
911.180	2345
911.280	3073
911.380	1665
911.480	1791
911.580	1452
911.680	3260
911.780	2961
911.880	4260
911.980	1485
912.080	2506
912.180	3379
912.280	2580
912.380	2781
912.480	1188
912.580	1527
912.679	2331
912.779	2694
912.879	3897
912.979	1947
913.078	1862
913.178	1696
913.278	2496
913.377	1900
913.477	1488
913.577	1933
913.676	3573
913.776	2975
913.875	2816
913.975	2322
914.074	2841
914.174	3567
914.273	1696
914.373	2181
914.472	2862
914.572	1239
914.671	1662
914.770	1737
914.870	2391
914.969	1684
915.068	3897
915.167	3310
915.267	2731
915.366	2005
915.465	3020
915.564	1966
915.663	3085
915.763	2211
915.862	3830
915.961	3673
916.060	2580
916.159	2267
916.258	2319
916.357	1817
916.456	2843
916.555	2244
916.654	3118
916.752	2539
916.851	2984
916.950	2633
917.049	2485
917.148	2426
917.247	2419
917.345	1367
917.444	1844
917.543	2200
917.642	3417
917.740	3249
917.839	4339
917.937	4393
918.036	4127
918.135	2036
918.233	2912
918.332	1643
918.430	2647
918.529	1875
918.627	3439
918.726	4145
918.824	3382
918.923	2148
919.021	3345
919.119	2325
919.218	2417
919.316	2370
919.414	3021
919.512	3596
919.611	4595
919.709	2899
919.807	4531
919.905	4023
920.003	5152
920.102	3936
920.200	4087
920.298	4467
920.396	5682
920.494	4294
920.592	3856
920.690	3731
920.788	5059
920.886	3744
920.984	5306
921.082	5419
921.180	5665
921.277	5017
921.375	6746
921.473	8613
921.571	8999
921.669	8507
921.766	7212
921.864	7380
921.962	8858
922.060	6520
922.157	6984
922.255	7691
922.352	8283
922.450	8449
922.548	9801
922.645	8877
922.743	12574
922.840	19801
922.938	23886
923.035	21396
923.133	20850
923.230	22636
923.327	28664
923.425	26809
923.522	26108
923.619	24920
923.717	22375
923.814	20769
923.911	21310
924.008	21457
924.106	21728
924.203	19566
924.300	21347
924.397	20863
924.494	20134
924.591	19401
924.688	19733
924.786	19004
924.883	20106
924.979	19564
925.077	21138
925.173	18854
925.270	19744
925.367	19450
925.464	20923
925.561	20631
925.658	22659
925.755	18006
925.852	21911
925.948	20815
926.045	19589
926.142	20008
926.239	21264
926.335	16396
926.432	19571
926.529	20175
926.625	23143
926.722	18318
926.818	17687
926.915	19246
927.011	19452
927.108	17833
927.204	19149
927.301	16152
927.397	17885
927.494	21580
927.590	15384
927.687	13729
927.783	19842
927.879	19591
927.976	17215
928.072	14370
928.168	16398
928.264	18055
928.361	15544
928.457	18441
928.553	16116
928.649	15171
928.745	18276
928.841	13765
928.937	16929
929.033	16677
929.129	16265
929.225	18360
929.321	16198
929.417	13980
929.513	18293
929.609	15131
929.705	13921
929.801	16564
929.897	14629
929.993	13565
930.089	15861
930.184	13138
930.280	15530
930.376	18986
930.471	15069
930.567	11551
930.663	14272
930.758	12223
930.854	13784
930.950	13701
931.045	12307
931.141	12661
931.236	17619
931.332	15603
931.427	11146
931.523	15911
931.618	15912
931.714	10101
931.809	11552
931.905	15803
932.000	11973
932.095	9560
932.191	15582
932.286	18513
932.381	15188
932.476	9991
932.572	13168
932.667	11221
932.762	11875
932.857	12918
932.952	15956
933.047	12489
933.142	11093
933.237	11551
933.332	14571
933.427	14272
933.522	13484
933.617	10358
933.712	10090
933.807	13893
933.902	15282
933.997	15149
934.092	11615
934.187	11188
934.282	13198
934.376	12412
934.471	14875
934.566	10941
934.661	10480
934.755	12141
934.850	14227
934.945	12028
935.039	9724
935.134	8130
935.228	10808
935.323	16457
935.417	11747
935.512	7551
935.606	8400
935.701	11333
935.795	13791
935.890	11877
935.984	9859
936.079	7455
936.173	11211
936.267	10706
936.362	8444
936.456	10799
936.550	14532
936.644	11241
936.738	9415
936.833	8312
936.927	7377
937.021	9650
937.115	11272
937.209	11547
937.303	10545
937.397	7889
937.491	9086
937.585	11073
937.679	11428
937.773	8558
937.867	8021
937.961	6991
938.055	11835
938.149	10704
938.243	6961
938.337	6621
938.430	8966
938.524	11416
938.618	11427
938.712	8259
938.805	9057
938.899	10480
938.993	13553
939.086	8507
939.180	6265
939.274	8092
939.367	10162
939.461	11597
939.554	9006
939.648	6726
939.741	6660
939.835	9032
939.928	12463
940.022	10371
940.115	8360
940.208	8345
940.302	12021
940.395	12650
940.488	8403
940.582	6623
940.675	7451
940.768	5951
940.861	10248
940.954	10223
941.048	6573
941.141	4214
941.234	7164
941.327	8187
941.420	8558
941.513	8508
941.606	8453
941.699	6626
941.792	9798
941.885	8530
941.978	9118
942.071	7997
942.164	7033
942.257	5410
942.349	7087
942.442	8156
942.535	7295
942.628	5664
942.721	6672
942.813	7292
942.906	7582
942.999	6534
943.091	6029
943.184	6980
943.277	7594
943.369	4910
943.462	4725
943.554	5184
943.647	7623
943.739	8132
943.832	10229
943.924	5173
944.017	4445
944.109	4491
944.201	6216
944.294	4976
944.386	7493
944.478	6319
944.571	5592
944.663	5917
944.755	6299
944.847	7141
944.940	6451
945.032	5304
945.124	4906
945.216	5048
945.308	7341
945.400	5825
945.492	5532
945.584	7982
945.676	9370
945.768	7149
945.860	6846
945.952	8288
946.044	7002
946.136	5008
946.228	5948
946.320	5157
946.412	6721
946.503	7153
946.595	8083
946.687	4996
946.779	4761
946.870	4419
946.962	5335
947.054	5415
947.145	6836
947.237	5375
947.329	6142
947.420	5743
947.512	6667
947.603	3455
947.695	4662
947.786	4247
947.878	5045
947.969	5820
948.061	6590
948.152	6128
948.243	4189
948.335	3459
948.426	3632
948.517	4983
948.609	6339
948.700	5631
948.791	5155
948.882	3680
948.973	4058
949.065	5498
949.156	5316
949.247	4618
949.338	4726
949.429	3391
949.520	4161
949.611	4945
949.702	6664
949.793	4016
949.884	5969
949.975	4476
950.066	3958
950.157	2993
950.247	4852
950.338	3089
950.429	3925
950.520	4374
950.611	4305
950.701	3185
950.792	6359
950.883	5837
950.973	4534
951.064	4667
951.155	6053
951.245	5584
951.336	5637
951.427	5719
951.517	7746
951.608	5203
951.698	4926
951.788	3343
951.879	3339
951.969	3104
952.060	3311
952.150	4870
952.240	7107
952.331	5329
952.421	5163
952.511	3374
952.602	3293
952.692	2590
952.782	4154
952.872	3440
952.962	4986
953.052	3802
953.143	4219
953.233	3292
953.323	4803
953.413	4114
953.503	5843
953.593	4006
953.683	5012
953.773	2521
953.863	2943
953.953	2106
954.042	4141
954.132	4577
954.222	4928
954.312	2576
954.402	3574
954.492	3791
954.581	4597
954.671	3871
954.761	3963
954.850	4223
954.940	2499
955.030	2264
955.119	2486
955.209	2300
955.298	4332
955.388	5035
955.477	5132
955.567	2771
955.656	3371
955.746	2288
955.835	2926
955.925	3408
956.014	3497
956.103	5106
956.193	6181
956.282	5269
956.371	3842
956.461	3977
956.550	3820
956.639	3105
956.728	3713
956.817	3728
956.906	3645
956.995	4737
957.085	4296
957.174	3483
957.263	3369
957.352	2643
957.441	3907
957.530	3841
957.619	2997
957.708	3062
957.796	2774
957.885	3293
957.974	3508
958.063	2624
958.152	2120
958.241	2666
958.329	3081
958.418	2608
958.507	2882
958.596	4209
958.684	2507
958.773	3128
958.861	2795
958.950	1778
959.039	3283
959.127	2422
959.216	3587
959.304	2577
959.393	3171
959.481	3686
959.570	2651
959.658	1481
959.746	1490
959.835	1876
959.923	2353
960.011	2082
960.100	2588
960.188	3360
960.276	4476
960.365	1542
960.453	2173
960.541	1450
960.629	2456
960.717	1304
960.805	1021
960.893	2249
960.981	4048
961.069	4157
961.158	5468
961.245	5706
961.333	4938
961.421	2821
961.509	3387
961.597	3736
961.685	3647
961.773	2389
961.861	4249
961.949	3554
962.036	3617
962.124	2337
962.212	2103
962.299	1610
962.387	2054
962.475	2370
962.562	2447
962.650	3057
962.738	3496
962.825	809
962.913	2667
963.000	2200
963.088	3822
963.175	2656
963.263	2576
963.350	2655
963.438	2758
963.525	2304
963.612	2379
963.700	1316
963.787	2914
963.874	2457
963.962	2403
964.049	1304
964.136	2312
964.223	2093
964.310	2540
964.398	939
964.485	2482
964.572	2637
964.659	3067
964.746	1366
964.833	2177
964.920	2122
965.007	2566
965.094	2091
965.181	2587
965.268	2409
965.355	2663
965.441	2152
965.528	2143
965.615	2828
965.702	2523
965.789	2424
965.875	3102
965.962	2528
966.049	3028
966.136	3456
966.222	4317
966.309	3553
966.395	3214
966.482	3041
966.569	3839
966.655	2786
966.742	3307
966.828	2017
966.915	2251
967.001	2148
967.087	1588
967.174	1875
967.260	2639
967.347	2595
967.433	3161
967.519	3305
967.605	2964
967.692	2605
967.778	2839
967.864	1895
967.950	2963
968.036	2084
968.123	3024
968.209	2585
968.295	1783
968.381	1886
968.467	2713
968.553	1222
968.639	2395
968.725	1656
968.811	3692
968.897	3173
968.983	2526
969.069	2034
969.154	2514
969.240	1839
969.326	937
969.412	1656
969.497	2004
969.583	1446
969.669	3551
969.755	2857
969.840	2855
969.926	4135
970.012	6006
970.097	7030
970.183	6100
970.268	3774
970.354	3227
970.439	2453
970.525	2768
970.610	2149
970.696	3387
970.781	1614
970.866	1211
970.952	2328
971.037	2146
971.122	2233
971.208	3120
971.293	2438
971.378	2056
971.463	1671
971.549	2100
971.634	1045
971.719	2264
971.804	1466
971.889	2122
971.974	1591
972.059	3394
972.144	2038
972.229	2140
972.314	2161
972.399	2595
972.484	1220
972.569	2635
972.654	1308
972.739	2599
972.824	1941
972.908	1939
972.993	954
973.078	1883
973.163	1568
973.247	2748
973.332	553
973.417	2909
973.501	2047
973.586	3356
973.671	1062
973.755	2568
973.840	1899
973.924	2793
974.009	3704
974.093	3718
974.178	4689
974.262	2906
974.346	2244
974.431	2783
974.515	2165
974.600	3594
974.684	1896
974.768	2658
974.852	2401
974.937	2713
975.021	3293
975.105	3489
975.189	2066
975.273	2344
975.358	1925
975.442	2586
975.526	2601
975.610	1408
975.694	1207
975.778	3268
975.862	2050
975.946	508
976.030	2242
976.114	1935
976.198	1892
976.281	2795
976.365	1941
976.449	2619
976.533	1681
976.617	1832
976.700	1633
976.784	2192
976.868	1213
976.951	2143
977.035	1659
977.119	2622
977.202	1742
977.286	2947
977.369	3393
977.453	6242
977.536	5237
977.620	4672
977.703	3000
977.787	2324
977.870	3540
977.953	3310
978.037	1594
978.120	3058
978.203	1988
978.287	3016
978.370	2870
978.453	2242
978.536	1368
978.620	3512
978.703	2169
978.786	2861
978.869	1397
978.952	2572
979.035	3445
979.118	2135
979.201	2353
979.284	2637
979.367	2394
979.450	2156
979.533	2448
979.616	1438
979.699	1394
979.782	2053
979.865	1662
979.948	2619
980.030	2178
980.113	2751
980.196	1728
980.279	2835
980.361	2170
980.444	2579
980.526	2867
980.609	4414
980.692	5221
980.774	5922
980.857	3346
980.939	3899
981.022	3037
981.104	3569
981.187	2313
981.269	2766
981.352	3021
981.434	2821
981.516	2216
981.599	3200
981.681	2956
981.763	2954
981.846	2561
981.928	3782
982.010	3281
982.092	3258
982.174	2257
982.256	2880
982.339	2822
982.421	2719
982.503	3326
982.585	986
982.667	1634
982.749	3093
982.831	2223
982.913	1800
982.995	2820
983.077	2420
983.158	3658
983.240	3509
983.322	3996
983.404	6510
983.486	5509
983.568	5601
983.649	3993
983.731	4819
983.813	3319
983.894	4274
983.976	3307
984.058	4320
984.139	3726
984.221	3679
984.302	3344
984.384	3409
984.465	2781
984.547	3788
984.628	3893
984.710	4041
984.791	2845
984.872	3724
984.954	2756
985.035	4022
985.116	3338
985.198	3539
985.279	3740
985.360	4316
985.441	3903
985.522	4181
985.604	3554
985.685	3214
985.766	4482
985.847	4552
985.928	2384
986.009	3421
986.090	3064
986.171	4512
986.252	3044
986.333	3275
986.414	3380
986.495	3949
986.576	4365
986.656	4640
986.737	3843
986.818	4624
986.899	3748
986.980	5190
987.060	3384
987.141	5195
987.222	4432
987.302	5894
987.383	5132
987.464	5848
987.544	5863
987.625	5933
987.705	5340
987.786	6532
987.866	5004
987.947	6279
988.027	4853
988.108	5250
988.188	4832
988.268	4266
988.349	5040
988.429	4719
988.509	4300
988.589	4234
988.670	3990
988.750	6200
988.830	3838
988.910	4896
988.990	4126
989.070	4495
989.151	4291
989.231	3753
989.311	4831
989.391	4168
989.471	3916
989.551	4410
989.631	3233
989.711	5406
989.791	4093
989.870	3673
989.950	4437
990.030	4104
990.110	3800
990.190	3640
990.269	2854
990.349	4469
990.429	4007
990.509	4473
990.588	2326
990.668	3443
990.747	3302
990.827	3358
990.907	3177
990.986	3210
991.066	3354
991.145	3094
991.225	3477
991.304	4064
991.383	3627
991.463	3381
991.542	3393
991.622	3469
991.701	2413
991.780	3024
991.859	2571
991.939	3150
992.018	2634
992.097	3458
992.176	3383
992.256	2866
992.335	1993
992.414	3029
992.493	2975
992.572	2651
992.651	2996
992.730	3055
992.809	2680
992.888	2102
992.967	2431
993.046	3127
993.125	1349
993.203	2799
993.282	2295
993.361	3435
993.440	1862
993.519	2516
993.597	3086
993.676	2208
993.755	2620
993.834	2798
993.912	1685
993.991	3243
994.069	1883
994.148	2785
994.226	1961
994.305	2183
994.384	1895
994.462	3301
994.540	999
994.619	1369
994.697	2542
994.776	2092
994.854	2791
994.932	1929
995.011	1278
995.089	2061
995.167	1853
995.245	2082
995.324	865
995.402	2863
995.480	1604
995.558	2389
995.636	579
995.714	1784
995.792	2433
995.870	609
995.948	1664
996.026	2449
996.104	732
996.182	3057
996.260	658
996.338	1983
996.416	831
996.494	2616
996.572	1418
996.649	990
996.727	654
996.805	2391
996.883	1136
996.960	1663
997.038	1466
997.116	1767
997.193	886
997.271	1653
997.348	-314
997.426	1697
997.504	1366
997.581	2169
997.658	1152
997.736	221
997.813	481
997.891	1366
997.968	429
998.046	1168
998.123	342
998.200	2347
998.277	841
998.355	1990
998.432	-468
998.509	-380
998.586	1524
998.663	1422
998.741	615
998.818	1574
998.895	-163
998.972	1956
999.049	1451
999.126	416
999.203	-227
999.280	842
999.357	95
999.434	692
999.511	576
999.587	1839
999.664	-204
999.741	882
999.818	630
999.895	519
999.971	111
1000.048	555
1000.125	857
1000.202	574
1000.278	-6
1000.355	1543
1000.431	-385
1000.508	-289
1000.584	287
1000.661	526
1000.738	-475
1000.814	614
1000.890	7
1000.967	1042
1001.043	-323
1001.120	734
1001.196	-280
1001.272	149
1001.349	38
1001.425	481
1001.501	539
1001.577	806
1001.654	1037
1001.730	1324
1001.806	214
1001.882	-78
1001.958	63
1002.034	1489
1002.110	-751
1002.186	-262
1002.262	-240
1002.338	-856
1002.414	120
1002.490	10
1002.566	-227
1002.642	-800
1002.718	109
1002.794	-148
1002.870	-116
1002.945	269
1003.021	-748
1003.097	-100
1003.173	-760
1003.248	259
1003.324	-624
1003.400	518
1003.475	-956
1003.551	-360
1003.626	-585
1003.702	-118
1003.777	-1025
1003.853	-508
1003.928	-537
1004.004	-72
1004.079	-914
1004.155	71
1004.230	-571
1004.305	1405
1004.381	-739
1004.456	246
1004.531	-276
1004.607	125
1004.682	-574
1004.757	741
1004.832	-799
1004.907	-482
1004.982	-320
1005.057	295
1005.133	-339
1005.208	-105
1005.283	-1037
1005.358	-407
1005.433	-989
1005.508	36
1005.583	-1563
1005.657	170
1005.732	-428
1005.807	-291
1005.882	-899
1005.957	-330
1006.032	-492
1006.106	12
1006.181	-747
1006.256	-23
1006.331	-786
1006.405	398
1006.480	-738
1006.554	-255
1006.629	-885
1006.704	-483
1006.778	-717
1006.853	-152
1006.927	-1286
1007.002	-183
1007.076	-954
1007.150	-1016
1007.225	-1190
1007.299	664
1007.373	-1360
1007.448	-63
1007.522	-97
1007.596	-233
1007.671	-457
1007.745	-8
1007.819	-403
1007.893	374
1007.967	-652
1008.041	-634
1008.115	-1541
1008.190	-1060
1008.264	-703
1008.338	-864
1008.412	-456
1008.486	-344
1008.560	-963
1008.633	-205
1008.707	-820
1008.781	181
1008.855	-1509
1008.929	-59
1009.003	-908
1009.076	-676
1009.150	-1267
1009.224	-522
1009.298	-550
1009.371	-524
1009.445	-532
1009.519	-436
1009.592	-1162
1009.666	-920
1009.739	-979
1009.813	-1323
1009.886	-1287
1009.960	-858
1010.033	-1110
1010.107	-414
1010.180	-921
1010.253	-884
1010.327	-1520
1010.400	-421
1010.473	-1330
1010.547	56
1010.620	-1719
1010.693	-544
1010.766	-1398
1010.840	-519
1010.913	-742
1010.986	-1546
1011.059	-1524
1011.132	-817
1011.205	-866
1011.278	-333
1011.351	-2041
1011.424	-610
1011.497	-1777
1011.570	-1436
1011.643	-1305
1011.716	-1208
1011.789	-1857
1011.862	-1063
1011.934	-822
1012.007	-727
1012.080	-1290
1012.153	-981
1012.225	52
1012.298	-783
1012.371	-1880
1012.443	-873
1012.516	-2192
1012.588	-501
1012.661	-1369
1012.733	-1252
1012.806	-1042
1012.879	-586
1012.951	-2188
1013.023	-1205
1013.096	-1064
1013.168	-1520
1013.241	-631
1013.313	-1036
1013.385	-2269
1013.458	-1029
1013.530	-1220
1013.602	-1103
1013.674	-1055
1013.746	-1708
1013.819	-1617
1013.891	-376
1013.963	-1457
1014.035	-816
1014.107	-1121
1014.179	-722
1014.251	-2650
1014.323	-305
1014.395	-1799
1014.467	-350
1014.539	-1234
1014.611	-1776
1014.683	-1776
1014.754	-1003
1014.826	-2064
1014.898	-675
1014.970	-1241
1015.042	-383
1015.113	-1646
1015.185	-1191
1015.257	-1320
1015.328	-683
1015.400	-750
1015.471	-854
1015.543	-1589
1015.615	-700
1015.686	-1903
1015.757	-1698
1015.829	-1228
1015.901	-981
1015.972	-1815
1016.043	-457
1016.115	-1743
1016.186	-900
1016.257	-1954
1016.328	-288
1016.400	-512
1016.471	-1104
1016.542	-1092
1016.613	-874
1016.685	-1717
1016.756	-1711
1016.827	-1619
1016.898	-1738
1016.969	-381
1017.040	-1869
1017.111	-1660
1017.182	-1489
1017.253	-1693
1017.324	-1162
1017.395	-890
1017.466	-437
1017.537	-1373
1017.608	-1480
1017.678	-1714
1017.749	-1182
1017.820	-1469
1017.891	-868
1017.961	-1704
1018.032	-1443
1018.103	-1904
1018.173	-403
1018.244	-1293
1018.315	-1888
1018.385	-1619
1018.456	-1612
1018.526	-1218
1018.597	-1419
1018.667	-1594
1018.738	-1859
1018.808	-2318
1018.878	-1491
1018.949	-1919
1019.019	-949
1019.089	-1471
1019.160	-845
1019.230	-2271
1019.300	-382
1019.371	-1815
1019.441	-707
1019.511	-1268
1019.581	-1329
1019.651	-2100
1019.721	-1160
1019.791	-1282
1019.861	-549
1019.931	-1674
1020.001	-1514
1020.071	-1296
1020.141	-1745
1020.211	-1468
1020.281	-934
1020.351	-2353
1020.421	-434
1020.491	-1132
1020.560	-1500
1020.630	-2050
1020.700	-219
1020.770	-2148
1020.839	-1324
1020.909	-1752
1020.979	-521
1021.048	-2006
1021.118	-743
1021.187	-1645
1021.257	-1367
1021.326	-1637
1021.396	-1006
1021.465	-1690
1021.535	-1337
1021.604	-1721
1021.674	-1250
1021.743	-2082
1021.812	-457
1021.882	-1948
1021.951	-809
1022.020	-1760
1022.089	-554
1022.159	-1492
1022.228	-1094
1022.297	-1186
1022.366	-1569
1022.435	-1031
1022.504	-998
1022.573	-1940
1022.642	-740
1022.711	-1824
1022.781	-1122
1022.849	-860
1022.918	-864
1022.987	-1607
1023.056	-1157
1023.125	-1263
1023.194	-959
1023.263	-1247
1023.331	-1303
1023.400	-1728
1023.469	-1056
1023.538	-1087
1023.606	-1533
1023.675	-1357
1023.744	-505
1023.812	-1360
1023.881	-458
1023.949	-1005
1024.018	-773
1024.086	-1297
1024.155	-844
1024.223	-1632
1024.292	-265
1024.360	-1818
1024.429	-1709
1024.497	-1205
1024.565	-1658
1024.634	-1623
1024.702	-1243
1024.770	-880
1024.838	-969
1024.907	-1567
1024.975	-1488
1025.043	-1774
1025.111	-988
1025.179	-1163
1025.247	-2209
1025.315	-1759
1025.383	-1204
1025.451	-1692
1025.519	-710
1025.587	-1983
1025.655	-1206
1025.723	-1965
1025.791	-1043
1025.859	-2174
1025.927	-1446
1025.995	-2174
1026.062	-1321
1026.130	-1682
1026.198	-1409
1026.266	-1784
1026.333	-505
1026.401	-2260
1026.469	-1861
1026.536	-1429
1026.604	-1446
1026.671	-1715
1026.739	-1040
1026.806	-1895
1026.874	-2148
1026.941	-1975
1027.009	-1026
1027.076	-2191
1027.144	-1443
1027.211	-1393
1027.278	-1315
1027.345	-1108
1027.413	-1210
1027.480	-2259
1027.547	-804
1027.614	-1850
1027.682	-1574
1027.749	-2155
1027.816	-1664
1027.883	-1845
1027.950	-828
1028.017	-1866
1028.084	-545
1028.151	-1542
1028.218	-716
1028.285	-2211
1028.352	-1924
1028.419	-2161
1028.486	-1010
1028.553	-1285
1028.619	-1385
1028.686	-1597
1028.753	-1705
1028.820	-1795
1028.886	-1618
1028.953	-1880
1029.020	-1497
1029.086	-1938
1029.153	-1356
1029.220	-2097
1029.286	-1607
1029.353	-1507
1029.419	-1478
1029.486	-1516
1029.552	-777
1029.619	-788
1029.685	-1229
1029.751	-1492
1029.818	-1273
1029.884	-1727
1029.951	-492
1030.017	-2209
1030.083	-1055
1030.149	-1383
1030.216	-1069
1030.282	-1652
1030.348	-2144
1030.414	-1593
1030.480	-1293
1030.546	-1420
1030.612	-1119
1030.678	-2066
1030.744	-1256
1030.810	-1461
1030.876	-922
1030.942	-1875
1031.008	-1381
1031.074	-1860
1031.140	-916
1031.206	-1985
1031.272	-1292
1031.337	-1978
1031.403	-1009
1031.469	-1276
1031.534	-1205
1031.600	-957
1031.666	-889
1031.731	-1835
1031.797	-1068
1031.863	-1186
1031.928	-2004
1031.994	-1870
1032.059	-693
1032.125	-2107
1032.190	-1879
1032.256	-1958
1032.321	-1205
1032.386	-1555
1032.452	-473
1032.517	-1060
1032.582	-1660
1032.647	-2730
1032.713	-1011
1032.778	-2424
1032.843	-1403
1032.908	-2304
1032.974	-1342
1033.039	-2448
1033.104	-1234
1033.169	-1132
1033.234	-1932
1033.299	-1565
1033.364	-1690
1033.429	-1368
1033.494	-1366
1033.559	-1013
1033.624	-2076
1033.688	-1783
1033.753	-993
1033.818	-658
1033.883	-1000
1033.948	-863
1034.013	-660
1034.077	-893
1034.142	1044
1034.207	870
1034.271	1572
1034.336	3807
1034.400	3423
1034.465	773
1034.530	819
1034.594	-1240
1034.658	-1319
1034.723	-2199
1034.787	-2339
1034.852	-1366
1034.916	-1174
1034.981	-2471
1035.045	-1123
1035.109	-1911
1035.173	-1013
1035.238	-1962
1035.302	-1160
1035.366	-2040
1035.430	-1179
1035.495	-2441
1035.559	-442
1035.623	-1436
1035.687	-1776
1035.751	-2523
1035.815	-1492
1035.879	-2625
1035.943	-1403
1036.007	-1853
1036.071	-1653
1036.135	-1942
1036.198	-690
1036.262	-2001
1036.326	-992
1036.390	-2094
1036.454	-1054
1036.517	-1543
1036.581	-1005
1036.645	-1317
1036.709	-456
1036.772	-2193
1036.836	-1238
1036.900	-1941
1036.963	-1509
1037.026	-1799
1037.090	-1180
1037.154	-1903
1037.217	-1447
1037.280	-2413
1037.344	-995
1037.407	-1539
1037.471	-1535
1037.534	-2449
1037.597	-1110
1037.661	-1610
1037.724	-1577
1037.787	-1794
1037.850	-2014
1037.913	-2217
1037.977	-566
1038.040	-2323
1038.103	-930
1038.166	-2082
1038.229	-1472
1038.292	-2153
1038.355	-1601
1038.418	-2419
1038.481	-1360
1038.544	-2420
1038.607	-595
1038.670	-2157
1038.732	-1177
1038.795	-2008
1038.858	-1881
1038.921	-1882
1038.984	-738
1039.046	-2437
1039.109	-1859
1039.172	-2420
1039.234	-691
1039.297	-2754
1039.360	-1505
1039.422	-1481
1039.485	-1116
1039.547	-2012
1039.610	-1592
1039.672	-2275
1039.734	-1510
1039.797	-1707
1039.859	-1560
1039.922	-1873
1039.984	-1819
1040.046	-2347
1040.109	-1504
1040.171	-1949
1040.233	-1709
1040.295	-1783
1040.358	-1637
1040.420	-2490
1040.482	-804
1040.544	-1690
1040.606	-1537
1040.668	-2045
1040.730	-1692
1040.792	-2040
1040.854	-1019
1040.916	-1879
1040.978	-1634
1041.040	-1577
1041.102	-1773
1041.164	-2161
1041.225	-1640
1041.287	-2715
1041.349	-1213
1041.411	-1965
1041.472	-1608
1041.534	-2352
1041.596	-2027
1041.657	-2565
1041.719	-2265
1041.781	-2013
1041.842	-1304
1041.904	-2353
1041.965	-1526
1042.027	-2095
1042.088	-1773
1042.150	-2573
1042.211	-1175
1042.272	-2083
1042.334	-641
1042.395	-1754
1042.456	-1913
1042.518	-1809
1042.579	-922
1042.640	-1806
1042.701	-1155
1042.763	-2431
1042.824	-1718
1042.885	-2569
1042.946	-1029
1043.007	-2089
1043.068	-1664
1043.129	-2138
1043.190	-1566
1043.251	-2332
1043.312	-1444
1043.373	-2165
1043.434	-1621
1043.495	-2205
1043.556	-1555
1043.616	-1972
1043.677	-1039
1043.738	-1145
1043.799	-1713
1043.859	-2460
1043.920	-2067
1043.981	-2355
1044.041	-2099
1044.102	-1975
1044.162	-1819
1044.223	-2412
1044.284	-2179
1044.344	-1947
1044.405	-1546
1044.465	-1477
1044.525	-1284
1044.586	-1572
1044.646	-1421
1044.707	-2237
1044.767	-800
1044.827	-2607
1044.887	-2183
1044.948	-2099
1045.008	-1389
1045.068	-1860
1045.128	-1614
1045.188	-2509
1045.249	-1455
1045.309	-2216
1045.369	-922
1045.429	-2528
1045.489	-1497
1045.549	-1783
1045.609	-2179
1045.669	-2054
1045.729	-1417
1045.789	-1654
1045.848	-1376
1045.908	-2414
1045.968	-603
1046.028	-3179
1046.088	-1547
1046.147	-1708
1046.207	-1405
1046.267	-2291
1046.326	-1801
1046.386	-1233
1046.446	-702
1046.505	-1878
1046.565	-776
1046.624	-1708
1046.684	-248
1046.743	-1331
1046.803	-802
1046.862	-871
1046.922	0
