'Start Wavelength	183.907
'End Wavelength	1046.922
'Gate Delay	5.000
'Gate Width (ms)	1.050
'Laser Output Level	0.000
'X Position	0.000
'Y Position	0.000
'Z Position	0.000
'Grid Point Number	1.000
'Shot Number	100.000
183.907	1132.000
183.977	510.000
184.047	1478
184.116	1584
184.186	959
184.256	161
184.325	720
184.395	335
184.465	1264
184.534	1148
184.604	969
184.674	698
184.743	1148
184.813	930
184.883	479
184.952	1214
185.022	1482
185.092	1761
185.161	1465
185.231	1372
185.301	1746
185.370	1344
185.440	970
185.509	1498
185.579	501
185.649	1765
185.718	946
185.788	1376
185.857	677
185.927	1365
185.996	1894
186.066	1727
186.136	1399
186.205	1475
186.275	1157
186.344	1262
186.414	2230
186.483	2883
186.553	3903
186.622	3783
186.692	3964
186.761	2393
186.831	2434
186.900	1854
186.970	2357
187.039	1573
187.109	1674
187.178	1488
187.248	651
187.317	2238
187.387	1661
187.456	976
187.526	1847
187.595	2091
187.664	1551
187.734	2762
187.803	1783
187.873	2172
187.942	1682
188.012	1903
188.081	2218
188.150	2816
188.220	4010
188.289	2923
188.358	2728
188.428	2077
188.497	2341
188.567	1888
188.636	2511
188.705	2356
188.775	1409
188.844	1411
188.913	2460
188.983	1798
189.052	2044
189.121	1117
189.191	1522
189.260	1586
189.329	1425
189.399	1236
189.468	1757
189.537	1843
189.606	1531
189.676	1713
189.745	1992
189.814	2068
189.883	1081
189.953	1508
190.022	1799
190.091	1589
190.161	1163
190.230	1390
190.299	1156
190.368	1473
190.437	1649
190.507	2362
190.576	2126
190.645	2572
190.714	1089
190.783	1885
190.853	1861
190.922	2745
190.991	1788
191.060	2061
191.129	1788
191.198	1897
191.268	1538
191.337	1372
191.406	2155
191.475	1727
191.544	2216
191.613	3025
191.682	3336
191.752	2360
191.821	1718
191.890	805
191.959	1474
192.028	1913
192.097	2140
192.166	1562
192.235	680
192.304	2166
192.373	1130
192.442	1681
192.511	1694
192.580	1315
192.650	1812
192.719	2132
192.788	2016
192.857	1811
192.926	2059
192.995	1582
193.064	4585
193.133	2223
193.202	1568
193.271	1927
193.340	1258
193.409	2498
193.478	2861
193.547	2604
193.615	1560
193.684	2081
193.753	1486
193.822	1983
193.891	1291
193.960	2594
194.029	1227
194.098	1998
194.167	2004
194.236	2503
194.305	2290
194.374	1534
194.443	1726
194.512	1551
194.580	2163
194.649	1247
194.718	1693
194.787	2297
194.856	1544
194.925	2019
194.994	1011
195.062	1771
195.131	1839
195.200	2439
195.269	2431
195.338	2200
195.407	2391
195.475	1913
195.544	1479
195.613	1766
195.682	2135
195.751	1983
195.819	1653
195.888	1341
195.957	2576
196.026	1800
196.094	1720
196.163	1822
196.232	1587
196.301	2063
196.369	1912
196.438	2197
196.507	2739
196.576	2038
196.644	1515
196.713	1431
196.782	1317
196.850	1592
196.919	1557
196.988	1383
197.056	1812
197.125	2076
197.194	2009
197.262	1617
197.331	1436
197.400	2825
197.468	1392
197.537	1158
197.606	1636
197.674	1477
197.743	1624
197.812	1166
197.880	1259
197.949	1583
198.017	1489
198.086	1615
198.155	1711
198.223	1751
198.292	1594
198.360	2310
198.429	1481
198.497	2069
198.566	2043
198.635	1426
198.703	2235
198.772	1094
198.840	1571
198.909	1171
198.977	1716
199.046	2621
199.114	1632
199.183	1670
199.251	2735
199.320	1469
199.388	1399
199.457	1754
199.525	2406
199.594	1703
199.662	2413
199.731	3409
199.799	2506
199.867	3400
199.936	3619
200.004	3006
200.073	2908
200.141	2318
200.210	2211
200.278	3180
200.346	4296
200.415	3911
200.483	3143
200.552	4291
200.620	3854
200.688	2671
200.757	2949
200.825	2156
200.893	2182
200.962	2132
201.030	1810
201.098	2103
201.167	1882
201.235	2280
201.303	2122
201.372	2120
201.440	2575
201.508	2555
201.577	2449
201.645	2694
201.713	2662
201.781	2377
201.850	2259
201.918	1665
201.986	2014
202.055	1894
202.123	2266
202.191	2035
202.259	2203
202.327	1933
202.396	1882
202.464	1786
202.532	2617
202.600	5502
202.669	2639
202.737	2307
202.805	1582
202.873	2265
202.941	2170
203.009	1832
203.078	2640
203.146	3460
203.214	2100
203.282	1879
203.350	2898
203.418	4464
203.487	2806
203.555	2044
203.623	1786
203.691	1952
203.759	2252
203.827	2432
203.895	3398
203.963	2492
204.031	3893
204.099	3481
204.168	2746
204.236	3175
204.304	3143
204.372	2559
204.440	2542
204.508	2101
204.576	1344
204.644	2433
204.712	2791
204.780	3216
204.848	3445
204.916	1965
204.984	1458
205.052	2281
205.120	2683
205.188	2161
205.256	1575
205.324	2023
205.392	2593
205.460	2809
205.528	2092
205.596	2420
205.664	2699
205.732	2013
205.799	1657
205.867	1798
205.935	1380
206.003	2695
206.071	2052
206.139	2654
206.207	1745
206.275	1301
206.343	2239
206.411	2815
206.478	2841
206.546	3049
206.614	2501
206.682	3830
206.750	3861
206.818	5561
206.885	5215
206.953	3711
207.021	3768
207.089	2538
207.157	2307
207.225	3040
207.292	1538
207.360	1724
207.428	1912
207.496	2857
207.563	2529
207.631	2473
207.699	2821
207.767	2758
207.834	2624
207.902	3169
207.970	2607
208.038	2895
208.105	2949
208.173	3222
208.241	2367
208.309	2659
208.376	3018
208.444	3349
208.512	3500
208.579	4078
208.647	5545
208.715	5719
208.782	3827
208.850	3030
208.918	3301
208.985	3174
209.053	2412
209.120	2950
209.188	2457
209.256	2298
209.323	2230
209.391	2535
209.459	3112
209.526	2318
209.594	2641
209.661	2858
209.729	2813
209.796	3713
209.864	5413
209.932	3323
209.999	3176
210.067	2737
210.134	2967
210.202	3648
210.269	5364
210.337	9672
210.404	4959
210.472	3642
210.539	2909
210.607	2558
210.674	2272
210.742	2769
210.809	2155
210.877	3321
210.944	3167
211.012	3177
211.079	4345
211.146	4125
211.214	6256
211.281	13011
211.349	7354
211.416	3855
211.484	3508
211.551	2801
211.618	3877
211.686	3611
211.753	3206
211.821	4694
211.888	3780
211.955	5033
212.023	3700
212.090	3484
212.157	2313
212.225	2749
212.292	3176
212.359	2306
212.427	2613
212.494	2423
212.561	2155
212.629	1771
212.696	1738
212.763	1887
212.831	2442
212.898	2202
212.965	2212
213.032	2192
213.100	1833
213.167	2642
213.234	3352
213.301	3194
213.369	2424
213.436	2654
213.503	1897
213.570	3183
213.638	2509
213.705	1712
213.772	2197
213.839	2264
213.906	2673
213.973	3032
214.041	1512
214.108	2241
214.175	2384
214.242	2931
214.309	2642
214.376	3625
214.444	3120
214.511	3765
214.578	4446
214.645	5275
214.712	5541
214.779	5128
214.846	5131
214.913	6453
214.980	8844
215.048	11290
215.115	10898
215.182	9156
215.249	6657
215.316	5234
215.383	5068
215.450	4078
215.517	3999
215.584	4091
215.651	3111
215.718	3132
215.785	3694
215.852	2056
215.919	3344
215.986	3668
216.053	3340
216.120	2570
216.187	2929
216.254	2727
216.321	2279
216.388	2719
216.455	2569
216.522	3242
216.589	3138
216.656	4689
216.722	4252
216.789	2659
216.856	1783
216.923	2018
216.990	2664
217.057	2760
217.124	3568
217.191	3166
217.258	3822
217.324	2180
217.391	2385
217.458	2517
217.525	2649
217.592	2875
217.659	2774
217.725	3106
217.792	4544
217.859	3685
217.926	3135
217.993	2014
218.059	2994
218.126	3317
218.193	3213
218.260	3380
218.327	2731
218.393	2257
218.460	2902
218.527	2574
218.594	3159
218.660	3921
218.727	4189
218.794	2871
218.860	3828
218.927	3182
218.994	2502
219.061	2959
219.127	3684
219.194	4348
219.261	3420
219.327	2948
219.394	3574
219.461	2931
219.527	3618
219.594	4133
219.661	4184
219.727	4917
219.794	7451
219.860	6937
219.927	10911
219.994	20640
220.060	25651
220.127	26550
220.193	16912
220.260	10663
220.326	6964
220.393	5684
220.460	3834
220.526	3746
220.593	3835
220.659	4705
220.726	3008
220.792	3293
220.859	5951
220.925	3592
220.992	3271
221.058	2910
221.125	2716
221.191	2190
221.258	2881
221.324	2822
221.391	2365
221.457	2626
221.524	2673
221.590	3490
221.657	3465
221.723	2807
221.789	2565
221.856	3379
221.922	3058
221.989	4339
222.055	5310
222.121	5754
222.188	6727
222.254	4661
222.321	5245
222.387	3951
222.453	3821
222.520	2916
222.586	2829
222.652	2918
222.719	3224
222.785	3121
222.851	3706
222.918	3326
222.984	2414
223.050	2206
223.116	1896
223.183	2967
223.249	2466
223.315	1823
223.382	2322
223.448	2361
223.514	1908
223.580	2237
223.647	1921
223.713	1972
223.779	2176
223.845	2787
223.911	2457
223.978	1986
224.044	2637
224.110	2374
224.176	3277
224.242	2981
224.309	2073
224.375	2285
224.441	2516
224.507	2147
224.573	1969
224.639	2832
224.705	2335
224.772	2618
224.838	1950
224.904	3600
224.970	2552
225.036	2536
225.102	2633
225.168	4999
225.234	4510
225.300	4169
225.366	4748
225.432	3305
225.499	5557
225.565	4718
225.631	4208
225.697	5019
225.763	3922
225.829	3403
225.895	3054
225.961	3701
226.027	4741
226.093	3833
226.159	5839
226.225	6558
226.291	4301
226.357	3948
226.423	4611
226.489	5871
226.554	4062
226.620	4270
226.686	4029
226.752	4627
226.818	3484
226.884	4466
226.950	4571
227.016	6463
227.082	7636
227.148	7087
227.214	7551
227.279	9498
227.345	12940
227.411	20434
227.477	37139
227.543	44858
227.609	55091
227.674	35852
227.740	22537
227.806	14250
227.872	11196
227.938	8849
228.003	7287
228.069	6818
228.135	4925
228.201	5320
228.267	3851
228.332	4646
228.398	3977
228.464	4320
228.530	2847
228.595	3871
228.661	2955
228.727	3659
228.792	3920
228.858	3962
228.924	2242
228.990	4041
229.055	2870
229.121	3102
229.187	3460
229.252	2992
229.318	3513
229.384	3225
229.449	3420
229.515	2815
229.581	2487
229.646	3720
229.712	2648
229.777	4632
229.843	3850
229.909	3650
229.974	3772
230.040	2999
230.105	2608
230.171	2449
230.236	2834
230.302	2248
230.368	4338
230.433	5784
230.499	3319
230.564	2635
230.630	3022
230.695	3601
230.761	3284
230.826	1936
230.892	3839
230.957	3097
231.023	2399
231.088	3311
231.154	3206
231.219	2712
231.284	3687
231.350	4163
231.415	2475
231.481	3068
231.546	2645
231.612	2242
231.677	2850
231.742	1757
231.808	3272
231.873	2409
231.939	2336
232.004	3920
232.069	3543
232.135	2779
232.200	3048
232.265	3401
232.331	3211
232.396	2700
232.461	2766
232.527	4287
232.592	3382
232.657	5936
232.723	5033
232.788	3596
232.853	4084
232.918	4474
232.984	4191
233.049	3884
233.114	5817
233.179	6595
233.245	5747
233.310	3752
233.375	3374
233.440	4695
233.506	6817
233.571	4496
233.636	3645
233.701	3245
233.766	2703
233.832	2397
233.897	3508
233.962	2565
234.027	4305
234.092	4067
234.157	5471
234.222	6771
234.288	6031
234.353	5776
234.418	4166
234.483	3745
234.548	3414
234.613	3639
234.678	3848
234.743	3014
234.808	5244
234.873	3163
234.938	3606
235.004	3473
235.069	3723
235.134	2937
235.199	3652
235.264	3347
235.329	3118
235.394	3583
235.459	3415
235.524	4360
235.589	3347
235.654	3321
235.719	2743
235.784	4126
235.849	3392
235.913	3745
235.978	3793
236.043	3792
236.108	3884
236.173	4043
236.238	3518
236.303	3226
236.368	3307
236.433	4104
236.498	3955
236.563	3172
236.627	3154
236.692	3193
236.757	2970
236.822	3802
236.887	3753
236.952	3211
237.017	2243
237.081	2995
237.146	3784
237.211	3128
237.276	3098
237.341	4083
237.405	3812
237.470	3841
237.535	3248
237.600	3775
237.664	3737
237.729	2315
237.794	3145
237.859	3557
237.923	3004
237.988	3574
238.053	4407
238.118	4377
238.182	8173
238.247	6893
238.312	3467
238.376	4880
238.441	3208
238.506	5099
238.570	3952
238.635	4280
238.700	4550
238.764	4292
238.829	5345
238.893	5440
238.958	5170
239.023	7220
239.087	7817
239.152	8760
239.216	7463
239.281	6641
239.346	6560
239.410	6930
239.475	8559
239.539	13294
239.604	12788
239.668	19059
239.733	33013
239.797	69702
239.862	95094
239.926	77789
239.991	40021
240.055	22313
240.120	15930
240.184	12409
240.249	8978
240.313	7689
240.378	7245
240.442	7906
240.507	7608
240.571	5713
240.635	5612
240.700	5497
240.764	4763
240.829	5524
240.893	4961
240.957	4031
241.022	6151
241.086	6923
241.151	5134
241.215	4397
241.279	5142
241.344	4281
241.408	4046
241.472	3432
241.537	4348
241.601	4055
241.665	3736
241.730	3340
241.794	4365
241.858	3861
241.922	3914
241.987	4519
242.051	4007
242.115	4304
242.179	4671
242.244	4115
242.308	4171
242.372	4685
242.436	3822
242.501	3429
242.565	3218
242.629	3205
242.693	4776
242.757	3850
242.822	3418
242.886	4585
242.950	4104
243.014	3714
243.078	3607
243.142	4025
243.206	3635
243.271	3276
243.335	3143
243.399	3429
243.463	3323
243.527	3757
243.591	3133
243.655	3935
243.719	2826
243.783	4229
243.847	3470
243.911	3957
243.975	4888
244.040	3642
244.104	4864
244.168	4337
244.232	3926
244.296	3980
244.360	4275
244.424	2637
244.488	3711
244.552	4664
244.615	3852
244.679	3918
244.743	3883
244.807	3283
244.871	4064
244.935	4517
244.999	3573
245.063	4101
245.127	5384
245.191	4213
245.255	4102
245.319	3824
245.383	3316
245.446	5465
245.510	4072
245.574	4120
245.638	4199
245.702	3931
245.766	5717
245.829	5510
245.893	4372
245.957	4524
246.021	6032
246.085	6432
246.149	4494
246.212	9460
246.276	11251
246.340	6267
246.404	5185
246.467	6206
246.531	4252
246.595	4957
246.659	4792
246.722	3669
246.786	5492
246.850	6038
246.913	5821
246.977	4283
247.041	5191
247.104	4956
247.168	5442
247.232	10078
247.295	16222
247.359	6558
247.423	4857
247.486	6557
247.550	5859
247.614	4675
247.677	5614
247.741	5596
247.804	6842
247.868	10010
247.932	10726
247.995	15533
248.059	7427
248.122	5376
248.186	6578
248.249	8133
248.313	32091
248.376	20324
248.440	13886
248.503	5914
248.567	7068
248.630	6358
248.694	7035
248.757	14025
248.821	27824
248.884	12740
248.948	14896
249.011	20275
249.075	33926
249.138	20928
249.202	8688
249.265	6185
249.328	7275
249.392	4712
249.455	7122
249.519	8243
249.582	7948
249.645	10001
249.709	8466
249.772	5387
249.835	6808
249.899	8518
249.962	7799
250.025	5327
250.089	12854
250.152	10738
250.215	6335
250.279	5350
250.342	5432
250.405	5840
250.468	4685
250.532	5235
250.595	5938
250.658	5806
250.721	6002
250.785	5807
250.848	6558
250.911	4803
250.974	6333
251.038	10042
251.101	14374
251.164	6244
251.227	6416
251.290	5075
251.354	5431
251.417	5230
251.480	4941
251.543	4512
251.606	5777
251.669	4839
251.732	6227
251.795	14816
251.859	9126
251.922	4970
251.985	4737
252.048	4854
252.111	5368
252.174	5236
252.237	14711
252.300	25450
252.363	10483
252.426	13257
252.489	7022
252.552	5636
252.615	4539
252.678	8340
252.741	23116
252.804	8965
252.867	10913
252.930	14788
252.993	9588
253.056	7627
253.119	5482
253.182	5656
253.245	5250
253.308	7254
253.371	6188
253.434	5735
253.497	8391
253.559	11924
253.622	8434
253.685	9719
253.748	7222
253.811	6297
253.874	7885
253.937	6372
254.000	6767
254.062	12231
254.125	13995
254.188	9637
254.251	7218
254.314	7245
254.376	8736
254.439	8019
254.502	7661
254.565	12025
254.628	14812
254.690	8253
254.753	6641
254.816	6452
254.878	7688
254.941	14649
255.004	11024
255.067	7127
255.129	6593
255.192	7428
255.255	6521
255.317	7965
255.380	6597
255.443	9983
255.505	10858
255.568	6993
255.631	7004
255.693	12491
255.756	11540
255.819	14716
255.881	13779
255.944	7852
256.006	7026
256.069	7543
256.132	7211
256.194	7861
256.257	8424
256.319	9613
256.382	21043
256.444	23034
256.507	17711
256.569	11087
256.632	7793
256.694	7497
256.757	6984
256.819	7371
256.882	6428
256.944	7443
257.007	8258
257.069	7356
257.132	7430
257.194	8421
257.257	7201
257.319	6717
257.381	6621
257.444	7991
257.506	7664
257.569	14008
257.631	20596
257.693	9919
257.756	8459
257.818	7667
257.880	7673
257.943	7239
258.005	6980
258.067	6935
258.130	7266
258.192	8077
258.254	7842
258.317	7284
258.379	8936
258.441	11991
258.503	10158
258.566	10348
258.628	9708
258.690	6848
258.753	8987
258.815	8525
258.877	7950
258.939	7574
259.001	8316
259.064	8218
259.126	7142
259.188	8834
259.250	9511
259.312	10975
259.375	19220
259.437	10995
259.499	9506
259.561	10120
259.623	8858
259.685	7623
259.747	8558
259.809	12044
259.872	12659
259.934	20817
259.996	13330
260.058	9221
260.120	7934
260.182	8476
260.244	8139
260.306	8362
260.368	7852
260.430	8555
260.492	8697
260.554	17373
260.616	12792
260.678	12464
260.740	11347
260.802	9233
260.864	8690
260.926	7557
260.988	9022
261.050	9380
261.112	8665
261.174	14001
261.236	11019
261.298	9332
261.359	10589
261.421	11559
261.483	9158
261.545	9383
261.607	8755
261.669	9739
261.731	11403
261.793	12409
261.854	8364
261.916	9382
261.978	8666
262.040	8780
262.102	8781
262.164	8648
262.225	8929
262.287	9601
262.349	9606
262.411	9607
262.472	9571
262.534	9380
262.596	10500
262.658	9438
262.719	8455
262.781	10205
262.843	9427
262.904	10043
262.966	9509
263.028	9156
263.090	12245
263.151	12713
263.213	10614
263.275	10250
263.336	9206
263.398	9593
263.459	7718
263.521	10543
263.583	11710
263.644	10235
263.706	9611
263.767	9283
263.829	10591
263.891	8759
263.952	8368
264.014	8758
264.075	9084
264.137	9240
264.198	9770
264.260	8743
264.321	9801
264.383	9692
264.444	9721
264.506	9117
264.567	9395
264.629	9274
264.690	9190
264.752	9524
264.813	9915
264.875	8440
264.936	9976
264.998	11680
265.059	14529
265.120	12482
265.182	10775
265.243	10361
265.305	12896
265.366	11332
265.427	10240
265.489	12859
265.550	10083
265.611	11544
265.673	11798
265.734	10677
265.795	9481
265.857	9639
265.918	8586
265.979	10974
266.040	9562
266.102	9446
266.163	10018
266.224	9341
266.286	10173
266.347	10048
266.408	10770
266.469	11189
266.530	11410
266.592	10071
266.653	12121
266.714	12468
266.775	10928
266.836	10742
266.898	9578
266.959	9883
267.020	9346
267.081	11537
267.142	9778
267.203	9848
267.264	9286
267.326	11234
267.387	10500
267.448	10251
267.509	11083
267.570	10392
267.631	9828
267.692	9351
267.753	10858
267.814	9533
267.875	11265
267.936	11282
267.997	9965
268.058	9801
268.119	9486
268.180	11080
268.241	8757
268.302	10152
268.363	9609
268.424	10414
268.485	9658
268.546	9967
268.607	9924
268.668	10397
268.729	9621
268.790	10806
268.851	11088
268.912	11783
268.972	11644
269.033	10143
269.094	10081
269.155	10836
269.216	10605
269.277	10095
269.338	10493
269.398	10679
269.459	9191
269.520	10006
269.581	9769
269.642	10613
269.702	9690
269.763	10650
269.824	10799
269.885	10781
269.945	10799
270.006	10982
270.067	10219
270.128	10299
270.188	10270
270.249	10843
270.310	10837
270.370	11910
270.431	11293
270.492	10573
270.553	10665
270.613	12359
270.674	12928
270.734	10941
270.795	11151
270.856	10842
270.916	11019
270.977	11037
271.038	11503
271.098	10932
271.159	11369
271.219	11054
271.280	11596
271.340	11264
271.401	11281
271.462	12129
271.522	12267
271.583	11987
271.643	12043
271.704	11843
271.764	12019
271.825	14725
271.885	36484
271.946	32275
272.006	17256
272.066	30395
272.127	46889
272.187	61507
272.248	27473
272.308	19735
272.369	24904
272.429	15142
272.489	14621
272.550	13238
272.610	13853
272.671	13050
272.731	14440
272.791	14896
272.852	13482
272.912	13011
272.972	12525
273.033	12753
273.093	11713
273.153	12933
273.214	12236
273.274	12735
273.334	18294
273.394	19830
273.455	14303
273.515	16880
273.575	17027
273.635	13437
273.696	19090
273.756	24206
273.816	14967
273.876	13773
273.936	15104
273.997	15542
274.057	12389
274.117	12938
274.177	15859
274.237	29796
274.297	21554
274.358	17250
274.418	20471
274.478	15653
274.538	14530
274.598	13459
274.658	16480
274.718	15145
274.778	14119
274.838	13841
274.898	16502
274.958	22061
275.018	29779
275.078	18028
275.138	14999
275.198	14214
275.258	13927
275.318	13828
275.378	14617
275.438	15345
275.498	13938
275.558	17270
275.618	21207
275.678	19556
275.738	19516
275.798	16766
275.858	14387
275.918	14367
275.978	14292
276.038	17228
276.098	16789
276.157	17158
276.217	20454
276.277	16317
276.337	14847
276.397	16339
276.457	17613
276.517	15712
276.576	13970
276.636	15262
276.696	15874
276.756	16547
276.815	16699
276.875	16320
276.935	15439
276.995	16555
277.055	22157
277.114	22070
277.174	16028
277.234	14892
277.293	12993
277.353	12408
277.413	11551
277.472	12721
277.532	13161
277.592	13853
277.651	25492
277.711	25426
277.771	21215
277.830	33378
277.890	22532
277.950	37476
278.009	58825
278.069	25936
278.128	31872
278.188	29431
278.248	24269
278.307	37177
278.367	22410
278.426	17954
278.486	17204
278.545	15264
278.605	14428
278.664	14611
278.724	14210
278.783	21691
278.843	24840
278.902	16885
278.962	14188
279.021	15258
279.081	15303
279.140	14603
279.199	14423
279.259	15392
279.318	16332
279.378	19667
279.437	38977
279.496	100451
279.556	191904
279.615	88866
279.675	33074
279.734	26070
279.793	46146
279.853	67155
279.912	27621
279.971	22132
280.031	21995
280.090	50174
280.149	51486
280.208	37554
280.268	133852
280.327	79875
280.386	28583
280.445	22814
280.505	18798
280.564	17080
280.623	15980
280.682	17141
280.742	18090
280.801	15320
280.860	15384
280.919	15724
280.978	15164
281.037	14935
281.097	12929
281.156	15328
281.215	16332
281.274	17745
281.333	21673
281.392	16930
281.451	15239
281.510	14840
281.569	14443
281.628	13920
281.688	14904
281.747	14027
281.806	14086
281.865	13960
281.924	14169
281.983	14146
282.042	14179
282.101	14343
282.160	13900
282.219	15011
282.278	15063
282.337	15450
282.396	15218
282.454	14767
282.513	15430
282.572	17929
282.631	14464
282.690	14177
282.749	13361
282.808	13912
282.867	14716
282.926	13780
282.985	13949
283.043	13171
283.102	14777
283.161	14491
283.220	16457
283.279	17569
283.338	15116
283.396	14275
283.455	14731
283.514	14527
283.573	14701
283.631	14673
283.690	14604
283.749	14277
283.808	16031
283.866	15878
283.925	14768
283.984	16256
284.043	15105
284.101	15591
284.160	14912
284.219	16302
284.277	15660
284.336	16382
284.395	21236
284.453	18171
284.512	16253
284.570	17801
284.629	17264
284.688	16691
284.746	16767
284.805	17838
284.863	19567
284.922	21495
284.981	23168
285.039	30737
285.098	46013
285.156	123645
285.215	301440
285.273	204276
285.332	82110
285.390	47772
285.449	33817
285.507	26670
285.566	22580
285.624	21477
285.683	19925
285.741	17584
285.799	17416
285.858	16444
285.916	15984
285.975	14943
286.033	15809
286.091	15875
286.150	15375
286.208	16315
286.267	16037
286.325	15815
286.383	16685
286.442	16702
286.500	16098
286.558	15550
286.616	15094
286.675	16335
286.733	16322
286.791	14927
286.850	16781
286.908	14999
286.966	15730
287.024	15117
287.083	15588
287.141	16190
287.199	16385
287.257	15382
287.315	15356
287.374	15482
287.432	15909
287.490	15627
287.548	14625
287.606	14857
287.664	15781
287.723	15270
287.781	16204
287.839	15020
287.897	15425
287.955	15718
288.013	14979
288.071	15386
288.129	15201
288.187	16086
288.245	16090
288.303	15053
288.361	16064
288.419	15349
288.477	15331
288.535	15565
288.593	15357
288.651	15606
288.709	14700
288.767	15564
288.825	14568
288.883	15999
288.941	16155
288.999	14818
289.057	15004
289.115	15580
289.173	15156
289.231	15263
289.289	14704
289.346	15794
289.404	18804
289.462	16256
289.520	16423
289.578	15853
289.636	16111
289.694	15824
289.751	15497
289.809	16576
289.867	16131
289.925	17252
289.983	15400
290.040	15762
290.098	15657
290.156	14326
290.214	16074
290.271	16503
290.329	18106
290.387	17526
290.444	16401
290.502	16024
290.560	15597
290.617	15661
290.675	15750
290.733	15979
290.790	15554
290.848	16642
290.906	16130
290.963	15788
291.021	16143
291.078	15866
291.136	15368
291.194	17628
291.251	17875
291.309	15614
291.366	15738
291.424	15985
291.481	16023
291.539	16677
291.596	16865
291.654	16153
291.711	16647
291.769	16847
291.826	16740
291.884	16773
291.941	16073
291.999	16707
292.056	16582
292.114	17349
292.171	17424
292.228	19773
292.286	19958
292.343	17931
292.401	17409
292.458	16780
292.515	17666
292.573	19633
292.630	18839
292.687	16075
292.745	16154
292.802	15838
292.859	18195
292.917	18447
292.974	17377
293.031	16323
293.089	15542
293.146	16277
293.203	17173
293.260	16764
293.318	17628
293.375	16251
293.432	17088
293.489	18336
293.546	17116
293.604	17414
293.661	23687
293.718	28831
293.775	19602
293.832	20921
293.889	21264
293.947	20806
294.004	17692
294.061	17188
294.118	19973
294.175	20078
294.232	18718
294.289	16777
294.346	18662
294.403	18445
294.460	16707
294.517	17709
294.574	18760
294.631	18951
294.688	19381
294.745	22421
294.802	29158
294.859	21269
294.916	20014
294.973	18216
295.030	17747
295.087	16067
295.144	16698
295.201	16613
295.258	16558
295.315	17541
295.372	23034
295.429	23445
295.486	18185
295.542	16955
295.599	16725
295.656	17566
295.713	18391
295.770	20594
295.827	16918
295.883	16587
295.940	16305
295.997	16742
296.054	16040
296.111	16051
296.167	16298
296.224	15847
296.281	16157
296.338	16996
296.394	16827
296.451	16373
296.508	18126
296.564	20010
296.621	21540
296.678	38656
296.734	33783
296.791	20508
296.848	18541
296.904	18748
296.961	20081
297.018	24534
297.074	18621
297.131	17657
297.187	17634
297.244	19615
297.301	34556
297.357	35619
297.414	19833
297.470	19080
297.527	17873
297.583	16773
297.640	17941
297.696	17005
297.753	17111
297.809	16682
297.866	16082
297.922	17039
297.979	17194
298.035	16633
298.092	17858
298.148	20742
298.204	19634
298.261	18630
298.317	25326
298.374	34249
298.430	23427
298.486	19967
298.543	18238
298.599	18820
298.656	17387
298.712	18011
298.768	18885
298.824	17503
298.881	17380
298.937	17297
298.993	18087
299.050	17710
299.106	18918
299.162	18641
299.218	19049
299.275	20172
299.331	22430
299.387	31489
299.443	70542
299.500	125785
299.556	75889
299.612	44682
299.668	57410
299.724	128096
299.780	99536
299.837	48648
299.893	50343
299.949	105912
300.005	106764
300.061	113177
300.117	124164
300.173	55441
300.229	35549
300.285	29887
300.341	28018
300.397	25625
300.453	25272
300.510	28159
300.566	37032
300.622	76735
300.678	188679
300.734	151110
300.790	78349
300.845	68799
300.901	116910
300.957	111766
301.013	53397
301.069	34301
301.125	28226
301.181	24217
301.237	21977
301.293	21153
301.349	19009
301.405	19760
301.461	19329
301.516	18022
301.572	18584
301.628	18695
301.684	18300
301.740	20080
301.796	20658
301.851	18678
301.907	21351
301.963	23147
302.019	42591
302.074	76251
302.130	58145
302.186	32388
302.242	22745
302.297	21220
302.353	20479
302.409	20681
302.464	19531
302.520	20900
302.576	29013
302.631	24892
302.687	19451
302.743	17742
302.798	16255
302.854	16021
302.910	16927
302.965	16599
303.021	17292
303.076	17259
303.132	17002
303.187	16978
303.243	16572
303.299	16435
303.354	16139
303.410	16376
303.465	15975
303.521	16118
303.576	17066
303.632	16995
303.687	20606
303.743	29436
303.798	22455
303.853	18064
303.909	17434
303.964	16792
304.020	16386
304.075	16409
304.130	16658
304.186	17461
304.241	18442
304.297	19059
304.352	17618
304.358	17566
304.407	17149
304.449	17026
304.463	16977
304.518	17261
304.539	16878
304.573	16274
304.629	16754
304.630	16808
304.684	19519
304.720	26369
304.739	29698
304.794	29935
304.811	27370
304.850	21211
304.902	18061
304.905	17872
304.960	16849
304.992	15424
305.015	14392
305.071	14892
305.083	14969
305.126	15259
305.173	15260
305.181	15269
305.236	15883
305.264	16135
305.292	16356
305.347	16790
305.354	16775
305.402	16748
305.445	16238
305.457	16074
305.512	15754
305.535	15805
305.567	15865
305.622	15375
305.626	15473
305.678	17935
305.716	21720
305.733	22958
305.788	22178
305.807	22140
305.843	23284
305.897	30612
305.898	30676
305.953	25224
305.988	20606
306.008	18560
306.063	16526
306.078	16344
306.118	16071
306.168	14941
306.173	14858
306.228	15684
306.259	15283
306.283	14825
306.338	14867
306.349	14931
306.393	15366
306.440	16060
306.448	16219
306.503	16279
306.530	15862
306.558	15493
306.613	15964
306.620	16134
306.668	18215
306.711	21403
306.723	21774
306.778	19027
306.801	17981
306.833	16942
306.888	16702
306.892	16635
306.943	16324
306.982	15775
306.997	15616
307.052	15578
307.072	15779
307.107	16643
307.162	18158
307.163	18143
307.217	16545
307.253	15780
307.272	15593
307.327	15267
307.343	15106
307.381	15006
307.434	14882
307.436	14925
307.491	15784
307.524	17037
307.546	17522
307.600	17565
307.614	17316
307.655	16026
307.704	14631
307.710	14595
307.765	14713
307.795	14830
307.819	14986
307.874	15461
307.885	15633
307.929	16105
307.975	16561
307.984	16697
308.038	15901
308.065	15415
308.093	15121
308.148	15918
308.156	15915
308.202	15568
308.246	15693
308.257	15821
308.312	15371
308.336	15738
308.366	15914
308.421	15445
308.426	15359
308.475	14620
308.517	13798
308.530	13610
308.585	13410
308.607	13288
308.639	13276
308.694	13130
308.697	13093
308.748	13366
308.787	13874
308.803	13942
308.857	13625
308.877	13676
308.912	14224
308.967	15033
308.967	15016
309.021	15729
309.058	16474
309.076	16993
309.130	18841
309.148	19359
309.185	20911
309.238	22818
309.239	22879
309.293	23887
309.328	24322
309.348	23693
309.402	21412
309.418	20692
309.457	20316
309.508	19515
309.511	19559
309.566	20590
309.598	21233
309.620	22560
309.674	25968
309.688	26899
309.729	26919
309.778	25658
309.783	25582
309.837	23814
309.868	23106
309.892	23954
309.946	26333
309.959	26919
310.001	28060
310.049	28468
310.055	28093
310.109	23782
310.139	21599
310.163	21068
310.218	19889
310.229	19652
310.272	19829
310.319	19967
310.326	20014
310.381	19995
310.409	20124
310.435	20524
310.489	21000
310.499	21059
310.543	21433
310.589	21645
310.598	21711
310.652	21945
310.679	21970
310.706	22309
310.760	22819
310.769	22873
310.814	23521
310.859	24113
310.868	24260
310.923	24525
310.948	24611
310.977	24803
311.031	25214
311.038	25182
311.085	24644
311.128	24140
311.139	24236
311.193	24519
311.218	24515
311.247	24772
311.301	25274
311.308	25273
311.356	25040
311.398	24653
311.410	24886
311.464	25854
311.488	26189
311.518	26354
311.572	26581
311.578	26533
311.626	26524
311.668	26466
311.680	26684
311.734	27276
311.758	27507
311.788	27541
311.842	27448
311.847	27370
311.896	28050
311.937	28529
311.950	28604
312.004	28597
312.027	28531
312.058	28396
312.112	28015
312.117	27891
312.165	28171
312.207	28267
312.297	29178
312.386	28989
312.476	30657
312.566	32573
312.656	32183
312.745	32809
312.835	33823
312.925	35399
313.015	35585
313.104	37940
313.194	40271
313.284	40300
313.374	43856
313.463	44896
313.553	47874
313.643	48072
313.732	49813
313.822	52327
313.912	54808
314.001	56797
314.091	57776
314.180	58605
314.270	58706
314.360	57762
314.449	58277
314.539	59274
314.628	60085
314.718	59917
314.808	61917
314.897	65103
314.987	66861
315.076	68994
315.166	67291
315.255	65090
315.345	63867
315.434	63718
315.524	65035
315.613	71987
315.703	96212
315.792	261268
315.881	662987
315.971	227991
316.060	83764
316.150	69176
316.239	67126
316.328	69215
316.418	74395
316.507	82249
316.597	90352
316.686	93725
316.775	87286
316.865	77563
316.954	69081
317.043	63806
317.133	58103
317.222	55512
317.311	53826
317.400	52278
317.490	55094
317.579	60125
317.668	72485
317.757	122448
317.847	412987
317.936	920094
318.025	325867
318.114	298642
318.203	144636
318.293	80020
318.382	121510
318.471	129358
318.560	102370
318.649	80493
318.738	63728
318.828	53650
318.917	43369
319.006	43017
319.095	42143
319.184	46904
319.273	46717
319.362	46642
319.451	45027
319.540	44796
319.629	46708
319.718	47351
319.807	46451
319.896	47474
319.985	49168
320.074	52164
320.163	53365
320.252	54234
320.341	58279
320.430	60823
320.519	67181
320.608	71194
320.697	78799
320.786	87031
320.875	95617
320.964	101778
321.053	107384
321.142	114608
321.230	123187
321.319	130746
321.408	136744
321.497	133290
321.586	122779
321.675	114491
321.764	113126
321.852	116167
321.941	122242
322.030	126050
322.119	133438
322.207	145595
322.296	154124
322.385	163557
322.474	170776
322.562	167582
322.651	142247
322.740	126423
322.829	116340
322.917	99484
323.006	94388
323.095	88844
323.183	81454
323.272	77905
323.361	72437
323.449	70760
323.538	66178
323.626	66676
323.715	63483
323.804	59865
323.892	58442
323.981	56751
324.069	55256
324.158	54420
324.246	52595
324.335	53374
324.424	53222
324.512	51611
324.601	49427
324.689	47316
324.778	47819
324.866	49196
324.954	44868
325.043	45117
325.131	43613
325.220	45284
325.308	44132
325.397	42605
325.485	41692
325.574	42478
325.662	40692
325.750	40148
325.839	41711
325.927	38733
326.015	41532
326.104	40019
326.192	37971
326.280	38325
326.369	38571
326.457	40383
326.545	40182
326.634	39109
326.722	40083
326.810	42826
326.898	48187
326.987	50587
327.075	50018
327.163	47587
327.251	46096
327.340	50975
327.428	64655
327.516	77285
327.604	68278
327.692	55751
327.781	46668
327.869	40696
327.957	38711
328.045	34845
328.133	33061
328.221	31268
328.309	33371
328.397	34761
328.485	42112
328.574	64279
328.662	88129
328.750	70041
328.838	52935
328.926	42937
329.014	37661
329.102	34649
329.190	34664
329.278	32326
329.366	30817
329.454	31484
329.542	30952
329.630	30449
329.718	30762
329.806	30871
329.893	30737
329.981	29520
330.069	31274
330.157	33158
330.245	32669
330.333	31475
330.421	30427
330.509	32495
330.597	35615
330.684	34264
330.772	32279
330.860	31087
330.948	30597
331.036	32153
331.123	30096
331.211	32470
331.299	32787
331.387	32851
331.475	32601
331.562	34431
331.650	34017
331.738	33198
331.825	33609
331.913	34109
332.001	35076
332.089	33724
332.176	36070
332.264	36096
332.352	35306
332.439	35575
332.527	36713
332.614	36564
332.702	38257
332.790	39797
332.877	41498
332.965	45465
333.052	45502
333.140	45304
333.228	50023
333.315	48186
333.403	51196
333.490	53483
333.578	58785
333.665	68736
333.753	73025
333.840	77247
333.928	88139
334.015	103722
334.103	123544
334.190	152003
334.278	192847
334.365	228590
334.452	226448
334.540	201181
334.627	215461
334.715	256135
334.802	321851
334.889	401447
334.977	426256
335.064	315491
335.151	217983
335.239	174613
335.326	156953
335.413	153193
335.501	160710
335.588	179205
335.675	206685
335.762	249439
335.850	312760
335.937	407802
336.024	525082
336.111	612369
336.199	507728
336.286	320523
336.373	221142
336.460	167279
336.547	135074
336.635	116904
336.722	99809
336.809	89043
336.896	82800
336.983	78289
337.070	74721
337.157	70104
337.245	70801
337.332	72071
337.419	70770
337.506	68669
337.593	66127
337.680	61576
337.767	60004
337.854	57062
337.941	55084
338.028	58628
338.115	59203
338.202	57636
338.289	57600
338.376	53236
338.463	49032
338.550	45811
338.637	46931
338.724	44742
338.811	44247
338.898	42941
338.984	43085
339.071	41389
339.158	40355
339.245	42717
339.332	40857
339.419	40645
339.506	41079
339.593	42673
339.679	42106
339.766	42296
339.853	41863
339.940	41775
340.027	41048
340.113	40203
340.200	39297
340.287	38652
340.374	38221
340.460	38002
340.547	36300
340.634	38117
340.720	41239
340.807	38081
340.894	38482
340.980	36705
341.067	37019
341.154	37415
341.240	37835
341.327	38943
341.414	37635
341.500	36863
341.587	36598
341.674	35630
341.760	38081
341.847	37518
341.933	36425
342.020	35629
342.106	34231
342.193	35745
342.279	36141
342.366	35638
342.452	35421
342.539	35129
342.625	36118
342.712	38344
342.798	35172
342.885	35147
342.971	32981
343.058	35146
343.144	33993
343.230	34239
343.317	35499
343.403	34281
343.490	34230
343.576	34398
343.662	33775
343.749	34849
343.835	34824
343.921	38561
344.008	79570
344.094	117633
344.180	44357
344.267	34850
344.353	43291
344.439	40239
344.525	35195
344.612	33902
344.698	33668
344.784	31686
344.870	33386
344.957	32471
345.043	34457
345.129	33317
345.215	34780
345.301	32597
345.387	32854
345.474	33236
345.560	32989
345.646	33012
345.732	33541
345.818	32869
345.904	33722
345.990	34126
346.076	32943
346.162	33469
346.249	35125
346.335	35057
346.421	41822
346.507	46588
346.593	54848
346.679	40854
346.765	48353
346.851	77620
346.937	74738
347.023	51492
347.108	42408
347.194	40541
347.280	43772
347.366	61623
347.452	139603
347.538	198007
347.624	110790
347.710	65273
347.796	47509
347.882	43028
347.967	40927
348.053	38856
348.139	38336
348.225	39751
348.311	39296
348.397	40860
348.482	43146
348.568	49879
348.654	78812
348.740	197715
348.825	254939
348.911	134072
348.997	86669
349.083	76510
349.168	47419
349.254	42620
349.340	40361
349.425	39018
349.511	39974
349.597	39701
349.682	40533
349.768	46647
349.854	41443
349.939	37406
350.025	40733
350.110	47169
350.196	39045
350.282	35915
350.367	36166
350.453	35312
350.538	35607
350.624	34836
350.709	36613
350.795	35493
350.880	34393
350.966	35816
351.051	34330
351.137	34114
351.222	33926
351.308	37520
351.393	40723
351.479	35697
351.564	34326
351.649	35400
351.735	33633
351.820	34610
351.906	34745
351.991	35271
352.076	39346
352.162	40901
352.247	35192
352.332	34598
352.418	35533
352.503	37217
352.588	43278
352.673	39509
352.759	35652
352.844	33964
352.929	33962
353.014	34900
353.100	37539
353.185	43955
353.270	39368
353.355	36048
353.441	35953
353.526	34162
353.611	35411
353.696	36209
353.781	36658
353.866	34463
353.952	33897
354.037	34881
354.122	36814
354.207	38013
354.292	36503
354.377	34858
354.462	35661
354.547	36083
354.632	36528
354.717	40515
354.802	45924
354.887	37809
354.972	35786
355.057	34538
355.142	35179
355.227	36310
355.312	37467
355.397	36923
355.482	41028
355.567	37951
355.652	37341
355.737	37469
355.822	46617
355.907	44640
355.991	37448
356.076	35761
356.161	37091
356.246	36375
356.331	38293
356.416	42965
356.501	69229
356.585	67725
356.670	41036
356.755	40056
356.840	44324
356.924	76539
357.009	134145
357.094	65411
357.179	40502
357.263	38919
357.348	39465
357.433	39221
357.517	39725
357.602	38660
357.687	40547
357.771	44114
357.856	42784
357.941	43289
358.025	71414
358.110	169444
358.195	90217
358.279	44657
358.364	43897
358.448	48419
358.533	60046
358.617	55530
358.702	54146
358.787	44624
358.871	42344
358.956	43954
359.040	43314
359.125	42403
359.209	43565
359.294	55102
359.378	89391
359.462	83004
359.547	48217
359.631	42910
359.716	42543
359.800	42661
359.885	42721
359.969	43423
360.053	43289
360.138	42838
360.222	44224
360.306	45481
360.391	44796
360.475	46114
360.559	49956
360.644	52541
360.728	52613
360.812	70085
360.896	97637
360.981	64100
361.065	56380
361.149	55401
361.233	56173
361.318	58484
361.402	61368
361.486	65622
361.570	68934
361.654	74935
361.739	85710
361.823	122277
361.907	153025
361.991	131396
362.075	161118
362.159	232017
362.243	392739
362.327	673343
362.411	715438
362.495	390162
362.580	265506
362.664	266944
362.748	337625
362.832	506464
362.916	871976
363.000	1424719
363.084	1425514
363.168	758929
363.252	370066
363.336	242742
363.420	192969
363.503	168934
363.587	161583
363.671	162338
363.755	173407
363.839	197257
363.923	234356
364.007	298675
364.091	413234
364.175	627034
364.258	1067442
364.342	1714836
364.426	1923654
364.510	1219771
364.594	603460
364.677	352259
364.761	266441
364.845	198815
364.929	142925
365.013	118394
365.096	105602
365.180	96415
365.264	88051
365.347	79687
365.431	76208
365.515	72742
365.598	70484
365.682	69753
365.766	67577
365.849	66727
365.933	66022
366.017	66399
366.100	67418
366.184	66971
366.267	67507
366.351	64954
366.435	63687
366.518	62136
366.602	60777
366.685	61228
366.769	58881
366.852	59264
366.936	59920
367.019	58973
367.103	58810
367.186	59366
367.270	59932
367.353	61724
367.436	69096
367.520	71318
367.603	71132
367.687	69668
367.770	67302
367.853	65875
367.937	69438
368.020	70244
368.104	59317
368.187	56715
368.270	56535
368.353	53708
368.437	51384
368.520	50516
368.603	49720
368.687	54480
368.770	60167
368.853	48745
368.936	48685
369.020	48305
369.103	45482
369.186	45899
369.269	45015
369.352	45941
369.436	45621
369.519	44335
369.602	43149
369.685	45566
369.768	43339
369.851	45451
369.934	42937
370.018	44334
370.101	45720
370.184	47310
370.267	47556
370.350	50032
370.433	62615
370.516	165545
370.599	381416
370.682	217396
370.765	71974
370.848	63157
370.931	67816
371.014	54373
371.097	46489
371.180	45248
371.263	44909
371.346	43561
371.429	43679
371.511	43672
371.594	43623
371.677	44917
371.760	46070
371.843	50404
371.926	95344
372.009	153982
372.091	72523
372.174	54167
372.257	71520
372.340	57874
372.423	51061
372.505	49954
372.588	48178
372.671	54628
372.754	65963
372.836	57118
372.919	50713
373.002	51067
373.085	51799
373.167	54757
373.250	60562
373.332	78958
373.415	118961
373.498	199913
373.580	206917
373.663	541350
373.746	538462
373.828	141701
373.911	76844
373.993	66178
374.076	64757
374.159	65430
374.241	66905
374.324	75663
374.406	73991
374.489	92964
374.571	138722
374.654	90443
374.736	79168
374.819	110129
374.901	141950
374.983	148903
375.066	79734
375.148	72200
375.231	71301
375.313	73824
375.395	72874
375.478	72414
375.560	71960
375.643	71863
375.725	82863
375.807	122409
375.890	99951
375.972	65517
376.054	64122
376.136	61469
376.219	60920
376.301	70732
376.383	92944
376.465	68485
376.548	55541
376.630	60746
376.712	77264
376.794	63376
376.877	50934
376.959	47409
377.041	48163
377.123	46845
377.205	45161
377.287	46732
377.369	47423
377.452	49376
377.534	47216
377.616	47012
377.698	47083
377.780	46001
377.862	45766
377.944	44937
378.026	43670
378.108	43871
378.190	44912
378.272	44852
378.354	44606
378.436	43347
378.518	42900
378.600	44166
378.682	44691
378.764	50948
378.846	48856
378.928	44238
379.010	45317
379.091	43518
379.173	43079
379.255	42394
379.337	42795
379.419	46530
379.501	55868
379.583	47412
379.664	43891
379.746	45059
379.828	49768
379.910	52876
379.991	53156
380.073	42997
380.155	43326
380.237	43234
380.318	42699
380.400	42663
380.482	44587
380.564	45289
380.645	50577
380.727	49500
380.809	44550
380.890	44465
380.972	42892
381.053	44102
381.135	43458
381.217	46358
381.298	52271
381.380	48554
381.461	50610
381.543	74502
381.624	80721
381.706	50736
381.787	46802
381.869	50136
381.951	71821
382.032	131057
382.113	97799
382.195	51098
382.276	53848
382.358	63585
382.439	79367
382.521	91758
382.602	118020
382.684	79337
382.765	85133
382.846	99827
382.928	117316
383.009	96053
383.090	99354
383.172	182451
383.253	213045
383.334	116554
383.416	108016
383.497	85479
383.578	74431
383.659	100488
383.741	202678
383.822	328522
383.903	198802
383.984	106692
384.066	115170
384.147	102053
384.228	92952
384.309	102573
384.390	110140
384.471	108221
384.553	99812
384.634	90426
384.715	85430
384.796	79619
384.877	78784
384.958	83256
385.039	86279
385.120	77577
385.201	75242
385.282	78579
385.363	83470
385.444	89541
385.525	95600
385.606	116082
385.687	115645
385.768	99479
385.849	99729
385.930	135546
386.011	168033
386.092	115272
386.173	101560
386.254	98226
386.335	96916
386.416	96421
386.496	100656
386.577	103376
386.658	97909
386.739	98285
386.820	101255
386.901	104798
386.981	112711
387.062	122723
387.143	131622
387.224	138828
387.304	146360
387.385	144383
387.466	147053
387.547	154132
387.627	158500
387.708	163548
387.789	172429
387.869	169422
387.950	149833
388.031	136570
388.111	129859
388.192	131298
388.273	129919
388.353	122815
388.434	106215
388.514	105108
388.595	126240
388.676	126318
388.756	101223
388.837	95743
388.917	92607
388.998	87902
389.078	89270
389.159	90052
389.239	85376
389.320	85459
389.400	82736
389.480	84500
389.561	89706
389.641	87239
389.722	83462
389.802	81704
389.883	86484
389.963	93582
390.043	88784
390.124	81023
390.204	83528
390.284	89338
390.365	86588
390.445	84422
390.525	85444
390.605	89340
390.686	89902
390.766	90916
390.846	91950
390.927	92454
391.007	96729
391.087	97986
391.167	101525
391.247	101765
391.328	107712
391.408	110538
391.488	113629
391.568	118067
391.648	124142
391.728	131213
391.808	139207
391.888	144234
391.969	156309
392.049	167857
392.129	179016
392.209	194327
392.289	218229
392.369	228565
392.449	247663
392.529	275125
392.609	313455
392.689	362789
392.769	432436
392.849	530763
392.929	669380
393.009	889205
393.089	1260983
393.169	1919300
393.248	2699241
393.328	2931959
393.408	2780175
393.488	2496673
393.568	1753667
393.648	1150723
393.728	798169
393.807	582505
393.887	454881
393.967	370809
394.047	312053
394.127	263354
394.206	236239
394.286	211841
394.366	196523
394.446	184315
394.525	171094
394.605	163243
394.685	160210
394.764	176168
394.844	272789
394.924	353427
395.003	230603
395.083	154748
395.163	140410
395.242	135729
395.322	137870
395.402	137345
395.481	149743
395.561	192957
395.640	393329
395.720	697409
395.799	489305
395.879	243794
395.958	198589
396.038	201243
396.117	219530
396.197	250859
396.276	280904
396.356	338563
396.435	438044
396.515	592513
396.594	893743
396.673	1520096
396.753	2401152
396.832	2779244
396.912	2487274
396.991	1709711
397.070	997591
397.150	642708
397.229	521951
397.308	701846
397.388	1037593
397.467	708891
397.546	320841
397.625	214976
397.705	180675
397.784	157417
397.863	141049
397.942	128895
398.022	118438
398.101	108920
398.180	103656
398.259	97762
398.338	94487
398.417	88245
398.497	85888
398.576	81964
398.655	77659
398.734	77080
398.813	73600
398.892	71943
398.971	69693
399.050	67084
399.129	65622
399.208	64587
399.287	64762
399.366	62464
399.445	62275
399.524	59557
399.603	55674
399.682	57447
399.761	57062
399.840	55874
399.919	55306
399.998	51671
400.077	50644
400.156	49508
400.235	51751
400.313	48614
400.392	46503
400.471	51475
400.550	52807
400.629	47531
400.708	45694
400.786	42651
400.865	43360
400.944	41401
401.023	44535
401.102	41077
401.180	41579
401.259	41258
401.338	41907
401.416	40643
401.495	38180
401.574	41239
401.652	38278
401.731	40296
401.810	40761
401.888	38947
401.967	37621
402.046	38495
402.124	38334
402.203	37415
402.281	37910
402.360	36945
402.438	38004
402.517	36455
402.596	38394
402.674	37802
402.753	39305
402.831	40432
402.910	47305
402.988	75690
403.066	136475
403.145	102497
403.223	75107
403.302	122989
403.380	113148
403.459	106101
403.537	75265
403.615	60420
403.694	53820
403.772	52475
403.850	52538
403.929	49523
404.007	48436
404.085	55450
404.164	56780
404.242	50696
404.320	49138
404.398	50903
404.477	58189
404.555	88465
404.633	83104
404.711	52300
404.789	46370
404.868	44197
404.946	43634
405.024	40805
405.102	39034
405.180	37323
405.258	36437
405.336	37379
405.415	37596
405.493	40809
405.571	43537
405.649	40070
405.727	41562
405.805	46743
405.883	47962
405.961	46869
406.039	42245
406.117	40352
406.195	41858
406.273	45508
406.351	63290
406.429	54686
406.507	38276
406.585	37466
406.663	38361
406.740	38864
406.818	39382
406.896	39462
406.974	41693
407.052	41832
407.130	54846
407.208	62441
407.285	48055
407.363	45543
407.441	47464
407.519	53257
407.596	77261
407.674	240452
407.752	632863
407.830	493383
407.907	117288
407.985	57454
408.063	47565
408.141	44813
408.218	44431
408.296	45601
408.373	48638
408.451	51213
408.529	49693
408.606	52436
408.684	57084
408.762	57211
408.839	61855
408.917	67661
408.994	74742
409.072	85004
409.149	103510
409.227	140477
409.304	189229
409.382	221637
409.459	256385
409.537	296793
409.614	305749
409.692	281910
409.769	281867
409.846	323788
409.924	357710
410.001	326389
410.079	274200
410.156	228271
410.233	186507
410.311	159163
410.388	138642
410.465	123443
410.543	109856
410.620	99852
410.697	90312
410.775	86774
410.852	82306
410.929	82352
411.006	80248
411.083	77076
411.161	72067
411.238	69061
411.315	65189
411.392	63378
411.469	60601
411.547	57020
411.624	53731
411.701	51963
411.778	51495
411.855	49836
411.932	46211
412.009	45948
412.086	45210
412.163	43619
412.240	41776
412.317	41725
412.394	40178
412.471	40125
412.548	37757
412.625	37553
412.702	36889
412.779	37497
412.856	37260
412.933	35396
413.010	36688
413.087	37760
413.164	37323
413.241	37908
413.318	33040
413.395	32093
413.471	31294
413.548	30916
413.625	30445
413.702	29318
413.779	29761
413.855	29559
413.932	28781
414.009	28000
414.086	28412
414.162	29512
414.239	29277
414.316	33048
414.393	36575
414.469	30967
414.546	26864
414.623	27702
414.699	26712
414.776	27265
414.853	26976
414.929	27331
415.006	26113
415.082	26005
415.159	27175
415.236	26089
415.312	26763
415.389	26579
415.465	26036
415.542	26039
415.618	24590
415.695	27866
415.771	26048
415.848	26876
415.924	27424
416.000	27335
416.077	27886
416.153	28007
416.230	27375
416.306	26672
416.383	26728
416.459	27400
416.535	25879
416.612	27698
416.688	26959
416.764	26348
416.841	25861
416.917	26087
416.993	26779
417.069	26689
417.146	27046
417.222	26591
417.298	27586
417.374	27869
417.451	27870
417.527	27287
417.603	27867
417.679	28016
417.755	28651
417.831	28354
417.908	29753
417.984	29121
418.060	30182
418.136	30186
418.212	30182
418.288	29801
418.364	30374
418.440	30080
418.516	32008
418.592	31493
418.668	32096
418.744	33993
418.820	34638
418.896	33539
418.972	34548
419.048	34028
419.124	37134
419.200	35958
419.276	37139
419.352	36661
419.428	39013
419.504	40158
419.579	40598
419.655	42731
419.731	44181
419.807	47104
419.883	49186
419.959	49534
420.034	49645
420.110	52413
420.186	58422
420.262	58760
420.337	58377
420.413	61326
420.489	65374
420.565	71268
420.640	73046
420.716	78481
420.792	80252
420.867	86461
420.943	92078
421.019	99208
421.094	103906
421.170	113864
421.245	122252
421.321	138333
421.397	165920
421.472	306811
421.548	560688
421.623	416738
421.699	245158
421.774	251542
421.850	284311
421.925	331262
422.001	390805
422.076	473285
422.152	581923
422.227	733610
422.302	950827
422.378	1229986
422.453	1559177
422.529	1672362
422.604	1253344
422.679	769009
422.755	1163586
422.830	1594803
422.905	1514705
422.981	1248756
423.056	987231
423.131	787330
423.207	619082
423.282	506213
423.357	421294
423.432	355173
423.508	311870
423.583	269241
423.658	238658
423.733	217713
423.808	200504
423.883	192276
423.959	197401
424.034	205508
424.109	189902
424.184	159788
424.259	134587
424.334	120037
424.409	106301
424.484	98904
424.559	90929
424.634	84125
424.709	79135
424.784	74982
424.859	70499
424.934	68131
425.009	67835
425.084	65792
425.159	59936
425.234	57292
425.309	55130
425.384	53468
425.459	52056
425.534	50313
425.609	48883
425.683	48221
425.758	46915
425.833	45346
425.908	44902
425.983	44346
426.058	46216
426.132	43538
426.207	39915
426.282	40601
426.357	37216
426.431	37582
426.506	37315
426.581	35423
426.655	35182
426.730	34938
426.805	33372
426.879	34196
426.954	33677
427.029	33509
427.103	40029
427.178	50508
427.253	42372
427.327	34508
427.402	33019
427.476	33002
427.551	33692
427.625	33950
427.700	34819
427.774	35865
427.849	39044
427.923	43662
427.998	50857
428.072	69930
428.147	145369
428.221	449278
428.296	927581
428.370	622106
428.444	173752
428.519	75899
428.593	62244
428.667	65696
428.742	89264
428.816	227230
428.890	645678
428.965	864350
429.039	334314
429.113	94743
429.188	58887
429.262	48462
429.336	46108
429.410	46800
429.485	46153
429.559	50566
429.633	59715
429.707	86313
429.781	209574
429.855	617186
429.930	792116
430.004	350794
430.078	266067
430.152	605923
430.226	1221851
430.300	1164423
430.374	497468
430.448	194361
430.522	123407
430.596	132639
430.670	306201
430.744	759974
430.818	786794
430.892	252391
430.966	80116
431.040	51276
431.114	42512
431.188	37709
431.262	37294
431.336	35219
431.410	36855
431.484	39476
431.557	46382
431.631	61635
431.705	124348
431.779	389568
431.853	891150
431.927	676183
432.000	183408
432.074	63607
432.148	41483
432.222	32698
432.295	28941
432.369	24614
432.443	23814
432.516	30233
432.590	40965
432.664	28701
432.737	19714
432.811	19794
432.885	19041
432.958	19938
433.032	18375
433.106	18409
433.179	19472
433.253	18997
433.326	19185
433.400	19721
433.473	20930
433.547	20076
433.620	21357
433.694	23464
433.767	25085
433.841	25015
433.914	25239
433.988	25462
434.061	26437
434.134	26077
434.208	24978
434.281	23190
434.355	21924
434.428	22962
434.501	22931
434.575	21419
434.648	22302
434.721	23237
434.795	24065
434.868	26309
434.941	27747
435.014	30458
435.088	33438
435.161	35526
435.234	42621
435.307	48157
435.381	59008
435.454	82513
435.527	115910
435.600	136084
435.673	130719
435.746	117871
435.819	100279
435.892	85524
435.966	72254
436.039	62131
436.112	55016
436.185	47940
436.258	42445
436.331	38023
436.404	35201
436.477	32374
436.550	31891
436.623	28040
436.696	26746
436.769	24490
436.842	23324
436.915	23092
436.987	21297
437.060	20483
437.133	20630
437.206	18639
437.279	19317
437.352	18426
437.425	18582
437.498	17162
437.570	17688
437.643	16343
437.716	15569
437.789	15711
437.861	15299
437.934	15444
438.007	14554
438.080	14332
438.152	14875
438.225	17050
438.298	29941
438.370	51746
438.443	29931
438.516	16715
438.588	15704
438.661	15058
438.734	14231
438.806	15685
438.879	15577
438.951	14613
439.024	15088
439.096	13950
439.169	15785
439.241	14394
439.314	13578
439.386	14804
439.459	14621
439.531	14572
439.604	13880
439.676	14274
439.749	13722
439.821	14981
439.893	14474
439.966	14262
440.038	13996
440.110	14141
440.183	15015
440.255	15632
440.327	17351
440.400	20794
440.472	30850
440.544	26019
440.617	17382
440.689	17724
440.761	17063
440.833	17445
440.905	18637
440.978	17990
441.050	17620
441.122	18931
441.194	18663
441.266	20110
441.338	19331
441.411	22104
441.483	24803
441.555	27705
441.627	25434
441.699	25098
441.771	25584
441.843	29117
441.915	32103
441.987	35608
442.059	40057
442.131	49821
442.203	62677
442.275	87287
442.347	149603
442.419	337278
442.491	878788
442.563	1299714
442.635	735068
442.706	255055
442.778	129610
442.850	94751
442.922	84263
442.994	85842
443.066	95438
443.137	121615
443.209	167335
443.281	264160
443.353	507448
443.425	1058904
443.496	1690090
443.568	1674865
443.640	1027961
443.711	439197
443.783	214208
443.855	136011
443.926	98089
443.998	78248
444.070	66232
444.141	59834
444.213	53163
444.285	50926
444.356	49763
444.428	50020
444.499	48991
444.571	51277
444.642	54622
444.714	59033
444.785	64288
444.857	73049
444.928	85392
445.000	102246
445.071	129771
445.143	177302
445.214	265644
445.285	436928
445.357	841924
445.428	1476725
445.500	1756279
445.571	1721721
445.642	1346868
445.714	703884
445.785	313176
445.856	178305
445.928	123390
445.999	95058
446.070	74618
446.141	62015
446.213	53247
446.284	45521
446.355	40842
446.426	36216
446.497	33838
446.569	29299
446.640	27237
446.711	26705
446.782	23711
446.853	22204
446.924	21119
446.995	19738
447.066	18878
447.138	17358
447.209	17224
447.280	15936
447.351	15568
447.422	14594
447.493	13941
447.564	14335
447.635	13852
447.706	12926
447.777	12912
447.847	13092
447.918	11392
447.989	12288
448.060	11548
448.131	11066
448.202	11166
448.273	11330
448.344	10295
448.414	11126
448.485	11023
448.556	10586
448.627	10903
448.698	11648
448.768	11037
448.839	10569
448.910	10285
448.981	10891
449.051	11474
449.122	10562
449.193	9779
449.263	10794
449.334	10164
449.405	11035
449.475	13449
449.546	13631
449.616	15519
449.687	15113
449.758	13377
449.828	12103
449.899	11450
449.969	10647
450.040	10540
450.110	10250
450.181	10216
450.251	11172
450.322	10362
450.392	10817
450.463	11012
450.533	11427
450.604	13626
450.674	14622
450.744	18719
450.815	20789
450.885	21503
450.955	23941
451.026	24272
451.096	23122
451.166	22997
451.237	25179
451.307	30209
451.377	27439
451.447	22620
451.518	19611
451.588	17718
451.658	16191
451.728	15692
451.799	14641
451.869	14781
451.939	14470
452.009	15645
452.079	15834
452.149	16794
452.219	18089
452.289	20953
452.360	24912
452.430	30830
452.500	40617
452.570	64014
452.640	122330
452.710	240189
452.780	286620
452.850	205366
452.920	125093
452.990	79284
453.060	55407
453.129	41506
453.199	32884
453.269	26896
453.339	23209
453.409	19563
453.479	17689
453.549	15629
453.619	13662
453.688	13529
453.758	13879
453.828	11856
453.898	11369
453.968	10618
454.037	10561
454.087	9972
454.107	9705
454.168	10517
454.177	10612
454.247	9727
454.249	9712
454.316	8548
454.330	8628
454.386	8815
454.411	9095
454.456	9487
454.492	9463
454.525	9408
454.574	9628
454.595	9699
454.655	10047
454.665	10046
454.734	11907
454.736	12001
454.804	14383
454.817	13951
454.873	12092
454.898	11635
454.943	10776
454.979	10229
455.013	9742
455.060	10701
455.082	11487
455.141	14012
455.152	15313
455.221	26557
455.222	27216
455.291	43130
455.303	57296
455.360	112566
455.384	163508
455.430	248010
455.465	177575
455.499	117467
455.546	52577
455.569	22067
455.627	14719
455.638	13307
455.707	11831
455.708	11862
455.777	10616
455.789	10619
455.846	10468
455.869	10518
455.916	10535
455.950	10662
455.985	10686
456.031	10639
456.054	10600
456.112	10985
456.124	11039
456.193	11166
456.193	11126
456.262	11454
456.274	11626
456.332	12218
456.355	12074
456.401	11623
456.436	11774
456.470	11984
456.516	12551
456.540	12740
456.597	12605
456.609	12549
456.678	13779
456.678	13738
456.747	13982
456.759	14105
456.817	14877
456.840	15271
456.886	15673
456.920	16035
456.955	16489
457.001	17255
457.024	17513
457.082	18059
457.093	18175
457.162	19700
457.163	19762
457.232	22067
457.243	22290
457.301	23870
457.324	24967
457.370	26926
457.405	29449
457.439	32691
457.485	36214
457.508	39217
457.566	50735
457.577	55847
457.646	89303
457.647	90050
457.715	168609
457.727	187906
457.784	282561
457.808	359546
457.853	454849
457.889	532211
457.922	583128
457.969	484258
457.991	472014
458.050	475867
458.060	475843
458.129	687663
458.130	694542
458.198	755274
458.211	702624
458.267	509567
458.292	406873
458.336	303070
458.372	284931
458.405	314171
458.453	407206
458.474	455724
458.533	682046
458.543	692922
458.611	965887
458.614	968682
458.680	786031
458.694	683026
458.749	400862
458.775	306270
458.818	189311
458.855	143338
458.887	112222
458.936	86421
458.955	78019
459.016	61337
459.024	59427
459.093	49080
459.097	48687
459.162	41303
459.177	39867
459.230	35795
459.257	34583
459.299	32807
459.338	30901
459.368	29898
459.418	29051
459.437	28388
459.499	25904
459.505	25702
459.574	24750
459.579	24691
459.643	23565
459.659	23225
459.711	22913
459.740	23380
459.780	23194
459.820	22811
459.849	22860
459.900	22720
459.917	22466
459.981	21639
459.986	21594
460.054	20814
460.061	20780
460.123	20392
460.141	20381
460.191	20356
460.222	20469
460.260	21207
460.302	21879
460.328	23015
460.382	25782
460.397	28812
460.462	42935
460.465	45667
460.534	110037
460.543	119006
460.602	206984
460.623	244840
460.671	342712
460.703	452003
460.739	400798
460.783	265694
460.808	242836
460.864	82511
460.876	58918
460.944	27970
460.945	27629
461.013	21701
461.024	21132
461.081	20082
461.104	19810
461.150	19514
461.184	19738
461.218	19598
461.264	19292
461.286	19237
461.345	19181
461.355	18935
461.423	16868
461.425	16805
461.491	16251
461.505	16297
461.559	15818
461.585	15684
461.628	16046
461.665	16782
461.696	16969
461.745	16286
461.764	16098
461.825	15550
461.832	15533
461.901	16242
461.905	16262
461.969	15906
461.985	15836
462.037	16453
462.065	16860
462.105	16371
462.145	15726
462.173	15947
462.225	16525
462.241	16734
462.305	17146
462.310	17209
462.378	18290
462.385	18502
462.446	19245
462.465	19363
462.514	18461
462.545	17654
462.582	17206
462.625	16435
462.650	16111
462.705	15922
462.718	15952
462.785	15757
462.786	15756
462.854	15248
462.865	15235
462.922	15634
462.945	15792
462.990	15660
463.025	15453
463.058	15590
463.104	15896
463.126	15808
463.184	15321
463.194	15410
463.262	15990
463.264	16010
463.330	15335
463.344	15102
463.398	15719
463.424	16065
463.466	15519
463.504	15074
463.533	15272
463.583	15616
463.601	15573
463.663	15017
463.669	15027
463.737	15593
463.743	15590
463.805	15799
463.823	15886
463.873	15790
463.903	15712
463.940	15548
463.982	15273
464.008	15350
464.062	15699
464.076	15695
464.142	15262
464.144	15266
464.211	15260
464.221	15215
464.279	15702
464.301	15775
464.347	15650
464.381	15919
464.414	15684
464.461	14847
464.482	15128
464.540	16042
464.550	15948
464.617	15014
464.620	14977
464.685	16002
464.699	16175
464.753	15584
464.779	15216
464.820	15391
464.859	15608
464.888	15315
464.938	14741
464.956	15018
465.018	15815
465.023	15819
465.091	15786
465.098	15779
465.158	16651
465.177	16837
465.226	16600
465.257	16413
465.293	16501
465.336	16492
465.361	16480
465.416	16559
465.428	16485
465.495	15900
465.496	15920
465.563	15831
465.575	15847
465.631	16318
465.654	16387
465.698	15863
465.734	15403
465.765	16083
465.813	17143
465.833	16991
465.893	16454
465.900	16544
465.968	17012
465.972	17025
466.035	16669
466.052	16554
466.102	17044
466.131	17246
466.170	17075
466.210	16872
466.237	17097
466.290	17488
466.304	17508
466.369	17383
466.372	17388
466.439	16895
466.449	16777
466.506	18172
466.528	18727
466.573	19256
466.607	19526
466.641	19868
466.687	20307
466.708	20424
466.766	20675
466.775	20667
466.842	20299
466.845	20249
466.909	20549
466.925	20581
466.977	21240
467.004	21536
467.044	21634
467.083	21672
467.111	22144
467.163	22925
467.178	23326
467.242	24797
467.245	24845
467.312	24993
467.321	24972
467.379	26308
467.400	26719
467.446	27001
467.480	27118
467.559	29466
467.638	31058
467.717	32779
467.796	36666
467.875	42200
467.955	46941
468.034	53756
468.113	65667
468.192	82904
468.271	107706
468.350	139392
468.429	159684
468.508	147130
468.588	96281
468.667	68853
468.746	53351
468.825	45347
468.904	39379
468.983	36446
469.062	35109
469.141	34953
469.220	28706
469.299	28035
469.378	25810
469.456	26237
469.535	25143
469.614	24848
469.693	22771
469.772	24488
469.851	23022
469.930	24323
470.009	23867
470.088	25091
470.166	27231
470.245	30310
470.324	29104
470.403	27403
470.482	25432
470.560	26166
470.639	24883
470.718	24125
470.797	23777
470.875	23568
470.954	21709
471.033	22376
471.111	20696
471.190	20939
471.269	20829
471.347	21982
471.426	20507
471.505	21249
471.583	21043
471.662	20946
471.740	21398
471.819	21177
471.898	21843
471.976	23129
472.055	29102
472.133	39494
472.212	52467
472.290	23458
472.369	19583
472.447	21289
472.526	21802
472.604	24081
472.683	23053
472.761	22619
472.839	22129
472.918	22754
472.996	21264
473.075	22880
473.153	22677
473.231	24068
473.310	24480
473.388	25553
473.466	24724
473.545	23718
473.623	26666
473.701	26549
473.780	26008
473.858	26645
473.936	27223
474.014	33214
474.093	44000
474.171	55616
474.249	29343
474.327	26466
474.405	26429
474.484	27771
474.562	25679
474.640	25231
474.718	23090
474.796	22193
474.874	22580
474.952	21744
475.030	21541
475.108	22360
475.187	23453
475.265	26422
475.343	28136
475.421	28287
475.499	21881
475.577	21993
475.655	21595
475.733	20870
475.811	20398
475.889	20311
475.966	20146
476.044	21776
476.122	25054
476.200	26960
476.278	20852
476.356	20486
476.434	20734
476.512	24124
476.590	26616
476.667	22694
476.745	18333
476.823	20040
476.901	20686
476.979	20323
477.056	19697
477.134	20208
477.212	19498
477.290	19417
477.367	19319
477.445	19791
477.523	18040
477.601	19452
477.678	18487
477.756	19656
477.834	19448
477.911	19442
477.989	19805
478.066	20554
478.144	21523
478.222	29024
478.299	43561
478.377	49084
478.454	35860
478.532	21242
478.609	19823
478.687	21220
478.764	19652
478.842	20852
478.919	20370
478.997	20574
479.074	19372
479.152	21649
479.229	20880
479.307	20645
479.384	21123
479.461	21528
479.539	20701
479.616	21533
479.694	22066
479.771	22438
479.848	21768
479.926	22007
480.003	24334
480.080	23847
480.157	24267
480.235	25079
480.312	27772
480.389	28444
480.467	30737
480.544	34119
480.621	34707
480.698	37334
480.775	34957
480.853	32513
480.930	35077
481.007	51933
481.084	93371
481.161	147588
481.238	52887
481.315	32318
481.392	32825
481.470	35991
481.547	35268
481.624	36705
481.701	36777
481.778	40691
481.855	43619
481.932	47023
482.009	53492
482.086	60841
482.163	68627
482.240	77823
482.317	82820
482.393	68985
482.470	59639
482.547	57676
482.624	55054
482.701	55518
482.778	55597
482.855	56167
482.932	60853
483.009	73001
483.085	102010
483.162	137632
483.239	109171
483.316	82940
483.393	75963
483.469	67925
483.546	60557
483.623	55896
483.699	50206
483.776	47838
483.853	45655
483.930	46825
484.006	44626
484.083	46840
484.160	47641
484.236	51124
484.313	54750
484.389	63689
484.466	76428
484.543	89549
484.619	97182
484.696	87976
484.772	62312
484.849	52027
484.925	45625
485.002	43570
485.078	38940
485.155	36958
485.231	35750
485.308	35061
485.384	36464
485.461	40417
485.537	39164
485.614	32783
485.690	30397
485.766	31751
485.843	31565
485.919	31146
485.995	32419
486.072	31274
486.148	31013
486.224	32281
486.301	32430
486.377	33362
486.453	33236
486.530	36231
486.606	37326
486.682	40316
486.758	46882
486.835	57865
486.911	60431
486.987	60771
487.063	76935
487.139	114057
487.215	154748
487.292	126105
487.368	133511
487.444	187731
487.520	303595
487.596	572587
487.672	1212973
487.748	2467611
487.824	3026232
487.900	1487164
487.976	605769
488.052	317367
488.128	198204
488.204	138887
488.280	106525
488.356	86098
488.432	73286
488.508	63045
488.584	55480
488.660	51605
488.736	46611
488.812	44646
488.888	41300
488.964	41652
489.039	46881
489.115	54589
489.191	59243
489.267	44938
489.343	35903
489.418	35134
489.494	33458
489.570	33517
489.646	33801
489.722	35121
489.797	35235
489.873	37798
489.949	40965
490.024	38808
490.100	35488
490.176	34380
490.251	34941
490.327	35927
490.403	33851
490.478	34564
490.554	33184
490.629	33733
490.705	32548
490.781	31423
490.856	32546
490.932	30917
491.007	30081
491.083	29353
491.158	28669
491.234	26210
491.309	25906
491.385	25673
491.460	24217
491.536	26171
491.611	24027
491.686	24853
491.762	24997
491.837	26817
491.913	28660
491.988	31401
492.063	30062
492.139	23761
492.214	21510
492.289	23028
492.365	22379
492.440	22051
492.515	22550
492.590	22635
492.666	22281
492.741	23951
492.816	24775
492.891	27025
492.967	29670
493.042	32892
493.117	36966
493.192	66901
493.267	201215
493.342	501412
493.418	473519
493.493	46904
493.568	26426
493.643	22740
493.718	21646
493.793	20699
493.868	19918
493.943	20844
494.018	19655
494.093	20551
494.168	19561
494.243	19042
494.318	18973
494.393	18705
494.468	17923
494.543	18974
494.618	18868
494.693	19879
494.768	18326
494.842	18379
494.917	17466
494.992	18840
495.067	18965
495.142	19501
495.217	19301
495.292	19365
495.366	17761
495.441	19179
495.516	20477
495.591	23672
495.665	31539
495.740	40247
495.815	23904
495.890	21691
495.964	23603
496.039	40342
496.114	82030
496.188	142915
496.263	71066
496.338	25018
496.412	20975
496.487	20665
496.561	21014
496.636	23990
496.710	31649
496.785	37375
496.860	21454
496.934	19678
497.009	18399
497.083	18672
497.158	18295
497.232	18881
497.307	17461
497.381	17610
497.455	17889
497.530	19492
497.604	17493
497.679	18796
497.753	17408
497.827	18140
497.902	17203
497.976	18294
498.050	18283
498.125	19183
498.199	19501
498.273	18841
498.348	19775
498.422	19449
498.496	19341
498.570	20219
498.645	19697
498.719	18518
498.793	19678
498.867	19504
498.941	19640
499.016	20729
499.090	20607
499.164	21599
499.238	21906
499.312	21983
499.386	23889
499.460	23291
499.534	23372
499.609	24630
499.683	22384
499.757	23288
499.831	23376
499.905	22860
499.979	21779
500.053	22388
500.127	23431
500.201	25522
500.275	23463
500.349	24221
500.422	23170
500.496	25735
500.570	27765
500.644	28051
500.718	27538
500.792	28701
500.866	27466
500.940	27698
501.013	29245
501.087	29925
501.161	31158
501.235	32077
501.309	32780
501.382	32198
501.456	31037
501.530	30140
501.603	28126
501.677	28712
501.751	27200
501.825	28803
501.898	28550
501.972	28530
502.046	27641
502.119	27090
502.193	26701
502.266	26435
502.340	26034
502.413	26776
502.487	27678
502.561	29638
502.634	30889
502.708	33341
502.781	32701
502.855	33966
502.928	32356
503.002	33694
503.075	34495
503.149	37524
503.222	38449
503.295	42263
503.369	46503
503.442	52875
503.516	60763
503.589	71842
503.662	87241
503.736	111816
503.809	152334
503.882	226666
503.956	394621
504.029	809131
504.102	1588498
504.175	1800092
504.249	957468
504.322	473355
504.395	271398
504.468	177243
504.542	125356
504.615	95913
504.688	77592
504.761	64126
504.834	55970
504.907	47884
504.980	43742
505.053	39192
505.127	34687
505.200	33961
505.273	30225
505.346	30043
505.419	27813
505.492	30909
505.565	27450
505.638	25541
505.711	23609
505.784	22893
505.857	21620
505.930	21347
506.003	18527
506.076	21323
506.149	18158
506.221	18453
506.294	19464
506.367	17840
506.440	17380
506.513	18102
506.586	16673
506.659	16776
506.731	16992
506.804	16137
506.877	16820
506.950	16804
507.022	17173
507.095	16396
507.168	16238
507.241	15962
507.313	14543
507.386	15311
507.459	16532
507.531	15598
507.604	14969
507.677	15991
507.749	14936
507.822	16236
507.894	14720
507.967	15800
508.040	14306
508.112	15114
508.185	14880
508.257	13902
508.330	15725
508.402	14584
508.475	14305
508.547	15216
508.620	13975
508.692	14200
508.765	14401
508.837	14359
508.909	14834
508.982	13577
509.054	14633
509.127	14387
509.199	14313
509.271	14623
509.344	13831
509.416	14707
509.488	14754
509.560	14410
509.633	13569
509.705	13820
509.777	14357
509.849	14686
509.922	13148
509.994	14498
510.066	14014
510.138	12739
510.210	14228
510.283	13369
510.355	14070
510.427	14028
510.499	13073
510.571	13412
510.643	13219
510.715	14333
510.787	12993
510.859	13972
510.931	13843
511.003	14168
511.076	14282
511.148	13751
511.219	12607
511.291	14298
511.363	13262
511.435	14039
511.507	12677
511.579	14391
511.651	13349
511.723	14417
511.795	12679
511.867	14017
511.939	13846
512.010	13966
512.082	13539
512.154	14236
512.226	14468
512.298	14624
512.369	14752
512.441	15587
512.513	14721
512.585	13453
512.656	14997
512.728	14512
512.800	13708
512.871	14586
512.943	14552
513.015	14012
513.086	15010
513.158	14929
513.230	14303
513.301	16202
513.373	16257
513.444	15702
513.516	15708
513.588	16067
513.659	15801
513.731	16474
513.802	14809
513.874	17937
513.945	17887
514.016	15527
514.088	15386
514.159	14669
514.231	15665
514.302	14843
514.374	15622
514.445	14671
514.516	16113
514.588	14970
514.659	14715
514.730	14983
514.802	16030
514.873	15172
514.944	17373
515.016	15933
515.087	15735
515.158	16286
515.229	16658
515.301	16682
515.372	17505
515.443	18962
515.514	20670
515.585	24588
515.656	24532
515.728	22444
515.799	19823
515.870	20363
515.941	19092
516.012	19518
516.083	20111
516.154	21016
516.225	21423
516.296	22304
516.367	20919
516.438	23485
516.509	24817
516.580	31807
516.651	61816
516.722	111899
516.793	45586
516.864	27693
516.935	28684
517.006	30982
517.077	37077
517.148	72975
517.219	198581
517.289	203538
517.360	44238
517.431	33477
517.502	33187
517.573	35947
517.643	36455
517.714	39652
517.785	42676
517.856	46745
517.926	53318
517.997	62170
518.068	70870
518.138	89214
518.209	128874
518.280	269274
518.350	498534
518.421	266943
518.492	242244
518.562	335578
518.633	513409
518.703	892621
518.774	1709646
518.845	2714559
518.915	2017896
518.986	901736
519.056	463358
519.127	287257
519.197	202053
519.268	144045
519.338	110836
519.408	87504
519.479	75041
519.549	63222
519.620	56116
519.690	50358
519.760	44787
519.831	43520
519.901	38027
519.971	36247
520.042	33923
520.112	31756
520.182	30787
520.253	30311
520.323	26441
520.393	27290
520.463	25922
520.534	24306
520.604	26456
520.674	25913
520.744	23970
520.814	25055
520.885	24266
520.955	23431
521.025	22047
521.095	23366
521.165	24903
521.235	23393
521.305	23062
521.375	24234
521.445	23752
521.515	22980
521.585	24112
521.655	23459
521.725	23319
521.795	23528
521.865	21688
521.935	24129
522.005	24540
522.075	25939
522.145	29649
522.215	34553
522.285	27701
522.355	25053
522.424	29128
522.494	36847
522.564	31627
522.634	29116
522.704	34091
522.774	26248
522.843	30089
522.913	37953
522.983	31090
523.053	26380
523.122	25885
523.192	28727
523.262	31320
523.331	29524
523.401	27032
523.471	28726
523.540	28755
523.610	29627
523.680	32207
523.749	39407
523.819	54609
523.888	52300
523.958	35616
524.027	33796
524.097	33067
524.166	32940
524.236	31545
524.305	32643
524.375	31538
524.444	32948
524.514	34917
524.583	34891
524.653	34191
524.722	37147
524.791	37355
524.861	41261
524.930	40086
524.999	42416
525.069	46408
525.138	47615
525.207	51304
525.277	57268
525.346	61801
525.415	72373
525.484	82132
525.554	100723
525.623	137952
525.692	179832
525.761	180782
525.830	218598
525.900	316941
525.969	595423
526.038	1166341
526.107	2382923
526.176	3943731
526.245	2695612
526.314	1471629
526.383	2788778
526.452	3066036
526.522	3741966
526.591	2530558
526.660	822215
526.729	529423
526.797	600076
526.867	1056257
526.935	2562101
527.004	4166363
527.073	2477746
527.142	788976
527.211	367788
527.280	231176
527.349	164326
527.418	123064
527.487	100789
527.555	84104
527.624	72906
527.693	63612
527.762	60569
527.831	53971
527.899	51172
527.968	46543
528.037	42840
528.106	41943
528.174	41481
528.243	39573
528.312	39030
528.380	36465
528.449	34636
528.518	34526
528.586	32247
528.655	33002
528.723	31539
528.792	30977
528.861	31000
528.929	27579
528.998	28269
529.066	26761
529.135	27338
529.203	25760
529.272	23955
529.340	26446
529.409	25688
529.477	24157
529.545	24391
529.614	26366
529.682	23560
529.751	24074
529.819	27891
529.887	24529
529.956	22701
530.024	22671
530.092	23028
530.161	25047
530.229	24887
530.297	24377
530.365	24904
530.434	23969
530.502	23484
530.570	24282
530.638	23989
530.707	25074
530.775	26240
530.843	24905
530.911	26438
530.979	26655
531.047	26265
531.115	25383
531.183	24545
531.252	25520
531.320	25347
531.388	24514
531.456	26541
531.524	25367
531.592	27141
531.660	25697
531.728	25830
531.796	23746
531.864	25137
531.932	24139
532.000	25337
532.067	25003
532.135	26746
532.203	28763
532.271	30236
532.339	33135
532.407	33836
532.475	31432
532.542	30046
532.610	29196
532.678	29742
532.746	41884
532.814	46930
532.881	32064
532.949	32441
533.017	31209
533.084	29093
533.152	28121
533.220	27791
533.287	27706
533.355	28866
533.423	28842
533.490	29371
533.558	30657
533.625	31429
533.693	29309
533.761	32101
533.828	33084
533.896	31785
533.963	37155
534.031	41705
534.098	53235
534.166	56208
534.233	56481
534.300	63550
534.368	65109
534.435	69071
534.503	76306
534.570	90693
534.637	112349
534.705	155196
534.772	273084
534.840	767415
534.907	2378738
534.974	1711159
535.041	298608
535.109	124707
535.176	84979
535.243	71434
535.310	61968
535.378	56948
535.445	56349
535.512	57581
535.579	53971
535.646	52943
535.714	56655
535.781	59823
535.848	58228
535.915	53672
535.982	51153
536.049	49184
536.116	51095
536.183	47810
536.250	46990
536.317	50436
536.384	53299
536.451	54363
536.518	53250
536.585	51401
536.652	53513
536.719	53834
536.786	51474
536.853	51279
536.920	54120
536.987	53713
537.053	53688
537.120	65116
537.187	61899
537.254	60030
537.321	59664
537.388	60051
537.454	57137
537.521	59428
537.588	58176
537.654	59091
537.721	62631
537.788	60533
537.855	56968
537.921	58305
537.988	55275
538.055	52700
538.121	49367
538.188	49172
538.254	49248
538.321	51564
538.388	56667
538.454	63661
538.521	63704
538.587	62998
538.654	59891
538.720	58818
538.787	58535
538.853	57890
538.920	54078
538.986	51472
539.053	52370
539.119	55432
539.185	54720
539.252	58143
539.318	61080
539.385	66064
539.451	60871
539.517	59538
539.583	60001
539.650	60405
539.716	60827
539.782	55399
539.849	55292
539.915	56143
539.981	55719
540.047	54611
540.114	56577
540.180	59782
540.246	63752
540.312	64925
540.378	62435
540.444	62747
540.510	66757
540.576	68284
540.643	58465
540.709	57317
540.775	57711
540.841	56554
540.907	55761
540.973	57616
541.039	57952
541.105	61166
541.171	64994
541.237	66156
541.303	62780
541.369	63950
541.435	63113
541.500	59483
541.566	56321
541.632	57897
541.698	59582
541.764	62722
541.830	59900
541.896	59309
541.961	58841
542.027	61935
542.093	65529
542.159	64520
542.224	60106
542.290	62849
542.356	61619
542.421	63377
542.487	59569
542.553	59827
542.618	58641
542.684	59510
542.750	60005
542.815	62020
542.881	62936
542.947	69433
543.012	64762
543.078	57430
543.143	56686
543.209	58349
543.274	58490
543.340	60177
543.405	63916
543.471	65507
543.536	62513
543.602	63153
543.667	61088
543.732	63722
543.798	62002
543.863	64295
543.928	62379
543.994	62408
544.059	64589
544.124	66733
544.190	65857
544.255	69025
544.320	67717
544.386	67432
544.451	69959
544.516	69062
544.581	69554
544.646	75983
544.712	75653
544.777	71691
544.842	70208
544.907	71085
544.972	75009
545.037	87239
545.102	89614
545.168	78931
545.233	77582
545.298	81035
545.363	80232
545.428	84288
545.493	84701
545.558	86862
545.623	81500
545.688	85110
545.753	88491
545.818	91913
545.883	97209
545.947	99405
546.012	100621
546.077	105088
546.142	111296
546.207	113139
546.272	121290
546.337	122720
546.401	128947
546.466	132591
546.531	136844
546.596	147202
546.661	152148
546.725	161905
546.790	173098
546.855	186316
546.919	206699
546.984	223396
547.049	243783
547.113	277007
547.178	306804
547.243	349601
547.307	405954
547.372	428130
547.436	432035
547.501	456635
547.565	473414
547.630	431714
547.695	425507
547.759	430276
547.823	435761
547.888	450185
547.952	469215
548.017	521187
548.081	575416
548.146	497059
548.210	495377
548.274	532312
548.339	498391
548.403	464312
548.468	441638
548.532	447856
548.596	459373
548.660	463420
548.725	504264
548.789	530328
548.853	498303
548.917	486981
548.982	459081
549.046	414561
549.110	389273
549.174	420526
549.238	490176
549.303	520432
549.367	519886
549.431	489584
549.495	466748
549.559	480162
549.623	561809
549.687	571990
549.751	594041
549.815	689335
549.879	669747
549.943	665339
550.007	692610
550.071	664230
550.135	604695
550.199	592533
550.263	575092
550.327	565763
550.391	635320
550.455	677116
550.519	684707
550.582	741277
550.646	822548
550.710	831125
550.774	842855
550.838	876070
550.901	937253
550.965	1024644
551.029	1133070
551.093	1303020
551.156	1513600
551.220	1731092
551.284	1623860
551.347	1208742
551.411	984106
551.475	899499
551.538	874173
551.602	783581
551.666	737517
551.729	688566
551.793	669204
551.856	656268
551.920	650413
551.983	636109
552.047	630469
552.110	648198
552.174	671539
552.237	642048
552.301	583421
552.364	562705
552.428	554295
552.491	579697
552.554	578061
552.618	578326
552.681	580605
552.745	558640
552.808	589741
552.871	609437
552.934	592216
552.998	574319
553.061	559865
553.124	537675
553.187	550428
553.251	566499
553.314	569100
553.377	604447
553.440	725790
553.503	1044731
553.567	965589
553.630	613733
553.693	581348
553.756	572818
553.819	547440
553.882	527868
553.945	542809
554.008	546503
554.071	548793
554.134	536309
554.197	495268
554.260	486008
554.323	501013
554.386	518514
554.449	545091
554.512	532583
554.575	517470
554.638	512388
554.701	512844
554.764	499821
554.827	481460
554.889	456131
554.952	431057
555.015	433499
555.078	447804
555.141	447359
555.203	433392
555.266	437724
555.329	429250
555.391	416817
555.454	416468
555.517	412452
555.580	408712
555.642	384993
555.705	373997
555.768	369630
555.830	355424
555.893	339748
555.955	329437
556.018	331871
556.080	340384
556.143	349749
556.206	340213
556.268	332867
556.330	326577
556.393	316351
556.455	312018
556.518	304830
556.580	293708
556.643	289498
556.705	284426
556.767	281155
556.830	276751
556.892	272088
556.955	272420
557.017	264305
557.079	268862
557.142	266848
557.204	279460
557.266	294707
557.328	256578
557.391	236247
557.453	234287
557.515	238168
557.577	245941
557.639	249909
557.701	255995
557.764	261860
557.826	276880
557.888	298153
557.950	339258
558.012	429764
558.074	737013
558.136	1895325
558.198	2604826
558.260	832110
558.322	408516
558.384	375202
558.446	392519
558.508	439652
558.570	530740
558.632	692369
558.694	1069845
558.756	2069253
558.818	4089348
558.880	4332595
558.942	3248711
559.003	3090126
559.065	1304884
559.127	686295
559.189	636336
559.251	770936
559.312	1297813
559.374	2918884
559.436	4084425
559.498	2115469
559.559	875963
559.621	681017
559.683	835160
559.744	1571288
559.806	3501699
559.868	3000120
559.929	1086271
559.991	867122
560.052	1650642
560.114	2943881
560.176	1706017
560.237	2315347
560.299	2153021
560.360	534127
560.422	250095
560.483	193152
560.545	169241
560.606	153302
560.667	142003
560.729	132248
560.790	123040
560.852	118638
560.913	113534
560.974	108330
561.036	107342
561.097	105581
561.158	100676
561.220	97982
561.281	93600
561.342	93096
561.403	90031
561.465	90828
561.526	93286
561.587	88723
561.648	83747
561.709	83204
561.771	82055
561.832	80991
561.893	77655
561.954	77819
562.015	76136
562.076	75841
562.137	75193
562.198	75489
562.259	75713
562.320	77140
562.381	76641
562.442	75011
562.503	71341
562.564	71604
562.625	70332
562.686	70072
562.747	68960
562.808	69278
562.869	67001
562.930	66872
562.991	66638
563.051	66374
563.112	65075
563.173	67066
563.234	62884
563.294	61800
563.355	61270
563.416	62466
563.477	62279
563.537	60525
563.598	60027
563.659	61045
563.720	60645
563.780	61420
563.841	62566
563.901	60995
563.962	57376
564.023	56043
564.083	55089
564.144	54806
564.204	55408
564.265	55148
564.325	53855
564.386	54981
564.446	51562
564.507	52178
564.567	51985
564.628	51281
564.688	50753
564.749	49660
564.809	51654
564.869	51161
564.930	50634
564.990	50796
565.050	49045
565.111	50189
565.171	48574
565.231	48584
565.292	49187
565.352	48163
565.412	48121
565.472	48116
565.532	47898
565.593	47139
565.653	46648
565.713	48345
565.773	49241
565.833	50985
565.893	49265
565.953	44719
566.013	44442
566.074	44267
566.134	43430
566.194	43060
566.254	43959
566.314	43484
566.374	42803
566.434	43039
566.494	44281
566.554	44879
566.614	45245
566.673	46531
566.733	46986
566.793	46793
566.853	47126
566.913	46584
566.973	46165
567.033	46493
567.092	45647
567.152	44845
567.212	46943
567.272	47614
567.331	48914
567.391	49638
567.451	51660
567.511	49236
567.570	48475
567.630	48492
567.690	45990
567.749	45972
567.809	45986
567.868	45570
567.928	46161
567.988	47300
568.047	47890
568.107	47494
568.166	45854
568.226	47588
568.285	48241
568.345	48511
568.404	46628
568.464	46590
568.523	46263
568.582	47015
568.642	46406
568.701	44755
568.761	42625
568.820	43294
568.879	44612
568.939	47358
568.998	46255
569.057	47201
569.116	47855
569.176	48818
569.235	48468
569.294	46696
569.353	44715
569.413	43815
569.472	42871
569.531	43786
569.590	42498
569.649	43963
569.708	43323
569.767	44633
569.827	44891
569.886	43355
569.945	43031
570.004	44772
570.063	45141
570.122	45866
570.181	46932
570.240	47587
570.299	46444
570.358	47875
570.417	47620
570.475	47931
570.534	48052
570.593	49569
570.652	49748
570.711	48597
570.770	45766
570.829	48383
570.887	47738
570.946	49576
571.005	49898
571.064	51261
571.122	49743
571.181	51552
571.240	52177
571.299	50167
571.357	47569
571.416	48589
571.475	49835
571.533	57780
571.592	60275
571.650	60143
571.709	68660
571.768	83545
571.826	86646
571.885	73679
571.943	61948
572.002	54389
572.060	50344
572.119	49093
572.177	48118
572.236	50142
572.294	52810
572.352	59249
572.411	60838
572.469	54576
572.528	50095
572.586	48440
572.644	45694
572.703	46366
572.761	44123
572.819	44673
572.877	43883
572.936	42866
572.994	44291
573.052	46718
573.110	51336
573.169	55947
573.227	54924
573.285	52797
573.343	49634
573.401	50141
573.459	53570
573.517	62058
573.576	66570
573.634	66123
573.692	66945
573.750	67542
573.808	61027
573.866	55002
573.924	52965
573.982	51581
574.040	53760
574.098	54649
574.155	53150
574.213	56175
574.271	63397
574.329	74473
574.387	64405
574.445	55676
574.503	51575
574.560	51419
574.618	52720
574.676	55821
574.734	52806
574.792	47962
574.849	43812
574.907	41169
574.965	38942
575.022	38650
575.080	37077
575.138	36837
575.195	35184
575.253	35440
575.311	35477
575.368	34470
575.426	34822
575.483	37905
575.541	39773
575.598	39791
575.656	42919
575.713	48919
575.771	55155
575.828	49498
575.886	43037
575.943	39512
576.001	36084
576.058	36082
576.115	36668
576.173	39811
576.230	41811
576.287	42106
576.345	42535
576.402	46851
576.459	48273
576.517	42637
576.574	39057
576.631	35538
576.688	33769
576.746	32748
576.803	32124
576.860	32171
576.917	33779
576.974	34668
577.031	33009
577.089	31909
577.146	30767
577.203	29489
577.260	30597
577.317	30753
577.374	29683
577.431	31097
577.488	31260
577.545	31304
577.602	33207
577.659	36398
577.716	43620
577.773	47308
577.830	37669
577.886	33705
577.943	32141
578.000	31047
578.057	29493
578.114	29726
578.171	29366
578.227	30236
578.284	29515
578.341	30968
578.398	29744
578.454	30504
578.511	30447
578.568	30482
578.625	30941
578.681	31098
578.738	30362
578.794	29461
578.851	31015
578.908	32146
578.964	31241
579.021	31403
579.077	31302
579.134	31315
579.190	31456
579.247	30870
579.303	29885
579.360	30711
579.416	32492
579.473	32561
579.529	30882
579.586	30908
579.642	32275
579.698	32487
579.755	30846
579.811	31476
579.867	32234
579.924	33347
579.980	34585
580.036	34042
580.093	32306
580.149	34998
580.205	34337
580.261	35462
580.317	36309
580.374	37738
580.430	37692
580.486	38600
580.542	39167
580.598	38297
580.619	37942
580.654	37341
580.692	37354
580.710	37381
580.765	36756
580.767	36745
580.823	39540
580.838	39855
580.879	40731
580.911	40470
580.935	40292
580.984	39636
580.991	39553
581.047	39672
581.057	39355
581.103	38008
581.130	37375
581.159	36648
581.203	36245
581.215	36154
581.270	35590
581.276	35440
581.326	34003
581.349	34435
581.382	35072
581.422	34973
581.438	34939
581.494	35186
581.494	35179
581.550	33873
581.567	34024
581.606	34353
581.640	34415
581.661	34451
581.713	35213
581.717	35262
581.773	35947
581.786	35974
581.829	36215
581.859	36342
581.885	36318
581.932	37116
581.940	37275
581.996	36658
582.004	36654
582.052	36453
582.077	36603
582.107	36751
582.150	37284
582.163	37429
582.219	35688
582.223	35820
582.274	37349
582.296	37252
582.330	37202
582.368	37941
582.386	38262
582.441	40122
582.441	40115
582.497	41723
582.514	42708
582.552	45502
582.587	49117
582.608	50824
582.659	44660
582.663	44118
582.719	41700
582.732	41436
582.774	40969
582.805	41069
582.830	41304
582.877	41384
582.885	41372
582.941	41290
582.950	41040
582.996	39478
583.023	39660
583.052	40031
583.095	40124
583.107	40215
583.162	41461
583.168	41523
583.218	41489
583.240	41226
583.273	41110
583.313	41273
583.328	41286
583.384	42997
583.385	42981
583.439	42792
583.458	43399
583.494	44495
583.531	45179
583.549	45555
583.603	45303
583.605	45296
583.660	46698
583.676	46664
583.715	46753
583.748	47134
583.770	47360
583.820	48318
583.825	48400
583.881	48210
583.893	48341
583.936	48895
583.965	48947
583.991	49098
584.038	50318
584.046	50565
584.101	51283
584.110	51462
584.156	52546
584.183	52925
584.211	53432
584.255	55376
584.266	55829
584.321	55982
584.328	56101
584.376	57681
584.400	58595
584.431	60026
584.472	61615
584.486	62147
584.541	64944
584.545	65103
584.596	68691
584.617	69602
584.651	71245
584.689	73649
584.706	74799
584.761	79153
584.762	79153
584.816	84572
584.834	86470
584.871	91028
584.906	95964
584.926	98958
584.978	108421
584.980	108923
585.035	121297
585.051	125358
585.090	138744
585.123	151281
585.145	161486
585.195	186647
585.200	189856
585.254	233712
585.267	246796
585.309	299900
585.340	339873
585.364	374505
585.412	442213
585.419	453808
585.473	586947
585.484	625889
585.528	846641
585.556	1050496
585.583	1363849
585.628	2078002
585.637	2256742
585.692	3622093
585.700	3735504
585.747	3965271
585.772	3622876
585.801	3020002
585.845	2310035
585.856	2046352
585.910	1077760
585.917	975667
585.965	659113
585.989	522044
586.019	439118
586.061	342531
586.074	325647
586.128	262050
586.133	256809
586.183	224871
586.205	211946
586.237	200083
586.277	186343
586.292	183299
586.346	172028
586.349	171205
586.401	163291
586.421	160786
586.455	158393
586.493	155118
586.509	155284
586.564	155744
586.565	155624
586.618	168633
586.637	174876
586.672	199102
586.709	228478
586.727	248091
586.781	293350
586.781	293780
586.835	255692
586.853	244447
586.889	210069
586.925	180689
586.944	172670
586.996	153421
586.998	153455
587.052	143889
587.068	141416
587.106	139629
587.140	137602
587.161	137370
587.212	136263
587.215	136533
587.269	135212
587.284	135156
587.323	137978
587.356	139341
587.377	140336
587.427	141463
587.431	141950
587.485	145242
587.499	145782
587.539	148435
587.571	149916
587.593	153302
587.643	159959
587.648	160655
587.702	163394
587.715	163622
587.755	164788
587.786	165393
587.810	166624
587.858	167264
587.864	167685
587.917	167699
587.930	167402
587.971	167774
588.001	167196
588.025	167407
588.073	166023
588.079	166279
588.133	165125
588.145	164624
588.187	165509
588.217	165077
588.241	166911
588.288	169877
588.295	170688
588.348	173504
588.360	173484
588.402	172467
588.431	170712
588.456	171282
588.503	173032
588.510	174519
588.564	182102
588.575	183307
588.617	188130
588.646	190567
588.671	193454
588.718	197832
588.725	199462
588.778	210064
588.789	212644
588.832	243675
588.861	268302
588.886	343544
588.932	510990
588.939	545402
588.993	752549
589.004	780590
589.047	479178
589.075	302278
589.100	264051
589.147	194384
589.154	194287
589.207	189208
589.218	187725
589.261	190545
589.290	191700
589.314	194292
589.361	198167
589.368	199917
589.421	211776
589.433	214595
589.475	269609
589.504	313488
589.528	396932
589.576	548775
589.582	539407
589.635	399162
589.647	373318
589.689	272710
589.718	201550
589.742	199587
589.790	193765
589.795	194574
589.849	196271
589.861	196134
589.902	197738
589.932	197659
589.955	198469
590.004	198365
590.009	198897
590.062	197378
590.075	196356
590.115	197134
590.146	196821
590.168	197744
590.218	198017
590.222	199056
590.275	203849
590.289	204469
590.328	210596
590.360	214119
590.381	214954
590.431	214639
590.435	215603
590.488	219849
590.503	220309
590.541	223784
590.574	225301
590.594	228916
590.645	236064
590.647	237233
590.700	246673
590.716	248722
590.753	255798
590.787	260624
590.806	263871
590.859	269269
590.859	270262
590.912	273826
590.930	274100
590.965	278603
591.001	280861
591.018	281396
591.071	280053
591.072	279037
591.124	274201
591.143	271336
591.177	275418
591.214	277842
591.230	280475
591.283	285604
591.285	284779
591.336	284964
591.356	283654
591.389	284480
591.427	283104
591.442	283193
591.495	279833
591.498	278572
591.547	284387
591.569	285658
591.600	290731
591.640	294763
591.653	296284
591.706	298165
591.711	297299
591.759	305879
591.782	308620
591.811	318049
591.853	328743
591.864	330018
591.917	330119
591.924	328919
591.969	328683
591.995	326608
592.022	331200
592.066	335607
592.075	338573
592.127	349015
592.137	349637
592.180	355184
592.208	356623
592.233	362300
592.279	369127
592.285	371949
592.338	383869
592.350	385092
592.390	384806
592.421	382067
592.443	386456
592.491	391336
592.495	393441
592.548	401509
592.562	402173
592.600	403010
592.633	400827
592.653	403341
592.704	403524
592.705	405954
592.775	410648
592.846	425187
592.916	433098
592.987	431275
593.058	433334
593.128	442988
593.199	443035
593.270	445943
593.341	455785
593.411	468760
593.482	486264
593.553	497890
593.623	506978
593.694	523092
593.764	533153
593.835	532690
593.906	531543
593.976	545840
594.047	559968
594.117	585638
594.188	601930
594.258	603578
594.329	600062
594.399	613576
594.470	636304
594.540	655626
594.611	670788
594.681	669361
594.751	669557
594.822	687336
594.892	715752
594.963	736606
595.033	756234
595.103	781706
595.174	786029
595.244	800753
595.314	824280
595.384	844603
595.455	870664
595.525	892516
595.595	927327
595.665	935434
595.736	905309
595.806	925887
595.876	937611
595.946	945493
596.016	978811
596.087	1017307
596.157	1017619
596.227	1017018
596.297	1060726
596.367	1130933
596.437	1197448
596.507	1196200
596.577	1182267
596.647	1224203
596.717	1279006
596.787	1312504
596.857	1309845
596.927	1312471
596.997	1327396
597.067	1344631
597.137	1378507
597.207	1376941
597.277	1381118
597.347	1328357
597.417	1280600
597.487	1266313
597.557	1295789
597.626	1331443
597.696	1338115
597.766	1337460
597.836	1277712
597.906	1208905
597.975	1182749
598.045	1192383
598.115	1238969
598.185	1316272
598.254	1445819
598.324	1579324
598.394	1617619
598.464	1576784
598.533	1545139
598.603	1469985
598.672	1404345
598.742	1434142
598.812	1440850
598.881	1483939
598.951	1476802
599.020	1484200
599.090	1531197
599.159	1567332
599.229	1515609
599.299	1466128
599.368	1501596
599.437	1503229
599.507	1391000
599.576	1332346
599.646	1320601
599.715	1311020
599.785	1281025
599.854	1240614
599.924	1215240
599.993	1200304
600.062	1230694
600.132	1262597
600.201	1310708
600.270	1497396
600.340	1609938
600.409	1581349
600.478	1564911
600.547	1573449
600.617	1499431
600.686	1193707
600.755	1061316
600.824	996218
600.894	958505
600.963	960929
601.032	951797
601.101	920155
601.170	867625
601.239	838617
601.308	827056
601.378	829536
601.447	827591
601.516	832930
601.585	837545
601.654	846468
601.723	850799
601.792	869841
601.861	907462
601.930	956882
601.999	952744
602.068	931470
602.137	949839
602.206	963401
602.275	979856
602.343	989470
602.412	993993
602.481	1005350
602.550	1018238
602.619	1043063
602.688	1061261
602.756	1069643
602.825	1077066
602.894	1099522
602.963	1136201
603.032	1146665
603.100	1153814
603.169	1153768
603.238	1160112
603.307	1170919
603.375	1182491
603.444	1202886
603.513	1235422
603.581	1254231
603.650	1274320
603.719	1262526
603.787	1301691
603.856	1339570
603.924	1369257
603.993	1414267
604.061	1470715
604.130	1532379
604.198	1562006
604.267	1589062
604.335	1618590
604.404	1634054
604.472	1659223
604.541	1671476
604.609	1683037
604.678	1685758
604.746	1687128
604.815	1739156
604.883	1772242
604.951	1772129
605.020	1799574
605.088	1832327
605.156	1875911
605.225	1908107
605.293	1913997
605.361	1915701
605.429	1938526
605.498	1961951
605.566	2017846
605.634	2086145
605.702	2156658
605.771	2212568
605.839	2223918
605.907	2195765
605.975	2123544
606.043	2080977
606.111	2086510
606.180	2074476
606.248	2082069
606.316	2093624
606.384	2040863
606.452	2037424
606.520	2093025
606.588	2171752
606.656	2190373
606.724	2164398
606.792	2062059
606.860	1909067
606.928	1744982
606.996	1666863
607.064	1634860
607.132	1669806
607.200	1747242
607.267	1817263
607.335	1837630
607.403	1887980
607.471	1852657
607.539	1765080
607.607	1807432
607.674	1628599
607.742	1607191
607.810	1596683
607.878	1596624
607.946	1620988
608.013	1683786
608.081	1731062
608.149	1728288
608.216	1781052
608.284	1842356
608.352	1834827
608.419	1836581
608.487	1795663
608.555	1762668
608.622	1808477
608.690	1889468
608.757	2061222
608.825	2133571
608.893	2084899
608.960	1995285
609.028	1891661
609.095	1880413
609.163	1890045
609.230	1759592
609.298	1573886
609.365	1651600
609.432	1764712
609.500	1885976
609.567	2098229
609.635	2345765
609.702	2485353
609.769	2427493
609.837	2058728
609.904	1788140
609.971	1867384
610.039	2073818
610.106	2536749
610.173	3792556
610.241	4847236
610.308	4806293
610.375	3309705
610.442	2231902
610.509	1962755
610.577	1862063
610.644	1852377
610.711	1882432
610.778	1916610
610.845	1968350
610.912	2069039
610.980	2158683
611.047	2222850
611.114	2165248
611.181	2056148
611.248	2044043
611.315	2117098
611.382	2184652
611.449	2244488
611.516	2288235
611.583	2276056
611.650	2297171
611.717	2343592
611.784	2416585
611.851	2534527
611.918	2731634
611.984	3124219
612.051	3884973
612.118	4624768
612.185	5171575
612.252	5184076
612.319	4587894
612.386	3812041
612.452	3134096
612.519	2788883
612.586	2626280
612.653	2586300
612.719	2613940
612.786	2545941
612.853	2379931
612.919	2292032
612.986	2325964
613.053	2222909
613.120	2108588
613.186	2019534
613.253	2016384
613.319	2016305
613.386	2027367
613.453	2054085
613.519	2060758
613.586	2023997
613.652	2047354
613.719	2028523
613.785	2044095
613.852	2084969
613.918	2078265
613.985	2084068
614.051	2215909
614.118	2349033
614.184	2401922
614.250	2090384
614.317	2107080
614.383	2064935
614.449	2100744
614.516	2090371
614.582	2094945
614.648	2066175
614.715	2042258
614.781	2025666
614.847	1992370
614.914	2001974
614.980	1954424
615.046	1948049
615.112	1997746
615.179	2017624
615.245	2046049
615.311	2034534
615.377	2050749
615.443	2098640
615.509	2123193
615.575	2225853
615.642	2268117
615.708	2305080
615.774	2430498
615.840	2626906
615.906	2869469
615.972	3368118
616.038	4195236
616.104	4832820
616.170	5257548
616.236	5282923
616.302	4930117
616.368	4549436
616.434	4071311
616.500	3438727
616.565	3399634
616.631	4076161
616.697	3993860
616.763	3672132
616.829	4264107
616.895	4921983
616.961	5078657
617.026	4544510
617.092	3497546
617.158	2717096
617.224	2418064
617.289	2156022
617.355	1992504
617.421	1910825
617.487	1878016
617.552	1778940
617.618	1735885
617.684	1730870
617.749	1719369
617.815	1657826
617.880	1610278
617.946	1590465
618.012	1607079
618.077	1647041
618.143	1588606
618.208	1560807
618.274	1652006
618.339	1704602
618.405	1456360
618.470	1378838
618.536	1405955
618.601	1368669
618.667	1297574
618.732	1209003
618.798	1188835
618.863	1184770
618.928	1171071
618.994	1184315
619.059	1175709
619.124	1190701
619.190	1177706
619.255	1164140
619.320	1157461
619.386	1163061
619.451	1166020
619.516	1117840
619.581	1119612
619.647	1154487
619.712	1167540
619.777	1097201
619.842	1102744
619.907	1116199
619.972	1138206
620.038	1147888
620.103	1100397
620.168	1106867
620.233	1116939
620.298	1119227
620.363	1141735
620.428	1167065
620.493	1189798
620.558	1218675
620.623	1226432
620.688	1227452
620.753	1215929
620.818	1243012
620.883	1242019
620.948	1245444
621.013	1223798
621.078	1202282
621.143	1216643
621.207	1231486
621.272	1213926
621.337	1178324
621.402	1151784
621.467	1146475
621.532	1132839
621.596	1144472
621.661	1112758
621.726	1094455
621.791	1109395
621.855	1118083
621.920	1093886
621.985	1116731
622.049	1135048
622.114	1141605
622.179	1159067
622.243	1185413
622.308	1221482
622.373	1263868
622.437	1257623
622.502	1183004
622.566	1164414
622.631	1166083
622.695	1181145
622.760	1177882
622.824	1170549
622.889	1181158
622.953	1176524
623.018	1223205
623.082	1275820
623.147	1255989
623.211	1231706
623.276	1221550
623.340	1194076
623.404	1138889
623.469	1136120
623.533	1146342
623.597	1137251
623.662	1120234
623.726	1059468
623.790	980440
623.854	945723
623.919	955701
623.983	974461
624.047	999553
624.111	1006168
624.176	1037773
624.240	1033331
624.304	1066718
624.368	1044113
624.432	1029103
624.496	1054779
624.560	1112760
624.625	1146098
624.689	1115767
624.753	1169072
624.817	1144088
624.881	1104351
624.945	1016323
625.009	952775
625.073	974251
625.137	1002381
625.201	1051766
625.265	1076326
625.329	1027300
625.393	1030356
625.456	1048663
625.520	1073962
625.584	1092005
625.648	1120049
625.712	1144511
625.776	1145031
625.839	1087425
625.903	960750
625.967	862652
626.031	890560
626.095	1041329
626.158	1078415
626.222	843221
626.286	747397
626.349	724710
626.413	681584
626.477	657693
626.540	679735
626.604	682920
626.668	662358
626.731	649576
626.795	660207
626.858	664084
626.922	664283
626.986	645750
627.049	653441
627.113	676804
627.176	667147
627.240	641985
627.303	647062
627.366	649226
627.430	653736
627.493	657478
627.557	639126
627.620	641924
627.684	676311
627.747	692754
627.810	658930
627.874	586429
627.937	557456
628.000	565083
628.064	563800
628.127	509296
628.190	490934
628.253	475239
628.317	468454
628.380	438028
628.443	423680
628.506	418116
628.569	413544
628.632	385593
628.696	383841
628.759	384966
628.822	371562
628.885	364471
628.948	357703
629.011	349219
629.074	342952
629.137	333355
629.200	325679
629.263	318181
629.326	317981
629.389	321176
629.452	319506
629.515	312621
629.578	310734
629.641	312972
629.704	322403
629.767	317121
629.830	307072
629.892	301423
629.955	299853
630.018	303992
630.081	308842
630.144	306151
630.207	302388
630.269	300967
630.332	297422
630.395	293680
630.458	290734
630.520	279767
630.583	280573
630.646	286734
630.708	293745
630.771	300516
630.834	317732
630.896	314701
630.959	315081
631.021	312093
631.084	312067
631.146	317060
631.209	325483
631.272	329543
631.334	341651
631.397	355171
631.459	365274
631.522	385407
631.584	411281
631.646	440310
631.709	466360
631.771	471507
631.834	453064
631.896	428638
631.958	396226
632.021	370909
632.083	351403
632.145	337404
632.208	325297
632.270	318095
632.332	314928
632.395	311060
632.457	308395
632.519	301620
632.581	297577
632.643	295239
632.706	298624
632.768	292221
632.830	292808
632.892	302741
632.954	308325
633.016	311661
633.078	307056
633.141	307681
633.203	308995
633.265	309789
633.327	305542
633.389	313294
633.451	320936
633.513	317803
633.575	332235
633.637	337187
633.698	346093
633.760	364420
633.822	385799
633.884	405175
633.946	429136
634.008	456737
634.070	487913
634.132	541065
634.193	586642
634.255	620168
634.317	646353
634.379	633796
634.441	579558
634.502	522655
634.564	463585
634.626	425410
634.687	389508
634.749	365148
634.811	355106
634.873	347654
634.934	343976
634.996	339810
635.057	341003
635.119	349480
635.181	363159
635.242	368249
635.304	367483
635.365	367671
635.427	365929
635.488	371136
635.550	375270
635.611	382628
635.673	400925
635.734	433175
635.796	466241
635.857	513407
635.918	565290
635.980	622037
636.041	681258
636.102	717456
636.164	738711
636.225	708885
636.286	640731
636.348	562563
636.409	493264
636.470	444001
636.531	408158
636.593	379015
636.654	351266
636.715	327955
636.776	315813
636.838	304488
636.899	291604
636.960	282374
637.021	280286
637.082	268798
637.143	262642
637.204	253029
637.265	255072
637.326	253217
637.387	258118
637.448	259105
637.509	253431
637.570	250156
637.631	245950
637.692	236863
637.753	230818
637.814	225103
637.875	224370
637.936	220694
637.997	224388
638.058	228614
638.119	220629
638.179	217785
638.240	217846
638.301	217320
638.362	212185
638.423	204639
638.483	200155
638.544	196226
638.605	200351
638.666	206128
638.726	201450
638.787	198058
638.848	202657
638.908	194535
638.969	186358
639.030	181317
639.090	182657
639.151	184486
639.211	187282
639.272	194009
639.332	198322
639.393	208819
639.453	232516
639.514	256132
639.574	220785
639.635	188604
639.695	179507
639.756	175536
639.816	174542
639.877	170208
639.937	176677
639.997	177598
640.058	176379
640.118	178654
640.178	178562
640.239	178736
640.299	184517
640.359	192817
640.420	208993
640.480	240739
640.540	289184
640.600	325699
640.661	308465
640.721	293138
640.781	329696
640.841	392621
640.901	246251
640.961	202871
641.021	209824
641.082	241926
641.142	221675
641.202	186282
641.262	169720
641.322	168765
641.382	164112
641.442	164688
641.502	163565
641.562	167372
641.622	181008
641.682	201040
641.742	245666
641.802	258305
641.861	201880
641.921	174217
641.981	161751
642.041	153729
642.101	152410
642.161	151833
642.221	152484
642.280	154718
642.340	154024
642.400	157676
642.460	162025
642.519	163459
642.579	166243
642.639	168229
642.698	171945
642.758	179351
642.818	177463
642.877	177055
642.937	178283
642.997	174212
643.056	178161
643.116	179000
643.175	183493
643.235	192436
643.294	205975
643.354	223758
643.414	251136
643.473	301395
643.532	377348
643.592	502509
643.651	720014
643.711	1108117
643.770	1856578
643.830	3334168
643.889	4381073
643.948	3727339
644.008	1407985
644.067	689375
644.126	453749
644.186	347013
644.245	284923
644.304	247334
644.363	231181
644.423	219242
644.482	217530
644.541	229402
644.600	252846
644.659	306896
644.719	384691
644.778	532929
644.837	819883
644.896	1442006
644.955	3011168
645.014	2170790
645.073	613890
645.132	363633
645.191	294682
645.250	267794
645.309	267428
645.368	296840
645.427	374189
645.486	597633
645.545	1283207
645.604	647560
645.663	247103
645.722	229594
645.781	245523
645.840	279418
645.898	341607
645.957	456375
646.016	654638
646.075	1018132
646.134	1711028
646.192	3245960
646.251	4219756
646.310	2628360
646.369	918235
646.427	565100
646.486	438021
646.545	285315
646.603	237660
646.662	212701
646.721	200330
646.779	201794
646.838	218046
646.896	256230
646.955	337875
647.014	496218
647.072	863842
647.131	2067100
647.189	2008492
647.248	425923
647.306	210689
647.365	169510
647.423	148186
647.481	140347
647.540	132389
647.598	129081
647.657	127126
647.715	123767
647.773	120116
647.832	116371
647.890	111191
647.948	108579
648.007	106744
648.065	103683
648.123	105778
648.181	107329
648.240	117134
648.298	127955
648.356	103543
648.414	100772
648.472	99657
648.531	98440
648.589	96274
648.647	98901
648.705	103090
648.763	106213
648.821	115504
648.879	124420
648.937	143124
648.995	177983
649.053	230860
649.111	324196
649.169	490359
649.227	801116
649.285	1450654
649.343	3144969
649.401	3035080
649.459	859604
649.516	373282
649.574	286622
649.632	320767
649.690	430789
649.748	352991
649.806	443638
649.863	753389
649.921	1559071
649.979	1922799
650.037	421466
650.094	166850
650.152	130639
650.210	116216
650.268	114216
650.325	127049
650.383	184687
650.440	129001
650.498	84609
650.556	81545
650.613	79779
650.671	79867
650.728	84363
650.786	92904
650.843	137177
650.901	150546
650.958	79152
651.016	70692
651.073	67698
651.131	66345
651.188	64461
651.246	64166
651.303	62380
651.360	62908
651.418	61573
651.475	61509
651.532	60403
651.590	61223
651.647	59250
651.704	60102
651.762	59359
651.819	58253
651.876	57643
651.933	56015
651.990	55853
652.048	55858
652.105	54513
652.162	55970
652.219	54869
652.276	54786
652.333	54895
652.390	54272
652.448	55614
652.505	56465
652.562	60472
652.619	63888
652.676	83464
652.733	107198
652.790	63322
652.847	51287
652.904	52860
652.961	49154
653.017	49567
653.074	50216
653.131	49104
653.188	49545
653.245	49811
653.302	50784
653.359	49587
653.415	50918
653.472	49376
653.529	50076
653.586	51000
653.642	51950
653.699	53389
653.756	52785
653.813	52793
653.869	54553
653.926	56562
653.983	56309
654.039	53303
654.096	51388
654.152	50007
654.209	46829
654.266	47625
654.322	46401
654.379	48207
654.435	49017
654.492	47692
654.548	49227
654.605	51487
654.661	61508
654.717	55255
654.774	49908
654.830	51968
654.887	54067
654.943	60258
655.000	83512
655.056	81350
655.112	56481
655.168	52220
655.225	55173
655.281	54325
655.337	52963
655.394	51265
655.450	47683
655.506	46936
655.562	46735
655.618	47055
655.675	46179
655.731	46418
655.787	45345
655.843	47079
655.899	46535
655.955	48831
656.011	49680
656.067	49826
656.123	50083
656.179	48611
656.235	50062
656.291	50302
656.347	53780
656.403	51533
656.459	50260
656.515	49679
656.571	47376
656.627	45585
656.683	46153
656.739	46734
656.795	45737
656.850	46597
656.906	48782
656.962	52202
657.018	58091
657.074	69497
657.129	90078
657.185	129737
657.241	286726
657.297	316830
657.352	79439
657.408	49156
657.464	45725
657.519	44394
657.575	42138
657.630	42060
657.686	41653
657.742	41400
657.797	42326
657.853	43150
657.908	45601
657.964	42423
658.019	42721
658.075	42187
658.130	41435
658.186	40836
658.241	41379
658.297	39194
658.352	39527
658.407	40237
658.463	39466
658.518	39169
658.573	39257
658.629	38935
658.684	38546
658.739	38966
658.795	38643
658.850	38936
658.905	38428
658.960	38511
659.016	37833
659.071	37508
659.126	37558
659.181	37074
659.236	39290
659.291	39323
659.346	40287
659.401	44698
659.457	51841
659.512	73372
659.567	57524
659.622	39207
659.677	37969
659.732	36053
659.787	36717
659.842	36488
659.897	37372
659.952	36980
660.007	37787
660.061	35409
660.116	36237
660.171	35901
660.226	36642
660.281	37105
660.336	36742
660.391	35646
660.445	35349
660.500	35714
660.555	35450
660.610	34779
660.664	36999
660.719	34014
660.774	35273
660.828	35495
660.883	33952
660.938	34352
660.992	33671
661.047	35130
661.101	33432
661.156	33586
661.211	33582
661.265	33512
661.320	34522
661.374	35955
661.429	36216
661.483	37385
661.538	37854
661.592	41211
661.647	49617
661.701	76933
661.755	67005
661.810	39169
661.864	35558
661.919	34669
661.973	34529
662.027	34121
662.081	33603
662.136	33334
662.190	33849
662.244	34551
662.299	33843
662.353	33968
662.407	33985
662.461	32827
662.515	33569
662.569	31236
662.624	32977
662.678	30256
662.732	33418
662.786	33536
662.840	33011
662.894	33756
662.948	33887
663.002	33735
663.056	34050
663.110	32783
663.164	35103
663.218	35400
663.272	35451
663.326	35962
663.380	34265
663.434	34395
663.488	34628
663.542	35528
663.595	35343
663.649	35373
663.703	35970
663.757	35244
663.811	34245
663.864	34234
663.918	36115
663.972	35024
664.026	35852
664.079	34915
664.133	37138
664.187	38679
664.240	39125
664.294	40813
664.348	47643
664.401	38759
664.455	35683
664.508	35316
664.562	35654
664.615	35607
664.669	34761
664.722	34610
664.776	34051
664.829	35226
664.883	35279
664.936	34186
664.990	37767
665.043	36631
665.097	35972
665.150	37946
665.203	37669
665.257	37495
665.310	39823
665.363	38766
665.417	39871
665.470	40988
665.523	42169
665.576	42097
665.630	41551
665.683	41368
665.736	42944
665.789	42195
665.842	39188
665.895	38403
665.949	39505
666.002	38690
666.055	40234
666.108	40982
666.161	41402
666.214	40699
666.267	41527
666.320	41830
666.373	44461
666.426	45692
666.479	44814
666.532	45562
666.585	47913
666.638	48326
666.691	46928
666.744	43615
666.796	43528
666.849	42350
666.902	42148
666.955	41571
667.008	41153
667.060	39456
667.113	41153
667.166	42795
667.219	43842
667.271	44180
667.324	44177
667.377	43408
667.430	44888
667.482	48917
667.535	52431
667.587	41872
667.640	39487
667.693	39026
667.745	40258
667.798	41557
667.850	39931
667.903	40997
667.955	43321
668.008	41763
668.060	42676
668.113	40758
668.165	39750
668.218	39091
668.270	39319
668.322	38067
668.375	38439
668.427	37584
668.479	38589
668.532	40541
668.584	40101
668.636	36993
668.689	39372
668.741	38463
668.793	38313
668.845	38818
668.898	39907
668.950	37729
669.002	39282
669.054	38054
669.106	37067
669.158	38377
669.211	37836
669.263	38388
669.315	42640
669.367	51992
669.419	43588
669.471	36482
669.523	36063
669.575	36468
669.627	35741
669.679	34731
669.731	35642
669.783	36701
669.835	35098
669.886	34741
669.938	35401
669.990	36357
670.042	35805
670.094	34063
670.146	34737
670.197	35922
670.249	34549
670.301	33918
670.353	36773
670.404	36652
670.456	36180
670.508	37029
670.560	39687
670.611	40115
670.663	43178
670.715	52915
670.766	70326
670.818	57391
670.869	45429
670.921	47949
670.972	55402
671.024	52410
671.075	48985
671.127	50752
671.178	57531
671.230	64681
671.281	75689
671.333	89882
671.384	108365
671.436	140868
671.487	191134
671.538	260394
671.590	369439
671.641	548693
671.692	847442
671.744	1446922
671.795	1723836
671.846	1089223
671.897	582126
671.949	349608
672.000	232925
672.051	167170
672.102	128708
672.153	102792
672.204	88293
672.256	77887
672.307	69240
672.358	60645
672.409	56958
672.460	53710
672.511	49033
672.562	44446
672.613	42171
672.664	39800
672.715	40832
672.766	38704
672.817	34987
672.868	34962
672.919	34146
672.970	31812
673.021	32509
673.071	32163
673.122	32565
673.173	30537
673.224	31323
673.275	31842
673.326	30848
673.376	30212
673.427	28905
673.478	29279
673.528	32578
673.579	31651
673.630	31489
673.680	31403
673.731	30930
673.782	30112
673.832	30571
673.883	30300
673.934	30600
673.984	30101
674.035	31035
674.085	31532
674.136	32406
674.186	31498
674.237	34456
674.287	33313
674.338	35597
674.388	37900
674.438	40216
674.489	41402
674.539	42480
674.589	42138
674.640	42391
674.690	39765
674.740	39405
674.791	37668
674.841	36080
674.891	32208
674.942	29387
674.992	27849
675.042	28635
675.092	28389
675.142	26522
675.193	25829
675.243	27316
675.293	28980
675.343	30243
675.393	30592
675.443	30432
675.493	29983
675.543	28726
675.593	28932
675.643	29855
675.693	28751
675.743	28898
675.793	27404
675.843	23952
675.893	23502
675.943	24286
675.993	23448
676.043	23220
676.093	21558
676.142	24208
676.192	23541
676.242	22572
676.292	23161
676.341	22516
676.391	21901
676.441	22247
676.491	21649
676.540	20503
676.590	20819
676.640	20313
676.689	21113
676.739	19431
676.789	19394
676.838	19967
676.888	18574
676.937	18882
676.987	21411
677.037	21071
677.086	21043
677.136	20155
677.185	19821
677.235	20703
677.284	20116
677.333	20631
677.383	20698
677.432	19854
677.482	18830
677.531	18833
677.580	18318
677.630	19981
677.679	18791
677.728	19887
677.778	19417
677.827	18651
677.876	19664
677.925	21701
677.975	21698
678.024	24227
678.073	26729
678.122	26176
678.171	27856
678.220	31597
678.269	34837
678.319	40519
678.368	43440
678.417	38967
678.466	29980
678.515	26267
678.564	21754
678.613	20816
678.662	19189
678.711	20654
678.760	20257
678.809	21890
678.857	22905
678.906	26531
678.955	25886
679.004	26675
679.053	29148
679.102	35560
679.151	27271
679.199	21163
679.248	18576
679.297	19615
679.346	17724
679.394	17242
679.443	17002
679.492	18087
679.540	18390
679.589	20032
679.638	20984
679.686	21559
679.735	22811
679.784	27839
679.832	35674
679.881	35836
679.929	26080
679.978	22051
680.026	21035
680.075	20531
680.123	18804
680.172	17687
680.220	17345
680.268	19168
680.317	16551
680.365	16235
680.414	15208
680.462	16537
680.510	16012
680.559	16556
680.607	15949
680.655	16529
680.703	16576
680.752	17670
680.800	15650
680.848	16914
680.896	15444
680.945	16136
680.993	16020
681.041	15394
681.089	15248
681.137	15670
681.185	14824
681.233	15485
681.258	16097
681.281	16653
681.329	16452
681.377	14293
681.380	14388
681.425	15645
681.473	16485
681.502	16936
681.521	17206
681.569	18392
681.617	18402
681.624	18337
681.665	17701
681.713	16463
681.745	17004
681.761	17219
681.809	16972
681.857	18278
681.867	18121
681.904	17484
681.952	17638
681.989	17676
682.000	17637
682.048	18222
682.096	16643
682.111	16579
682.143	16361
682.191	16389
682.233	16904
682.239	16956
682.286	17396
682.334	17433
682.354	17451
682.382	17429
682.430	18462
682.476	18075
682.477	18040
682.525	17335
682.572	17874
682.598	17593
682.620	17311
682.667	18015
682.715	16690
682.720	16799
682.763	17503
682.810	17171
682.841	17726
682.857	18002
682.905	17836
682.952	17300
682.963	17279
683.000	17014
683.047	17048
683.085	17125
683.095	17141
683.142	17328
683.190	17268
683.206	17223
683.237	17005
683.284	16527
683.328	16828
683.332	16830
683.379	16955
683.426	16700
683.449	17091
683.473	17503
683.521	17421
683.568	17986
683.571	17989
683.615	17662
683.662	18395
683.693	18110
683.709	17851
683.757	16950
683.804	16430
683.814	16315
683.851	15904
683.898	16384
683.936	16850
683.945	16958
683.992	17135
684.039	16118
684.057	16592
684.086	17261
684.133	16971
684.179	16487
684.180	16450
684.227	16318
684.274	17385
684.300	16718
684.321	16213
684.368	16591
684.415	16796
684.422	16834
684.462	16931
684.509	16961
684.543	17408
684.556	17561
684.603	18152
684.649	17736
684.665	17779
684.696	17736
684.743	18082
684.786	18123
684.790	18108
684.837	17586
684.883	16503
684.908	16925
684.930	17361
684.977	18684
685.023	19066
685.029	19019
685.070	18484
685.117	18072
685.150	18420
685.164	18516
685.210	18124
685.257	18242
685.272	18301
685.303	18526
685.350	19531
685.393	19335
685.396	19272
685.443	17486
685.490	16785
685.514	16817
685.536	16959
685.583	17118
685.629	17148
685.636	17135
685.675	17076
685.722	17126
685.757	17496
685.768	17600
685.815	17552
685.861	17829
685.878	17683
685.908	17392
685.954	17913
686.000	18251
686.000	18251
686.047	18827
686.093	19602
686.121	19458
686.139	19297
686.185	19274
686.232	19335
686.242	19397
686.278	19499
686.324	19110
686.363	18966
686.370	18967
686.416	19581
686.463	19821
686.484	19884
686.509	19961
686.555	19525
686.601	20200
686.606	20133
686.647	19045
686.693	19080
686.727	18776
686.739	18750
686.785	18905
686.831	18485
686.848	18821
686.877	19286
686.923	18775
686.969	18352
686.969	18352
687.015	19362
687.061	19863
687.090	20728
687.107	21155
687.153	21518
687.199	21459
687.211	21265
687.245	20305
687.291	19860
687.332	19865
687.336	19932
687.382	21432
687.428	22224
687.453	22198
687.474	22284
687.520	23624
687.565	25296
687.574	25488
687.611	27475
687.657	31617
687.695	35422
687.702	37007
687.748	48529
687.794	69362
687.816	73485
687.839	72613
687.885	56873
687.931	48647
687.937	48307
687.976	41056
688.022	31217
688.058	24305
688.067	24131
688.113	23027
688.158	22255
688.179	21816
688.204	21747
688.249	21995
688.295	21870
688.300	21933
688.340	22420
688.386	21954
688.421	21631
688.431	21536
688.477	21111
688.522	21879
688.542	21988
688.567	22606
688.613	23442
688.658	24920
688.663	24968
688.703	24594
688.749	23672
688.784	23396
688.794	23311
688.839	23412
688.884	23353
688.905	23365
688.930	23692
688.975	23730
689.020	23376
689.026	23440
689.065	23862
689.110	24191
689.146	24971
689.155	25495
689.201	27895
689.246	30920
689.267	30765
689.291	28846
689.336	25989
689.381	24171
689.388	23888
689.426	23668
689.471	23488
689.509	23142
689.516	23128
689.561	22675
689.606	22489
689.630	22608
689.651	22795
689.696	22347
689.741	22467
689.750	22568
689.785	23177
689.830	23352
689.871	23529
689.875	23549
689.920	23415
689.965	23410
689.992	23230
690.010	22971
690.054	22906
690.099	21862
690.112	22002
690.144	22730
690.189	21910
690.233	22648
690.233	22670
690.278	22422
690.323	22896
690.354	22967
690.367	23055
690.412	23452
690.457	23858
690.474	23695
690.501	23082
690.546	22780
690.590	22022
690.595	21928
690.635	21783
690.680	21655
690.716	21671
690.724	21689
690.769	21816
690.813	21680
690.836	21528
690.857	21702
690.902	22705
690.946	23877
690.957	23890
690.991	23499
691.035	23151
691.077	22656
691.080	22687
691.124	24107
691.168	24357
691.198	24560
691.213	24333
691.257	23444
691.301	22616
691.318	22345
691.346	22542
691.390	23282
691.434	23337
691.439	23348
691.478	23336
691.522	23069
691.559	23211
691.567	23376
691.611	24640
691.655	25067
691.680	25110
691.699	24946
691.743	25005
691.787	24651
691.800	24708
691.831	24721
691.875	24431
691.919	24039
691.921	23991
691.964	23790
692.008	24254
692.041	24363
692.052	24460
692.096	24582
692.139	24568
692.162	24750
692.183	24739
692.227	24353
692.271	24399
692.282	24179
692.315	23822
692.359	23761
692.402	23560
692.403	23593
692.447	24162
692.490	23906
692.523	23987
692.534	24008
692.578	24308
692.622	24492
692.643	24208
692.666	23943
692.709	24423
692.753	23847
692.763	23913
692.797	24625
692.840	24769
692.884	25226
692.884	25261
692.928	24865
692.971	24838
693.004	24361
693.015	24292
693.059	24279
693.102	24170
693.124	24153
693.146	24232
693.189	24116
693.233	24356
693.245	24218
693.276	24358
693.320	24972
693.363	25357
693.365	25336
693.407	25290
693.450	25145
693.485	25040
693.493	25100
693.537	25138
693.580	25172
693.605	25184
693.624	25104
693.667	25214
693.710	24640
693.725	24437
693.753	24217
693.797	24053
693.840	23953
693.845	23875
693.883	23962
693.926	24302
693.966	24427
693.970	24494
694.013	24432
694.056	25150
694.086	25342
694.099	25372
694.142	25099
694.185	25096
694.206	24886
694.229	25047
694.272	25880
694.315	26475
694.326	26511
694.358	26306
694.401	26075
694.444	26223
694.446	26161
694.487	26284
694.530	26672
694.566	26738
694.573	26723
694.616	26817
694.659	26421
694.686	26449
694.702	26802
694.745	27224
694.787	27869
694.806	28020
694.830	27986
694.873	27890
694.916	27842
694.926	27816
694.959	28367
695.002	28759
695.044	29409
695.046	29388
695.087	30355
695.130	31282
695.166	31688
695.172	31636
695.215	30854
695.258	30650
695.286	30272
695.301	30705
695.343	32088
695.386	33099
695.406	33523
695.428	34396
695.471	36145
695.514	38035
695.526	38612
695.556	42402
695.599	47694
695.641	52289
695.646	52664
695.684	49618
695.726	46554
695.766	43547
695.769	43533
695.811	42352
695.854	41019
695.886	40007
695.896	40056
695.938	39969
695.981	39949
696.005	39892
696.023	41020
696.065	43648
696.108	46228
696.125	47179
696.150	48705
696.192	51445
696.235	53870
696.245	54301
696.277	53861
696.319	53527
696.361	53213
696.365	53080
696.404	52421
696.446	51355
696.485	50591
696.488	50673
696.530	50371
696.572	50186
696.604	49782
696.614	49888
696.656	50112
696.698	50235
696.724	50225
696.740	50389
696.783	50684
696.825	51061
696.844	51040
696.867	51469
696.909	52117
696.951	52805
696.964	52929
696.992	53031
697.034	52916
697.076	52860
697.083	52779
697.118	54771
697.160	57084
697.202	59074
697.203	59016
697.244	58365
697.286	57717
697.323	56970
697.327	57085
697.369	56945
697.411	57148
697.442	56955
697.453	57158
697.494	57749
697.536	58252
697.562	58436
697.578	58442
697.620	58153
697.661	57754
697.682	57594
697.703	58905
697.744	61145
697.786	63419
697.801	64052
697.828	63917
697.869	63616
697.911	63268
697.921	63068
697.952	62777
697.994	62247
698.035	61610
698.040	61410
698.077	61799
698.118	62237
698.160	62589
698.160	62465
698.201	63702
698.243	65011
698.279	66011
698.284	66395
698.325	68676
698.367	70989
698.399	72650
698.408	72945
698.449	73611
698.491	74285
698.518	74539
698.532	74616
698.573	74437
698.614	74260
698.638	73989
698.656	74189
698.697	74311
698.738	74447
698.757	74341
698.779	74531
698.820	74631
698.862	74709
698.877	74586
698.903	74367
698.944	73768
698.985	73171
698.996	72854
699.026	73339
699.067	73803
699.116	74204
699.235	74380
699.354	73666
699.474	70319
699.593	66783
699.713	68585
699.832	69720
699.951	71765
700.070	72752
700.190	66564
700.309	65316
700.428	62674
700.547	63116
700.667	61515
700.786	63019
700.905	59890
701.024	60257
701.143	60620
701.262	62698
701.381	65372
701.500	67126
701.619	63103
701.738	66047
701.857	63756
701.976	60598
702.095	60704
702.214	65323
702.333	61468
702.452	66617
702.571	64553
702.690	65645
702.809	66113
702.928	62225
703.047	60063
703.165	58280
703.284	62014
703.403	58395
703.522	60963
703.640	55848
703.759	57560
703.878	54222
703.997	58424
704.115	60858
704.234	60266
704.353	63061
704.471	56971
704.590	54569
704.708	55156
704.827	52619
704.946	54357
705.064	54011
705.183	53205
705.301	54939
705.420	53615
705.538	50996
705.656	52945
705.775	56587
705.893	99248
706.012	173198
706.130	61744
706.249	52418
706.367	48450
706.485	48519
706.604	46973
706.722	52516
706.840	70813
706.958	144141
707.077	148860
707.195	55583
707.313	49502
707.431	43054
707.549	45071
707.668	39731
707.786	46237
707.904	44406
708.022	46373
708.140	46017
708.258	41837
708.376	47928
708.494	42995
708.612	49005
708.730	52110
708.848	49474
708.966	49613
709.084	47967
709.202	47634
709.320	41222
709.438	40895
709.556	42972
709.674	36589
709.791	38150
709.909	38944
710.027	37644
710.145	37857
710.263	36795
710.380	37984
710.498	36093
710.616	36117
710.733	35334
710.851	34578
710.969	37361
711.086	35433
711.204	36696
711.322	37037
711.439	36985
711.557	33987
711.674	34773
711.792	37313
711.909	42311
712.027	53843
712.144	38618
712.262	34808
712.379	36783
712.497	35943
712.614	34341
712.732	36122
712.849	34517
712.966	36217
713.084	39920
713.201	35469
713.318	37814
713.436	46342
713.553	45836
713.670	54124
713.787	52986
713.905	48511
714.022	52716
714.139	60130
714.256	81892
714.373	129989
714.490	259788
714.608	634749
714.725	2225363
714.842	3445780
714.959	715466
715.076	189762
715.193	109767
715.310	84886
715.427	59046
715.544	51313
715.661	50544
715.778	43067
715.895	41423
716.011	43281
716.128	40959
716.245	38711
716.362	35458
716.479	30718
716.596	33124
716.713	35307
716.829	34505
716.946	29744
717.063	29376
717.180	26836
717.296	28764
717.413	28893
717.530	27105
717.646	24962
717.763	25867
717.880	25595
717.996	25252
718.113	25165
718.229	26108
718.346	24920
718.462	25262
718.579	26038
718.695	26556
718.812	25801
718.928	26525
719.045	26974
719.161	27325
719.277	30702
719.394	33463
719.510	35085
719.626	43081
719.743	57370
719.859	106132
719.975	236096
720.092	828259
720.208	2422541
720.324	740642
720.440	111431
720.557	60830
720.673	46847
720.789	38759
720.905	30105
721.021	30831
721.137	27541
721.253	24574
721.369	25050
721.486	26513
721.602	24535
721.718	22046
721.834	22330
721.950	23975
722.066	22299
722.181	20959
722.297	21762
722.413	22403
722.529	22426
722.645	22935
722.761	24406
722.877	28236
722.993	33507
723.108	55801
723.224	58458
723.340	35396
723.456	26040
723.571	22312
723.687	20475
723.803	22239
723.918	22318
724.034	19290
724.150	19594
724.265	20344
724.381	18362
724.497	18748
724.612	18646
724.728	19703
724.843	17452
724.959	18620
725.074	20494
725.190	20109
725.305	19280
725.421	18354
725.536	19703
725.651	21447
725.767	19735
725.882	18809
725.997	17794
726.113	20222
726.228	18558
726.343	18349
726.459	17597
726.574	19769
726.689	19014
726.804	18906
726.920	18063
727.035	18504
727.150	19507
727.265	19431
727.380	19681
727.495	19782
727.610	19576
727.725	20485
727.841	27143
727.956	64674
728.071	68843
728.186	20871
728.301	18290
728.416	20588
728.531	19482
728.645	18877
728.760	18118
728.875	20491
728.990	18738
729.105	18943
729.220	18868
729.335	19923
729.449	19199
729.564	19298
729.679	18474
729.794	21636
729.908	20904
730.023	20085
730.138	20346
730.253	22956
730.367	21326
730.482	21428
730.596	24167
730.711	30454
730.826	52215
730.940	85561
731.055	43184
731.169	35993
731.284	38599
731.398	39867
731.513	44034
731.627	51031
731.742	65000
731.856	86833
731.970	98925
732.085	138820
732.199	218522
732.313	410157
732.428	948089
732.542	2354049
732.656	2105149
732.771	534842
732.885	219524
732.999	145260
733.113	125348
733.227	106712
733.342	94262
733.456	88844
733.570	81125
733.684	75956
733.798	70307
733.912	70529
734.026	70646
734.140	67744
734.254	65196
734.368	62525
734.482	62197
734.596	64428
734.710	60806
734.824	58176
734.938	56994
735.052	61533
735.166	58027
735.280	56857
735.393	54816
735.507	57157
735.621	55497
735.735	52928
735.849	54949
735.962	50568
736.076	53670
736.190	52004
736.303	53192
736.417	52896
736.531	48311
736.644	53935
736.758	49218
736.872	51641
736.985	49012
737.099	50346
737.212	47326
737.326	46911
737.439	48999
737.553	46781
737.666	48918
737.780	45517
737.893	48936
738.007	43786
738.120	50807
738.233	41580
738.347	47147
738.460	40081
738.573	48317
738.687	43723
738.800	45171
738.913	47384
739.026	46594
739.140	44747
739.253	50637
739.366	44608
739.479	42230
739.592	45792
739.705	37682
739.818	45777
739.932	40290
740.045	41811
740.158	42378
740.271	42536
740.384	43038
740.497	35322
740.610	42547
740.723	40176
740.836	40080
740.949	39932
741.062	44356
741.174	38740
741.287	37807
741.400	42769
741.513	34846
741.626	41964
741.739	40612
741.851	37688
741.964	39440
742.077	38841
742.189	33255
742.302	38979
742.415	39553
742.527	36501
742.640	38888
742.753	31684
742.865	36346
742.978	36644
743.090	33096
743.203	35868
743.316	35261
743.428	33497
743.541	36715
743.653	31156
743.766	33818
743.878	37593
743.990	30683
744.103	35049
744.215	37278
744.327	29956
744.440	37145
744.552	34285
744.664	30310
744.777	35625
744.889	33713
745.001	30706
745.113	34140
745.226	33657
745.338	28096
745.450	35686
745.562	32863
745.674	29606
745.786	35392
745.898	34119
746.010	30974
746.122	33473
746.234	33124
746.347	33130
746.459	34198
746.570	25617
746.682	31098
746.794	40567
746.906	30879
747.018	29333
747.130	33649
747.242	28170
747.354	27505
747.466	30832
747.577	26776
747.689	28700
747.801	30561
747.913	27224
748.024	27377
748.136	27758
748.248	26211
748.359	27732
748.471	28955
748.583	25727
748.694	26140
748.806	36948
748.918	26460
749.029	24815
749.141	25137
749.252	26819
749.364	22699
749.475	23665
749.587	21757
749.698	23517
749.809	24241
749.921	23973
750.032	24949
750.144	21707
750.255	23152
750.366	24946
750.478	21572
750.589	24087
750.700	21454
750.811	24381
750.923	20960
751.034	21178
751.145	25227
751.256	23825
751.367	20078
751.479	22563
751.590	21204
751.701	21165
751.812	20313
751.923	20532
752.034	25857
752.145	27520
752.256	23687
752.367	22428
752.478	21979
752.589	22592
752.700	22940
752.811	21035
752.922	21684
753.032	26037
753.143	25205
753.254	23749
753.365	28098
753.476	30620
753.586	23905
753.697	21233
753.808	21327
753.919	19330
754.029	21122
754.140	19165
754.251	19335
754.361	21104
754.472	22749
754.582	21037
754.693	20232
754.804	24385
754.914	21956
755.025	17855
755.135	19281
755.246	22470
755.356	20491
755.466	17311
755.577	17627
755.687	19431
755.798	19152
755.908	18575
756.018	20035
756.129	21797
756.239	20570
756.349	24243
756.460	26474
756.570	34126
756.680	25634
756.790	22860
756.900	21071
757.011	19090
757.121	17337
757.231	19004
757.341	20128
757.451	18593
757.561	17535
757.671	19100
757.781	21893
757.891	20270
758.001	18632
758.111	21174
758.221	24640
758.331	27534
758.441	27633
758.551	28475
758.661	32342
758.771	32866
758.880	31206
758.990	27712
759.100	26442
759.210	27434
759.320	27708
759.429	31210
759.539	34504
759.649	39035
759.758	47377
759.868	51332
759.978	53672
760.087	58580
760.197	59203
760.307	58425
760.416	52415
760.526	48597
760.635	47329
760.745	52738
760.854	57184
760.964	70503
761.073	73705
761.182	68187
761.292	56560
761.401	47708
761.511	39071
761.620	32490
761.729	29521
761.839	24768
761.948	23747
762.057	25155
762.166	27666
762.276	24630
762.385	23680
762.494	22557
762.603	21692
762.712	21995
762.822	20798
762.931	17624
763.040	15021
763.149	16875
763.258	16368
763.367	16028
763.476	15104
763.585	15167
763.694	14436
763.803	15075
763.912	15209
764.021	15842
764.130	14184
764.238	18465
764.347	19644
764.456	23448
764.565	21149
764.674	16267
764.783	15226
764.891	15877
765.000	15255
765.109	13459
765.217	12852
765.326	13042
765.435	13411
765.543	13933
765.652	13065
765.761	13447
765.869	12334
765.978	11691
766.086	13783
766.195	14221
766.303	15641
766.412	27676
766.520	33310
766.629	14592
766.737	13233
766.846	13956
766.954	13501
767.062	18057
767.171	33761
767.279	27720
767.387	14341
767.496	13457
767.604	11200
767.712	12249
767.820	11101
767.928	11709
768.037	11338
768.145	12630
768.253	11166
768.361	11884
768.469	12001
768.577	10029
768.685	11607
768.793	14039
768.901	12694
769.009	12587
769.117	11838
769.225	13152
769.333	13448
769.441	14480
769.549	14344
769.657	14459
769.765	17125
769.873	28208
769.981	19927
770.088	14592
770.196	14281
770.304	16823
770.412	17526
770.519	18163
770.627	18634
770.735	17180
770.842	18592
770.950	19689
771.058	21058
771.165	24234
771.273	29054
771.380	28764
771.488	38018
771.595	52146
771.703	43150
771.810	39444
771.918	39933
772.025	47411
772.133	58048
772.240	52630
772.348	60927
772.455	60061
772.562	52490
772.670	52474
772.777	52727
772.884	52694
772.991	48488
773.099	54838
773.206	48418
773.313	50933
773.420	48771
773.528	50756
773.635	45824
773.742	51116
773.849	45035
773.956	50186
774.063	44431
774.170	49598
774.277	47098
774.384	44737
774.491	44435
774.598	46079
774.705	45739
774.812	45953
774.919	42927
775.026	46253
775.133	42025
775.239	45580
775.346	42437
775.453	40807
775.560	42163
775.667	42653
775.773	42672
775.880	39862
775.987	42462
776.093	39941
776.200	47424
776.307	33332
776.413	34800
776.520	45817
776.627	41425
776.733	34536
776.840	34954
776.946	46377
777.053	43061
777.159	44088
777.266	41189
777.372	41194
777.478	45585
777.585	43397
777.691	33005
777.798	39402
777.904	37174
778.010	38490
778.117	40962
778.223	33489
778.329	35800
778.435	31195
778.542	36765
778.648	33826
778.754	30804
778.860	32835
778.966	35098
779.072	31652
779.178	32422
779.284	28228
779.391	29460
779.497	35792
779.603	32303
779.708	31023
779.815	24952
779.920	31706
780.026	28500
780.132	29967
780.238	31734
780.344	25905
780.450	35121
780.556	27581
780.661	23567
780.767	36127
780.873	23013
780.979	23806
781.085	31724
781.190	27866
781.296	25783
781.402	28430
781.507	29458
781.613	22508
781.719	23783
781.824	32802
781.930	25884
782.035	25515
782.141	32355
782.246	22133
782.352	22820
782.457	26755
782.563	27115
782.668	27807
782.773	24107
782.879	21901
782.984	23763
783.090	26708
783.195	24431
783.300	29347
783.405	22834
783.511	20819
783.616	22314
783.721	24642
783.826	24325
783.932	19873
784.037	23692
784.142	25200
784.247	22333
784.352	24016
784.457	19336
784.562	21913
784.667	25472
784.772	19888
784.877	16241
784.982	24357
785.087	25637
785.192	18514
785.297	20359
785.402	23869
785.507	23823
785.611	21834
785.716	16935
785.821	20296
785.926	21934
786.031	20692
786.135	19523
786.240	21573
786.345	18061
786.450	16009
786.554	20157
786.659	18874
786.763	19821
786.868	20232
786.973	21357
787.077	17928
787.182	15587
787.286	19057
787.391	24494
787.495	16921
787.600	13005
787.704	18408
787.809	19282
787.913	18941
788.017	16803
788.122	21369
788.226	17519
788.330	13199
788.435	16624
788.539	20555
788.643	18218
788.747	12976
788.852	16425
788.956	17355
789.060	17897
789.164	17845
789.268	16098
789.372	19275
789.476	15690
789.580	13608
789.684	13227
789.788	18524
789.892	17569
789.996	12938
790.100	11658
790.204	16660
790.308	19514
790.412	16743
790.516	13799
790.620	17120
790.724	19916
790.828	17976
790.931	11128
791.035	14044
791.139	16021
791.242	17127
791.346	15456
791.450	15724
791.554	13832
791.657	11496
791.761	13674
791.864	15274
791.968	15841
792.072	16630
792.175	11790
792.279	12969
792.382	13185
792.486	11525
792.589	13701
792.693	15233
792.796	13040
792.899	13732
793.003	14892
793.106	13113
793.209	13697
793.313	11282
793.416	8874
793.519	10693
793.623	15831
793.726	17259
793.829	11802
793.932	9052
794.035	8959
794.138	13584
794.242	17424
794.345	12338
794.448	9321
794.551	10848
794.654	13670
794.757	14109
794.860	10491
794.963	13102
795.066	11614
795.169	12545
795.272	12090
795.375	13809
795.477	10416
795.580	9308
795.683	9854
795.786	14702
795.889	12348
795.991	11397
796.094	11608
796.197	12381
796.300	13337
796.402	16432
796.505	12241
796.608	10851
796.710	10682
796.813	16810
796.915	18783
797.018	16928
797.120	15094
797.223	13710
797.326	15000
797.428	13146
797.530	11045
797.633	13123
797.735	17190
797.838	16858
797.940	16066
798.042	15218
798.145	11579
798.247	10789
798.349	9379
798.452	13073
798.554	14631
798.656	18434
798.758	20735
798.860	18136
798.962	14669
799.065	11635
799.167	11891
799.269	13222
799.371	16025
799.473	23173
799.575	23639
799.677	18010
799.779	13292
799.881	13315
799.983	15185
800.085	11969
800.187	12144
800.289	9376
800.390	10622
800.492	13989
800.594	12194
800.696	10000
800.798	9067
800.899	10815
801.001	11053
801.103	12327
801.205	13564
801.306	13348
801.408	13062
801.509	13351
801.611	11575
801.713	11176
801.814	9654
801.916	7779
802.017	7522
802.119	8010
802.220	8918
802.322	9053
802.423	8772
802.525	7691
802.626	7528
802.727	10553
802.829	11213
802.930	8064
803.031	8665
803.133	9723
803.234	10206
803.335	11154
803.436	9616
803.538	8385
803.639	7770
803.740	8803
803.841	9636
803.942	10486
804.043	9296
804.144	9510
804.245	10445
804.346	10476
804.447	9612
804.548	9489
804.649	10559
804.750	7815
804.851	7750
804.952	8477
805.053	7417
805.154	7490
805.255	8505
805.355	8102
805.456	7563
805.557	7641
805.658	6586
805.758	8303
805.859	7177
805.960	8513
806.061	7246
806.161	7354
806.262	6588
806.362	6300
806.463	6842
806.564	8294
806.664	8191
806.765	7052
806.865	5754
806.966	5189
807.066	6030
807.166	6702
807.267	6471
807.367	6418
807.468	6465
807.568	5263
807.668	6244
807.769	7792
807.869	7305
807.969	7518
808.069	6725
808.170	5175
808.270	6800
808.370	7653
808.470	8286
808.570	7218
808.670	6341
808.770	6584
808.870	6052
808.970	7154
809.070	6025
809.170	6004
809.271	7835
809.370	7886
809.470	6287
809.570	5894
809.670	4768
809.770	6314
809.870	6885
809.970	7783
810.070	7297
810.169	7356
810.269	5510
810.369	7412
810.469	6855
810.568	8024
810.668	5958
810.768	6142
810.867	7157
810.967	5690
811.066	5519
811.166	6617
811.265	7336
811.365	6218
811.464	6030
811.564	6801
811.663	6284
811.763	7013
811.862	7331
811.962	6595
812.061	6382
812.160	6591
812.260	5894
812.359	6499
812.458	6432
812.557	7241
812.657	6432
812.756	6502
812.855	6535
812.954	5853
813.053	5410
813.153	5998
813.252	5812
813.351	7052
813.450	7725
813.549	7297
813.648	7098
813.747	5631
813.846	6615
813.945	8453
814.044	7537
814.143	8455
814.242	7922
814.341	8042
814.439	8298
814.538	8895
814.637	9364
814.736	10021
814.835	9550
814.933	10422
815.032	12513
815.131	17673
815.229	28281
815.328	44509
815.427	34052
815.525	29076
815.624	27630
815.722	27461
815.821	28531
815.919	29604
816.018	30187
816.116	29287
816.215	29747
816.313	31736
816.412	38348
816.510	40769
816.609	38548
816.707	44177
816.805	43695
816.904	40881
817.002	44610
817.100	43622
817.198	45301
817.296	43807
817.395	42514
817.493	41366
817.591	37050
817.689	36787
817.787	37642
817.885	36389
817.983	32740
818.081	33944
818.179	31063
818.277	36694
818.375	33166
818.473	34623
818.571	30188
818.669	33010
818.767	37297
818.865	32789
818.963	26961
819.061	31063
819.158	30034
819.256	35297
819.354	29243
819.452	30121
819.549	29863
819.647	33151
819.745	28214
819.842	26749
819.940	31271
820.038	29431
820.135	26740
820.233	28558
820.330	29553
820.428	27442
820.525	29765
820.623	26752
820.720	25073
820.818	27692
820.915	29227
821.012	27261
821.110	25106
821.207	26768
821.304	25286
821.402	27588
821.499	27513
821.596	24011
821.693	24121
821.791	27024
821.888	23968
821.985	27926
822.082	22775
822.179	22725
822.276	27052
822.373	23931
822.470	20021
822.567	25870
822.664	23260
822.761	21673
822.858	26402
822.955	23441
823.052	19708
823.149	23056
823.246	25039
823.343	19831
823.440	19258
823.536	22496
823.633	24758
823.730	20283
823.827	22442
823.923	24425
824.020	19376
824.117	24495
824.213	25224
824.310	20753
824.407	17931
824.503	22276
824.600	21319
824.696	18048
824.793	24852
824.889	25040
824.986	22833
825.082	16859
825.179	16128
825.275	21902
825.371	26921
825.468	19765
825.564	13107
825.660	18737
825.757	26746
825.853	19179
825.949	17483
826.045	16201
826.142	18436
826.238	21441
826.334	19380
826.430	20467
826.526	12841
826.622	11520
826.718	19083
826.814	23341
826.910	20365
827.006	11891
827.102	12590
827.198	18615
827.294	21551
827.390	21611
827.486	16369
827.582	11861
827.678	12922
827.774	21040
827.869	16744
827.965	14154
828.061	13161
828.157	19347
828.252	20464
828.348	18248
828.444	14728
828.539	14491
828.635	19263
828.731	17796
828.826	16591
828.922	18984
829.017	22454
829.113	23844
829.208	18966
829.304	21138
829.399	24761
829.495	23427
829.590	16859
829.685	18646
829.781	18632
829.876	21527
829.971	13188
830.066	10782
830.162	14734
830.257	23597
830.352	19917
830.447	14925
830.543	14364
830.638	19281
830.733	22776
830.828	18702
830.923	18117
831.018	19087
831.113	20567
831.208	17831
831.303	11207
831.398	12014
831.493	14912
831.588	23521
831.683	18038
831.778	12543
831.873	13204
831.967	17778
832.062	18919
832.157	17906
832.252	15470
832.346	15403
832.441	19116
832.536	15327
832.631	15118
832.725	13500
832.820	12458
832.914	15280
833.009	11523
833.104	10779
833.198	10416
833.293	14526
833.387	16889
833.482	15925
833.576	16576
833.670	17826
833.765	18381
833.859	23259
833.954	18438
834.048	14414
834.142	12749
834.237	11316
834.331	11799
834.425	13340
834.519	13011
834.613	10731
834.708	9370
834.802	10714
834.896	12126
834.990	13634
835.084	11300
835.178	10601
835.272	10729
835.366	15361
835.460	16219
835.554	13905
835.648	10619
835.742	8403
835.836	8299
835.930	10713
836.024	12545
836.117	11505
836.211	10805
836.305	9304
836.399	7292
836.493	8945
836.586	11446
836.680	11456
836.774	10397
836.867	8313
836.961	8426
837.055	8594
837.148	7519
837.242	10163
837.335	10762
837.429	9989
837.522	7951
837.616	8950
837.709	7859
837.803	8394
837.896	11095
837.989	12460
838.083	7283
838.176	6428
838.269	5673
838.363	8895
838.456	7996
838.549	9660
838.642	9933
838.735	8518
838.829	9251
838.922	9429
839.015	8241
839.108	8173
839.201	7843
839.294	9387
839.387	8547
839.480	6836
839.573	7507
839.666	6316
839.759	7797
839.852	8771
839.945	9000
840.038	8781
840.131	6770
840.223	7045
840.316	7306
840.409	9736
840.502	11349
840.594	9499
840.687	6099
840.780	5100
840.873	4898
840.965	6202
841.058	7416
841.150	10596
841.243	6499
841.336	6870
841.428	6687
841.521	5755
841.613	7645
841.706	7197
841.798	5692
841.890	7264
841.983	6677
842.075	6278
842.167	6368
842.260	8679
842.352	9256
842.444	8916
842.537	5661
842.629	5223
842.721	4490
842.813	6295
842.905	7168
842.997	8215
843.090	7849
843.182	7314
843.274	4556
843.366	6462
843.458	6262
843.550	8330
843.642	7992
843.734	7642
843.826	6102
843.918	5447
844.009	6869
844.101	7882
844.193	7347
844.285	8616
844.377	8831
844.469	7908
844.560	5951
844.652	6727
844.744	6657
844.835	6996
844.927	7034
845.019	8465
845.110	6755
845.202	8090
845.293	5976
845.385	5217
845.476	5429
845.568	7470
845.659	5739
845.751	5636
845.842	5573
845.934	6887
846.025	7284
846.116	6404
846.208	6731
846.299	6039
846.390	4650
846.482	5047
846.573	5874
846.664	8136
846.755	6238
846.846	7323
846.937	4922
847.029	6192
847.120	5410
847.211	5906
847.302	7550
847.393	7248
847.484	7904
847.575	5454
847.666	3969
847.757	5045
847.847	6798
847.938	8138
848.029	7897
848.120	7427
848.211	5535
848.302	6183
848.392	4633
848.483	6718
848.574	6542
848.664	7734
848.755	7630
848.846	7269
848.936	8043
849.027	9314
849.118	11702
849.208	13730
849.299	19407
849.389	33942
849.480	62573
849.570	122880
849.661	206170
849.751	370689
849.841	260963
849.932	68305
850.022	24869
850.112	16323
850.203	13672
850.293	11524
850.383	9011
850.474	9501
850.564	7710
850.654	7113
850.744	6997
850.834	7443
850.924	7658
851.014	10458
851.104	8998
851.194	7767
851.284	7328
851.374	7956
851.464	6340
851.554	7469
851.644	7273
851.734	8502
851.824	8892
851.914	8191
852.004	9049
852.094	8374
852.183	7184
852.273	7701
852.363	7605
852.452	9059
852.542	10177
852.632	9144
852.721	10017
852.811	10153
852.901	12424
852.990	14665
853.080	15360
853.169	17337
853.259	19421
853.348	24040
853.438	29680
853.527	39339
853.617	55422
853.706	85290
853.795	140348
853.885	243790
853.974	404004
854.063	612602
854.152	848468
854.242	628082
854.331	283124
854.420	133653
854.509	79825
854.598	55517
854.687	40521
854.777	32050
854.866	24833
854.955	21666
855.044	18214
855.133	15981
855.222	15245
855.311	13316
855.400	11526
855.488	10652
855.577	9929
855.666	11564
855.755	9912
855.844	12310
855.933	14083
856.021	12236
856.110	8749
856.199	7986
856.288	6859
856.376	6657
856.465	6778
856.554	7027
856.642	7611
856.731	9411
856.819	7331
856.908	6693
856.996	6487
857.085	5694
857.173	5354
857.262	5690
857.350	5074
857.438	4757
857.527	5390
857.615	5778
857.703	6247
857.792	5719
857.880	4806
857.968	5798
858.056	5678
858.145	6247
858.233	6160
858.321	5646
858.409	6121
858.497	5590
858.585	5383
858.673	4475
858.761	4675
858.849	4722
858.937	4019
859.025	4967
859.113	5322
859.201	6377
859.289	8287
859.377	6705
859.465	6009
859.552	5490
859.640	3939
859.728	5719
859.816	4841
859.903	6057
859.991	4498
860.079	5801
860.166	5543
860.254	5400
860.342	6021
860.429	4770
860.517	5720
860.604	5532
860.692	4818
860.779	5307
860.867	3717
860.954	5612
861.042	5971
861.129	6790
861.216	6115
861.304	6871
861.391	5897
861.478	5075
861.565	5447
861.653	5590
861.740	4540
861.827	5270
861.914	5138
862.001	5164
862.089	5647
862.176	6032
862.263	5031
862.350	5765
862.437	5353
862.524	5065
862.611	4797
862.698	5941
862.785	6746
862.871	8508
862.958	8245
863.045	7369
863.132	7804
863.219	6892
863.306	4896
863.392	6624
863.479	6409
863.566	6833
863.652	7242
863.739	6933
863.826	6925
863.912	9194
863.999	8304
864.086	8632
864.172	8990
864.259	10198
864.345	9694
864.432	10602
864.518	9477
864.604	10058
864.691	10926
864.777	12519
864.863	14131
864.950	19129
865.036	23695
865.122	38437
865.209	46552
865.295	42988
865.381	43814
865.467	46877
865.553	51893
865.639	67864
865.726	94775
865.812	151166
865.898	242902
865.984	349329
866.070	509899
866.156	638824
866.242	382823
866.328	161574
866.414	86338
866.499	61106
866.585	49905
866.671	43498
866.757	39178
866.843	37543
866.928	33643
867.014	31296
867.100	31300
867.186	28981
867.271	28000
867.357	28865
867.442	26940
867.528	27376
867.614	26821
867.699	27545
867.785	26531
867.870	26088
867.956	27036
868.041	27986
868.127	24079
868.212	26177
868.297	24299
868.383	24871
868.468	21886
868.553	25102
868.639	22947
868.724	23528
868.809	23674
868.894	22604
868.979	22184
869.065	23200
869.150	19413
869.235	20647
869.320	22868
869.405	20604
869.490	20259
869.575	23517
869.660	17610
869.745	19227
869.830	25084
869.915	20783
870.000	19374
870.085	19531
870.169	22530
870.254	26948
870.339	18898
870.424	17149
870.509	19585
870.593	23262
870.678	23411
870.763	20035
870.847	16733
870.932	19692
871.016	22514
871.101	17773
871.186	16031
871.270	24109
871.355	17433
871.439	15331
871.523	20161
871.608	17514
871.692	14732
871.777	19439
871.861	21400
871.945	18221
872.030	18674
872.114	18746
872.198	16798
872.282	15875
872.367	16366
872.451	16816
872.535	16257
872.619	18152
872.703	16010
872.787	18903
872.871	18112
872.955	16686
873.039	12468
873.123	16303
873.207	19351
873.291	14566
873.375	12533
873.459	19819
873.543	17526
873.627	15380
873.711	13291
873.794	16091
873.878	16640
873.962	13634
874.045	13166
874.129	15865
874.137	15792
874.213	15062
874.245	15323
874.296	15761
874.352	13765
874.380	12796
874.460	13844
874.464	13890
874.547	14286
874.568	14543
874.631	15326
874.676	15075
874.714	14859
874.784	15991
874.798	16213
874.881	13760
874.892	13456
874.965	11458
874.999	12350
875.048	13545
875.107	14894
875.131	15427
875.215	11940
875.215	11938
875.298	10664
875.323	11061
875.381	12124
875.430	14774
875.465	16545
875.538	16627
875.548	16624
875.631	12735
875.646	12219
875.714	9897
875.753	10134
875.798	10543
875.861	12530
875.881	13032
875.964	14728
875.968	14426
876.047	9353
876.076	10255
876.130	12001
876.183	12375
876.213	12574
876.291	14586
876.296	14705
876.379	12823
876.398	12623
876.462	11939
876.506	10977
876.545	10131
876.613	9718
876.628	9685
876.711	11543
876.721	11620
876.794	12468
876.828	13275
876.877	13777
876.935	11636
876.960	10909
877.043	9494
877.043	9501
877.125	11286
877.150	11914
877.208	13090
877.258	13013
877.291	12808
877.365	8919
877.374	8497
877.456	10190
877.472	9947
877.539	9010
877.579	9893
877.622	10994
877.687	12500
877.704	12770
877.787	11104
877.794	11163
877.869	12260
877.901	12634
877.952	12655
878.008	10042
878.034	8939
878.115	8048
878.117	8040
878.199	9629
878.222	9760
878.282	10003
878.329	11702
878.364	13002
878.437	12894
878.447	12748
878.529	9706
878.544	9441
878.611	8597
878.651	8569
878.694	8993
878.758	11438
878.776	11968
878.858	11067
878.865	11053
878.941	10577
878.972	9808
879.023	8590
879.078	8406
879.105	8701
879.185	11101
879.187	11136
879.269	11495
879.292	11519
879.351	11345
879.399	11088
879.433	10697
879.506	9030
879.516	8928
879.598	10207
879.613	10075
879.680	8943
879.720	9514
879.762	10615
879.827	10788
879.844	10509
879.926	8436
879.933	8412
880.007	9472
880.040	9603
880.089	9198
880.147	8652
880.171	8847
880.253	11986
880.254	11980
880.335	9055
880.360	9399
880.417	11366
880.467	11971
880.499	11873
880.574	11234
880.580	11230
880.662	11609
880.680	11461
880.744	9822
880.787	8506
880.825	7960
880.893	8744
880.907	8801
880.989	7858
881.000	7938
881.070	9710
881.106	10417
881.152	10415
881.213	8927
881.233	8400
881.315	7930
881.319	7959
881.396	9916
881.426	9926
881.478	9272
881.532	9928
881.559	10527
881.639	10316
881.641	10277
881.722	8909
881.745	8718
881.803	9426
881.852	10338
881.885	10378
881.958	8671
881.966	8574
882.047	9043
882.064	9088
882.129	8617
882.171	7670
882.210	6753
882.277	6455
882.291	6631
882.372	8180
882.383	8428
882.454	10638
882.489	11138
882.535	10967
882.596	10559
882.616	10493
882.697	11090
882.702	11018
882.778	8255
882.808	7463
882.859	6923
882.914	6800
882.940	6942
883.020	8154
883.021	8166
883.102	8416
883.127	9064
883.183	11558
883.233	12208
883.264	11019
883.339	8325
883.345	8144
883.426	5548
883.445	5241
883.507	5888
883.551	6607
883.587	7915
883.657	10290
883.668	10503
883.749	11542
883.763	11490
883.830	8580
883.869	6915
883.910	6235
883.975	6795
883.991	7234
884.072	8588
884.081	8748
884.152	10064
884.187	10713
884.233	11805
884.292	12554
884.314	11594
884.394	6764
884.398	6597
884.475	5209
884.504	4789
884.555	5171
884.610	5137
884.636	5480
884.716	7516
884.716	7538
884.797	11144
884.821	11601
884.877	10692
884.927	10290
884.958	9700
885.033	7811
885.038	7672
885.118	5984
885.139	5582
885.199	5951
885.244	6124
885.279	6895
885.350	8761
885.359	9005
885.439	11831
885.456	11972
885.520	10386
885.561	9556
885.600	8042
885.667	5996
885.680	6316
885.760	8649
885.773	8810
885.840	7041
885.878	6460
885.920	6618
885.984	7032
886.000	7383
886.080	9019
886.089	9162
886.160	9078
886.195	8995
886.240	8927
886.300	8753
886.320	8733
886.400	8907
886.406	8884
886.480	7152
886.511	6505
886.560	6401
886.616	6442
886.640	6620
886.720	7234
886.722	7242
886.800	7359
886.827	7412
886.879	7669
886.932	8043
886.959	8749
887.038	10714
887.039	10710
887.119	9178
887.143	8828
887.198	8286
887.248	7749
887.278	7741
887.354	7749
887.358	7786
887.437	8174
887.459	8400
887.517	8516
887.564	8343
887.596	8033
887.669	7247
887.676	7093
887.755	5260
887.774	4826
887.835	5081
887.880	5358
887.914	5819
887.985	6683
887.994	6858
888.073	8444
888.090	8765
888.153	11783
888.195	13596
888.232	11356
888.300	7327
888.311	7175
888.391	6161
888.405	5959
888.470	6161
888.510	6340
888.549	6167
888.615	5874
888.628	6343
888.708	9203
888.720	9618
888.787	9838
888.825	9922
888.866	7877
888.930	4738
888.945	4915
889.024	5919
889.035	6059
889.103	8304
889.140	9393
889.182	8386
889.245	7036
889.261	7107
889.340	7338
889.349	7362
889.419	7414
889.454	7422
889.498	7065
889.559	6589
889.577	6855
889.656	8000
889.664	8109
889.735	8673
889.768	8921
889.814	8114
889.873	7002
889.978	7620
890.083	7540
890.187	8101
890.292	9679
890.397	7334
890.501	7879
890.606	5809
890.710	6403
890.815	10340
890.919	8997
891.024	9640
891.128	9294
891.233	7563
891.337	8693
891.442	9875
891.546	8093
891.650	5731
891.755	5314
891.859	7492
891.963	9585
892.068	7489
892.172	6228
892.276	4479
892.380	6278
892.484	9289
892.589	12402
892.693	12768
892.797	7255
892.901	3786
893.005	4930
893.109	9487
893.213	9661
893.317	7491
893.421	5123
893.525	5170
893.629	4584
893.733	8015
893.837	7739
893.941	7578
894.045	4536
894.148	4143
894.252	4813
894.356	7143
894.460	11181
894.564	6342
894.667	6554
894.771	4071
894.875	3690
894.978	5634
895.082	7967
895.186	7926
895.289	6715
895.393	5484
895.496	7408
895.600	6013
895.703	4377
895.807	5523
895.910	6310
896.014	6780
896.117	6612
896.221	5572
896.324	8482
896.427	5016
896.531	4536
896.634	5475
896.737	5731
896.840	6893
896.944	7482
897.047	8674
897.150	6029
897.253	5286
897.356	3611
897.460	3356
897.563	4200
897.666	7999
897.769	7755
897.872	4158
897.975	4468
898.078	6437
898.181	3770
898.284	5221
898.387	7324
898.490	8438
898.593	5003
898.695	4018
898.798	5243
898.901	4337
899.004	5166
899.107	6367
899.209	5346
899.312	7819
899.415	5819
899.518	3232
899.620	2570
899.723	3773
899.826	6023
899.928	3430
900.031	5588
900.133	7324
900.236	6316
900.338	3222
900.441	4551
900.543	5165
900.646	5088
900.748	4792
900.851	6535
900.953	5048
901.055	4180
901.158	4498
901.260	3663
901.362	3158
901.465	3812
901.567	5285
901.669	7283
901.771	4812
901.873	5460
901.976	4516
902.078	5752
902.180	4080
902.282	3670
902.384	5245
902.486	8035
902.588	6364
902.690	4184
902.792	2715
902.894	4839
902.996	6687
903.098	5607
903.200	4352
903.302	3609
903.404	4243
903.505	3434
903.607	3910
903.709	7139
903.811	7488
903.913	5434
904.014	3398
904.116	3022
904.218	3883
904.319	4267
904.421	7750
904.523	7727
904.624	5501
904.726	3900
904.827	2930
904.929	3738
905.030	4008
905.132	7154
905.233	6801
905.335	3677
905.436	3263
905.537	2757
905.639	3212
905.740	4063
905.841	6057
905.943	6165
906.044	5420
906.145	4479
906.247	3063
906.348	4061
906.449	4759
906.550	6308
906.651	3922
906.752	3845
906.854	4312
906.955	3893
907.056	3789
907.157	5792
907.258	6756
907.359	4193
907.460	3077
907.561	3204
907.662	3643
907.762	4035
907.863	5227
907.964	6949
908.065	5202
908.166	4460
908.267	3633
908.367	3755
908.468	4100
908.569	4372
908.670	6994
908.770	4088
908.871	5257
908.971	4737
909.072	4152
909.173	3512
909.273	4078
909.374	5569
909.474	5933
909.575	4213
909.675	4423
909.776	5363
909.876	4788
909.977	4957
910.077	5695
910.177	7533
910.278	5925
910.378	4434
910.478	4728
910.579	6354
910.679	7124
910.779	6374
910.879	6045
910.980	5983
911.080	6477
911.180	4624
911.280	4472
911.380	4222
911.480	3845
911.580	4342
911.680	4985
911.780	4984
911.880	5798
911.980	3989
912.080	3681
912.180	4795
912.280	4498
912.380	4680
912.480	3080
912.580	3548
912.679	4221
912.779	5354
912.879	5570
912.979	3943
913.078	4113
913.178	2304
913.278	3687
913.377	3340
913.477	2501
913.577	3900
913.676	4981
913.776	5653
913.875	4757
913.975	4490
914.074	3644
914.174	5619
914.273	3609
914.373	3926
914.472	3719
914.572	4030
914.671	3217
914.770	3807
914.870	3367
914.969	3355
915.068	5082
915.167	5441
915.267	3737
915.366	4931
915.465	3952
915.564	4580
915.663	4235
915.763	5236
915.862	5673
915.961	5867
916.060	3897
916.159	3598
916.258	3711
916.357	3781
916.456	4955
916.555	5425
916.654	4446
916.752	5648
916.851	6421
916.950	4423
917.049	3641
917.148	3733
917.247	3303
917.345	3725
917.444	3002
917.543	3878
917.642	3543
917.740	4514
917.839	6882
917.937	7361
918.036	6253
918.135	4523
918.233	3809
918.332	4202
918.430	5020
918.529	3675
918.627	4215
918.726	6139
918.824	5627
918.923	3728
919.021	3972
919.119	4124
919.218	4561
919.316	4673
919.414	4914
919.512	5891
919.611	6367
919.709	6492
919.807	7624
919.905	7735
920.003	7550
920.102	6617
920.200	7145
920.298	7854
920.396	7672
920.494	7328
920.592	6123
920.690	6961
920.788	6137
920.886	6866
920.984	8526
921.082	7492
921.180	8661
921.277	8286
921.375	9421
921.473	13174
921.571	13206
921.669	12525
921.766	10874
921.864	11831
921.962	12389
922.060	11395
922.157	11736
922.255	12368
922.352	11648
922.450	13017
922.548	12989
922.645	14620
922.743	18101
922.840	29232
922.938	34475
923.035	29634
923.133	28931
923.230	32808
923.327	39501
923.425	38343
923.522	36575
923.619	33552
923.717	31266
923.814	29739
923.911	30964
924.008	30514
924.106	28444
924.203	27432
924.300	30033
924.397	28778
924.494	29259
924.591	28854
924.688	28169
924.786	28867
924.883	29534
924.979	28958
925.077	29071
925.173	28250
925.270	28619
925.367	28288
925.464	31115
925.561	30581
925.658	34769
925.755	28930
925.852	34093
925.948	31363
926.045	29060
926.142	29309
926.239	30525
926.335	24793
926.432	27051
926.529	29567
926.625	32099
926.722	25554
926.818	24431
926.915	27841
927.011	26886
927.108	25942
927.204	26916
927.301	22909
927.397	26037
927.494	29282
927.590	21649
927.687	21081
927.783	29133
927.879	28408
927.976	24164
928.072	22141
928.168	25312
928.264	26301
928.361	22916
928.457	28552
928.553	23264
928.649	21851
928.745	25258
928.841	21626
928.937	23198
929.033	24673
929.129	23330
929.225	26644
929.321	23395
929.417	19822
929.513	25345
929.609	21271
929.705	19972
929.801	24521
929.897	20307
929.993	20940
930.089	21935
930.184	20097
930.280	20572
930.376	26798
930.471	20783
930.567	17681
930.663	20715
930.758	18372
930.854	20280
930.950	20187
931.045	18401
931.141	19114
931.236	24884
931.332	22217
931.427	16060
931.523	22265
931.618	22683
931.714	15911
931.809	16914
931.905	22161
932.000	16004
932.095	14037
932.191	20848
932.286	25283
932.381	20806
932.476	15628
932.572	19194
932.667	15688
932.762	17039
932.857	17926
932.952	22727
933.047	19019
933.142	15305
933.237	17953
933.332	20429
933.427	21535
933.522	18186
933.617	16338
933.712	16136
933.807	20296
933.902	22571
933.997	22617
934.092	16427
934.187	16722
934.282	18951
934.376	19276
934.471	20675
934.566	16115
934.661	15261
934.755	18977
934.850	20675
934.945	16231
935.039	14885
935.134	13005
935.228	15601
935.323	23785
935.417	16084
935.512	11867
935.606	12589
935.701	17652
935.795	18931
935.890	17737
935.984	15163
936.079	11380
936.173	16071
936.267	14750
936.362	13080
936.456	15640
936.550	20783
936.644	17637
936.738	13421
936.833	12995
936.927	11484
937.021	14773
937.115	15650
937.209	16919
937.303	14864
937.397	11649
937.491	13649
937.585	16631
937.679	15558
937.773	12531
937.867	11238
937.961	11305
938.055	17341
938.149	16790
938.243	10044
938.337	10882
938.430	12188
938.524	17382
938.618	14911
938.712	12562
938.805	12371
938.899	14615
938.993	19067
939.086	13339
939.180	8981
939.274	13394
939.367	16925
939.461	16290
939.554	12600
939.648	11562
939.741	11387
939.835	12927
939.928	17287
940.022	16914
940.115	13080
940.208	15479
940.302	17525
940.395	18232
940.488	12534
940.582	11393
940.675	10211
940.768	11111
940.861	14029
940.954	16695
941.048	10063
941.141	9279
941.234	11382
941.327	12910
941.420	14360
941.513	15182
941.606	13176
941.699	12018
941.792	17159
941.885	14688
941.978	13947
942.071	14886
942.164	10507
942.257	10497
942.349	12007
942.442	13899
942.535	10073
942.628	9895
942.721	10969
942.813	11342
942.906	12398
942.999	11073
943.091	8674
943.184	11159
943.277	10869
943.369	9070
943.462	7897
943.554	9537
943.647	11088
943.739	13057
943.832	14245
943.924	7657
944.017	6553
944.109	8890
944.201	10005
944.294	10035
944.386	9861
944.478	8693
944.571	7772
944.663	7817
944.755	10142
944.847	11252
944.940	9991
945.032	7885
945.124	6538
945.216	9636
945.308	10602
945.400	10045
945.492	9156
945.584	11981
945.676	13244
945.768	11121
945.860	10946
945.952	13596
946.044	10240
946.136	8768
946.228	8738
946.320	9001
946.412	10317
946.503	11749
946.595	12059
946.687	8979
946.779	6975
946.870	7051
946.962	8220
947.054	8610
947.145	10594
947.237	8870
947.329	8497
947.420	10874
947.512	9236
947.603	6628
947.695	6953
947.786	7220
947.878	7477
947.969	9307
948.061	10339
948.152	10391
948.243	6026
948.335	5610
948.426	7149
948.517	9062
948.609	9100
948.700	9583
948.791	8352
948.882	6271
948.973	5767
949.065	8918
949.156	7961
949.247	5941
949.338	7875
949.429	5827
949.520	5638
949.611	8268
949.702	10031
949.793	6679
949.884	7733
949.975	7135
950.066	5169
950.157	6959
950.247	7103
950.338	5774
950.429	5608
950.520	7925
950.611	5940
950.701	7893
950.792	9808
950.883	9452
950.973	7386
951.064	8061
951.155	8856
951.245	8847
951.336	7957
951.427	9495
951.517	10023
951.608	8754
951.698	7100
951.788	6572
951.879	5309
951.969	6727
952.060	6222
952.150	6969
952.240	10080
952.331	9258
952.421	8565
952.511	5965
952.602	4604
952.692	5216
952.782	5591
952.872	6083
952.962	7021
953.052	7100
953.143	6404
953.233	6206
953.323	6716
953.413	7678
953.503	8088
953.593	7428
953.683	7019
953.773	5608
953.863	5763
953.953	6274
954.042	7606
954.132	9469
954.222	9343
954.312	6059
954.402	6594
954.492	6858
954.581	7346
954.671	6452
954.761	5856
954.850	6722
954.940	4817
955.030	4598
955.119	4741
955.209	5478
955.298	6272
955.388	7385
955.477	7324
955.567	4669
955.656	4475
955.746	6011
955.835	4985
955.925	4966
956.014	6468
956.103	7977
956.193	9125
956.282	8296
956.371	6193
956.461	5620
956.550	6121
956.639	5747
956.728	5658
956.817	5859
956.906	5605
956.995	7577
957.085	5221
957.174	5340
957.263	6036
957.352	4977
957.441	6084
957.530	5692
957.619	4454
957.708	5834
957.796	5620
957.885	5696
957.974	5373
958.063	5169
958.152	4217
958.241	4333
958.329	4358
958.418	5224
958.507	5607
958.596	6869
958.684	5308
958.773	5563
958.861	4778
958.950	3864
959.039	4292
959.127	4070
959.216	6003
959.304	4483
959.393	5242
959.481	5281
959.570	4781
959.658	3829
959.746	3450
959.835	4131
959.923	5113
960.011	4120
960.100	4631
960.188	6549
960.276	5039
960.365	5044
960.453	3274
960.541	3610
960.629	3728
960.717	2821
960.805	3257
960.893	4241
960.981	5427
961.069	6965
961.158	7399
961.245	9596
961.333	5974
961.421	5991
961.509	5244
961.597	5132
961.685	3781
961.773	5389
961.861	6072
961.949	5891
962.036	4636
962.124	4395
962.212	4187
962.299	4098
962.387	3465
962.475	3630
962.562	4280
962.650	5614
962.738	3859
962.825	3244
962.913	3608
963.000	3515
963.088	4920
963.175	5186
963.263	3583
963.350	3955
963.438	4348
963.525	3699
963.612	3802
963.700	3696
963.787	4146
963.874	4503
963.962	3863
964.049	2686
964.136	2706
964.223	3207
964.310	2882
964.398	2702
964.485	3138
964.572	4742
964.659	4225
964.746	2765
964.833	2422
964.920	3255
965.007	3440
965.094	3541
965.181	4108
965.268	4822
965.355	4336
965.441	4267
965.528	4139
965.615	5121
965.702	4051
965.789	4336
965.875	6029
965.962	5529
966.049	5837
966.136	6701
966.222	7466
966.309	9161
966.395	9017
966.482	7017
966.569	5617
966.655	5226
966.742	4578
966.828	3993
966.915	4059
967.001	3590
967.087	2539
967.174	2855
967.260	4207
967.347	4790
967.433	5193
967.519	6312
967.605	6380
967.692	5082
967.778	3606
967.864	3639
967.950	3555
968.036	3633
968.123	4331
968.209	3719
968.295	2656
968.381	3702
968.467	3802
968.553	3106
968.639	5387
968.725	7839
968.811	11165
968.897	8801
968.983	4358
969.069	3733
969.154	3133
969.240	2500
969.326	3214
969.412	3638
969.497	2880
969.583	3946
969.669	4760
969.755	4892
969.840	5185
969.926	9708
970.012	12606
970.097	18757
970.183	18001
970.268	9688
970.354	4891
970.439	4715
970.525	3433
970.610	3714
970.696	4793
970.781	2937
970.866	2619
970.952	2797
971.037	2952
971.122	4219
971.208	4269
971.293	3666
971.378	2594
971.463	2471
971.549	3054
971.634	2549
971.719	2543
971.804	3341
971.889	2844
971.974	3383
972.059	3195
972.144	4205
972.229	3190
972.314	3461
972.399	2809
972.484	2114
972.569	3336
972.654	2811
972.739	3643
972.824	2699
972.908	2681
972.993	2581
973.078	3106
973.163	3329
973.247	3043
973.332	3291
973.417	3792
973.501	3024
973.586	3970
973.671	3456
973.755	2591
973.840	3885
973.924	4780
974.009	5678
974.093	5559
974.178	5507
974.262	3982
974.346	4151
974.431	3159
974.515	3703
974.600	4175
974.684	4156
974.768	2846
974.852	4061
974.937	3683
975.021	4031
975.105	3674
975.189	3504
975.273	3003
975.358	2960
975.442	2997
975.526	3619
975.610	3907
975.694	3770
975.778	3550
975.862	2438
975.946	1824
976.030	4704
976.114	2954
976.198	2183
976.281	3596
976.365	3990
976.449	3306
976.533	3456
976.617	3381
976.700	2427
976.784	2297
976.868	2498
976.951	2863
977.035	2910
977.119	2260
977.202	2725
977.286	4013
977.369	5935
977.453	6987
977.536	7350
977.620	4889
977.703	4698
977.787	4342
977.870	6023
977.953	4550
978.037	3460
978.120	2892
978.203	4313
978.287	4569
978.370	4195
978.453	3627
978.536	2610
978.620	4267
978.703	3788
978.786	3618
978.869	2502
978.952	3064
979.035	4707
979.118	5109
979.201	2824
979.284	3696
979.367	3552
979.450	2998
979.533	3186
979.616	2678
979.699	2945
979.782	3230
979.865	3959
979.948	3075
980.030	3620
980.113	3483
980.196	3232
980.279	4402
980.361	3854
980.444	3096
980.526	4814
980.609	7482
980.692	8506
980.774	8372
980.857	5020
980.939	5277
981.022	5203
981.104	4415
981.187	4604
981.269	4580
981.352	4103
981.434	3552
981.516	4916
981.599	3934
981.681	4500
981.763	4574
981.846	3789
981.928	4354
982.010	4268
982.092	3548
982.174	4728
982.256	3290
982.339	4065
982.421	3320
982.503	3909
982.585	3018
982.667	4047
982.749	3323
982.831	4134
982.913	3951
982.995	4312
983.077	3759
983.158	5635
983.240	4118
983.322	6331
983.404	8649
983.486	7905
983.568	6854
983.649	5864
983.731	6562
983.813	5513
983.894	5121
983.976	4915
984.058	4570
984.139	5302
984.221	4120
984.302	4900
984.384	5125
984.465	4722
984.547	5530
984.628	5123
984.710	5594
984.791	5220
984.872	5821
984.954	5037
985.035	4954
985.116	4869
985.198	4258
985.279	5988
985.360	5319
985.441	5698
985.522	6517
985.604	6064
985.685	4049
985.766	6178
985.847	6819
985.928	5232
986.009	4785
986.090	5491
986.171	5753
986.252	5775
986.333	5852
986.414	5267
986.495	5254
986.576	5619
986.656	6818
986.737	6186
986.818	5506
986.899	6219
986.980	4879
987.060	6837
987.141	6260
987.222	6865
987.302	8321
987.383	8152
987.464	7015
987.544	7668
987.625	7597
987.705	7364
987.786	8283
987.866	7807
987.947	6791
988.027	7847
988.108	6825
988.188	6851
988.268	7027
988.349	6992
988.429	7467
988.509	6347
988.589	6677
988.670	5584
988.750	7201
988.830	6324
988.910	6869
988.990	6631
989.070	6708
989.151	6135
989.231	6318
989.311	6162
989.391	5835
989.471	5162
989.551	5675
989.631	5807
989.711	6501
989.791	6331
989.870	4256
989.950	6423
990.030	5020
990.110	5584
990.190	4516
990.269	5575
990.349	4153
990.429	5824
990.509	5226
990.588	4030
990.668	4787
990.747	5303
990.827	4886
990.907	4773
990.986	5749
991.066	5639
991.145	3620
991.225	4565
991.304	4783
991.383	5057
991.463	5255
991.542	4937
991.622	4483
991.701	4319
991.780	3867
991.859	4043
991.939	3355
992.018	4290
992.097	4845
992.176	3731
992.256	4459
992.335	3710
992.414	4933
992.493	3800
992.572	3536
992.651	4869
992.730	4638
992.809	3602
992.888	3495
992.967	4301
993.046	3952
993.125	2840
993.203	3344
993.282	4573
993.361	3438
993.440	3337
993.519	2752
993.597	3831
993.676	3460
993.755	4836
993.834	3756
993.912	2461
993.991	3397
994.069	3134
994.148	4236
994.226	3268
994.305	2888
994.384	3121
994.462	4296
994.540	2965
994.619	1662
994.697	4104
994.776	3250
994.854	3488
994.932	2557
995.011	3200
995.089	2688
995.167	2688
995.245	3279
995.324	2950
995.402	3387
995.480	2481
995.558	2787
995.636	3028
995.714	2035
995.792	3491
995.870	2779
995.948	2206
996.026	1630
996.104	1500
996.182	2608
996.260	1576
996.338	1857
996.416	1583
996.494	2583
996.572	2993
996.649	957
996.727	2445
996.805	2276
996.883	1860
996.960	2105
997.038	2619
997.116	2275
997.193	1915
997.271	1577
997.348	816
997.426	1376
997.504	1419
997.581	2925
997.658	2294
997.736	319
997.813	856
997.891	2136
997.968	2441
998.046	1489
998.123	1650
998.200	2653
998.277	1827
998.355	1442
998.432	961
998.509	695
998.586	1826
998.663	1926
998.741	1560
998.818	857
998.895	1557
998.972	1144
999.049	2386
999.126	1061
999.203	1969
999.280	469
999.357	1035
999.434	1144
999.511	1564
999.587	916
999.664	713
999.741	1043
999.818	1623
999.895	1738
999.971	1877
1000.048	1690
1000.125	1381
1000.202	342
1000.278	1629
1000.355	1419
1000.431	1348
1000.508	233
1000.584	228
1000.661	862
1000.738	1248
1000.814	1168
1000.890	564
1000.967	1027
1001.043	957
1001.120	289
1001.196	1676
1001.272	-233
1001.349	402
1001.425	1081
1001.501	1300
1001.577	1333
1001.654	1705
1001.730	563
1001.806	416
1001.882	659
1001.958	1306
1002.034	1196
1002.110	1069
1002.186	-358
1002.262	666
1002.338	-262
1002.414	844
1002.490	924
1002.566	-111
1002.642	881
1002.718	-186
1002.794	477
1002.870	626
1002.945	502
1003.021	-156
1003.097	-133
1003.173	1646
1003.248	415
1003.324	781
1003.400	527
1003.475	128
1003.551	202
1003.626	-48
1003.702	548
1003.777	281
1003.853	-228
1003.928	305
1004.004	-225
1004.079	981
1004.155	56
1004.230	84
1004.305	519
1004.381	-485
1004.456	352
1004.531	-1046
1004.607	-682
1004.682	318
1004.757	5
1004.832	173
1004.907	717
1004.982	425
1005.057	-271
1005.133	502
1005.208	757
1005.283	-272
1005.358	224
1005.433	266
1005.508	-482
1005.583	-398
1005.657	-426
1005.732	866
1005.807	-227
1005.882	358
1005.957	-494
1006.032	-488
1006.106	540
1006.181	-144
1006.256	179
1006.331	-1185
1006.405	-49
1006.480	-526
1006.554	-739
1006.629	53
1006.704	-826
1006.778	-320
1006.853	636
1006.927	-524
1007.002	-242
1007.076	38
1007.150	-30
1007.225	229
1007.299	-314
1007.373	-893
1007.448	-469
1007.522	347
1007.596	-1294
1007.671	-736
1007.745	2
1007.819	-711
1007.893	-355
1007.967	142
1008.041	-749
1008.115	792
1008.190	-618
1008.264	607
1008.338	-884
1008.412	-508
1008.486	-171
1008.560	-183
1008.633	-564
1008.707	-195
1008.781	870
1008.855	-430
1008.929	-196
1009.003	-354
1009.076	-1302
1009.150	-476
1009.224	-105
1009.298	-88
1009.371	-1225
1009.445	-384
1009.519	-575
1009.592	-431
1009.666	-704
1009.739	-766
1009.813	-1536
1009.886	-131
1009.960	-1620
1010.033	-523
1010.107	-574
1010.180	-1248
1010.253	-630
1010.327	-1649
1010.400	-273
1010.473	-333
1010.547	-385
1010.620	-901
1010.693	-674
1010.766	-761
1010.840	-523
1010.913	-247
1010.986	-1073
1011.059	-1130
1011.132	-1119
1011.205	339
1011.278	-646
1011.351	416
1011.424	-545
1011.497	278
1011.570	-872
1011.643	-1506
1011.716	-1565
1011.789	-553
1011.862	-1165
1011.934	-254
1012.007	-2101
1012.080	-1668
1012.153	-292
1012.225	-19
1012.298	-1243
1012.371	-917
1012.443	-686
1012.516	-534
1012.588	-692
1012.661	-966
1012.733	-1398
1012.806	-849
1012.879	-1512
1012.951	-682
1013.023	-1068
1013.096	-1107
1013.168	-1684
1013.241	-1024
1013.313	-1473
1013.385	-1822
1013.458	-1211
1013.530	-728
1013.602	-1686
1013.674	-1518
1013.746	-1954
1013.819	-779
1013.891	-1427
1013.963	-1758
1014.035	-1221
1014.107	-662
1014.179	-1257
1014.251	-1383
1014.323	-1516
1014.395	-1034
1014.467	-676
1014.539	-897
1014.611	-1475
1014.683	-1074
1014.754	-1308
1014.826	-1953
1014.898	-1156
1014.970	-1939
1015.042	-801
1015.113	-360
1015.185	-694
1015.257	-1704
1015.328	-984
1015.400	-1020
1015.471	-503
1015.543	-1443
1015.615	-1142
1015.686	-204
1015.757	-1345
1015.829	-661
1015.901	-878
1015.972	-440
1016.043	-1359
1016.115	-1698
1016.186	-537
1016.257	-2495
1016.328	-1585
1016.400	-1071
1016.471	-1700
1016.542	-732
1016.613	-1436
1016.685	-491
1016.756	-809
1016.827	-816
1016.898	-1222
1016.969	-993
1017.040	-1755
1017.111	-1222
1017.182	-1944
1017.253	-1130
1017.324	-1194
1017.395	-1340
1017.466	-1498
1017.537	-1180
1017.608	-1520
1017.678	-1371
1017.749	-1499
1017.820	-1213
1017.891	-2011
1017.961	-1203
1018.032	-1295
1018.103	-990
1018.173	-1721
1018.244	-1446
1018.315	-1339
1018.385	-893
1018.456	-1731
1018.526	-2131
1018.597	-1777
1018.667	-1237
1018.738	-2287
1018.808	-1918
1018.878	-1636
1018.949	-947
1019.019	-1392
1019.089	-1653
1019.160	-1294
1019.230	-1796
1019.300	-2035
1019.371	-1192
1019.441	-1774
1019.511	-927
1019.581	-1530
1019.651	-1240
1019.721	-1204
1019.791	-1358
1019.861	-1093
1019.931	-1597
1020.001	-1579
1020.071	-1271
1020.141	-1856
1020.211	-1419
1020.281	-1762
1020.351	-1826
1020.421	-1351
1020.491	-1965
1020.560	-1742
1020.630	-1350
1020.700	-1293
1020.770	-1769
1020.839	-910
1020.909	-1025
1020.979	-1140
1021.048	-1187
1021.118	-1950
1021.187	-669
1021.257	-1935
1021.326	-1223
1021.396	-1755
1021.465	-886
1021.535	-1215
1021.604	-1971
1021.674	-1391
1021.743	-1105
1021.812	-1197
1021.882	-645
1021.951	-1470
1022.020	-968
1022.089	-944
1022.159	-1142
1022.228	-1406
1022.297	-1428
1022.366	-1310
1022.435	-1011
1022.504	-1001
1022.573	-984
1022.642	-1465
1022.711	-1526
1022.781	-1452
1022.849	-1508
1022.918	-1744
1022.987	-1796
1023.056	-1706
1023.125	-1255
1023.194	-1761
1023.263	-1781
1023.331	-656
1023.400	-2359
1023.469	-1655
1023.538	-1640
1023.606	-1767
1023.675	-2153
1023.744	-1634
1023.812	-985
1023.881	-1278
1023.949	-808
1024.018	-1881
1024.086	-1525
1024.155	-1766
1024.223	-2496
1024.292	-1658
1024.360	-1282
1024.429	-1616
1024.497	-1695
1024.565	-2102
1024.634	-1624
1024.702	-1187
1024.770	-920
1024.838	-1893
1024.907	-1177
1024.975	-2202
1025.043	-1163
1025.111	-2248
1025.179	-2033
1025.247	-1596
1025.315	-1659
1025.383	-1569
1025.451	-1593
1025.519	-1868
1025.587	-1482
1025.655	-1580
1025.723	-636
1025.791	-1373
1025.859	-1593
1025.927	-1906
1025.995	-1398
1026.062	-1066
1026.130	-1659
1026.198	-1714
1026.266	-627
1026.333	-837
1026.401	-989
1026.469	-1186
1026.536	-1869
1026.604	-1317
1026.671	-1484
1026.739	-1755
1026.806	-1390
1026.874	-1898
1026.941	-422
1027.009	-1281
1027.076	-1228
1027.144	-853
1027.211	-1761
1027.278	-2235
1027.345	-674
1027.413	-1586
1027.480	-2136
1027.547	-1253
1027.614	-1370
1027.682	-1302
1027.749	-1530
1027.816	-1824
1027.883	-1122
1027.950	-959
1028.017	-1783
1028.084	-1166
1028.151	-1409
1028.218	-1508
1028.285	-1654
1028.352	-1432
1028.419	-2036
1028.486	-1901
1028.553	-1717
1028.619	-2407
1028.686	-1007
1028.753	-1149
1028.820	-1690
1028.886	-1761
1028.953	-1584
1029.020	-1771
1029.086	-1469
1029.153	-1194
1029.220	-1370
1029.286	-1652
1029.353	-1281
1029.419	-1737
1029.486	-1340
1029.552	-1390
1029.619	-2187
1029.685	-1985
1029.751	-1651
1029.818	-997
1029.884	-2247
1029.951	-665
1030.017	-1576
1030.083	-1697
1030.149	-897
1030.216	-1758
1030.282	-1422
1030.348	-1938
1030.414	-1796
1030.480	-2173
1030.546	-1337
1030.612	-1934
1030.678	-1306
1030.744	-2079
1030.810	-1074
1030.876	-1777
1030.942	-1417
1031.008	-1855
1031.074	-2053
1031.140	-2641
1031.206	-2052
1031.272	-2414
1031.337	-1655
1031.403	-1208
1031.469	-1760
1031.534	-1810
1031.600	-1331
1031.666	-1182
1031.731	-2282
1031.797	-1447
1031.863	-829
1031.928	-1487
1031.994	-1176
1032.059	-2114
1032.125	-1312
1032.190	-1888
1032.256	-1799
1032.321	-2301
1032.386	-1613
1032.452	-1037
1032.517	-1469
1032.582	-1160
1032.647	-452
1032.713	-585
1032.778	-1137
1032.843	-1904
1032.908	-1169
1032.974	-1821
1033.039	-2050
1033.104	-1214
1033.169	-1263
1033.234	-1970
1033.299	-336
1033.364	-1243
1033.429	-1572
1033.494	-1141
1033.559	-1604
1033.624	-1254
1033.688	-268
1033.753	-1475
1033.818	-622
1033.883	322
1033.948	1059
1034.013	2063
1034.077	2572
1034.142	4182
1034.207	5622
1034.271	8584
1034.336	13113
1034.400	11648
1034.465	7481
1034.530	2991
1034.594	543
1034.658	-464
1034.723	-795
1034.787	-1490
1034.852	-375
1034.916	-1285
1034.981	-1238
1035.045	-632
1035.109	-1912
1035.173	-911
1035.238	-1641
1035.302	-1646
1035.366	-1703
1035.430	-1507
1035.495	-2151
1035.559	-2033
1035.623	-1262
1035.687	-2158
1035.751	-1916
1035.815	-1616
1035.879	-2372
1035.943	-852
1036.007	-918
1036.071	-1685
1036.135	-2113
1036.198	-1265
1036.262	-1798
1036.326	-1648
1036.390	-1379
1036.454	-1301
1036.517	-1410
1036.581	-1809
1036.645	-1824
1036.709	-1194
1036.772	-1687
1036.836	-1524
1036.900	-2032
1036.963	-1844
1037.026	-304
1037.090	-1867
1037.154	-738
1037.217	-1616
1037.280	-1411
1037.344	-1514
1037.407	-1305
1037.471	-1387
1037.534	-426
1037.597	-745
1037.661	-1080
1037.724	-265
1037.787	-283
1037.850	-1827
1037.913	-1071
1037.977	-210
1038.040	-1728
1038.103	-1140
1038.166	-1315
1038.229	-2046
1038.292	-1545
1038.355	-1409
1038.418	-1725
1038.481	-1993
1038.544	-2209
1038.607	-1470
1038.670	-1939
1038.732	-2526
1038.795	-946
1038.858	-2428
1038.921	-1933
1038.984	-1616
1039.046	-1776
1039.109	-2337
1039.172	-2363
1039.234	-2279
1039.297	-1861
1039.360	-1313
1039.422	-1982
1039.485	-1411
1039.547	-1944
1039.610	-2380
1039.672	-2116
1039.734	-1658
1039.797	-1734
1039.859	-1636
1039.922	-1373
1039.984	-2171
1040.046	-1501
1040.109	-1729
1040.171	-1953
1040.233	-1809
1040.295	-2128
1040.358	-2048
1040.420	-2045
1040.482	-2096
1040.544	-2136
1040.606	-1945
1040.668	-2361
1040.730	-2262
1040.792	-1490
1040.854	-2188
1040.916	-2074
1040.978	-1708
1041.040	-1382
1041.102	-2240
1041.164	-1925
1041.225	-1958
1041.287	-2264
1041.349	-1821
1041.411	-1648
1041.472	-1746
1041.534	-2347
1041.596	-2076
1041.657	-2230
1041.719	-999
1041.781	-1557
1041.842	-2356
1041.904	-2149
1041.965	-2268
1042.027	-2194
1042.088	-1698
1042.150	-1282
1042.211	-1931
1042.272	-961
1042.334	-1666
1042.395	-1613
1042.456	-2580
1042.518	-2066
1042.579	-2342
1042.640	-2083
1042.701	-2204
1042.763	-1813
1042.824	-2552
1042.885	-1457
1042.946	-1384
1043.007	-2031
1043.068	-2128
1043.129	-1558
1043.190	-1712
1043.251	-2133
1043.312	-2739
1043.373	-1795
1043.434	-2069
1043.495	-1529
1043.556	-1849
1043.616	-2022
1043.677	-3044
1043.738	-2257
1043.799	-1145
1043.859	-1593
1043.920	-2489
1043.981	-2410
1044.041	-1030
1044.102	-2316
1044.162	-2141
1044.223	-1248
1044.284	-1693
1044.344	-2126
1044.405	-1625
1044.465	-1829
1044.525	-2141
1044.586	-1494
1044.646	-1833
1044.707	-1134
1044.767	-2356
1044.827	-1725
1044.887	-1020
1044.948	-2050
1045.008	-2039
1045.068	-1761
1045.128	-1589
1045.188	-1760
1045.249	-1166
1045.309	-2466
1045.369	-2243
1045.429	-1610
1045.489	-2049
1045.549	-1567
1045.609	-2381
1045.669	-1996
1045.729	-1687
1045.789	-1717
1045.848	-1865
1045.908	-2064
1045.968	-1894
1046.028	-1694
1046.088	-1570
1046.147	-1651
1046.207	-1080
1046.267	-1501
1046.326	-1510
1046.386	-1442
1046.446	-869
1046.505	-1114
1046.565	-1125
1046.624	-716
1046.684	-1005
1046.743	-963
1046.803	-1095
1046.862	-509
1046.922	0
