'Start Wavelength	183.907
'End Wavelength	1046.922
'Gate Delay	5.000
'Gate Width (ms)	1.050
'Laser Output Level	0.000
'X Position	0.000
'Y Position	0.000
'Z Position	0.000
'Grid Point Number	1.000
'Shot Number	100.000
183.907	492.000
183.977	29.000
184.047	164
184.116	396
184.186	-287
184.256	-25
184.325	-985
184.395	-425
184.465	-3
184.534	801
184.604	-696
184.674	-20
184.743	-178
184.813	281
184.883	-252
184.952	-53
185.022	-83
185.092	8
185.161	-397
185.231	482
185.301	-241
185.370	750
185.440	-231
185.509	138
185.579	-54
185.649	-435
185.718	-172
185.788	818
185.857	37
185.927	293
185.996	198
186.066	51
186.136	57
186.205	-226
186.275	61
186.344	588
186.414	300
186.483	292
186.553	110
186.622	1693
186.692	386
186.761	-390
186.831	371
186.900	134
186.970	527
187.039	-208
187.109	636
187.178	295
187.248	446
187.317	1687
187.387	-394
187.456	392
187.526	1250
187.595	645
187.664	-304
187.734	-255
187.803	-60
187.873	688
187.942	238
188.012	1098
188.081	534
188.150	-82
188.220	664
188.289	641
188.358	804
188.428	149
188.497	141
188.567	1102
188.636	32
188.705	235
188.775	-366
188.844	106
188.913	413
188.983	683
189.052	15
189.121	-302
189.191	514
189.260	1352
189.329	253
189.399	667
189.468	699
189.537	253
189.606	326
189.676	273
189.745	760
189.814	248
189.883	-140
189.953	814
190.022	196
190.091	3041
190.161	3739
190.230	943
190.299	194
190.368	-369
190.437	66
190.507	-320
190.576	-385
190.645	-392
190.714	-371
190.783	274
190.853	845
190.922	1012
190.991	-155
191.060	189
191.129	-289
191.198	315
191.268	267
191.337	559
191.406	735
191.475	943
191.544	420
191.613	342
191.682	-591
191.752	-32
191.821	49
191.890	-201
191.959	-115
192.028	547
192.097	216
192.166	321
192.235	21
192.304	1028
192.373	227
192.442	488
192.511	-385
192.580	599
192.650	-13
192.719	-21
192.788	682
192.857	589
192.926	-212
192.995	101
193.064	591
193.133	956
193.202	960
193.271	859
193.340	735
193.409	849
193.478	893
193.547	1595
193.615	1827
193.684	2403
193.753	784
193.822	823
193.891	212
193.960	708
194.029	411
194.098	1441
194.167	-13
194.236	529
194.305	539
194.374	-187
194.443	537
194.512	-88
194.580	810
194.649	1543
194.718	1705
194.787	293
194.856	-287
194.925	1620
194.994	984
195.062	1353
195.131	734
195.200	401
195.269	1551
195.338	1839
195.407	259
195.475	483
195.544	1214
195.613	714
195.682	611
195.751	1935
195.819	1284
195.888	1049
195.957	690
196.026	814
196.094	1043
196.163	1421
196.232	1149
196.301	1142
196.369	112
196.438	962
196.507	-161
196.576	751
196.644	-40
196.713	372
196.782	408
196.850	896
196.919	334
196.988	1379
197.056	-439
197.125	546
197.194	724
197.262	934
197.331	-406
197.400	267
197.468	435
197.537	695
197.606	658
197.674	1598
197.743	3481
197.812	1902
197.880	3065
197.949	2450
198.017	3241
198.086	2746
198.155	1636
198.223	1754
198.292	3561
198.360	2059
198.429	210
198.497	858
198.566	2295
198.635	3777
198.703	1343
198.772	1132
198.840	3956
198.909	5226
198.977	1019
199.046	1328
199.114	1043
199.183	1112
199.251	168
199.320	827
199.388	523
199.457	216
199.525	657
199.594	332
199.662	22
199.731	374
199.799	-375
199.867	536
199.936	32
200.004	1200
200.073	558
200.141	-184
200.210	341
200.278	1210
200.346	351
200.415	1386
200.483	1167
200.552	573
200.620	475
200.688	1062
200.757	412
200.825	801
200.893	535
200.962	597
201.030	52
201.098	736
201.167	580
201.235	1172
201.303	907
201.372	1507
201.440	1212
201.508	1842
201.577	1674
201.645	1065
201.713	877
201.781	899
201.850	2073
201.918	1742
201.986	127
202.055	1367
202.123	69
202.191	1048
202.259	495
202.327	1185
202.396	207
202.464	956
202.532	1735
202.600	7726
202.669	4701
202.737	1109
202.805	649
202.873	1076
202.941	638
203.009	716
203.078	259
203.146	1228
203.214	-31
203.282	-756
203.350	832
203.418	180
203.487	2356
203.555	391
203.623	1069
203.691	906
203.759	180
203.827	853
203.895	869
203.963	394
204.031	602
204.099	906
204.168	723
204.236	557
204.304	1079
204.372	1130
204.440	243
204.508	314
204.576	-231
204.644	601
204.712	545
204.780	1070
204.848	106
204.916	66
204.984	474
205.052	1220
205.120	517
205.188	1323
205.256	359
205.324	1309
205.392	-395
205.460	273
205.528	1007
205.596	2250
205.664	837
205.732	1300
205.799	3851
205.867	8938
205.935	1666
206.003	1736
206.071	657
206.139	1355
206.207	1919
206.275	1218
206.343	1135
206.411	400
206.478	934
206.546	957
206.614	293
206.682	942
206.750	353
206.818	1083
206.885	1292
206.953	-211
207.021	1674
207.089	1138
207.157	438
207.225	1678
207.292	333
207.360	442
207.428	22
207.496	208
207.563	755
207.631	1720
207.699	-625
207.767	602
207.834	-270
207.902	1312
207.970	906
208.038	633
208.105	385
208.173	1533
208.241	2102
208.309	1777
208.376	994
208.444	4371
208.512	1491
208.579	487
208.647	867
208.715	2189
208.782	1371
208.850	1017
208.918	328
208.985	930
209.053	1435
209.120	1675
209.188	633
209.256	984
209.323	122
209.391	1992
209.459	2058
209.526	630
209.594	891
209.661	1182
209.729	1289
209.796	593
209.864	761
209.932	-410
209.999	2266
210.067	1834
210.134	1272
210.202	779
210.269	2676
210.337	2501
210.404	563
210.472	624
210.539	1588
210.607	836
210.674	2513
210.742	1262
210.809	665
210.877	1800
210.944	1910
211.012	925
211.079	2527
211.146	1569
211.214	955
211.281	2555
211.349	2559
211.416	1582
211.484	1665
211.551	1574
211.618	1410
211.686	1242
211.753	960
211.821	1174
211.888	952
211.955	1281
212.023	1061
212.090	1464
212.157	1267
212.225	1957
212.292	3439
212.359	7640
212.427	23716
212.494	11731
212.561	3215
212.629	2134
212.696	2732
212.763	1475
212.831	858
212.898	2164
212.965	1020
213.032	1576
213.100	1672
213.167	1464
213.234	2364
213.301	1007
213.369	1594
213.436	1462
213.503	1063
213.570	2019
213.638	1462
213.705	1131
213.772	1007
213.839	2734
213.906	3521
213.973	2285
214.041	567
214.108	1583
214.175	1063
214.242	1191
214.309	1008
214.376	1085
214.444	539
214.511	1665
214.578	1186
214.645	2305
214.712	1450
214.779	1332
214.846	700
214.913	1997
214.980	1860
215.048	2522
215.115	2488
215.182	2759
215.249	1766
215.316	1371
215.383	1798
215.450	1233
215.517	1643
215.584	1301
215.651	864
215.718	1809
215.785	1805
215.852	1819
215.919	2236
215.986	2944
216.053	1217
216.120	1389
216.187	1867
216.254	2551
216.321	1947
216.388	2098
216.455	1718
216.522	2479
216.589	2485
216.656	5236
216.722	5678
216.789	3812
216.856	3003
216.923	2438
216.990	1588
217.057	2464
217.124	2991
217.191	2619
217.258	3104
217.324	4154
217.391	4421
217.458	3306
217.525	3054
217.592	2288
217.659	1021
217.725	3499
217.792	4064
217.859	4424
217.926	1065
217.993	1395
218.059	2649
218.126	1667
218.193	1141
218.260	254
218.327	585
218.393	1233
218.460	1116
218.527	658
218.594	1163
218.660	3766
218.727	4548
218.794	1570
218.860	1324
218.927	1145
218.994	150
219.061	918
219.127	2351
219.194	3342
219.261	1580
219.327	720
219.394	1062
219.461	196
219.527	1147
219.594	2929
219.661	2030
219.727	124
219.794	1452
219.860	841
219.927	1436
219.994	2912
220.060	5882
220.127	3847
220.193	1956
220.260	1866
220.326	3328
220.393	4476
220.460	7266
220.526	4001
220.593	1814
220.659	3547
220.726	2130
220.792	11240
220.859	7578
220.925	8363
220.992	12787
221.058	12848
221.125	15252
221.191	12060
221.258	3659
221.324	1944
221.391	2296
221.457	1457
221.524	1831
221.590	2864
221.657	13226
221.723	9687
221.789	8083
221.856	8257
221.922	3682
221.989	2792
222.055	1746
222.121	646
222.188	3163
222.254	2457
222.321	1543
222.387	612
222.453	471
222.520	1379
222.586	165
222.652	1256
222.719	821
222.785	1625
222.851	444
222.918	1585
222.984	1271
223.050	537
223.116	-3
223.183	2181
223.249	1065
223.315	408
223.382	909
223.448	1312
223.514	147
223.580	815
223.647	743
223.713	354
223.779	605
223.845	314
223.911	488
223.978	365
224.044	1189
224.110	746
224.176	530
224.242	1143
224.309	200
224.375	1485
224.441	270
224.507	440
224.573	70
224.639	1747
224.705	56
224.772	1406
224.838	926
224.904	2488
224.970	1235
225.036	857
225.102	1221
225.168	1958
225.234	1614
225.300	842
225.366	854
225.432	1333
225.499	465
225.565	1245
225.631	1311
225.697	1665
225.763	2214
225.829	2066
225.895	1887
225.961	5129
226.027	3415
226.093	3044
226.159	3482
226.225	4253
226.291	9245
226.357	19141
226.423	9557
226.489	5568
226.554	3255
226.620	2646
226.686	4101
226.752	6946
226.818	8798
226.884	24882
226.950	22811
227.016	7456
227.082	4946
227.148	3669
227.214	4021
227.279	3066
227.345	2124
227.411	3150
227.477	2681
227.543	6672
227.609	6749
227.674	3647
227.740	2339
227.806	3020
227.872	2214
227.938	1590
228.003	3750
228.069	1526
228.135	1377
228.201	914
228.267	612
228.332	2336
228.398	2907
228.464	3413
228.530	694
228.595	1881
228.661	1023
228.727	4177
228.792	3529
228.858	942
228.924	921
228.990	3633
229.055	2393
229.121	3619
229.187	815
229.252	2206
229.318	1075
229.384	2434
229.449	2906
229.515	145
229.581	279
229.646	2825
229.712	2334
229.777	5696
229.843	6993
229.909	4548
229.974	3838
230.040	4367
230.105	2736
230.171	3870
230.236	4204
230.302	7264
230.368	6550
230.433	2509
230.499	2927
230.564	2117
230.630	1184
230.695	1760
230.761	1840
230.826	722
230.892	4320
230.957	2111
231.023	813
231.088	3344
231.154	2819
231.219	2718
231.284	4140
231.350	5125
231.415	2682
231.481	2075
231.546	1846
231.612	1435
231.677	983
231.742	1457
231.808	2948
231.873	1536
231.939	639
232.004	6410
232.069	6081
232.135	2616
232.200	2331
232.265	2317
232.331	754
232.396	1124
232.461	861
232.527	1365
232.592	1854
232.657	2552
232.723	5856
232.788	4549
232.853	2460
232.918	918
232.984	657
233.049	1478
233.114	5622
233.179	4876
233.245	7811
233.310	11988
233.375	1964
233.440	2447
233.506	1373
233.571	1210
233.636	1809
233.701	2059
233.766	6430
233.832	10924
233.897	3630
233.962	2832
234.027	4104
234.092	2970
234.157	1849
234.222	2482
234.288	5092
234.353	19455
234.418	19782
234.483	10629
234.548	6846
234.613	4874
234.678	3831
234.743	5275
234.808	22538
234.873	14681
234.938	4997
235.004	3119
235.069	3468
235.134	2639
235.199	3138
235.264	2420
235.329	311
235.394	3387
235.459	5248
235.524	4225
235.589	3715
235.654	2599
235.719	1852
235.784	2967
235.849	3044
235.913	11750
235.978	12507
236.043	16165
236.108	5494
236.173	4586
236.238	5526
236.303	2977
236.368	2856
236.433	6726
236.498	13855
236.563	6381
236.627	8321
236.692	32983
236.757	28986
236.822	11810
236.887	11354
236.952	7731
237.017	4408
237.081	7398
237.146	5497
237.211	12533
237.276	30825
237.341	63755
237.405	31794
237.470	12330
237.535	11554
237.600	6400
237.664	4735
237.729	3762
237.794	4188
237.859	8155
237.923	9778
237.988	6222
238.053	9275
238.118	11473
238.182	25159
238.247	25692
238.312	12975
238.376	9096
238.441	5438
238.506	5993
238.570	2558
238.635	4696
238.700	2301
238.764	3287
238.829	10811
238.893	15688
238.958	7017
239.023	5369
239.087	3567
239.152	4523
239.216	2504
239.281	2213
239.346	3076
239.410	3589
239.475	4190
239.539	24288
239.604	21515
239.668	6490
239.733	3964
239.797	4682
239.862	11330
239.926	21671
239.991	9772
240.055	4547
240.120	2936
240.184	3856
240.249	2863
240.313	2968
240.378	3860
240.442	15063
240.507	27275
240.571	8301
240.635	12787
240.700	17021
240.764	5501
240.829	3800
240.893	2577
240.957	3349
241.022	14390
241.086	28883
241.151	14118
241.215	3854
241.279	6898
241.344	15376
241.408	6312
241.472	3392
241.537	3877
241.601	4167
241.665	1818
241.730	2119
241.794	4460
241.858	2239
241.922	2609
241.987	3424
242.051	2340
242.115	1927
242.179	3598
242.244	2158
242.308	2974
242.372	3715
242.436	3920
242.501	3599
242.565	2645
242.629	1773
242.693	3183
242.757	1281
242.822	2882
242.886	3851
242.950	3811
243.014	4024
243.078	4412
243.142	4327
243.206	3471
243.271	5724
243.335	4142
243.399	6607
243.463	23851
243.527	75637
243.591	26806
243.655	10369
243.719	4769
243.783	7276
243.847	9390
243.911	13172
243.975	15648
244.040	11278
244.104	6670
244.168	4157
244.232	7407
244.296	11147
244.360	11112
244.424	7367
244.488	7235
244.552	5713
244.615	2655
244.679	3799
244.743	4905
244.807	5751
244.871	4453
244.935	3814
244.999	1851
245.063	3519
245.127	4154
245.191	8301
245.255	8179
245.319	7020
245.383	4870
245.446	5577
245.510	2210
245.574	4566
245.638	4143
245.702	3104
245.766	13287
245.829	8275
245.893	5106
245.957	3824
246.021	4986
246.085	5507
246.149	7456
246.212	15403
246.276	22622
246.340	11132
246.404	8196
246.467	8077
246.531	12248
246.595	8127
246.659	7700
246.722	6663
246.786	8763
246.850	8887
246.913	12190
246.977	5117
247.041	5624
247.104	6245
247.168	5779
247.232	14215
247.295	31148
247.359	16686
247.423	7345
247.486	14446
247.550	9204
247.614	6612
247.677	8993
247.741	6983
247.804	4851
247.868	6862
247.932	10874
247.995	28640
248.059	12289
248.122	5914
248.186	8044
248.249	12116
248.313	44599
248.376	49777
248.440	31191
248.503	11998
248.567	10582
248.630	13756
248.694	19321
248.757	22922
248.821	49114
248.884	30975
248.948	25332
249.011	38548
249.075	57263
249.138	52136
249.202	20437
249.265	13936
249.328	21463
249.392	13492
249.455	9821
249.519	7493
249.582	9590
249.645	16502
249.709	11407
249.772	7978
249.835	8321
249.899	10576
249.962	8385
250.025	6966
250.089	17453
250.152	26615
250.215	12938
250.279	10923
250.342	10690
250.405	10265
250.468	7630
250.532	12307
250.595	17743
250.658	59664
250.721	111811
250.785	40110
250.848	20357
250.911	12603
250.974	11048
251.038	13562
251.101	30062
251.164	17037
251.227	18093
251.290	14656
251.354	21067
251.417	85176
251.480	93957
251.543	57221
251.606	159764
251.669	131335
251.732	47469
251.795	44556
251.859	45245
251.922	103380
251.985	64618
252.048	21959
252.111	17742
252.174	17014
252.237	26133
252.300	59313
252.363	64178
252.426	136652
252.489	60979
252.552	31714
252.615	21753
252.678	20747
252.741	44160
252.804	58212
252.867	136981
252.930	85085
252.993	45366
253.056	26415
253.119	19616
253.182	13935
253.245	26126
253.308	21230
253.371	20870
253.434	19315
253.497	16208
253.559	29153
253.622	22722
253.685	28224
253.748	30688
253.811	14236
253.874	20434
253.937	20083
254.000	12773
254.062	19659
254.125	33114
254.188	26256
254.251	26482
254.314	13470
254.376	23612
254.439	27505
254.502	22123
254.565	21240
254.628	37089
254.690	24823
254.753	14125
254.816	11220
254.878	12088
254.941	22162
255.004	25409
255.067	12399
255.129	11721
255.192	7033
255.255	5282
255.317	8394
255.380	5369
255.443	4956
255.505	4715
255.568	3870
255.631	4247
255.693	5405
255.756	3972
255.819	5302
255.881	3653
255.944	4173
256.006	4390
256.069	4933
256.132	3497
256.194	7272
256.257	26337
256.319	19518
256.382	18303
256.444	8178
256.507	5803
256.569	4493
256.632	5135
256.694	9648
256.757	17558
256.819	50581
256.882	21505
256.944	9924
257.007	8341
257.069	9321
257.132	5764
257.194	5798
257.257	4688
257.319	5650
257.381	5172
257.444	13559
257.506	56846
257.569	70405
257.631	52940
257.693	25898
257.756	12421
257.818	14304
257.880	7267
257.943	6929
258.005	5151
258.067	4690
258.130	3859
258.192	6725
258.254	17581
258.317	11265
258.379	5864
258.441	18729
258.503	19496
258.566	26796
258.628	40167
258.690	10185
258.753	8044
258.815	14898
258.877	8442
258.939	5974
259.001	4433
259.064	3867
259.126	8320
259.188	13265
259.250	7849
259.312	9997
259.375	31501
259.437	20240
259.499	6464
259.561	5753
259.623	5469
259.685	4895
259.747	6911
259.809	24495
259.872	52773
259.934	66933
259.996	60418
260.058	15874
260.120	8060
260.182	6830
260.244	5843
260.306	5209
260.368	4899
260.430	4080
260.492	7764
260.554	21413
260.616	25152
260.678	33432
260.740	57180
260.802	15138
260.864	10099
260.926	7533
260.988	7997
261.050	6476
261.112	9040
261.174	38451
261.236	42466
261.298	11939
261.359	22653
261.421	37152
261.483	9925
261.545	8061
261.607	3935
261.669	5860
261.731	13649
261.793	38268
261.854	15241
261.916	9055
261.978	5732
262.040	7831
262.102	7617
262.164	14493
262.225	13669
262.287	6090
262.349	15365
262.411	13668
262.472	7075
262.534	14131
262.596	38706
262.658	12626
262.719	6398
262.781	10997
262.843	35306
262.904	16519
262.966	9931
263.028	11972
263.090	51002
263.151	140068
263.213	44689
263.275	19821
263.336	11200
263.398	8601
263.459	5580
263.521	5976
263.583	14276
263.644	10796
263.706	4266
263.767	4086
263.829	3415
263.891	2835
263.952	2318
264.014	2980
264.075	2423
264.137	5848
264.198	6462
264.260	2982
264.321	2960
264.383	6921
264.444	12987
264.506	4362
264.567	3469
264.629	3910
264.690	4152
264.752	4787
264.813	3919
264.875	3201
264.936	2929
264.998	1751
265.059	1874
265.120	3401
265.182	4327
265.243	20154
265.305	21764
265.366	6164
265.427	4076
265.489	3861
265.550	1998
265.611	4170
265.673	3274
265.734	2772
265.795	2893
265.857	3565
265.918	2968
265.979	5914
266.040	36454
266.102	32639
266.163	9373
266.224	8060
266.286	4902
266.347	4175
266.408	5063
266.469	6331
266.530	5166
266.592	4831
266.653	10195
266.714	17914
266.775	6300
266.836	3998
266.898	3772
266.959	5493
267.020	4181
267.081	4655
267.142	3931
267.203	5610
267.264	4482
267.326	6606
267.387	4481
267.448	3302
267.509	4539
267.570	4357
267.631	2817
267.692	4501
267.753	9629
267.814	4362
267.875	8711
267.936	20473
267.997	6412
268.058	6023
268.119	3689
268.180	4350
268.241	2678
268.302	3136
268.363	3135
268.424	3956
268.485	3228
268.546	2324
268.607	1161
268.668	1588
268.729	1893
268.790	3233
268.851	3939
268.912	10057
268.972	14439
269.033	6871
269.094	3600
269.155	3006
269.216	2386
269.277	3457
269.338	3956
269.398	3505
269.459	4346
269.520	5947
269.581	8951
269.642	10716
269.702	6765
269.763	5331
269.824	4134
269.885	6474
269.945	9219
270.006	4083
270.067	2275
270.128	2761
270.188	2905
270.249	2809
270.310	2152
270.370	3353
270.431	4137
270.492	2982
270.553	3735
270.613	9820
270.674	18620
270.734	9198
270.795	4329
270.856	7292
270.916	5824
270.977	4185
271.038	5178
271.098	5763
271.159	8764
271.219	10104
271.280	4686
271.340	4122
271.401	5125
271.462	21617
271.522	10254
271.583	4865
271.643	5693
271.704	5415
271.764	6106
271.825	12611
271.885	41028
271.946	59706
272.006	19212
272.066	23590
272.127	45963
272.187	15021
272.248	8386
272.308	9961
272.369	30190
272.429	21016
272.489	13675
272.550	15025
272.610	14981
272.671	14091
272.731	13823
272.791	27070
272.852	12718
272.912	10665
272.972	5766
273.033	6882
273.093	12237
273.153	11205
273.214	8099
273.274	9063
273.334	22345
273.394	55467
273.455	23651
273.515	21470
273.575	47418
273.635	23731
273.696	30923
273.756	55229
273.816	24836
273.876	16106
273.936	33077
273.997	64759
274.057	17004
274.117	12566
274.177	15247
274.237	55389
274.297	56270
274.358	50275
274.418	42940
274.478	33216
274.538	14555
274.598	13381
274.658	52088
274.718	72797
274.778	28486
274.838	14674
274.898	29263
274.958	99621
275.018	60843
275.078	38094
275.138	17213
275.198	11006
275.258	8770
275.318	11498
275.378	16800
275.438	17198
275.498	13182
275.558	35514
275.618	80450
275.678	43653
275.738	22867
275.798	17311
275.858	8082
275.918	6658
275.978	7452
276.038	7253
276.098	5755
276.157	11807
276.217	37112
276.277	20752
276.337	13275
276.397	8144
276.457	9874
276.517	7506
276.576	6240
276.636	6884
276.696	14230
276.756	23525
276.815	19770
276.875	9953
276.935	11562
276.995	10502
277.055	6469
277.114	7170
277.174	8531
277.234	28284
277.293	14715
277.353	8896
277.413	6899
277.472	7108
277.532	8815
277.592	11892
277.651	38638
277.711	86289
277.771	29336
277.830	83378
277.890	78604
277.950	49693
278.009	140042
278.069	61042
278.128	55868
278.188	89920
278.248	38659
278.307	90379
278.367	62820
278.426	20633
278.486	13733
278.545	10384
278.605	9613
278.664	9406
278.724	9641
278.783	21722
278.843	57559
278.902	20532
278.962	14904
279.021	19003
279.081	39194
279.140	41873
279.199	22041
279.259	20558
279.318	23046
279.378	32119
279.437	56203
279.496	156993
279.556	420555
279.615	406264
279.675	148020
279.734	80361
279.793	99292
279.853	133557
279.912	52514
279.971	32832
280.031	29639
280.090	41066
280.149	71343
280.208	85450
280.268	287296
280.327	346797
280.386	111532
280.445	62006
280.505	50728
280.564	27849
280.623	20859
280.682	24139
280.742	36017
280.801	15166
280.860	11040
280.919	11400
280.978	10523
281.037	11917
281.097	9640
281.156	10182
281.215	8673
281.274	10721
281.333	36102
281.392	33389
281.451	9835
281.510	8168
281.569	7634
281.628	7761
281.688	7112
281.747	8449
281.806	6595
281.865	6192
281.924	5695
281.983	6388
282.042	4806
282.101	4194
282.160	6385
282.219	5456
282.278	6467
282.337	19294
282.396	15854
282.454	7414
282.513	8112
282.572	28896
282.631	19212
282.690	8819
282.749	6246
282.808	7751
282.867	6907
282.926	8111
282.985	5284
283.043	5634
283.102	5746
283.161	8243
283.220	15252
283.279	36664
283.338	13674
283.396	8042
283.455	8621
283.514	9103
283.573	18725
283.631	16086
283.690	8194
283.749	7312
283.808	13588
283.866	17839
283.925	8344
283.984	8012
284.043	10198
284.101	12714
284.160	8750
284.219	10202
284.277	11621
284.336	20064
284.395	46141
284.453	43220
284.512	18538
284.570	22091
284.629	22407
284.688	23145
284.746	27293
284.805	30764
284.863	42933
284.922	52162
284.981	60703
285.039	83418
285.098	132178
285.156	262874
285.215	345184
285.273	338661
285.332	301683
285.390	173255
285.449	106968
285.507	74793
285.566	55913
285.624	44195
285.683	32301
285.741	26632
285.799	22106
285.858	19941
285.916	18445
285.975	14470
286.033	11742
286.091	11604
286.150	10070
286.208	10014
286.267	12015
286.325	11796
286.383	14370
286.442	12374
286.500	9258
286.558	9438
286.616	7299
286.675	10554
286.733	10209
286.791	9317
286.850	8406
286.908	10230
286.966	16656
287.024	9294
287.083	6427
287.141	5237
287.199	6407
287.257	8929
287.315	7337
287.374	8514
287.432	16108
287.490	12863
287.548	7177
287.606	7661
287.664	7770
287.723	7856
287.781	10042
287.839	7101
287.897	8191
287.955	10303
288.013	15201
288.071	37327
288.129	130572
288.187	385946
288.245	194303
288.303	59547
288.361	32385
288.419	22804
288.477	16753
288.535	12917
288.593	9266
288.651	7146
288.709	6663
288.767	5715
288.825	5301
288.883	4612
288.941	6163
288.999	6022
289.057	4125
289.115	3352
289.173	3621
289.231	4572
289.289	5382
289.346	5603
289.404	5123
289.462	10134
289.520	10454
289.578	5558
289.636	2711
289.694	3238
289.751	3200
289.809	3029
289.867	3244
289.925	4836
289.983	5818
290.040	3734
290.098	2151
290.156	3358
290.214	5386
290.271	3296
290.329	2215
290.387	1904
290.444	1731
290.502	2458
290.560	1880
290.617	2707
290.675	1995
290.733	1841
290.790	3267
290.848	2588
290.906	3571
290.963	4631
291.021	2512
291.078	2437
291.136	4634
291.194	9471
291.251	24947
291.309	8939
291.366	3017
291.424	3679
291.481	3698
291.539	4958
291.596	7475
291.654	3217
291.711	2003
291.769	4420
291.826	10076
291.884	7025
291.941	2739
291.999	2372
292.056	4008
292.114	5002
292.171	2968
292.228	3623
292.286	4388
292.343	10067
292.401	13039
292.458	7266
292.515	4478
292.573	6720
292.630	6406
292.687	8211
292.745	5653
292.802	5236
292.859	13744
292.917	40070
292.974	24813
293.031	7360
293.089	4393
293.146	3771
293.203	3399
293.260	3363
293.318	6995
293.375	5860
293.432	3078
293.489	3252
293.546	4834
293.604	8914
293.661	31192
293.718	65055
293.775	30671
293.832	16530
293.889	16024
293.947	19258
294.004	12529
294.061	8995
294.118	14675
294.175	26768
294.232	21745
294.289	12611
294.346	6267
294.403	5899
294.460	6657
294.517	6471
294.574	4382
294.631	3308
294.688	5083
294.745	13622
294.802	49762
294.859	43057
294.916	22524
294.973	20514
295.030	12499
295.087	10071
295.144	5991
295.201	5268
295.258	4219
295.315	6746
295.372	21615
295.429	49474
295.486	21388
295.542	8481
295.599	8427
295.656	13667
295.713	17630
295.770	41827
295.827	17291
295.883	7614
295.940	7098
295.997	11953
296.054	13092
296.111	6297
296.167	3648
296.224	2929
296.281	2790
296.338	2880
296.394	2995
296.451	6024
296.508	17464
296.564	37012
296.621	21927
296.678	40032
296.734	65980
296.791	24655
296.848	12283
296.904	12238
296.961	28573
297.018	49717
297.074	41146
297.131	16773
297.187	11085
297.244	15973
297.301	43976
297.357	93888
297.414	35615
297.470	12740
297.527	8147
297.583	8807
297.640	7070
297.696	6717
297.753	4156
297.809	2704
297.866	2013
297.922	2977
297.979	3528
298.035	5333
298.092	10109
298.148	27889
298.204	31410
298.261	15229
298.317	17694
298.374	51863
298.430	39022
298.486	21516
298.543	18245
298.599	18140
298.656	22626
298.712	26521
298.768	52407
298.824	43709
298.881	15862
298.937	9101
298.993	7311
299.050	9089
299.106	8074
299.162	5854
299.218	6690
299.275	6047
299.331	6940
299.387	13186
299.443	47673
299.500	58793
299.556	23645
299.612	11264
299.668	10601
299.724	11565
299.780	12014
299.837	8485
299.893	14262
299.949	44769
300.005	61239
300.061	42262
300.117	71277
300.173	41083
300.229	20374
300.285	24352
300.341	27063
300.397	16334
300.453	9407
300.510	8884
300.566	9326
300.622	9513
300.678	21796
300.734	45398
300.790	44901
300.845	57788
300.901	36386
300.957	46455
301.013	41824
301.069	17391
301.125	10817
301.181	13110
301.237	12030
301.293	8131
301.349	6738
301.405	7615
301.461	10430
301.516	20596
301.572	15206
301.628	16849
301.684	15181
301.740	23102
301.796	43814
301.851	28427
301.907	38156
301.963	40839
302.019	53968
302.074	142453
302.130	156684
302.186	84873
302.242	33848
302.297	19536
302.353	18222
302.409	34425
302.464	37503
302.520	27051
302.576	54814
302.631	70460
302.687	38795
302.743	16767
302.798	8981
302.854	7168
302.910	6573
302.965	9157
303.021	19577
303.076	21891
303.132	21734
303.187	27066
303.243	15441
303.299	6462
303.354	5141
303.410	5180
303.465	5533
303.521	4067
303.576	4389
303.632	8644
303.687	15075
303.743	44394
303.798	46603
303.853	19448
303.909	9894
303.964	7226
304.020	11515
304.075	20660
304.130	18792
304.186	30043
304.241	32385
304.297	25529
304.352	12615
304.358	12119
304.407	8100
304.449	7577
304.463	7408
304.518	8145
304.539	7860
304.573	7400
304.629	7624
304.630	7721
304.684	12463
304.720	23912
304.739	29657
304.794	54302
304.811	46570
304.850	28089
304.902	12607
304.905	11617
304.960	8412
304.992	7394
305.015	6663
305.071	9518
305.083	9377
305.126	8709
305.173	5697
305.181	5219
305.236	3492
305.264	3947
305.292	4465
305.347	6495
305.354	6920
305.402	9545
305.445	9624
305.457	9628
305.512	9673
305.535	9581
305.567	9405
305.622	9830
305.626	10152
305.678	18034
305.716	37767
305.733	44941
305.788	63464
305.807	54567
305.843	38890
305.897	42252
305.898	42245
305.953	47148
305.988	31553
306.008	23069
306.063	11697
306.078	10393
306.118	7300
306.168	5543
306.173	5402
306.228	4860
306.259	4700
306.283	4541
306.338	2984
306.349	3163
306.393	4037
306.440	4883
306.448	4990
306.503	5036
306.530	5106
306.558	5909
306.613	11699
306.620	12832
306.668	22611
306.711	39166
306.723	41957
306.778	40966
306.801	31576
306.833	20062
306.888	9389
306.892	9027
306.943	6163
306.982	5209
306.997	4835
307.052	4517
307.072	4203
307.107	3897
307.162	4015
307.163	4029
307.217	5315
307.253	6487
307.272	7042
307.327	7318
307.343	7217
307.381	6839
307.434	7839
307.436	8076
307.491	14718
307.524	22485
307.546	25584
307.600	35611
307.614	32424
307.655	20760
307.704	10418
307.710	9638
307.765	8197
307.795	8846
307.819	9631
307.874	13065
307.885	12940
307.929	11109
307.975	9867
307.984	10140
308.038	14483
308.065	18544
308.093	31978
308.148	68953
308.156	78602
308.202	130374
308.246	171143
308.257	170848
308.312	91712
308.336	65345
308.366	49118
308.421	35463
308.426	33953
308.475	21310
308.517	14825
308.530	13599
308.585	11689
308.607	11373
308.639	10865
308.694	10817
308.697	10884
308.748	14075
308.787	17514
308.803	17659
308.857	15851
308.877	14898
308.912	15017
308.967	16369
308.967	16459
309.021	26774
309.058	36127
309.076	43777
309.130	75652
309.148	86898
309.185	139614
309.238	227741
309.239	228395
309.293	283219
309.328	272196
309.348	241532
309.402	121832
309.418	93308
309.457	64543
309.508	43381
309.511	42891
309.566	47519
309.598	53996
309.620	69890
309.674	121541
309.688	135964
309.729	132330
309.778	100152
309.783	97212
309.837	60707
309.868	44152
309.892	42732
309.946	47697
309.959	51175
310.001	63192
310.049	74356
310.055	72420
310.109	46438
310.139	31050
310.163	24392
310.218	14907
310.229	13467
310.272	10143
310.319	7504
310.326	7185
310.381	5891
310.409	5339
310.435	4921
310.489	4175
310.499	4174
310.543	4265
310.589	4066
310.598	3916
310.652	3369
310.679	2974
310.706	2769
310.760	2605
310.769	2573
310.814	2669
310.859	2921
310.868	2975
310.923	3413
310.948	3551
310.977	3608
311.031	3802
311.038	3865
311.085	3723
311.128	3266
311.139	3201
311.193	3073
311.218	2963
311.247	3043
311.301	3283
311.308	3327
311.356	2672
311.398	2083
311.410	2167
311.464	2443
311.488	2635
311.518	2533
311.572	2337
311.578	2330
311.626	4479
311.668	6414
311.680	6044
311.734	4174
311.758	3346
311.788	3473
311.842	3840
311.847	3881
311.896	4327
311.937	4741
311.950	4828
312.004	5263
312.027	5441
312.058	4691
312.112	3372
312.117	3251
312.165	3061
312.207	2928
312.297	2743
312.386	2795
312.476	3135
312.566	8827
312.656	3853
312.745	2263
312.835	1907
312.925	3115
313.015	2755
313.104	2347
313.194	3342
313.284	3154
313.374	6204
313.463	5521
313.553	2771
313.643	3503
313.732	2261
313.822	2904
313.912	2438
314.001	4453
314.091	2741
314.180	3257
314.270	4741
314.360	4946
314.449	3739
314.539	2895
314.628	1488
314.718	3177
314.808	3394
314.897	2943
314.987	3648
315.076	5185
315.166	5055
315.255	4914
315.345	4629
315.434	4260
315.524	3973
315.613	5720
315.703	7284
315.792	13792
315.881	42163
315.971	13585
316.060	8907
316.150	7484
316.239	6378
316.328	3352
316.418	2834
316.507	2933
316.597	4138
316.686	4497
316.775	3659
316.865	6724
316.954	2891
317.043	2488
317.133	2952
317.222	3127
317.311	2826
317.400	2558
317.490	5081
317.579	6894
317.668	4962
317.757	8984
317.847	23107
317.936	75276
318.025	27645
318.114	15776
318.203	7581
318.293	6886
318.382	10670
318.471	9700
318.560	9476
318.649	13248
318.738	4570
318.828	5271
318.917	4560
319.006	4106
319.095	8626
319.184	22221
319.273	19084
319.362	14715
319.451	4922
319.540	4453
319.629	11422
319.718	20046
319.807	6415
319.896	9725
319.985	28377
320.074	14360
320.163	2759
320.252	5140
320.341	3544
320.430	3328
320.519	8730
320.608	4403
320.697	3020
320.786	4078
320.875	6690
320.964	9879
321.053	14013
321.142	19462
321.230	19690
321.319	12982
321.408	31641
321.497	13026
321.586	12435
321.675	9021
321.764	9868
321.852	7806
321.941	18365
322.030	12714
322.119	12268
322.207	33968
322.296	12620
322.385	9056
322.474	14316
322.562	45800
322.651	19280
322.740	15769
322.829	18743
322.917	10834
323.006	10089
323.095	9579
323.183	5553
323.272	8806
323.361	13081
323.449	28383
323.538	9603
323.626	20161
323.715	11916
323.804	5532
323.892	17986
323.981	14105
324.069	3782
324.158	7926
324.246	7762
324.335	6613
324.424	12314
324.512	4571
324.601	4486
324.689	6190
324.778	5859
324.866	8515
324.954	1936
325.043	3729
325.131	5159
325.220	7740
325.308	7672
325.397	7905
325.485	4891
325.574	3203
325.662	2401
325.750	4396
325.839	3261
325.927	3142
326.015	2872
326.104	4269
326.192	3727
326.280	2202
326.369	2888
326.457	4816
326.545	9419
326.634	4079
326.722	1652
326.810	1956
326.898	3248
326.987	3657
327.075	7848
327.163	6857
327.251	2081
327.340	3039
327.428	2159
327.516	2236
327.604	1932
327.692	2084
327.781	1868
327.869	3224
327.957	2478
328.045	4175
328.133	2203
328.221	2367
328.309	2801
328.397	2700
328.485	4181
328.574	7914
328.662	23980
328.750	9292
328.838	2211
328.926	2312
329.014	1736
329.102	4292
329.190	6722
329.278	6116
329.366	1268
329.454	1192
329.542	1191
329.630	1720
329.718	1966
329.806	2847
329.893	2102
329.981	1630
330.069	2225
330.157	6480
330.245	16494
330.333	8766
330.421	3478
330.509	7128
330.597	26392
330.684	15566
330.772	2825
330.860	2367
330.948	2696
331.036	2286
331.123	1464
331.211	1829
331.299	1732
331.387	3083
331.475	6135
331.562	3205
331.650	1706
331.738	2755
331.825	1804
331.913	1629
332.001	1536
332.089	2715
332.176	3106
332.264	7510
332.352	5650
332.439	3349
332.527	1794
332.614	1537
332.702	2723
332.790	3528
332.877	6240
332.965	13558
333.052	8195
333.140	11064
333.228	30532
333.315	6008
333.403	2492
333.490	6530
333.578	13549
333.665	46293
333.753	15395
333.840	3168
333.928	2735
334.015	5954
334.103	8273
334.190	23201
334.278	8035
334.365	5504
334.452	6614
334.540	4174
334.627	1964
334.715	4053
334.802	7339
334.889	30836
334.977	35367
335.064	9903
335.151	3284
335.239	3080
335.326	3794
335.413	11357
335.501	14675
335.588	3892
335.675	1285
335.762	3278
335.850	3746
335.937	5340
336.024	11407
336.111	37911
336.199	24959
336.286	7600
336.373	3015
336.460	2348
336.547	2214
336.635	3506
336.722	3149
336.809	2747
336.896	4758
336.983	12443
337.070	18042
337.157	26122
337.245	18027
337.332	11694
337.419	1987
337.506	1903
337.593	1730
337.680	4020
337.767	10802
337.854	6548
337.941	5013
338.028	9592
338.115	3607
338.202	3652
338.289	5020
338.376	18270
338.463	6354
338.550	7302
338.637	7615
338.724	4158
338.811	4762
338.898	1893
338.984	1659
339.071	2753
339.158	3850
339.245	13863
339.332	8467
339.419	4593
339.506	3816
339.593	756
339.679	2309
339.766	2535
339.853	2569
339.940	9191
340.027	2519
340.113	3514
340.200	4308
340.287	3194
340.374	4128
340.460	8411
340.547	2987
340.634	7169
340.720	29498
340.807	16015
340.894	2955
340.980	3200
341.067	2257
341.154	3933
341.240	5056
341.327	14660
341.414	8251
341.500	11718
341.587	3386
341.674	1868
341.760	8353
341.847	10765
341.933	2592
342.020	1172
342.106	1161
342.193	3908
342.279	6996
342.366	6386
342.452	9107
342.539	5500
342.625	13153
342.712	31241
342.798	11686
342.885	5215
342.971	734
343.058	1563
343.144	1484
343.230	3486
343.317	4818
343.403	3381
343.490	1590
343.576	2048
343.662	2705
343.749	3914
343.835	4442
343.921	10680
344.008	60584
344.094	137439
344.180	29104
344.267	11586
344.353	38603
344.439	35991
344.525	13579
344.612	8911
344.698	4986
344.784	2791
344.870	1881
344.957	3268
345.043	5519
345.129	3271
345.215	8433
345.301	5222
345.387	3520
345.474	1687
345.560	1690
345.646	1739
345.732	1558
345.818	5884
345.904	4248
345.990	3500
346.076	3340
346.162	7717
346.249	3476
346.335	1872
346.421	3197
346.507	17215
346.593	58413
346.679	11763
346.765	2900
346.851	3259
346.937	2202
347.023	2455
347.108	3517
347.194	4034
347.280	3631
347.366	5437
347.452	16980
347.538	70910
347.624	47099
347.710	35761
347.796	3771
347.882	2213
347.967	2342
348.053	2020
348.139	1110
348.225	2151
348.311	1484
348.397	3228
348.482	3151
348.568	4053
348.654	1833
348.740	5079
348.825	3209
348.911	7782
348.997	30710
349.083	60047
349.168	8470
349.254	6545
349.340	5460
349.425	2580
349.511	3726
349.597	4130
349.682	10407
349.768	39257
349.854	16537
349.939	2784
350.025	1747
350.110	2032
350.196	1630
350.282	815
350.367	2402
350.453	2200
350.538	1943
350.624	2479
350.709	3536
350.795	1412
350.880	1775
350.966	3271
351.051	4112
351.137	2608
351.222	2801
351.308	11769
351.393	32057
351.479	11655
351.564	4669
351.649	3220
351.735	1069
351.820	2286
351.906	2004
351.991	3360
352.076	19488
352.162	30423
352.247	5728
352.332	4083
352.418	13772
352.503	16788
352.588	46186
352.673	34472
352.759	7278
352.844	2482
352.929	3992
353.014	5908
353.100	3926
353.185	8840
353.270	10167
353.355	9961
353.441	2930
353.526	2562
353.611	8464
353.696	10692
353.781	5806
353.866	1816
353.952	3482
354.037	9124
354.122	21180
354.207	19648
354.292	6141
354.377	2621
354.462	2219
354.547	4677
354.632	3964
354.717	6025
354.802	8070
354.887	3969
354.972	998
355.057	2701
355.142	1553
355.227	3634
355.312	6114
355.397	13616
355.482	34995
355.567	14603
355.652	11592
355.737	14567
355.822	45192
355.907	35503
355.991	5886
356.076	2521
356.161	2231
356.246	3076
356.331	3391
356.416	10529
356.501	78377
356.585	78353
356.670	12011
356.755	7152
356.840	9369
356.924	53294
357.009	176592
357.094	61471
357.179	12083
357.263	7780
357.348	7963
357.433	7900
357.517	7522
357.602	6527
357.687	6031
357.771	21272
357.856	85463
357.941	41604
358.025	39496
358.110	163509
358.195	68432
358.279	10789
358.364	7779
358.448	30451
358.533	81858
358.617	57304
358.702	57416
358.787	20366
358.871	9888
358.956	9431
359.040	2357
359.125	3341
359.209	6100
359.294	42984
359.378	72568
359.462	15881
359.547	5873
359.631	2847
359.716	1724
359.800	3036
359.885	4062
359.969	3533
360.053	2892
360.138	3338
360.222	5168
360.306	11496
360.391	10323
360.475	40888
360.559	80379
360.644	35679
360.728	21264
360.812	43318
360.896	114509
360.981	38242
361.065	16323
361.149	6306
361.233	5157
361.318	4132
361.402	4305
361.486	4908
361.570	3395
361.654	5504
361.739	14987
361.823	75176
361.907	114264
361.991	20197
362.075	10409
362.159	20299
362.243	13357
362.327	12817
362.411	20863
362.495	9489
362.580	3358
362.664	3036
362.748	2170
362.832	4517
362.916	6437
363.000	30404
363.084	102821
363.168	133890
363.252	27087
363.336	9358
363.420	10047
363.503	18890
363.587	18669
363.671	7524
363.755	4958
363.839	9819
363.923	4393
364.007	11246
364.091	9554
364.175	7875
364.258	31130
364.342	34247
364.426	71969
364.510	38218
364.594	13527
364.677	19070
364.761	100115
364.845	66951
364.929	19102
365.013	14282
365.096	11591
365.180	14158
365.264	8225
365.347	27586
365.431	11617
365.515	4204
365.598	2832
365.682	3803
365.766	1601
365.849	2687
365.933	2673
366.017	4219
366.100	1160
366.184	1028
366.267	2432
366.351	2449
366.435	1894
366.518	1394
366.602	1665
366.685	2585
366.769	2972
366.852	4184
366.936	8912
367.019	6767
367.103	785
367.186	4024
367.270	1305
367.353	1238
367.436	3272
367.520	3157
367.603	4235
367.687	6806
367.770	12268
367.853	8583
367.937	29673
368.020	47876
368.104	9143
368.187	9452
368.270	12098
368.353	9917
368.437	9106
368.520	12964
368.603	13046
368.687	31338
368.770	60197
368.853	13130
368.936	9521
369.020	7579
369.103	3440
369.186	1794
369.269	2096
369.352	8337
369.436	9675
369.519	6837
369.602	941
369.685	5247
369.768	3237
369.851	3395
369.934	1792
370.018	3106
370.101	9924
370.184	9177
370.267	4774
370.350	7803
370.433	13407
370.516	51641
370.599	66065
370.682	18395
370.765	29365
370.848	39947
370.931	75560
371.014	23602
371.097	4655
371.180	4602
371.263	2971
371.346	1154
371.429	3094
371.511	3847
371.594	6354
371.677	9385
371.760	7627
371.843	10776
371.926	54529
372.009	124242
372.091	37954
372.174	29070
372.257	73664
372.340	27870
372.423	13174
372.505	11737
372.588	6776
372.671	24053
372.754	77155
372.836	35834
372.919	10910
373.002	15949
373.085	8465
373.167	12650
373.250	30894
373.332	72827
373.415	90674
373.498	180892
373.580	61294
373.663	92579
373.746	115086
373.828	22816
373.911	8840
373.993	7710
374.076	15092
374.159	12755
374.241	17212
374.324	62230
374.406	39890
374.489	54150
374.571	155000
374.654	59517
374.736	29065
374.819	96523
374.901	135939
374.983	135345
375.066	20711
375.148	6843
375.231	11976
375.313	23193
375.395	10973
375.478	5464
375.560	4344
375.643	7149
375.725	27365
375.807	125147
375.890	73738
375.972	15438
376.054	10648
376.136	10639
376.219	7077
376.301	35863
376.383	108870
376.465	37862
376.548	21569
376.630	28864
376.712	93980
376.794	38941
376.877	5240
376.959	2461
377.041	2993
377.123	3249
377.205	3744
377.287	2083
377.369	2005
377.452	3053
377.534	2479
377.616	3406
377.698	1687
377.780	1744
377.862	3275
377.944	3972
378.026	545
378.108	3234
378.190	2171
378.272	2974
378.354	1196
378.436	2121
378.518	2890
378.600	10067
378.682	13584
378.764	42992
378.846	31442
378.928	7360
379.010	10199
379.091	5903
379.173	3508
379.255	2726
379.337	5412
379.419	21102
379.501	60832
379.583	22106
379.664	4985
379.746	14852
379.828	41405
379.910	56706
379.991	49677
380.073	8252
380.155	4840
380.237	3415
380.318	1830
380.400	3428
380.482	9139
380.564	13167
380.645	13307
380.727	13291
380.809	6967
380.890	5840
380.972	3288
381.053	4322
381.135	4467
381.217	15509
381.298	43176
381.380	19569
381.461	17579
381.543	92067
381.624	107311
381.706	19802
381.787	8421
381.869	11060
381.951	38494
382.032	146717
382.113	85680
382.195	16961
382.276	13930
382.358	31394
382.439	83671
382.521	94503
382.602	144394
382.684	65972
382.765	123079
382.846	176444
382.928	351465
383.009	180258
383.090	111266
383.172	432571
383.253	631486
383.334	191350
383.416	145906
383.497	75500
383.578	44670
383.659	89238
383.741	346710
383.822	851659
383.903	415864
383.984	123654
384.066	163495
384.147	94487
384.228	22768
384.309	18492
384.390	12676
384.471	9718
384.553	9182
384.634	13285
384.715	12613
384.796	7882
384.877	10740
384.958	43003
385.039	47570
385.120	17093
385.201	8267
385.282	8705
385.363	7824
385.444	9115
385.525	16918
385.606	62572
385.687	52572
385.768	11239
385.849	12794
385.930	63268
386.011	103808
386.092	25740
386.173	5189
386.254	4411
386.335	4848
386.416	6116
386.496	23513
386.577	39049
386.658	9821
386.739	5179
386.820	4370
386.901	2972
386.981	4446
387.062	4716
387.143	9507
387.224	42713
387.304	36263
387.385	11465
387.466	3965
387.547	6872
387.627	5750
387.708	16405
387.789	76103
387.869	93009
387.950	22365
388.031	3488
388.111	558
388.192	4260
388.273	6110
388.353	5254
388.434	5139
388.514	14925
388.595	73219
388.676	90312
388.756	39469
388.837	36621
388.917	20255
388.998	3150
389.078	4247
389.159	4571
389.239	3042
389.320	7862
389.400	4551
389.480	14885
389.561	43325
389.641	21178
389.722	6476
389.802	10438
389.883	17665
389.963	54234
390.043	27734
390.124	5561
390.204	12439
390.284	45138
390.365	25129
390.445	19380
390.525	69412
390.605	66961
390.686	20419
390.766	8878
390.846	5808
390.927	3415
391.007	2340
391.087	3970
391.167	4042
391.247	2328
391.328	3787
391.408	4254
391.488	3087
391.568	1926
391.648	5019
391.728	8305
391.808	7998
391.888	9505
391.969	24895
392.049	40165
392.129	13312
392.209	18498
392.289	52238
392.369	23787
392.449	7647
392.529	8301
392.609	11385
392.689	15887
392.769	52782
392.849	43367
392.929	25661
393.009	65815
393.089	55695
393.169	52307
393.248	176153
393.328	654166
393.408	665339
393.488	175085
393.568	47930
393.648	24135
393.728	14576
393.807	10448
393.887	9629
393.967	8714
394.047	8567
394.127	10024
394.206	14001
394.286	50350
394.366	251444
394.446	251793
394.525	44087
394.605	11193
394.685	7522
394.764	11488
394.844	16672
394.924	14647
395.003	7128
395.083	6100
395.163	4356
395.242	5651
395.322	5518
395.402	2859
395.481	5851
395.561	8247
395.640	25102
395.720	27413
395.799	20401
395.879	16766
395.958	15387
396.038	68742
396.117	324532
396.197	328305
396.276	68905
396.356	21080
396.435	14431
396.515	14042
396.594	21169
396.673	45548
396.753	188582
396.832	590501
396.912	414329
396.991	93398
397.070	25756
397.150	13160
397.229	9088
397.308	15228
397.388	22427
397.467	10729
397.546	4598
397.625	3927
397.705	7542
397.784	6784
397.863	3438
397.942	2833
398.022	2187
398.101	4647
398.180	12904
398.259	6646
398.338	5085
398.417	4610
398.497	2054
398.576	2681
398.655	877
398.734	1983
398.813	1535
398.892	4640
398.971	14674
399.050	7673
399.129	1545
399.208	1746
399.287	1598
399.366	949
399.445	921
399.524	1605
399.603	335
399.682	4102
399.761	9527
399.840	18590
399.919	13079
399.998	2122
400.077	356
400.156	1059
400.235	3432
400.313	317
400.392	2023
400.471	20886
400.550	32610
400.629	7504
400.708	2483
400.786	1019
400.865	1853
400.944	2791
401.023	3691
401.102	249
401.180	707
401.259	658
401.338	396
401.416	2834
401.495	766
401.574	1414
401.652	573
401.731	2206
401.810	1210
401.888	1315
401.967	-376
402.046	1952
402.124	2326
402.203	2549
402.281	2109
402.360	2450
402.438	3159
402.517	1660
402.596	787
402.674	739
402.753	-26
402.831	1663
402.910	2376
402.988	14850
403.066	57395
403.145	31538
403.223	16230
403.302	46431
403.380	31963
403.459	32555
403.537	10028
403.615	3685
403.694	-782
403.772	1709
403.850	711
403.929	762
404.007	893
404.085	5515
404.164	4980
404.242	1226
404.320	3077
404.398	6485
404.477	20630
404.555	114839
404.633	91905
404.711	12581
404.789	2632
404.868	2205
404.946	1148
405.024	1501
405.102	197
405.180	-160
405.258	375
405.336	1311
405.415	597
405.493	3870
405.571	3900
405.649	901
405.727	-1080
405.805	3251
405.883	2452
405.961	2908
406.039	1092
406.117	458
406.195	3246
406.273	23883
406.351	96838
406.429	49532
406.507	4249
406.585	1043
406.663	1575
406.740	3390
406.818	2358
406.896	471
406.974	2372
407.052	6257
407.130	54115
407.208	75426
407.285	12411
407.363	1819
407.441	998
407.519	1204
407.596	1695
407.674	4525
407.752	9677
407.830	8437
407.907	4100
407.985	1208
408.063	814
408.141	883
408.218	1722
408.296	1084
408.373	1429
408.451	3332
408.529	1771
408.606	1223
408.684	-326
408.762	840
408.839	-994
408.917	-405
408.994	98
409.072	475
409.149	590
409.227	2856
409.304	3224
409.382	2848
409.459	2777
409.537	5785
409.614	3407
409.692	2590
409.769	2665
409.846	6390
409.924	6948
410.001	2567
410.079	1346
410.156	2119
410.233	211
410.311	1307
410.388	74
410.465	1458
410.543	-71
410.620	1290
410.697	1574
410.775	2630
410.852	-511
410.929	2277
411.006	2623
411.083	1137
411.161	885
411.238	2538
411.315	741
411.392	352
411.469	1554
411.547	1894
411.624	-314
411.701	-125
411.778	1118
411.855	5374
411.932	1798
412.009	822
412.086	565
412.163	1104
412.240	760
412.317	799
412.394	216
412.471	506
412.548	363
412.625	938
412.702	1533
412.779	2541
412.856	1328
412.933	-122
413.010	-420
413.087	2426
413.164	17346
413.241	25352
413.318	4842
413.395	2492
413.471	3258
413.548	1945
413.625	559
413.702	1173
413.779	269
413.855	-437
413.932	-1670
414.009	-257
414.086	-68
414.162	93
414.239	2332
414.316	17083
414.393	42015
414.469	11855
414.546	390
414.623	506
414.699	115
414.776	1409
414.853	-150
414.929	797
415.006	338
415.082	-35
415.159	-960
415.236	140
415.312	263
415.389	4004
415.465	4172
415.542	1633
415.618	409
415.695	3477
415.771	1043
415.848	1368
415.924	117
416.000	710
416.077	246
416.153	-572
416.230	-1799
416.306	12
416.383	-980
416.459	404
416.535	-568
416.612	233
416.688	233
416.764	1878
416.841	649
416.917	769
416.993	822
417.069	1069
417.146	-62
417.222	1865
417.298	179
417.374	436
417.451	-50
417.527	1968
417.603	1170
417.679	1428
417.755	822
417.831	-664
417.908	-461
417.984	-273
418.060	-1272
418.136	4268
418.212	5304
418.288	996
418.364	475
418.440	109
418.516	784
418.592	1775
418.668	5006
418.744	10397
418.820	6437
418.896	1864
418.972	-760
419.048	425
419.124	4385
419.200	2574
419.276	-20
419.352	-279
419.428	-406
419.504	375
419.579	957
419.655	986
419.731	1080
419.807	7872
419.883	13329
419.959	9097
420.034	1535
420.110	5334
420.186	25356
420.262	19779
420.337	1663
420.413	2458
420.489	-136
420.565	1259
420.640	-123
420.716	1269
420.792	-917
420.867	2193
420.943	-121
421.019	2933
421.094	1232
421.170	534
421.245	-724
421.321	1091
421.397	77
421.472	2162
421.548	5069
421.623	5626
421.699	1751
421.774	2582
421.850	2043
421.925	4785
422.001	3605
422.076	3039
422.152	3539
422.227	6837
422.302	8767
422.378	12748
422.453	25206
422.529	68107
422.604	211146
422.679	332391
422.755	212663
422.830	70778
422.905	25853
422.981	14562
423.056	8195
423.131	7021
423.207	4278
423.282	5264
423.357	8383
423.432	5220
423.508	5459
423.583	13181
423.658	8875
423.733	3227
423.808	2454
423.883	4347
423.959	2986
424.034	2142
424.109	1895
424.184	633
424.259	-154
424.334	302
424.409	-292
424.484	311
424.559	1322
424.634	1058
424.709	2027
424.784	3275
424.859	716
424.934	3644
425.009	17394
425.084	31417
425.159	9313
425.234	1689
425.309	2511
425.384	30271
425.459	51397
425.534	10909
425.609	83
425.683	-591
425.758	-870
425.833	288
425.908	1604
425.983	9960
426.058	30559
426.132	11596
426.207	652
426.282	2193
426.357	-940
426.431	740
426.506	154
426.581	70
426.655	365
426.730	862
426.805	-375
426.879	534
426.954	-36
427.029	4213
427.103	31434
427.178	83017
427.253	32024
427.327	3565
427.402	10653
427.476	45166
427.551	21197
427.625	1649
427.700	-263
427.774	-323
427.849	4
427.923	-1541
427.998	-968
428.072	57
428.147	2757
428.221	22877
428.296	72659
428.370	35677
428.444	2155
428.519	1064
428.593	942
428.667	1639
428.742	2696
428.816	6812
428.890	43701
428.965	93422
429.039	30950
429.113	4055
429.188	354
429.262	141
429.336	3219
429.410	12957
429.485	6037
429.559	2303
429.633	711
429.707	886
429.781	4482
429.855	36464
429.930	59996
430.004	17345
430.078	11718
430.152	22636
430.226	91841
430.300	91807
430.374	12260
430.448	2725
430.522	3654
430.596	12019
430.670	15198
430.744	86235
430.818	123502
430.892	23238
430.966	2286
431.040	1356
431.114	-1356
431.188	-65
431.262	-370
431.336	250
431.410	1155
431.484	4394
431.557	3870
431.631	800
431.705	734
431.779	13129
431.853	62644
431.927	41056
432.000	3090
432.074	1025
432.148	-581
432.222	-146
432.295	-171
432.369	-420
432.443	1627
432.516	30447
432.590	82799
432.664	27535
432.737	1966
432.811	-556
432.885	-1042
432.958	-147
433.032	-1546
433.106	-673
433.179	-1344
433.253	-450
433.326	-1518
433.400	-270
433.473	-1262
433.547	-1135
433.620	-785
433.694	1918
433.767	1853
433.841	-387
433.914	202
433.988	1110
434.061	-1449
434.134	-683
434.208	-2123
434.281	-757
434.355	-1145
434.428	1472
434.501	1423
434.575	-252
434.648	-1038
434.721	-1354
434.795	-1703
434.868	-401
434.941	-1283
435.014	-233
435.088	598
435.161	5578
435.234	6925
435.307	5269
435.381	1916
435.454	1259
435.527	3000
435.600	2672
435.673	1014
435.746	-444
435.819	-165
435.892	269
435.966	-40
436.039	-454
436.112	-634
436.185	-848
436.258	-1212
436.331	-1154
436.404	-917
436.477	-982
436.550	-1127
436.623	-173
436.696	-337
436.769	120
436.842	-1242
436.915	-714
436.987	-460
437.060	-571
437.133	-447
437.206	-1541
437.279	-703
437.352	-443
437.425	-1487
437.498	-244
437.570	1720
437.643	1694
437.716	-889
437.789	-735
437.861	-110
437.934	2609
438.007	-397
438.080	-55
438.152	-21
438.225	4487
438.298	44409
438.370	125880
438.443	46865
438.516	6246
438.588	280
438.661	-474
438.734	-733
438.806	-416
438.879	-634
438.951	475
439.024	50
439.096	-54
439.169	-985
439.241	-790
439.314	-1515
439.386	-960
439.459	-696
439.531	391
439.604	-1078
439.676	32
439.749	-1452
439.821	-967
439.893	-1392
439.966	234
440.038	-690
440.110	-52
440.183	-1450
440.255	-848
440.327	1155
440.400	14343
440.472	73500
440.544	49711
440.617	4684
440.689	1803
440.761	1410
440.833	2705
440.905	817
440.978	-888
441.050	-1642
441.122	-371
441.194	-1538
441.266	-841
441.338	-637
441.411	2264
441.483	20652
441.555	32787
441.627	5531
441.699	233
441.771	-486
441.843	-901
441.915	-1405
441.987	-1086
442.059	-932
442.131	-455
442.203	-301
442.275	1858
442.347	1481
442.419	3842
442.491	26124
442.563	71513
442.635	27233
442.706	7257
442.778	4772
442.850	1444
442.922	-606
442.994	-485
443.066	931
443.137	1433
443.209	-405
443.281	1988
443.353	6533
443.425	32623
443.496	137246
443.568	131645
443.640	44833
443.711	7021
443.783	1283
443.855	335
443.926	-772
443.998	370
444.070	-224
444.141	-245
444.213	1519
444.285	3582
444.356	1397
444.428	520
444.499	-579
444.571	-860
444.642	-1189
444.714	160
444.785	1916
444.857	1298
444.928	1004
445.000	611
445.071	338
445.143	2857
445.214	2238
445.285	4550
445.357	14478
445.428	81893
445.500	208263
445.571	123178
445.642	61703
445.714	17466
445.785	6225
445.856	3385
445.928	4004
445.999	2790
446.070	-91
446.141	2774
446.213	2101
446.284	838
446.355	-378
446.426	-446
446.497	-700
446.569	-510
446.640	1266
446.711	3402
446.782	-171
446.853	225
446.924	821
446.995	550
447.066	-337
447.138	79
447.209	-1164
447.280	-1352
447.351	-2085
447.422	-811
447.493	-1354
447.564	734
447.635	2550
447.706	1255
447.777	-1395
447.847	-1144
447.918	-1930
447.989	-412
448.060	-418
448.131	1285
448.202	1492
448.273	2317
448.344	-485
448.414	-642
448.485	-797
448.556	-304
448.627	-1510
448.698	217
448.768	-1256
448.839	-1030
448.910	-1164
448.981	638
449.051	-648
449.122	-1100
449.193	-1079
449.263	-776
449.334	-1433
449.405	99
449.475	3029
449.546	2464
449.616	-180
449.687	590
449.758	-430
449.828	-1156
449.899	-1244
449.969	-1161
450.040	-1088
450.110	-346
450.181	-586
450.251	-963
450.322	-1414
450.392	-871
450.463	-1513
450.533	-1653
450.604	-1584
450.674	-1531
450.744	-1019
450.815	-265
450.885	-1371
450.955	-699
451.026	-1827
451.096	-1100
451.166	-1159
451.237	444
451.307	-28
451.377	-817
451.447	-1616
451.518	-1216
451.588	-1838
451.658	-841
451.728	-1179
451.799	570
451.869	1102
451.939	-662
452.009	-1448
452.079	-1124
452.149	-413
452.219	-697
452.289	788
452.360	932
452.430	-864
452.500	73
452.570	858
452.640	2698
452.710	7118
452.780	8008
452.850	7772
452.920	11479
452.990	2486
453.060	65
453.129	585
453.199	1548
453.269	2047
453.339	5302
453.409	8601
453.479	8932
453.549	11974
453.619	13083
453.688	3147
453.758	330
453.828	-1502
453.898	-638
453.968	-1225
454.037	-400
454.087	-353
454.107	-345
454.168	-1096
454.177	-1222
454.247	-1494
454.249	-1459
454.316	-1032
454.330	-1037
454.386	-1115
454.411	-587
454.456	184
454.492	514
454.525	781
454.574	986
454.595	1066
454.655	219
454.665	76
454.734	97
454.736	121
454.804	21
454.817	426
454.873	1943
454.898	1900
454.943	1660
454.979	1192
455.013	780
455.060	-261
455.082	-704
455.141	-97
455.152	30
455.221	1206
455.222	1277
455.291	4852
455.303	5548
455.360	7196
455.384	11158
455.430	16044
455.465	12493
455.499	9694
455.546	4666
455.569	2447
455.627	2174
455.638	2112
455.707	-314
455.708	-299
455.777	-512
455.789	-440
455.846	-69
455.869	-178
455.916	-499
455.950	-80
455.985	331
456.031	282
456.054	221
456.112	-460
456.124	-593
456.193	-530
456.193	-545
456.262	425
456.274	350
456.332	-94
456.355	2
456.401	-38
456.436	-207
456.470	-373
456.516	-353
456.540	-343
456.597	-178
456.609	-148
456.678	15
456.678	4
456.747	-559
456.759	-549
456.817	-507
456.840	-559
456.886	-744
456.920	-500
456.955	-72
457.001	0
457.024	-115
457.082	1116
457.093	1376
457.162	925
457.163	945
457.232	1056
457.243	953
457.301	526
457.324	276
457.370	-3
457.405	-8
457.439	-19
457.485	709
457.508	1009
457.566	455
457.577	415
457.646	1808
457.647	1826
457.715	3843
457.727	4381
457.784	8383
457.808	11269
457.853	14326
457.889	16454
457.922	15721
457.969	9906
457.991	10499
458.050	14736
458.060	15354
458.129	25897
458.130	26221
458.198	24317
458.211	21459
458.267	10647
458.292	6855
458.336	4436
458.372	4167
458.405	6334
458.453	10582
458.474	13994
458.533	26516
458.543	27406
458.611	42657
458.614	42854
458.680	23123
458.694	17408
458.749	8015
458.775	5540
458.818	2578
458.855	1742
458.887	1557
458.936	1594
458.955	1426
459.016	901
459.024	988
459.093	2499
459.097	2565
459.162	2587
459.177	2529
459.230	2827
459.257	3289
459.299	2962
459.338	2290
459.368	2221
459.418	2260
459.437	2164
459.499	1298
459.505	1209
459.574	2404
459.579	2304
459.643	1073
459.659	1160
459.711	1631
459.740	1530
459.780	1408
459.820	1772
459.849	1870
459.900	1927
459.917	2115
459.981	3234
459.986	3283
460.054	3260
460.061	3384
460.123	3752
460.141	3423
460.191	3835
460.222	4557
460.260	5191
460.302	5983
460.328	5086
460.382	3057
460.397	3070
460.462	1746
460.465	1704
460.534	3004
460.543	3040
460.602	6210
460.623	7769
460.671	12243
460.703	15768
460.739	14394
460.783	11573
460.808	9756
460.864	2940
460.876	2367
460.944	2126
460.945	2134
461.013	2571
461.024	2734
461.081	3221
461.104	3527
461.150	3396
461.184	3215
461.218	3280
461.264	2655
461.286	2474
461.345	3251
461.355	3239
461.423	2528
461.425	2498
461.491	2334
461.505	2446
461.559	3540
461.585	4143
461.628	5340
461.665	6260
461.696	6097
461.745	6248
461.764	5827
461.825	3405
461.832	3458
461.901	3826
461.905	3887
461.969	2934
461.985	2745
462.037	2932
462.065	2846
462.105	2310
462.145	2156
462.173	3187
462.225	4422
462.241	4355
462.305	5302
462.310	5266
462.378	3630
462.385	3457
462.446	3607
462.465	3654
462.514	4168
462.545	4859
462.582	4907
462.625	4506
462.650	3743
462.705	2076
462.718	2112
462.785	2216
462.786	2222
462.854	2718
462.865	2776
462.922	3135
462.945	3433
462.990	3408
463.025	2943
463.058	2860
463.104	3201
463.126	3126
463.184	2543
463.194	2601
463.262	3125
463.264	3143
463.330	2950
463.344	2978
463.398	3546
463.424	3419
463.466	2618
463.504	2672
463.533	3145
463.583	2918
463.601	2984
463.663	3856
463.669	3993
463.737	5555
463.743	5700
463.805	5779
463.823	5721
463.873	6122
463.903	6502
463.940	6811
463.982	6959
464.008	6091
464.062	4060
464.076	3920
464.142	3159
464.144	3164
464.211	3552
464.221	3579
464.279	3653
464.301	3620
464.347	4099
464.381	4571
464.414	5014
464.461	5731
464.482	6849
464.540	9478
464.550	10029
464.617	14516
464.620	14642
464.685	9737
464.699	8504
464.753	7926
464.779	7759
464.820	7424
464.859	6977
464.888	6347
464.938	5274
464.956	5735
465.018	7526
465.023	7602
465.091	8247
465.098	8328
465.158	10202
465.177	10767
465.226	9484
465.257	8576
465.293	7988
465.336	7085
465.361	7802
465.416	9660
465.428	9675
465.495	9717
465.496	9722
465.563	7835
465.575	7468
465.631	8397
465.654	8923
465.698	7126
465.734	5384
465.765	5129
465.813	4881
465.833	4780
465.893	4270
465.900	4280
465.968	4513
465.972	4510
466.035	4669
466.052	4734
466.102	4763
466.131	4688
466.170	4753
466.210	4869
466.237	5185
466.290	5804
466.304	5720
466.369	5206
466.372	5252
466.439	6343
466.449	6477
466.506	6815
466.528	6928
466.573	8478
466.607	9607
466.641	12045
466.687	15450
466.708	16795
466.766	20435
466.775	19444
466.842	11663
466.845	11272
466.909	8937
466.925	8353
466.977	7005
467.004	6327
467.044	6649
467.083	6892
467.111	7746
467.163	9355
467.178	9663
467.242	10824
467.245	10829
467.312	10445
467.321	10372
467.379	8902
467.400	8338
467.446	8258
467.480	8170
467.559	7883
467.638	6952
467.717	8034
467.796	10672
467.875	14074
467.955	9502
468.034	9741
468.113	13421
468.192	17470
468.271	9481
468.350	9724
468.429	12255
468.508	14343
468.588	9790
468.667	7841
468.746	8087
468.825	7405
468.904	7428
468.983	7556
469.062	10166
469.141	11762
469.220	6502
469.299	6384
469.378	8032
469.456	10007
469.535	9412
469.614	8761
469.693	8703
469.772	10960
469.851	12136
469.930	12773
470.009	13173
470.088	16306
470.166	28950
470.245	61625
470.324	80933
470.403	38975
470.482	19361
470.560	14188
470.639	12864
470.718	16274
470.797	11880
470.875	10981
470.954	12039
471.033	11459
471.111	7079
471.190	7014
471.269	5983
471.347	6720
471.426	6587
471.505	7971
471.583	8386
471.662	8041
471.740	7944
471.819	8529
471.898	7274
471.976	6913
472.055	6540
472.133	8178
472.212	8455
472.290	7174
472.369	5468
472.447	6774
472.526	6325
472.604	7642
472.683	10056
472.761	10668
472.839	8235
472.918	8070
472.996	7083
473.075	8604
473.153	7236
473.231	6419
473.310	7633
473.388	8715
473.466	7520
473.545	10284
473.623	17228
473.701	17454
473.780	7524
473.858	7037
473.936	8607
474.014	7341
474.093	7589
474.171	8616
474.249	8490
474.327	7655
474.405	6229
474.484	7548
474.562	7334
474.640	6909
474.718	6650
474.796	6100
474.874	6057
474.952	5759
475.030	5112
475.108	6264
475.187	7638
475.265	10266
475.343	20158
475.421	23363
475.499	8165
475.577	8746
475.655	9170
475.733	9522
475.811	10967
475.889	10486
475.966	8682
476.044	6915
476.122	13872
476.200	21443
476.278	13826
476.356	5827
476.434	7201
476.512	12105
476.590	18459
476.667	14878
476.745	6365
476.823	6938
476.901	5032
476.979	5883
477.056	5841
477.134	6690
477.212	5860
477.290	7165
477.367	4148
477.445	5208
477.523	4478
477.601	5117
477.678	5325
477.756	5541
477.834	4847
477.911	5770
477.989	5862
478.066	6350
478.144	6027
478.222	12878
478.299	26651
478.377	22932
478.454	5417
478.532	5494
478.609	5875
478.687	7001
478.764	4818
478.842	7829
478.919	10522
478.997	7875
479.074	3853
479.152	4345
479.229	6090
479.307	5272
479.384	4210
479.461	3654
479.539	3595
479.616	4424
479.694	4316
479.771	5116
479.848	4878
479.926	4325
480.003	7106
480.080	5474
480.157	4590
480.235	5602
480.312	4930
480.389	4877
480.467	4957
480.544	6219
480.621	4804
480.698	5126
480.775	5575
480.853	5446
480.930	4534
481.007	6502
481.084	5428
481.161	4573
481.238	5000
481.315	4163
481.392	4311
481.470	4338
481.547	4185
481.624	3736
481.701	4293
481.778	3837
481.855	4774
481.932	5881
482.009	7933
482.086	6306
482.163	6820
482.240	16596
482.317	36676
482.393	24312
482.470	5691
482.547	5279
482.624	5089
482.701	5758
482.778	4321
482.855	4730
482.932	5553
483.009	5202
483.085	5949
483.162	6611
483.239	6631
483.316	4622
483.393	5780
483.469	5355
483.546	4525
483.623	5797
483.699	4491
483.776	5145
483.853	5814
483.930	6928
484.006	9877
484.083	15909
484.160	15300
484.236	24354
484.313	19292
484.389	14144
484.466	13163
484.543	11880
484.619	12924
484.696	16518
484.772	13700
484.849	13341
484.925	11874
485.002	11736
485.078	12448
485.155	11937
485.231	10508
485.308	10510
485.384	10221
485.461	12407
485.537	16332
485.614	18126
485.690	11995
485.766	12032
485.843	14043
485.919	28028
485.995	29822
486.072	11983
486.148	10176
486.224	10509
486.301	9765
486.377	12386
486.453	10939
486.530	11842
486.606	15471
486.682	16985
486.758	15768
486.835	17942
486.911	17171
486.987	26087
487.063	56415
487.139	92764
487.215	54751
487.292	19564
487.368	13573
487.444	15223
487.520	18214
487.596	20354
487.672	33697
487.748	109537
487.824	161855
487.900	44650
487.976	16607
488.052	13609
488.128	15477
488.204	12954
488.280	11028
488.356	11589
488.432	15847
488.508	22240
488.584	15937
488.660	15830
488.736	14506
488.812	15390
488.888	22383
488.964	32496
489.039	89188
489.115	145117
489.191	76569
489.267	13146
489.343	10497
489.418	9386
489.494	8928
489.570	8182
489.646	10013
489.722	9117
489.797	8478
489.873	11210
489.949	15110
490.024	14875
490.100	7926
490.176	9477
490.251	16301
490.327	25980
490.403	10163
490.478	8366
490.554	7712
490.629	7717
490.705	7975
490.781	9777
490.856	8670
490.932	11473
491.007	13401
491.083	10704
491.158	8285
491.234	8856
491.309	12302
491.385	11414
491.460	7977
491.536	10010
491.611	10772
491.686	13906
491.762	22383
491.837	57732
491.913	92131
491.988	132491
492.063	179423
492.139	28612
492.214	13999
492.289	10999
492.365	9622
492.440	10926
492.515	8826
492.590	8645
492.666	7745
492.741	10059
492.816	9917
492.891	7880
492.967	8329
493.042	8182
493.117	7426
493.192	9759
493.267	16889
493.342	51594
493.418	70196
493.493	14247
493.568	7408
493.643	8411
493.718	8634
493.793	14404
493.868	23465
493.943	15299
494.018	9359
494.093	6756
494.168	7324
494.243	7248
494.318	6666
494.393	7130
494.468	6197
494.543	7980
494.618	10565
494.693	8006
494.768	6343
494.842	6891
494.917	7412
494.992	8443
495.067	6288
495.142	6795
495.217	9153
495.292	9540
495.366	11350
495.441	15173
495.516	20391
495.591	29510
495.665	126444
495.740	327006
495.815	116246
495.890	14166
495.964	6991
496.039	9299
496.114	7930
496.188	8579
496.263	8446
496.338	6888
496.412	7540
496.487	10107
496.561	14673
496.636	14879
496.710	7964
496.785	9414
496.860	9085
496.934	7923
497.009	9592
497.083	8129
497.158	6586
497.232	8981
497.307	11414
497.381	9630
497.455	8651
497.530	9105
497.604	7648
497.679	8484
497.753	10489
497.827	14087
497.902	12656
497.976	14211
498.050	24212
498.125	87524
498.199	98914
498.273	36668
498.348	28978
498.422	21236
498.496	21549
498.570	21420
498.645	8931
498.719	7001
498.793	9102
498.867	13296
498.941	14116
499.016	32097
499.090	87983
499.164	35826
499.238	7973
499.312	9440
499.386	14331
499.460	10388
499.534	9515
499.609	12295
499.683	10188
499.757	8975
499.831	14340
499.905	52779
499.979	51499
500.053	12355
500.127	21448
500.201	26045
500.275	12294
500.349	9471
500.422	11711
500.496	22362
500.570	55478
500.644	59068
500.718	63356
500.792	18233
500.866	7069
500.940	6546
501.013	7054
501.087	8606
501.161	20226
501.235	20465
501.309	17755
501.382	42101
501.456	46616
501.530	16272
501.603	13729
501.677	8896
501.751	5810
501.825	10647
501.898	8772
501.972	16590
502.046	11861
502.119	6177
502.193	14614
502.266	20852
502.340	10809
502.413	8586
502.487	16196
502.561	9963
502.634	7158
502.708	10146
502.781	8639
502.855	6398
502.928	3102
503.002	3802
503.075	3608
503.149	4790
503.222	3707
503.295	3451
503.369	4943
503.442	5219
503.516	12987
503.589	29787
503.662	19605
503.736	7886
503.809	16767
503.882	14820
503.956	22653
504.029	30297
504.102	62207
504.175	89669
504.249	24095
504.322	9397
504.395	7265
504.468	5957
504.542	3435
504.615	3684
504.688	4335
504.761	3507
504.834	8514
504.907	11840
504.980	23188
505.053	8513
505.127	10743
505.200	13913
505.273	4653
505.346	4064
505.419	2495
505.492	4706
505.565	3288
505.638	3171
505.711	2548
505.784	2109
505.857	2765
505.930	3511
506.003	2087
506.076	5019
506.149	3129
506.221	2162
506.294	4995
506.367	7367
506.440	26637
506.513	19710
506.586	6442
506.659	5054
506.731	5366
506.804	7500
506.877	13101
506.950	5102
507.022	4047
507.095	3454
507.168	6979
507.241	7673
507.313	4859
507.386	6488
507.459	14877
507.531	6954
507.604	3797
507.677	4805
507.749	2167
507.822	8910
507.894	16691
507.967	16801
508.040	7058
508.112	7014
508.185	6598
508.257	6002
508.330	13641
508.402	5545
508.475	4894
508.547	5213
508.620	3848
508.692	5838
508.765	5578
508.837	4397
508.909	5202
508.982	4684
509.054	8279
509.127	5662
509.199	2486
509.271	3749
509.344	3444
509.416	4340
509.488	4007
509.560	5697
509.633	6197
509.705	10080
509.777	7626
509.849	13465
509.922	7020
509.994	3658
510.066	4591
510.138	4139
510.210	10136
510.283	7959
510.355	7976
510.427	7810
510.499	6449
510.571	6017
510.643	5883
510.715	16019
510.787	12467
510.859	8295
510.931	8851
511.003	14537
511.076	13593
511.148	4780
511.219	4366
511.291	6242
511.363	7022
511.435	5495
511.507	4235
511.579	5603
511.651	5857
511.723	4148
511.795	4503
511.867	4977
511.939	5080
512.010	6523
512.082	6619
512.154	5354
512.226	6702
512.298	9515
512.369	15699
512.441	12861
512.513	15847
512.585	9733
512.656	9305
512.728	10522
512.800	7136
512.871	8136
512.943	7033
513.015	5920
513.086	7734
513.158	9910
513.230	9493
513.301	18540
513.373	24829
513.444	9225
513.516	7459
513.588	7761
513.659	10491
513.731	14841
513.802	10510
513.874	30115
513.945	60628
514.016	14848
514.088	7809
514.159	8587
514.231	14001
514.302	14828
514.374	9696
514.445	5812
514.516	10910
514.588	8127
514.659	7311
514.730	8868
514.802	13030
514.873	8735
514.944	9898
515.016	8355
515.087	11766
515.158	9519
515.229	10953
515.301	7389
515.372	8760
515.443	5959
515.514	6784
515.585	6463
515.656	8011
515.728	8628
515.799	8078
515.870	9818
515.941	10628
516.012	9842
516.083	14459
516.154	19498
516.225	32300
516.296	32059
516.367	32316
516.438	42837
516.509	56065
516.580	83886
516.651	289766
516.722	1147954
516.793	422609
516.864	76488
516.935	72624
517.006	89393
517.077	119906
517.148	261940
517.219	1242287
517.289	1885671
517.360	241900
517.431	56020
517.502	27755
517.573	25411
517.643	21654
517.714	24543
517.785	29009
517.856	34151
517.926	49509
517.997	66146
518.068	93851
518.138	130749
518.209	193366
518.280	734284
518.350	2708813
518.421	1008453
518.492	112937
518.562	46929
518.633	33763
518.703	26763
518.774	39799
518.845	96754
518.915	101919
518.986	31006
519.056	23479
519.127	44132
519.197	55027
519.268	56191
519.338	24895
519.408	13202
519.479	26261
519.549	19322
519.620	12555
519.690	8493
519.760	7705
519.831	9242
519.901	8864
519.971	8862
520.042	8318
520.112	9198
520.182	15827
520.253	20799
520.323	16597
520.393	45312
520.463	93291
520.534	54014
520.604	145168
520.674	41308
520.744	32248
520.814	153671
520.885	115566
520.955	15260
521.025	29119
521.095	14818
521.165	8308
521.235	5165
521.305	4620
521.375	6476
521.445	8594
521.515	13600
521.585	15403
521.655	12987
521.725	12020
521.795	9272
521.865	3048
521.935	7314
522.005	4739
522.075	4702
522.145	7407
522.215	5224
522.285	7297
522.355	9228
522.424	13741
522.494	14373
522.564	13867
522.634	37705
522.704	134259
522.774	44243
522.843	10101
522.913	8783
522.983	15034
523.053	9631
523.122	9772
523.192	16106
523.262	75739
523.331	67356
523.401	9956
523.471	6167
523.540	7774
523.610	4675
523.680	5016
523.749	4844
523.819	4748
523.888	3872
523.958	4148
524.027	4345
524.097	5206
524.166	3551
524.236	6563
524.305	7135
524.375	3551
524.444	2831
524.514	5784
524.583	3797
524.653	4104
524.722	7379
524.791	5317
524.861	5753
524.930	2963
524.999	5441
525.069	10179
525.138	4926
525.207	3754
525.277	5015
525.346	6134
525.415	5555
525.484	6039
525.554	5222
525.623	5907
525.692	6716
525.761	6941
525.830	9444
525.900	11503
525.969	17671
526.038	29374
526.107	57971
526.176	188528
526.245	157430
526.314	53003
526.383	100202
526.452	135719
526.522	222335
526.591	236727
526.660	82058
526.729	40218
526.797	41779
526.867	82547
526.935	388362
527.004	601305
527.073	316089
527.142	27897
527.211	12958
527.280	14000
527.349	13810
527.418	5716
527.487	8163
527.555	6343
527.624	5179
527.693	2986
527.762	5537
527.831	3521
527.899	4661
527.968	4700
528.037	3925
528.106	8500
528.174	18556
528.243	8732
528.312	15619
528.380	24990
528.449	5117
528.518	5227
528.586	1655
528.655	3740
528.723	3388
528.792	2814
528.861	3314
528.929	1805
528.998	3522
529.066	3298
529.135	4228
529.203	3266
529.272	2589
529.340	6125
529.409	5792
529.477	3910
529.545	4935
529.614	10032
529.682	10935
529.751	10976
529.819	19026
529.887	10053
529.956	5970
530.024	7281
530.092	5460
530.161	8096
530.229	16364
530.297	8042
530.365	7253
530.434	5814
530.502	5759
530.570	5567
530.638	3200
530.707	6013
530.775	7336
530.843	4320
530.911	4935
530.979	5062
531.047	4387
531.115	5773
531.183	4696
531.252	5574
531.320	5425
531.388	3793
531.456	5003
531.524	4308
531.592	6202
531.660	8131
531.728	6180
531.796	4299
531.864	5936
531.932	5843
532.000	6000
532.067	6383
532.135	9219
532.203	9869
532.271	9584
532.339	19657
532.407	61413
532.475	32853
532.542	16058
532.610	15733
532.678	22315
532.746	95106
532.814	250195
532.881	60328
532.949	13904
533.017	8282
533.084	6388
533.152	5881
533.220	7191
533.287	7156
533.355	6374
533.423	6762
533.490	4596
533.558	6180
533.625	5881
533.693	6116
533.761	7388
533.828	6969
533.896	6875
533.963	18364
534.031	20890
534.098	31665
534.166	12567
534.233	5809
534.300	7379
534.368	7830
534.435	6467
534.503	9234
534.570	19569
534.637	12920
534.705	10662
534.772	13611
534.840	23134
534.907	84424
534.974	113929
535.041	13613
535.109	7390
535.176	5125
535.243	6437
535.310	7151
535.378	6288
535.445	5875
535.512	5660
535.579	4913
535.646	4116
535.714	4740
535.781	7029
535.848	6168
535.915	6417
535.982	4952
536.049	5820
536.116	7888
536.183	6215
536.250	6527
536.317	6697
536.384	8827
536.451	16641
536.518	17914
536.585	8857
536.652	13723
536.719	23991
536.786	17636
536.853	12816
536.920	18465
536.987	34408
537.053	28416
537.120	116552
537.187	98273
537.254	10645
537.321	6787
537.388	8130
537.454	5274
537.521	4809
537.588	5224
537.654	7386
537.721	7314
537.788	8152
537.855	6547
537.921	6897
537.988	6998
538.055	7299
538.121	5915
538.188	8478
538.254	13632
538.321	37998
538.388	19651
538.454	7451
538.521	6453
538.587	5368
538.654	4900
538.720	5552
538.787	5488
538.853	6314
538.920	7164
538.986	7037
539.053	5707
539.119	7943
539.185	7294
539.252	9537
539.318	17820
539.385	11572
539.451	7651
539.517	9885
539.583	11649
539.650	27083
539.716	80230
539.782	21254
539.849	7614
539.915	7834
539.981	7722
540.047	12620
540.114	8756
540.180	10028
540.246	8379
540.312	13637
540.378	34819
540.444	34622
540.510	29974
540.576	96214
540.643	26292
540.709	7653
540.775	8146
540.841	7333
540.907	11313
540.973	31044
541.039	21172
541.105	19283
541.171	8820
541.237	7282
541.303	8824
541.369	11181
541.435	14663
541.500	32269
541.566	16647
541.632	6403
541.698	5300
541.764	6138
541.830	5266
541.896	4734
541.961	6794
542.027	6946
542.093	7201
542.159	8820
542.224	7305
542.290	13392
542.356	28497
542.421	36835
542.487	12014
542.553	7657
542.618	7287
542.684	7747
542.750	7598
542.815	10790
542.881	15554
542.947	78330
543.012	56671
543.078	7973
543.143	5956
543.209	8040
543.274	7622
543.340	9433
543.405	27019
543.471	46297
543.536	8976
543.602	7007
543.667	4204
543.732	6794
543.798	4070
543.863	5449
543.928	5147
543.994	4941
544.059	5333
544.124	5860
544.190	6546
544.255	6782
544.320	7586
544.386	7869
544.451	13706
544.516	17292
544.581	13579
544.646	45946
544.712	75522
544.777	11962
544.842	6966
544.907	6314
544.972	6162
545.037	6025
545.102	5952
545.168	6601
545.233	8416
545.298	9108
545.363	8940
545.428	12562
545.493	27339
545.558	65578
545.623	21820
545.688	7294
545.753	7213
545.818	6748
545.883	7415
545.947	6911
546.012	7519
546.077	7373
546.142	8575
546.207	8718
546.272	15215
546.337	15375
546.401	10707
546.466	9024
546.531	8163
546.596	10578
546.661	10784
546.725	11271
546.790	8698
546.855	10927
546.919	9762
546.984	12747
547.049	13871
547.113	15010
547.178	15824
547.243	19231
547.307	21564
547.372	25369
547.436	24916
547.501	24323
547.565	27459
547.630	31206
547.695	29411
547.759	24929
547.823	24636
547.888	23728
547.952	23273
548.017	25816
548.081	27079
548.146	28259
548.210	26973
548.274	28520
548.339	28006
548.403	26992
548.468	23307
548.532	23797
548.596	24092
548.660	24377
548.725	26809
548.789	30830
548.853	29260
548.917	27364
548.982	26139
549.046	23613
549.110	21257
549.174	21801
549.238	25623
549.303	27440
549.367	28955
549.431	26779
549.495	25108
549.559	25047
549.623	29068
549.687	34118
549.751	39970
549.815	38352
549.879	38948
549.943	35098
550.007	37681
550.071	38595
550.135	38471
550.199	33345
550.263	31098
550.327	30258
550.391	30714
550.455	32644
550.519	35858
550.582	39885
550.646	47897
550.710	49976
550.774	42769
550.838	42395
550.901	44111
550.965	47271
551.029	47620
551.093	51419
551.156	55554
551.220	66625
551.284	85073
551.347	61325
551.411	49486
551.475	48308
551.538	45116
551.602	41751
551.666	40064
551.729	35162
551.793	35380
551.856	35637
551.920	34373
551.983	33730
552.047	34102
552.110	34991
552.174	33475
552.237	36449
552.301	34318
552.364	33393
552.428	32098
552.491	34439
552.554	37040
552.618	37486
552.681	41397
552.745	47490
552.808	91780
552.871	127588
552.934	59608
552.998	39468
553.061	34079
553.124	32253
553.187	29902
553.251	32254
553.314	31122
553.377	31591
553.440	35216
553.503	45613
553.567	54262
553.630	35014
553.693	32546
553.756	31875
553.819	31164
553.882	29324
553.945	29172
554.008	29499
554.071	28727
554.134	30751
554.197	27685
554.260	27236
554.323	29781
554.386	29671
554.449	30226
554.512	30796
554.575	28059
554.638	28158
554.701	27504
554.764	26212
554.827	25585
554.889	24680
554.952	23574
555.015	22869
555.078	23150
555.141	24286
555.203	22943
555.266	23085
555.329	23644
555.391	21838
555.454	23886
555.517	23266
555.580	21193
555.642	20284
555.705	19887
555.768	19531
555.830	20053
555.893	18058
555.955	17643
556.018	18033
556.080	18417
556.143	19252
556.206	18308
556.268	18127
556.330	19195
556.393	18449
556.455	16879
556.518	17915
556.580	19725
556.643	16226
556.705	15889
556.767	14930
556.830	16300
556.892	17435
556.955	28070
557.017	19885
557.079	14908
557.142	15023
557.204	18014
557.266	35432
557.328	26947
557.391	12219
557.453	11734
557.515	12874
557.577	16624
557.639	17259
557.701	12556
557.764	12102
557.826	13367
557.888	14531
557.950	15817
558.012	17658
558.074	22483
558.136	50554
558.198	135827
558.260	48349
558.322	19281
558.384	21276
558.446	24404
558.508	30042
558.570	38372
558.632	60495
558.694	84467
558.756	84510
558.818	266485
558.880	707002
558.942	206284
559.003	146506
559.065	72623
559.127	29827
559.189	28861
559.251	32234
559.312	45214
559.374	112834
559.436	429261
559.498	209206
559.559	33578
559.621	28283
559.683	30972
559.744	50188
559.806	180598
559.868	291750
559.929	50539
559.991	27398
560.052	39896
560.114	127265
560.176	81295
560.237	69526
560.299	124329
560.360	24748
560.422	9400
560.483	8178
560.545	7476
560.606	5954
560.667	6840
560.729	6820
560.790	5366
560.852	6885
560.913	6135
560.974	5513
561.036	5899
561.097	6161
561.158	6516
561.220	6695
561.281	7768
561.342	7271
561.403	9173
561.465	13695
561.526	42406
561.587	53579
561.648	9995
561.709	6704
561.771	6361
561.832	5010
561.893	5479
561.954	5227
562.015	5365
562.076	5207
562.137	5373
562.198	4800
562.259	5658
562.320	5668
562.381	6277
562.442	13003
562.503	8758
562.564	4881
562.625	4472
562.686	4676
562.747	5707
562.808	4920
562.869	4974
562.930	5185
562.991	4295
563.051	5197
563.112	4293
563.173	4520
563.234	4020
563.294	4809
563.355	4924
563.416	5361
563.477	4669
563.537	4578
563.598	4706
563.659	5490
563.720	5230
563.780	5578
563.841	5767
563.901	5849
563.962	4078
564.023	4247
564.083	4609
564.144	4555
564.204	4111
564.265	4287
564.325	3864
564.386	5760
564.446	6039
564.507	4482
564.567	4146
564.628	3785
564.688	3725
564.749	3786
564.809	3753
564.869	4801
564.930	4770
564.990	5382
565.050	4085
565.111	4051
565.171	3778
565.231	4830
565.292	4541
565.352	2665
565.412	5633
565.472	5388
565.532	6823
565.593	4725
565.653	4084
565.713	3904
565.773	6115
565.833	7739
565.893	12111
565.953	5293
566.013	4032
566.074	4647
566.134	4223
566.194	6379
566.254	9109
566.314	5514
566.374	3535
566.434	4148
566.494	4051
566.554	4282
566.614	3633
566.673	4542
566.733	5180
566.793	5384
566.853	4159
566.913	3757
566.973	4745
567.033	4486
567.092	4875
567.152	4276
567.212	4722
567.272	3907
567.331	4626
567.391	4167
567.451	4961
567.511	5374
567.570	5113
567.630	4920
567.690	4421
567.749	4638
567.809	4568
567.868	5808
567.928	6032
567.988	5248
568.047	5283
568.107	5982
568.166	8096
568.226	11314
568.285	16322
568.345	11528
568.404	9113
568.464	8342
568.523	7363
568.582	8365
568.642	8421
568.701	10156
568.761	14921
568.820	24643
568.879	21199
568.939	12050
568.998	9400
569.057	7184
569.116	7035
569.176	5790
569.235	4729
569.294	4683
569.353	4404
569.413	4099
569.472	4041
569.531	3840
569.590	3651
569.649	3543
569.708	3466
569.767	5057
569.827	6122
569.886	3727
569.945	3768
570.004	4674
570.063	4507
570.122	4805
570.181	5790
570.240	4740
570.299	4832
570.358	4836
570.417	4078
570.475	4229
570.534	4768
570.593	6291
570.652	4565
570.711	4651
570.770	4073
570.829	6143
570.887	6575
570.946	8723
571.005	5915
571.064	7207
571.122	9556
571.181	6730
571.240	3854
571.299	3727
571.357	2903
571.416	2720
571.475	3211
571.533	5012
571.592	4218
571.650	2915
571.709	2641
571.768	4462
571.826	4653
571.885	4064
571.943	3117
572.002	3134
572.060	3685
572.119	2561
572.177	3159
572.236	2571
572.294	3753
572.352	3919
572.411	4114
572.469	3342
572.528	3072
572.586	3198
572.644	3298
572.703	4305
572.761	3279
572.819	2650
572.877	2295
572.936	2721
572.994	2852
573.052	3185
573.110	3097
573.169	4928
573.227	3258
573.285	3200
573.343	2770
573.401	3185
573.459	3668
573.517	2887
573.576	2607
573.634	2017
573.692	3520
573.750	2662
573.808	3368
573.866	2711
573.924	2913
573.982	3060
574.040	3168
574.098	2457
574.155	2299
574.213	2689
574.271	2233
574.329	2919
574.387	2003
574.445	2477
574.503	2830
574.560	2752
574.618	2809
574.676	1954
574.734	3119
574.792	2434
574.849	3083
574.907	2176
574.965	1580
575.022	2188
575.080	1656
575.138	2764
575.195	3666
575.253	2753
575.311	4870
575.368	3099
575.426	2164
575.483	3160
575.541	1949
575.598	2023
575.656	2339
575.713	2923
575.771	2974
575.828	2432
575.886	1795
575.943	3653
576.001	1270
576.058	1766
576.115	3006
576.173	3538
576.230	4075
576.287	6842
576.345	4953
576.402	2419
576.459	2453
576.517	1468
576.574	2911
576.631	2272
576.688	2240
576.746	2019
576.803	1931
576.860	1898
576.917	2448
576.974	2691
577.031	2808
577.089	2560
577.146	2167
577.203	2474
577.260	2675
577.317	2498
577.374	3374
577.431	1953
577.488	1680
577.545	2945
577.602	2712
577.659	2051
577.716	2678
577.773	3042
577.830	831
577.886	2528
577.943	1835
578.000	2127
578.057	2614
578.114	3119
578.171	2836
578.227	2463
578.284	2677
578.341	3459
578.398	2221
578.454	3617
578.511	3404
578.568	3142
578.625	2845
578.681	2215
578.738	2119
578.794	2872
578.851	3014
578.908	2364
578.964	1948
579.021	3547
579.077	3449
579.134	3883
579.190	2402
579.247	2945
579.303	1877
579.360	2849
579.416	1454
579.473	2520
579.529	1445
579.586	2106
579.642	1897
579.698	2245
579.755	2550
579.811	2666
579.867	2841
579.924	2184
579.980	2006
580.036	2350
580.093	2540
580.149	2604
580.205	2317
580.261	1870
580.317	2556
580.374	2690
580.430	3418
580.486	3405
580.542	2229
580.598	2320
580.619	2904
580.654	3922
580.692	3299
580.710	2991
580.765	2759
580.767	2754
580.823	2065
580.838	2141
580.879	2314
580.911	2552
580.935	2745
580.984	2820
580.991	2829
581.047	3304
581.057	3174
581.103	2641
581.130	2627
581.159	2561
581.203	2846
581.215	2935
581.270	2977
581.276	2929
581.326	2465
581.349	2319
581.382	2064
581.422	2534
581.438	2728
581.494	2147
581.494	2146
581.550	2176
581.567	2689
581.606	3732
581.640	3034
581.661	2607
581.713	3684
581.717	3769
581.773	2816
581.786	2608
581.829	1963
581.859	2157
581.885	2331
581.932	2775
581.940	2855
581.996	3682
582.004	3593
582.052	3016
582.077	2928
582.107	2896
582.150	2358
582.163	2165
582.219	3162
582.223	3151
582.274	3042
582.296	2895
582.330	2675
582.368	3364
582.386	3738
582.441	3548
582.441	3546
582.497	3710
582.514	3674
582.552	3863
582.587	3817
582.608	3586
582.659	2930
582.663	2907
582.719	3542
582.732	3465
582.774	3148
582.805	3475
582.830	3805
582.877	3672
582.885	3623
582.941	3482
582.950	3453
582.996	3405
583.023	4097
583.052	4865
583.095	3991
583.107	3744
583.162	4854
583.168	4853
583.218	4604
583.240	4134
583.273	3499
583.313	3599
583.328	3741
583.384	3869
583.385	3859
583.439	3302
583.458	3540
583.494	3816
583.531	3400
583.549	3416
583.603	3991
583.605	3991
583.660	3833
583.676	3763
583.715	3893
583.748	3927
583.770	3829
583.820	3996
583.825	4035
583.881	3757
583.893	3833
583.936	3970
583.965	3585
583.991	3276
584.038	3789
584.046	3875
584.101	4053
584.110	4056
584.156	4213
584.183	4169
584.211	4002
584.255	4210
584.266	4274
584.321	4151
584.328	4132
584.376	4468
584.400	4598
584.431	4488
584.472	4833
584.486	4904
584.541	4348
584.545	4367
584.596	5060
584.617	4980
584.651	4903
584.689	5082
584.706	5098
584.761	5245
584.762	5244
584.816	5696
584.834	5707
584.871	5691
584.906	5670
584.926	5538
584.978	4950
584.980	4957
585.035	5914
585.051	6445
585.090	7621
585.123	7821
585.145	7973
585.195	8644
585.200	8759
585.254	9775
585.267	10432
585.309	12658
585.340	14071
585.364	14881
585.412	15464
585.419	15646
585.473	18539
585.484	19106
585.528	23307
585.556	28366
585.583	40668
585.628	68574
585.637	79226
585.692	171401
585.700	188087
585.747	238188
585.772	198039
585.801	116479
585.845	33296
585.856	25204
585.910	15324
585.917	14269
585.965	11130
585.989	10509
586.019	10221
586.061	9372
586.074	9148
586.128	8880
586.133	8869
586.183	9501
586.205	9653
586.237	9387
586.277	8411
586.292	8128
586.346	8038
586.349	8019
586.401	7824
586.421	7889
586.455	8202
586.493	8170
586.509	8333
586.564	8651
586.565	8674
586.618	11105
586.637	11786
586.672	11871
586.709	11069
586.727	10936
586.781	11464
586.781	11475
586.835	9292
586.853	8774
586.889	8661
586.925	7985
586.944	7620
586.996	7985
586.998	8028
587.052	8627
587.068	8840
587.106	8872
587.140	8596
587.161	8683
587.212	8906
587.215	8902
587.269	9019
587.284	8824
587.323	8834
587.356	9121
587.377	9315
587.427	10005
587.431	10073
587.485	10155
587.499	10288
587.539	10933
587.571	11249
587.593	11297
587.643	11428
587.648	11508
587.702	12226
587.715	12369
587.755	12520
587.786	12694
587.810	12968
587.858	12945
587.864	13065
587.917	14789
587.930	15012
587.971	15092
588.001	15521
588.025	16204
588.073	17424
588.079	17688
588.133	19355
588.145	19884
588.187	22274
588.217	23554
588.241	24681
588.288	27509
588.295	28152
588.348	33362
588.360	34450
588.402	38725
588.431	42104
588.456	44986
588.503	50409
588.510	51516
588.564	60892
588.575	62987
588.617	73673
588.646	80957
588.671	89730
588.718	108358
588.725	114898
588.778	171512
588.789	185122
588.832	312960
588.861	412153
588.886	564013
588.932	894796
588.939	914740
588.993	999101
589.004	984855
589.047	639579
589.075	417533
589.100	308919
589.147	154927
589.154	148716
589.207	112141
589.218	105351
589.261	100786
589.290	98765
589.314	104606
589.361	118810
589.368	126581
589.421	196310
589.433	213450
589.475	389617
589.504	530135
589.528	653832
589.576	893602
589.582	869741
589.635	514019
589.647	438135
589.689	231687
589.718	110376
589.742	90006
589.790	56025
589.795	54469
589.849	40895
589.861	37939
589.902	34052
589.932	31131
589.955	28903
590.004	24279
590.009	24125
590.062	22362
590.075	21757
590.115	21014
590.146	20655
590.168	20201
590.218	19058
590.222	19050
590.275	18139
590.289	17918
590.328	18407
590.360	18456
590.381	17822
590.431	16486
590.435	16568
590.488	17109
590.503	17278
590.541	16959
590.574	16364
590.594	16482
590.645	16863
590.647	16891
590.700	16202
590.716	15972
590.753	16109
590.787	16064
590.806	15911
590.859	15637
590.859	15700
590.912	16826
590.930	17114
590.965	16632
591.001	16189
591.018	16502
591.071	17128
591.072	17082
591.124	16389
591.143	16016
591.177	16534
591.214	17027
591.230	17138
591.283	17493
591.285	17447
591.336	17908
591.356	18104
591.389	18394
591.427	18412
591.442	18171
591.495	17221
591.498	17095
591.547	16080
591.569	15589
591.600	16055
591.640	16455
591.653	16629
591.706	17241
591.711	17252
591.759	17448
591.782	17484
591.811	17875
591.853	18272
591.864	18330
591.917	18295
591.924	18232
591.969	17932
591.995	17674
592.022	17761
592.066	17761
592.075	17986
592.127	18996
592.137	19130
592.180	19327
592.208	19319
592.233	19164
592.279	18708
592.285	18837
592.338	19446
592.350	19509
592.390	19118
592.421	18756
592.443	19242
592.491	20106
592.495	20116
592.548	19433
592.562	19193
592.600	19176
592.633	19057
592.653	19253
592.704	19519
592.705	19651
592.775	20697
592.846	20333
592.916	22138
592.987	22976
593.058	21579
593.128	20164
593.199	20907
593.270	20949
593.341	21592
593.411	22197
593.482	23823
593.553	22118
593.623	22918
593.694	22861
593.764	24195
593.835	23153
593.906	23333
593.976	23373
594.047	23250
594.117	25608
594.188	26506
594.258	25011
594.329	25590
594.399	25426
594.470	27642
594.540	27369
594.611	28425
594.681	27192
594.751	26946
594.822	29822
594.892	31457
594.963	29970
595.033	31369
595.103	31606
595.174	32900
595.244	34726
595.314	36208
595.384	34137
595.455	35621
595.525	35714
595.595	37696
595.665	37155
595.736	36086
595.806	37101
595.876	36427
595.946	38260
596.016	39684
596.087	40903
596.157	40012
596.227	40136
596.297	43808
596.367	45503
596.437	48158
596.507	48822
596.577	49760
596.647	48953
596.717	51493
596.787	52445
596.857	51819
596.927	52707
596.997	53038
597.067	53944
597.137	55588
597.207	55082
597.277	55423
597.347	52641
597.417	52835
597.487	52382
597.557	53252
597.626	55634
597.696	55819
597.766	54820
597.836	54794
597.906	49993
597.975	48743
598.045	48672
598.115	52322
598.185	55439
598.254	62946
598.324	67607
598.394	70699
598.464	67144
598.533	66780
598.603	61229
598.672	60348
598.742	59960
598.812	61368
598.881	62273
598.951	62748
599.020	63457
599.090	66622
599.159	67885
599.229	64950
599.299	63396
599.368	65565
599.437	63924
599.507	59770
599.576	58848
599.646	58242
599.715	56600
599.785	57953
599.854	54487
599.924	54771
599.993	54422
600.062	56480
600.132	56462
600.201	60773
600.270	71776
600.340	75770
600.409	71451
600.478	72217
600.547	73819
600.617	69046
600.686	54837
600.755	52654
600.824	51786
600.894	49711
600.963	49656
601.032	48863
601.101	48289
601.170	45987
601.239	46210
601.308	48546
601.378	48047
601.447	46924
601.516	48465
601.585	50796
601.654	52455
601.723	51520
601.792	52352
601.861	54507
601.930	58630
601.999	62206
602.068	58553
602.137	63104
602.206	62002
602.275	61696
602.343	64886
602.412	64635
602.481	60662
602.550	61856
602.619	63010
602.688	64896
602.756	63209
602.825	65452
602.894	67076
602.963	66611
603.032	68105
603.100	67328
603.169	66957
603.238	68188
603.307	67000
603.375	68451
603.444	70446
603.513	69275
603.581	71136
603.650	73783
603.719	66804
603.787	66782
603.856	69218
603.924	70422
603.993	73180
604.061	75337
604.130	78095
604.198	81619
604.267	81947
604.335	83397
604.404	84076
604.472	85605
604.541	85949
604.609	88195
604.678	89020
604.746	90566
604.815	93642
604.883	94259
604.951	92772
605.020	94640
605.088	92869
605.156	92848
605.225	94767
605.293	93119
605.361	93851
605.429	95191
605.498	97218
605.566	99832
605.634	103353
605.702	106520
605.771	108838
605.839	109197
605.907	105409
605.975	104591
606.043	101666
606.111	100788
606.180	101371
606.248	99624
606.316	96785
606.384	100586
606.452	96376
606.520	98589
606.588	97198
606.656	96287
606.724	92371
606.792	86209
606.860	77041
606.928	70343
606.996	68873
607.064	67156
607.132	68880
607.200	74215
607.267	77280
607.335	78219
607.403	80635
607.471	76846
607.539	74873
607.607	75620
607.674	65190
607.742	68381
607.810	66315
607.878	67300
607.946	66812
608.013	71845
608.081	72150
608.149	72854
608.216	74494
608.284	77594
608.352	76810
608.419	75041
608.487	75646
608.555	73208
608.622	75583
608.690	81519
608.757	88018
608.825	91214
608.893	88940
608.960	83779
609.028	79230
609.095	80956
609.163	78060
609.230	69395
609.298	64599
609.365	66227
609.432	72721
609.500	80277
609.567	92590
609.635	107195
609.702	111609
609.769	105711
609.837	79666
609.904	68978
609.971	70636
610.039	81773
610.106	109076
610.173	218492
610.241	505116
610.308	228716
610.375	87287
610.442	73614
610.509	70372
610.577	71919
610.644	73013
610.711	73872
610.778	77799
610.845	81298
610.912	86768
610.980	90113
611.047	90777
611.114	88381
611.181	84956
611.248	84850
611.315	90681
611.382	90952
611.449	95677
611.516	97368
611.583	96460
611.650	96821
611.717	98087
611.784	99091
611.851	105385
611.918	114155
611.984	132908
612.051	203675
612.118	433345
612.185	1088141
612.252	538226
612.319	145860
612.386	125962
612.452	115885
612.519	110045
612.586	108046
612.653	109555
612.719	116490
612.786	109438
612.853	100925
612.919	99783
612.986	101144
613.053	93202
613.120	88255
613.186	84535
613.253	86718
613.319	84814
613.386	86805
613.453	89255
613.519	91423
613.586	94280
613.652	103250
613.719	96345
613.785	94266
613.852	90419
613.918	89098
613.985	91143
614.051	97501
614.118	105458
614.184	98934
614.250	88870
614.317	91005
614.383	89185
614.449	91401
614.516	89603
614.582	90491
614.648	88495
614.715	87555
614.781	85119
614.847	86989
614.914	85297
614.980	81298
615.046	83683
615.112	84968
615.179	86750
615.245	86487
615.311	85219
615.377	90946
615.443	89793
615.509	88969
615.575	91164
615.642	89568
615.708	93625
615.774	98858
615.840	105295
615.906	115104
615.972	144806
616.038	233865
616.104	530566
616.170	1319845
616.236	914880
616.302	196855
616.368	152564
616.434	110896
616.500	105892
616.565	120010
616.631	147382
616.697	114211
616.763	124365
616.829	197403
616.895	348324
616.961	289277
617.026	116226
617.092	90540
617.158	89240
617.224	86279
617.289	80635
617.355	76234
617.421	74834
617.487	75441
617.552	70690
617.618	71580
617.684	70533
617.749	73532
617.815	68313
617.880	66557
617.946	66613
618.012	69845
618.077	68396
618.143	66818
618.208	67049
618.274	72756
618.339	73159
618.405	59095
618.470	60027
618.536	58953
618.601	58039
618.667	53472
618.732	50315
618.798	50605
618.863	49663
618.928	49335
618.994	50904
619.059	54261
619.124	60766
619.190	52403
619.255	48575
619.320	49439
619.386	48341
619.451	48055
619.516	46341
619.581	47882
619.647	48364
619.712	49307
619.777	46057
619.842	47081
619.907	48337
619.972	50237
620.038	47776
620.103	47288
620.168	46276
620.233	48399
620.298	47809
620.363	48553
620.428	50773
620.493	52183
620.558	53277
620.623	53406
620.688	52856
620.753	53312
620.818	52886
620.883	54217
620.948	53260
621.013	52440
621.078	51459
621.143	50701
621.207	54569
621.272	52436
621.337	50306
621.402	50245
621.467	50045
621.532	50528
621.596	49949
621.661	49374
621.726	46589
621.791	48984
621.855	49310
621.920	48689
621.985	47744
622.049	50344
622.114	48913
622.179	49828
622.243	51884
622.308	53826
622.373	56828
622.437	54543
622.502	51012
622.566	51074
622.631	49501
622.695	52548
622.760	51375
622.824	51793
622.889	53377
622.953	54533
623.018	67506
623.082	65002
623.147	55831
623.211	54428
623.276	53488
623.340	50873
623.404	48460
623.469	48305
623.533	48498
623.597	47115
623.662	46822
623.726	43650
623.790	40318
623.854	40080
623.919	40566
623.983	42927
624.047	43372
624.111	43161
624.176	44025
624.240	45207
624.304	46895
624.368	43533
624.432	43709
624.496	46692
624.560	51124
624.625	52869
624.689	48712
624.753	52513
624.817	47766
624.881	46106
624.945	41379
625.009	40590
625.073	41443
625.137	43149
625.201	51233
625.265	49659
625.329	44088
625.393	46076
625.456	44522
625.520	44686
625.584	45912
625.648	48358
625.712	52036
625.776	58181
625.839	56604
625.903	40676
625.967	35693
626.031	42035
626.095	51386
626.158	43402
626.222	30991
626.286	31495
626.349	28618
626.413	26617
626.477	30231
626.540	28259
626.604	25489
626.668	27657
626.731	25357
626.795	26704
626.858	26737
626.922	25739
626.986	26404
627.049	24767
627.113	27120
627.176	27528
627.240	25028
627.303	26565
627.366	24926
627.430	27018
627.493	24858
627.557	24414
627.620	27046
627.684	27648
627.747	27610
627.810	24139
627.874	23076
627.937	22046
628.000	25024
628.064	22363
628.127	17740
628.190	19806
628.253	18802
628.317	17843
628.380	17278
628.443	16315
628.506	16631
628.569	16797
628.632	15023
628.696	15460
628.759	15054
628.822	15091
628.885	14091
628.948	14407
629.011	13616
629.074	13851
629.137	12330
629.200	13092
629.263	13792
629.326	11861
629.389	12877
629.452	13410
629.515	12258
629.578	12663
629.641	14311
629.704	13902
629.767	13552
629.830	12898
629.892	11936
629.955	11850
630.018	14952
630.081	14254
630.144	17543
630.207	12435
630.269	13667
630.332	12758
630.395	11577
630.458	11757
630.520	10085
630.583	12793
630.646	11783
630.708	11054
630.771	10951
630.834	13155
630.896	11931
630.959	12421
631.021	10919
631.084	11679
631.146	12209
631.209	13384
631.272	11802
631.334	12709
631.397	11938
631.459	11525
631.522	14005
631.584	14572
631.646	15119
631.709	15474
631.771	18408
631.834	15487
631.896	13321
631.958	12421
632.021	12618
632.083	10620
632.145	12658
632.208	12871
632.270	12919
632.332	11073
632.395	10358
632.457	11297
632.519	10446
632.581	12128
632.643	9071
632.706	11881
632.768	9182
632.830	12032
632.892	10744
632.954	10779
633.016	12456
633.078	12048
633.141	11366
633.203	11211
633.265	11531
633.327	10872
633.389	10187
633.451	13268
633.513	13453
633.575	13688
633.637	13691
633.698	12882
633.760	11711
633.822	12741
633.884	12293
633.946	12859
634.008	13188
634.070	14472
634.132	14932
634.193	16346
634.255	17561
634.317	18050
634.379	17586
634.441	14703
634.502	13805
634.564	12906
634.626	11091
634.687	11275
634.749	11084
634.811	12126
634.873	9903
634.934	10572
634.996	10771
635.057	9948
635.119	10191
635.181	10969
635.242	10953
635.304	9023
635.365	13655
635.427	10278
635.488	11561
635.550	10235
635.611	10725
635.673	9055
635.734	12560
635.796	12253
635.857	14309
635.918	13781
635.980	16456
636.041	16485
636.102	17914
636.164	19040
636.225	18492
636.286	13561
636.348	13477
636.409	11198
636.470	9863
636.531	11349
636.593	9537
636.654	10931
636.715	8294
636.776	9380
636.838	8164
636.899	9999
636.960	7875
637.021	9055
637.082	8329
637.143	8557
637.204	6690
637.265	8334
637.326	8063
637.387	9315
637.448	6527
637.509	9551
637.570	8285
637.631	9524
637.692	6625
637.753	7027
637.814	7996
637.875	7359
637.936	7995
637.997	8123
638.058	7745
638.119	8648
638.179	7835
638.240	8202
638.301	7773
638.362	7470
638.423	6664
638.483	7965
638.544	4995
638.605	8392
638.666	5704
638.726	7366
638.787	7723
638.848	6887
638.908	7154
638.969	6716
639.030	6934
639.090	6559
639.151	6898
639.211	8599
639.272	10740
639.332	16710
639.393	9600
639.453	7136
639.514	7800
639.574	7500
639.635	5271
639.695	7956
639.756	5862
639.816	7575
639.877	8005
639.937	16071
639.997	16433
640.058	7086
640.118	5421
640.178	6910
640.239	5534
640.299	5882
640.359	6115
640.420	6704
640.480	6968
640.540	9522
640.600	7527
640.661	7781
640.721	7497
640.781	9875
640.841	6178
640.901	6945
640.961	6851
641.021	8597
641.082	8746
641.142	12257
641.202	7927
641.262	4914
641.322	6982
641.382	5636
641.442	5832
641.502	6656
641.562	6364
641.622	5072
641.682	6811
641.742	7431
641.802	5762
641.861	7678
641.921	6023
641.981	8376
642.041	7089
642.101	9227
642.161	5319
642.221	5033
642.280	4850
642.340	4014
642.400	4169
642.460	6883
642.519	4582
642.579	5271
642.639	6289
642.698	2474
642.758	7482
642.818	5971
642.877	4402
642.937	6529
642.997	7725
643.056	11160
643.116	5282
643.175	7350
643.235	6288
643.294	6719
643.354	6973
643.414	8533
643.473	10187
643.532	13507
643.592	20897
643.651	37220
643.711	71012
643.770	156354
643.830	402732
643.889	797645
643.948	137520
644.008	23025
644.067	13025
644.126	9831
644.186	8460
644.245	8844
644.304	5872
644.363	8125
644.423	4583
644.482	6480
644.541	7068
644.600	5560
644.659	9613
644.719	11216
644.778	18520
644.837	36947
644.896	83498
644.955	190642
645.014	45111
645.073	10406
645.132	6870
645.191	6704
645.250	5662
645.309	7640
645.368	7330
645.427	12048
645.486	18133
645.545	33672
645.604	7921
645.663	6508
645.722	6153
645.781	8259
645.840	8195
645.898	12298
645.957	19019
646.016	32901
646.075	66874
646.134	139121
646.192	414880
646.251	530925
646.310	55642
646.369	16143
646.427	13620
646.486	9292
646.545	7380
646.603	6719
646.662	5802
646.721	6355
646.779	5033
646.838	5621
646.896	8043
646.955	11760
647.014	19347
647.072	43415
647.131	120897
647.189	44534
647.248	6050
647.306	5821
647.365	4774
647.423	3643
647.481	5323
647.540	2268
647.598	3455
647.657	3952
647.715	4251
647.773	3437
647.832	3759
647.890	2244
647.948	2350
648.007	4146
648.065	1714
648.123	3270
648.181	3960
648.240	3174
648.298	2128
648.356	2637
648.414	2789
648.472	2710
648.531	2465
648.589	2963
648.647	1896
648.705	3142
648.763	2798
648.821	3563
648.879	3070
648.937	4268
648.995	5779
649.053	8737
649.111	14003
649.169	27556
649.227	53087
649.285	120064
649.343	347646
649.401	125331
649.459	27574
649.516	15709
649.574	7498
649.632	13450
649.690	13395
649.748	9709
649.806	13336
649.863	29517
649.921	84122
649.979	43890
650.037	6117
650.094	2104
650.152	3238
650.210	2341
650.268	3394
650.325	2808
650.383	1957
650.440	802
650.498	1858
650.556	1926
650.613	1036
650.671	2323
650.728	1902
650.786	2122
650.843	3283
650.901	1539
650.958	2238
651.016	2236
651.073	1482
651.131	2007
651.188	937
651.246	1915
651.303	374
651.360	1913
651.418	1000
651.475	1969
651.532	526
651.590	1747
651.647	1232
651.704	825
651.762	1774
651.819	2468
651.876	1008
651.933	1374
651.990	1634
652.048	481
652.105	1048
652.162	2356
652.219	716
652.276	1978
652.333	817
652.390	234
652.448	1239
652.505	1602
652.562	993
652.619	1389
652.676	1719
652.733	1998
652.790	641
652.847	602
652.904	1481
652.961	794
653.017	-421
653.074	2517
653.131	951
653.188	261
653.245	740
653.302	932
653.359	946
653.415	2411
653.472	345
653.529	2171
653.586	447
653.642	877
653.699	1829
653.756	808
653.813	213
653.869	1901
653.926	235
653.983	516
654.039	1218
654.096	540
654.152	1095
654.209	-212
654.266	351
654.322	863
654.379	391
654.435	1855
654.492	1555
654.548	2494
654.605	3823
654.661	2578
654.717	503
654.774	1450
654.830	1155
654.887	873
654.943	636
655.000	1378
655.056	604
655.112	653
655.168	59
655.225	484
655.281	969
655.337	570
655.394	499
655.450	1811
655.506	1143
655.562	1741
655.618	2227
655.675	1061
655.731	1070
655.787	382
655.843	1258
655.899	506
655.955	1217
656.011	940
656.067	48
656.123	1335
656.179	908
656.235	2621
656.291	7
656.347	2210
656.403	-1
656.459	983
656.515	302
656.571	1260
656.627	125
656.683	1355
656.739	1177
656.795	937
656.850	876
656.906	2149
656.962	1415
657.018	854
657.074	1323
657.129	2411
657.185	3727
657.241	10969
657.297	3572
657.352	1229
657.408	-630
657.464	1686
657.519	540
657.575	29
657.630	10
657.686	367
657.742	286
657.797	984
657.853	-480
657.908	1236
657.964	-183
658.019	247
658.075	561
658.130	415
658.186	-736
658.241	1117
658.297	-868
658.352	359
658.407	243
658.463	657
658.518	-103
658.573	779
658.629	-421
658.684	503
658.739	65
658.795	730
658.850	990
658.905	460
658.960	-441
659.016	335
659.071	235
659.126	665
659.181	1095
659.236	4260
659.291	3283
659.346	1669
659.401	567
659.457	1295
659.512	747
659.567	1316
659.622	884
659.677	718
659.732	-330
659.787	553
659.842	-196
659.897	603
659.952	494
660.007	700
660.061	-87
660.116	300
660.171	325
660.226	146
660.281	1053
660.336	-673
660.391	168
660.445	-482
660.500	428
660.555	169
660.610	-53
660.664	581
660.719	118
660.774	444
660.828	645
660.883	468
660.938	-98
660.992	-460
661.047	8
661.101	1104
661.156	-111
661.211	-275
661.265	-320
661.320	-387
661.374	-793
661.429	-536
661.483	713
661.538	-445
661.592	-150
661.647	-48
661.701	629
661.755	-18
661.810	-345
661.864	-298
661.919	-137
661.973	512
662.027	-218
662.081	-513
662.136	-352
662.190	410
662.244	600
662.299	511
662.353	-291
662.407	68
662.461	-720
662.515	291
662.569	-956
662.624	805
662.678	-456
662.732	-619
662.786	-414
662.840	-56
662.894	-32
662.948	-87
663.002	-543
663.056	678
663.110	-357
663.164	876
663.218	-390
663.272	481
663.326	88
663.380	493
663.434	91
663.488	212
663.542	-55
663.595	-27
663.649	277
663.703	1239
663.757	-792
663.811	-224
663.864	-391
663.918	-8
663.972	-439
664.026	571
664.079	-983
664.133	956
664.187	-623
664.240	109
664.294	-630
664.348	994
664.401	190
664.455	-253
664.508	-228
664.562	-292
664.615	316
664.669	-477
664.722	-334
664.776	-141
664.829	-477
664.883	-535
664.936	-715
664.990	-842
665.043	-96
665.097	233
665.150	495
665.203	45
665.257	-1067
665.310	72
665.363	560
665.417	-119
665.470	-928
665.523	130
665.576	91
665.630	272
665.683	-712
665.736	437
665.789	-119
665.842	-108
665.895	338
665.949	834
666.002	156
666.055	-496
666.108	240
666.161	208
666.214	753
666.267	481
666.320	609
666.373	126
666.426	-316
666.479	-118
666.532	63
666.585	203
666.638	198
666.691	113
666.744	-136
666.796	-569
666.849	-706
666.902	437
666.955	287
667.008	-377
667.060	-545
667.113	-252
667.166	-770
667.219	583
667.271	-240
667.324	-201
667.377	-271
667.430	104
667.482	-221
667.535	80
667.587	-109
667.640	212
667.693	677
667.745	3010
667.798	3568
667.850	369
667.903	333
667.955	180
668.008	-165
668.060	142
668.113	238
668.165	260
668.218	-190
668.270	902
668.322	-175
668.375	-565
668.427	474
668.479	-1020
668.532	460
668.584	19
668.636	-892
668.689	304
668.741	-649
668.793	-368
668.845	-77
668.898	-2
668.950	-30
669.002	587
669.054	17
669.106	-265
669.158	-390
669.211	112
669.263	-342
669.315	756
669.367	-30
669.419	289
669.471	513
669.523	604
669.575	1462
669.627	600
669.679	-237
669.731	238
669.783	48
669.835	643
669.886	-62
669.938	65
669.990	-561
670.042	-300
670.094	96
670.146	221
670.197	141
670.249	870
670.301	-417
670.353	1202
670.404	1307
670.456	2475
670.508	4166
670.560	8310
670.611	14763
670.663	29517
670.715	78529
670.766	111944
670.818	21537
670.869	2757
670.921	2014
670.972	1665
671.024	386
671.075	-240
671.127	252
671.178	421
671.230	183
671.281	601
671.333	17
671.384	51
671.436	1066
671.487	2578
671.538	3107
671.590	7971
671.641	13784
671.692	28896
671.744	54810
671.795	22974
671.846	4681
671.897	1678
671.949	1144
672.000	951
672.051	-426
672.102	1237
672.153	-191
672.204	-117
672.256	83
672.307	346
672.358	-207
672.409	-132
672.460	-1164
672.511	-391
672.562	-709
672.613	-402
672.664	-720
672.715	304
672.766	-206
672.817	-892
672.868	-653
672.919	237
672.970	-601
673.021	-267
673.071	-918
673.122	-143
673.173	-510
673.224	-70
673.275	-1030
673.326	-482
673.376	-692
673.427	-390
673.478	-1102
673.528	110
673.579	-566
673.630	-179
673.680	-535
673.731	-175
673.782	-1231
673.832	-596
673.883	-726
673.934	-531
673.984	-1123
674.035	-418
674.085	-793
674.136	-449
674.186	-613
674.237	-277
674.287	-451
674.338	59
674.388	-641
674.438	-415
674.489	-966
674.539	275
674.589	-504
674.640	-75
674.690	-960
674.740	-858
674.791	-111
674.841	-1026
674.891	-728
674.942	-62
674.992	-1307
675.042	-1295
675.092	-967
675.142	-1225
675.193	-666
675.243	-235
675.293	43
675.343	-651
675.393	-282
675.443	-385
675.493	-514
675.543	-663
675.593	-373
675.643	-937
675.693	-53
675.743	-438
675.793	-655
675.843	-653
675.893	-580
675.943	105
675.993	-1028
676.043	-374
676.093	-1351
676.142	-722
676.192	-801
676.242	-1161
676.292	-699
676.341	-659
676.391	-890
676.441	-1786
676.491	-1493
676.540	-961
676.590	-361
676.640	-1056
676.689	-1648
676.739	-1288
676.789	-1454
676.838	-726
676.888	-1104
676.937	-891
676.987	-1264
677.037	-1125
677.086	-945
677.136	-615
677.185	-938
677.235	-953
677.284	-1449
677.333	-1137
677.383	-881
677.432	-579
677.482	-637
677.531	-508
677.580	-1252
677.630	168
677.679	-1519
677.728	-1112
677.778	-1129
677.827	-1072
677.876	-822
677.925	-1329
677.975	-2006
678.024	-816
678.073	-996
678.122	-1532
678.171	-444
678.220	-596
678.269	-665
678.319	-107
678.368	-382
678.417	12
678.466	-966
678.515	-691
678.564	-1234
678.613	-598
678.662	-1227
678.711	-582
678.760	-1213
678.809	-789
678.857	-1565
678.906	-384
678.955	-1270
679.004	-1145
679.053	-1800
679.102	-477
679.151	-1097
679.199	-753
679.248	-990
679.297	-775
679.346	-1657
679.394	-1022
679.443	-1790
679.492	-144
679.540	-1285
679.589	-610
679.638	-1386
679.686	-1041
679.735	-1020
679.784	-689
679.832	-811
679.881	-673
679.929	-1173
679.978	-1458
680.026	-1901
680.075	-839
680.123	-1470
680.172	-740
680.220	-1986
680.268	-792
680.317	-2127
680.365	-1349
680.414	-1934
680.462	-1077
680.510	-469
680.559	-888
680.607	-1463
680.655	-1029
680.703	-1326
680.752	-1081
680.800	-1292
680.848	-768
680.896	-1856
680.945	-1088
680.993	-1714
681.041	-1280
681.089	-1196
681.137	-1587
681.185	-1574
681.233	-1308
681.258	-1266
681.281	-1235
681.329	-1249
681.377	-1844
681.380	-1771
681.425	-561
681.473	-691
681.502	-321
681.521	-86
681.569	-733
681.617	-293
681.624	-388
681.665	-1038
681.713	-319
681.745	-655
681.761	-829
681.809	-1526
681.857	-733
681.867	-716
681.904	-697
681.952	-1184
681.989	-1507
682.000	-1606
682.048	-886
682.096	-1391
682.111	-1255
682.143	-1016
682.191	-822
682.233	-890
682.239	-907
682.286	-693
682.334	-1234
682.354	-1225
682.382	-1243
682.430	-1638
682.476	-675
682.477	-659
682.525	-1536
682.572	-933
682.598	-1220
682.620	-1481
682.667	-510
682.715	-855
682.720	-812
682.763	-508
682.810	-1272
682.841	-976
682.857	-837
682.905	-1456
682.952	-435
682.963	-401
683.000	-316
683.047	-431
683.085	-372
683.095	-356
683.142	-149
683.190	-257
683.206	-457
683.237	-872
683.284	-528
683.328	-733
683.332	-755
683.379	-793
683.426	-1042
683.449	-1168
683.473	-1287
683.521	-862
683.568	-1331
683.571	-1265
683.615	-467
683.662	-589
683.693	-611
683.709	-618
683.757	-1757
683.804	-78
683.814	-254
683.851	-930
683.898	-340
683.936	-495
683.945	-533
683.992	151
684.039	-59
684.057	199
684.086	601
684.133	182
684.179	628
684.180	631
684.227	61
684.274	569
684.300	428
684.321	319
684.368	-628
684.415	-494
684.422	-464
684.462	-315
684.509	-955
684.543	-391
684.556	-155
684.603	-303
684.649	-285
684.665	-137
684.696	144
684.743	-54
684.786	52
684.790	53
684.837	126
684.883	-480
684.908	-147
684.930	128
684.977	-353
685.023	-262
685.029	-287
685.070	-499
685.117	-114
685.150	-263
685.164	-285
685.210	-130
685.257	121
685.272	363
685.303	830
685.350	202
685.393	518
685.396	550
685.443	1072
685.490	1409
685.514	1161
685.536	751
685.583	642
685.629	93
685.636	51
685.675	4
685.722	-78
685.757	611
685.768	799
685.815	-65
685.861	224
685.878	28
685.908	-214
685.954	96
686.000	513
686.000	517
686.047	163
686.093	193
686.121	640
686.139	920
686.185	445
686.232	246
686.242	117
686.278	-421
686.324	704
686.363	572
686.370	568
686.416	186
686.463	321
686.484	157
686.509	5
686.555	461
686.601	152
686.606	191
686.647	310
686.693	163
686.727	59
686.739	82
686.785	39
686.831	474
686.848	430
686.877	256
686.923	274
686.969	761
686.969	764
687.015	407
687.061	182
687.090	299
687.107	347
687.153	524
687.199	480
687.211	471
687.245	382
687.291	-0
687.332	-375
687.336	-393
687.382	113
687.428	273
687.453	271
687.474	190
687.520	73
687.565	327
687.574	322
687.611	485
687.657	527
687.695	1369
687.702	1513
687.748	401
687.794	1009
687.816	787
687.839	430
687.885	534
687.931	193
687.937	239
687.976	804
688.022	368
688.058	1181
688.067	1368
688.113	998
688.158	1131
688.179	1000
688.204	796
688.249	1578
688.295	1366
688.300	1336
688.340	1014
688.386	1145
688.421	1032
688.431	1013
688.477	885
688.522	972
688.542	895
688.567	897
688.613	1561
688.658	1008
688.663	992
688.703	823
688.749	1212
688.784	1515
688.794	1568
688.839	597
688.884	987
688.905	850
688.930	750
688.975	795
689.020	385
689.026	390
689.065	571
689.110	376
689.146	1254
689.155	1463
689.201	1354
689.246	1311
689.267	1138
689.291	882
689.336	1168
689.381	1024
689.388	950
689.426	529
689.471	764
689.509	966
689.516	1055
689.561	1151
689.606	1394
689.630	1356
689.651	1209
689.696	1210
689.741	601
689.750	652
689.785	942
689.830	690
689.871	1300
689.875	1360
689.920	1035
689.965	1078
689.992	565
690.010	272
690.054	1045
690.099	1136
690.112	1126
690.144	1048
690.189	881
690.233	1043
690.233	1049
690.278	947
690.323	1571
690.354	1784
690.367	1755
690.412	1898
690.457	1171
690.474	1222
690.501	1328
690.546	739
690.590	1267
690.595	1167
690.635	713
690.680	1395
690.716	1274
690.724	1184
690.769	1374
690.813	1240
690.836	1188
690.857	1232
690.902	855
690.946	1564
690.957	1587
690.991	1981
691.035	2562
691.077	3233
691.080	3241
691.124	2811
691.168	2246
691.198	2192
691.213	2181
691.257	1782
691.301	1870
691.318	1679
691.346	1600
691.390	1668
691.434	1646
691.439	1708
691.478	2035
691.522	1997
691.559	1793
691.567	1844
691.611	2140
691.655	2459
691.680	2386
691.699	1979
691.743	2249
691.787	1588
691.800	1425
691.831	1482
691.875	1593
691.919	1786
691.921	1779
691.964	1720
692.008	2093
692.041	1744
692.052	1669
692.096	1876
692.139	2463
692.162	2452
692.183	2301
692.227	2279
692.271	2230
692.282	2122
692.315	1984
692.359	2286
692.402	2325
692.403	2333
692.447	2479
692.490	2583
692.523	2716
692.534	2695
692.578	2452
692.622	2238
692.643	2127
692.666	2028
692.709	2139
692.753	1814
692.763	1802
692.797	1948
692.840	1756
692.884	1966
692.884	1974
692.928	1818
692.971	1627
693.004	1499
693.015	1529
693.059	1786
693.102	1892
693.124	1928
693.146	1975
693.189	2053
693.233	2269
693.245	2286
693.276	2302
693.320	2393
693.363	2071
693.365	2068
693.407	2129
693.450	2113
693.485	1955
693.493	2016
693.537	2553
693.580	2741
693.605	3023
693.624	3120
693.667	3118
693.710	3185
693.725	3182
693.753	3887
693.797	5060
693.840	6600
693.845	6694
693.883	5773
693.926	4701
693.966	3981
693.970	3951
694.013	3548
694.056	3069
694.086	2578
694.099	2581
694.142	2749
694.185	2958
694.206	3030
694.229	3012
694.272	2773
694.315	2764
694.326	2747
694.358	2975
694.401	3314
694.444	3617
694.446	3616
694.487	3585
694.530	3681
694.566	3719
694.573	3644
694.616	2844
694.659	2290
694.686	1832
694.702	1890
694.745	1853
694.787	2490
694.806	2522
694.830	2413
694.873	2375
694.916	2019
694.926	2045
694.959	2483
695.002	2782
695.044	3092
695.046	3098
695.087	3086
695.130	2919
695.166	2693
695.172	2709
695.215	2910
695.258	3130
695.286	3217
695.301	3136
695.343	2753
695.386	2687
695.406	2495
695.428	2481
695.471	2597
695.514	2596
695.526	2666
695.556	2900
695.599	2838
695.641	3012
695.646	3019
695.684	3040
695.726	2918
695.766	2807
695.769	2808
695.811	2766
695.854	2471
695.886	2558
695.896	2657
695.938	2749
695.981	2969
696.005	3004
696.023	3036
696.065	3253
696.108	3125
696.125	3198
696.150	3240
696.192	3203
696.235	3317
696.245	3247
696.277	3247
696.319	3430
696.361	3603
696.365	3607
696.404	3604
696.446	3556
696.485	3435
696.488	3456
696.530	3611
696.572	3806
696.604	3746
696.614	3640
696.656	3553
696.698	3096
696.724	2887
696.740	3021
696.783	3381
696.825	3810
696.844	3879
696.867	3795
696.909	3860
696.951	3596
696.964	3628
696.992	3668
697.034	3455
697.076	3218
697.083	3180
697.118	3544
697.160	4017
697.202	4328
697.203	4325
697.244	4038
697.286	3659
697.323	3314
697.327	3350
697.369	3500
697.411	3699
697.442	3868
697.453	3912
697.494	4005
697.536	4028
697.562	4127
697.578	4396
697.620	4952
697.661	5498
697.682	5792
697.703	5958
697.744	6110
697.786	6488
697.801	6543
697.828	6587
697.869	6609
697.911	6714
697.921	6699
697.952	6158
697.994	5496
698.035	4782
698.040	4678
698.077	4493
698.118	4294
698.160	4130
698.160	4115
698.201	4372
698.243	4649
698.279	4867
698.284	4876
698.325	4812
698.367	4752
698.399	4679
698.408	4718
698.449	4828
698.491	4954
698.518	5003
698.532	4972
698.573	4850
698.614	4707
698.638	4625
698.656	4674
698.697	4725
698.738	4795
698.757	4804
698.779	4720
698.820	4552
698.862	4366
698.877	4286
698.903	4524
698.944	4878
698.985	5232
698.996	5316
699.026	5091
699.067	4759
699.116	4349
699.235	4778
699.354	4764
699.474	4018
699.593	4969
699.713	4606
699.832	5478
699.951	5817
700.070	6334
700.190	4636
700.309	4920
700.428	4422
700.547	4904
700.667	4367
700.786	4753
700.905	5222
701.024	4917
701.143	3333
701.262	4689
701.381	4095
701.500	4982
701.619	6898
701.738	4576
701.857	4394
701.976	4458
702.095	4994
702.214	5794
702.333	5907
702.452	5401
702.571	3725
702.690	4561
702.809	3969
702.928	4478
703.047	4107
703.165	4497
703.284	4256
703.403	3880
703.522	4431
703.640	4679
703.759	5959
703.878	5248
703.997	3811
704.115	3932
704.234	4584
704.353	4170
704.471	4277
704.590	2957
704.708	4173
704.827	3075
704.946	2964
705.064	3026
705.183	3716
705.301	3687
705.420	3527
705.538	3862
705.656	3479
705.775	3941
705.893	4813
706.012	5266
706.130	3685
706.249	4416
706.367	3860
706.485	3242
706.604	3113
706.722	4672
706.840	3853
706.958	4500
707.077	3078
707.195	3452
707.313	3324
707.431	4383
707.549	2994
707.668	3048
707.786	3416
707.904	2988
708.022	3346
708.140	3671
708.258	3541
708.376	4019
708.494	2452
708.612	3178
708.730	3881
708.848	4124
708.966	3851
709.084	4374
709.202	3720
709.320	3771
709.438	2468
709.556	4058
709.674	4101
709.791	2874
709.909	2465
710.027	2166
710.145	3299
710.263	2861
710.380	2246
710.498	2797
710.616	2415
710.733	3132
710.851	3096
710.969	2562
711.086	3070
711.204	3036
711.322	2783
711.439	3067
711.557	2546
711.674	2736
711.792	3799
711.909	3399
712.027	2035
712.144	2917
712.262	3173
712.379	3535
712.497	2518
712.614	3760
712.732	3694
712.849	3529
712.966	4285
713.084	6365
713.201	3519
713.318	3853
713.436	4656
713.553	3782
713.670	4257
713.787	3679
713.905	3070
714.022	3470
714.139	3963
714.256	5902
714.373	9483
714.490	21424
714.608	66802
714.725	299089
714.842	230115
714.959	12291
715.076	6198
715.193	4102
715.310	4924
715.427	3676
715.544	3840
715.661	4032
715.778	3459
715.895	3887
716.011	2776
716.128	2616
716.245	3713
716.362	6260
716.479	5623
716.596	3198
716.713	3303
716.829	3309
716.946	3234
717.063	2566
717.180	1881
717.296	2333
717.413	2658
717.530	2834
717.646	2592
717.763	2486
717.880	2520
717.996	2555
718.113	3465
718.229	2541
718.346	2534
718.462	2180
718.579	5819
718.695	12924
718.812	5479
718.928	3625
719.045	2400
719.161	2020
719.277	3086
719.394	3339
719.510	3173
719.626	3314
719.743	4421
719.859	7612
719.975	16651
720.092	80124
720.208	154652
720.324	12865
720.440	3495
720.557	4868
720.673	9920
720.789	6178
720.905	6098
721.021	2758
721.137	3059
721.253	2509
721.369	1756
721.486	2755
721.602	2895
721.718	2550
721.834	1584
721.950	2502
722.066	1982
722.181	2239
722.297	2627
722.413	2738
722.529	2602
722.645	1860
722.761	2011
722.877	1281
722.993	1416
723.108	2977
723.224	1722
723.340	2270
723.456	2293
723.571	2283
723.687	2754
723.803	1968
723.918	1639
724.034	565
724.150	3153
724.265	1975
724.381	2346
724.497	2998
724.612	1719
724.728	1400
724.843	1894
724.959	2117
725.074	3308
725.190	2672
725.305	2498
725.421	2578
725.536	1977
725.651	1743
725.767	996
725.882	1839
725.997	1663
726.113	2566
726.228	1323
726.343	1456
726.459	2197
726.574	1436
726.689	2070
726.804	931
726.920	1158
727.035	1650
727.150	1683
727.265	1891
727.380	2039
727.495	2123
727.610	1649
727.725	1955
727.841	2046
727.956	2657
728.071	2568
728.186	1758
728.301	1507
728.416	2461
728.531	1985
728.645	1669
728.760	3479
728.875	3736
728.990	4144
729.105	1918
729.220	2745
729.335	2769
729.449	1907
729.564	1827
729.679	1065
729.794	1496
729.908	1430
730.023	2371
730.138	1015
730.253	1809
730.367	1060
730.482	1607
730.596	2322
730.711	2377
730.826	3077
730.940	1570
731.055	2246
731.169	1893
731.284	1435
731.398	1436
731.513	1260
731.627	1698
731.742	1598
731.856	3128
731.970	2232
732.085	4129
732.199	4531
732.313	9310
732.428	26620
732.542	90061
732.656	39984
732.771	6162
732.885	2226
732.999	2831
733.113	3302
733.227	2582
733.342	2571
733.456	3155
733.570	2102
733.684	2413
733.798	2242
733.912	1679
734.026	1712
734.140	2928
734.254	1513
734.368	2527
734.482	2823
734.596	2546
734.710	2902
734.824	1975
734.938	2428
735.052	1843
735.166	2617
735.280	2851
735.393	2290
735.507	2858
735.621	3207
735.735	2699
735.849	1759
735.962	1754
736.076	2011
736.190	1887
736.303	2624
736.417	2710
736.531	1416
736.644	2019
736.758	1255
736.872	2268
736.985	2132
737.099	1398
737.212	560
737.326	2403
737.439	2453
737.553	1832
737.666	2125
737.780	1202
737.893	1248
738.007	1356
738.120	1893
738.233	1990
738.347	1326
738.460	3020
738.573	2361
738.687	2615
738.800	2719
738.913	3786
739.026	1940
739.140	2402
739.253	1150
739.366	2057
739.479	1680
739.592	1260
739.705	1035
739.818	3078
739.932	2058
740.045	3913
740.158	1943
740.271	1672
740.384	1409
740.497	2754
740.610	2606
740.723	2381
740.836	2881
740.949	3306
741.062	3666
741.174	2990
741.287	1482
741.400	1900
741.513	2624
741.626	3472
741.739	1835
741.851	2234
741.964	2301
742.077	2359
742.189	2679
742.302	3235
742.415	3263
742.527	1639
742.640	1934
742.753	2011
742.865	621
742.978	1982
743.090	1181
743.203	1103
743.316	1472
743.428	1119
743.541	1590
743.653	1900
743.766	1747
743.878	1025
743.990	1105
744.103	2315
744.215	2194
744.327	2179
744.440	2922
744.552	5037
744.664	1560
744.777	871
744.889	337
745.001	1795
745.113	908
745.226	827
745.338	1657
745.450	1141
745.562	769
745.674	1445
745.786	981
745.898	1541
746.010	1574
746.122	1643
746.234	2427
746.347	1448
746.459	1178
746.570	1693
746.682	1830
746.794	3039
746.906	1546
747.018	906
747.130	1132
747.242	2274
747.354	1005
747.466	1464
747.577	1390
747.689	1231
747.801	483
747.913	886
748.024	1017
748.136	1217
748.248	1103
748.359	905
748.471	478
748.583	597
748.694	903
748.806	2303
748.918	346
749.029	987
749.141	2255
749.252	1436
749.364	1972
749.475	5905
749.587	1342
749.698	1333
749.809	1128
749.921	767
750.032	693
750.144	479
750.255	666
750.366	401
750.478	251
750.589	1063
750.700	1208
750.811	995
750.923	2386
751.034	7759
751.145	6133
751.256	896
751.367	910
751.479	907
751.590	619
751.701	429
751.812	252
751.923	995
752.034	537
752.145	-162
752.256	1128
752.367	1062
752.478	1623
752.589	396
752.700	978
752.811	719
752.922	849
753.032	1018
753.143	1738
753.254	1091
753.365	1862
753.476	430
753.586	369
753.697	439
753.808	706
753.919	265
754.029	1064
754.140	320
754.251	262
754.361	547
754.472	803
754.582	1183
754.693	1390
754.804	1046
754.914	-356
755.025	771
755.135	87
755.246	229
755.356	216
755.466	799
755.577	918
755.687	687
755.798	589
755.908	801
756.018	-39
756.129	1458
756.239	827
756.349	1335
756.460	748
756.570	1345
756.680	1012
756.790	862
756.900	1054
757.011	664
757.121	470
757.231	882
757.341	1078
757.451	-100
757.561	406
757.671	616
757.781	-558
757.891	987
758.001	-72
758.111	850
758.221	1021
758.331	1682
758.441	1075
758.551	2966
758.661	2435
758.771	785
758.880	273
758.990	447
759.100	814
759.210	927
759.320	792
759.429	699
759.539	1155
759.649	1217
759.758	115
759.868	973
759.978	917
760.087	1117
760.197	1103
760.307	1472
760.416	867
760.526	161
760.635	297
760.745	869
760.854	1348
760.964	1302
761.073	562
761.182	1453
761.292	874
761.401	1383
761.511	38
761.620	187
761.729	484
761.839	230
761.948	655
762.057	1258
762.166	247
762.276	199
762.385	1265
762.494	905
762.603	1087
762.712	364
762.822	463
762.931	403
763.040	6
763.149	271
763.258	408
763.367	614
763.476	-68
763.585	912
763.694	1021
763.803	430
763.912	474
764.021	422
764.130	-46
764.238	641
764.347	1403
764.456	355
764.565	770
764.674	585
764.783	124
764.891	543
765.000	1409
765.109	1520
765.217	1109
765.326	2465
765.435	2975
765.543	2999
765.652	3272
765.761	2943
765.869	5380
765.978	8509
766.086	16756
766.195	36227
766.303	109401
766.412	293314
766.520	169525
766.629	36066
766.737	13554
766.846	6642
766.954	4900
767.062	4433
767.171	2814
767.279	2404
767.387	1103
767.496	2483
767.604	1423
767.712	867
767.820	2054
767.928	1409
768.037	542
768.145	759
768.253	810
768.361	1250
768.469	774
768.577	978
768.685	1755
768.793	813
768.901	767
769.009	1968
769.117	1087
769.225	1734
769.333	3583
769.441	7102
769.549	13965
769.657	37821
769.765	137213
769.873	207908
769.981	46678
770.088	10311
770.196	4590
770.304	4031
770.412	3350
770.519	574
770.627	1696
770.735	1041
770.842	1718
770.950	2293
771.058	1052
771.165	876
771.273	1734
771.380	1724
771.488	1381
771.595	1416
771.703	462
771.810	1642
771.918	866
772.025	1367
772.133	1788
772.240	1198
772.348	2078
772.455	1769
772.562	1019
772.670	658
772.777	714
772.884	865
772.991	1304
773.099	2216
773.206	219
773.313	2138
773.420	2162
773.528	545
773.635	826
773.742	1125
773.849	1846
773.956	849
774.063	-141
774.170	850
774.277	987
774.384	416
774.491	665
774.598	1009
774.705	1674
774.812	1878
774.919	1982
775.026	1247
775.133	1090
775.239	795
775.346	41
775.453	1021
775.560	853
775.667	1569
775.773	-343
775.880	1685
775.987	1267
776.093	732
776.200	522
776.307	482
776.413	1259
776.520	3
776.627	985
776.733	1076
776.840	-4
776.946	3167
777.053	2441
777.159	5788
777.266	1684
777.372	5476
777.478	4207
777.585	1968
777.691	647
777.798	1290
777.904	1605
778.010	2831
778.117	1137
778.223	799
778.329	51
778.435	532
778.542	1080
778.648	982
778.754	524
778.860	242
778.966	416
779.072	878
779.178	280
779.284	681
779.391	444
779.497	-493
779.603	1982
779.708	48
779.815	538
779.920	1855
780.026	1708
780.132	-258
780.238	2
780.344	261
780.450	1134
780.556	-33
780.661	419
780.767	388
780.873	-144
780.979	1628
781.085	201
781.190	-177
781.296	-23
781.402	-449
781.507	-709
781.613	892
781.719	335
781.824	770
781.930	376
782.035	555
782.141	560
782.246	-274
782.352	381
782.457	429
782.563	-440
782.668	-132
782.773	-93
782.879	250
782.984	343
783.090	1169
783.195	2902
783.300	1098
783.405	238
783.511	152
783.616	380
783.721	385
783.826	405
783.932	566
784.037	-201
784.142	708
784.247	147
784.352	349
784.457	-589
784.562	709
784.667	-365
784.772	372
784.877	-497
784.982	180
785.087	-205
785.192	637
785.297	-196
785.402	277
785.507	-53
785.611	456
785.716	-72
785.821	481
785.926	581
786.031	-242
786.135	-510
786.240	557
786.345	-1473
786.450	676
786.554	394
786.659	5
786.763	-826
786.868	159
786.973	599
787.077	28
787.182	-479
787.286	-392
787.391	210
787.495	-209
787.600	-271
787.704	361
787.809	-233
787.913	-589
788.017	78
788.122	-163
788.226	198
788.330	-797
788.435	-844
788.539	-459
788.643	-1040
788.747	-257
788.852	-420
788.956	-315
789.060	-407
789.164	-62
789.268	-949
789.372	617
789.476	-929
789.580	-514
789.684	-781
789.788	241
789.892	24
789.996	582
790.100	-23
790.204	-19
790.308	24
790.412	-705
790.516	-732
790.620	-648
790.724	-258
790.828	-496
790.931	-1072
791.035	946
791.139	-402
791.242	-542
791.346	185
791.450	-227
791.554	181
791.657	-561
791.761	-68
791.864	-164
791.968	-203
792.072	735
792.175	-479
792.279	-504
792.382	-287
792.486	-112
792.589	-1051
792.693	-141
792.796	-308
792.899	-21
793.003	342
793.106	-989
793.209	143
793.313	1287
793.416	-1287
793.519	1267
793.623	2156
793.726	2440
793.829	1214
793.932	923
794.035	-416
794.138	1906
794.242	-117
794.345	620
794.448	1048
794.551	1586
794.654	2723
794.757	1228
794.860	-330
794.963	-121
795.066	-973
795.169	311
795.272	-632
795.375	220
795.477	-1441
795.580	-372
795.683	-1809
795.786	105
795.889	-1818
795.991	434
796.094	-332
796.197	-1888
796.300	249
796.402	135
796.505	-469
796.608	-441
796.710	69
796.813	-228
796.915	40
797.018	65
797.120	231
797.223	-1365
797.326	576
797.428	-926
797.530	-1572
797.633	-380
797.735	657
797.838	-909
797.940	716
798.042	-551
798.145	-577
798.247	110
798.349	-1252
798.452	79
798.554	-324
798.656	-792
798.758	444
798.860	-317
798.962	-763
799.065	-200
799.167	-764
799.269	311
799.371	462
799.473	566
799.575	-1262
799.677	-10
799.779	1552
799.881	541
799.983	362
800.085	-352
800.187	-477
800.289	-1049
800.390	-689
800.492	605
800.594	342
800.696	-175
800.798	-383
800.899	-1263
801.001	-572
801.103	-240
801.205	-852
801.306	-1027
801.408	-1268
801.509	-571
801.611	-269
801.713	61
801.814	-650
801.916	-261
802.017	-479
802.119	-1522
802.220	-85
802.322	-2117
802.423	1573
802.525	-1848
802.626	-602
802.727	-379
802.829	-404
802.930	-2679
803.031	639
803.133	-310
803.234	-1132
803.335	-248
803.436	-1256
803.538	-602
803.639	-1449
803.740	106
803.841	-905
803.942	440
804.043	-494
804.144	-1015
804.245	-587
804.346	-1191
804.447	-1205
804.548	967
804.649	1416
804.750	-754
804.851	-1360
804.952	-893
805.053	-659
805.154	-718
805.255	-279
805.355	-893
805.456	-710
805.557	-1220
805.658	-1577
805.758	417
805.859	-484
805.960	-641
806.061	-1344
806.161	-2008
806.262	83
806.362	-1013
806.463	-900
806.564	-984
806.664	-819
806.765	-677
806.865	-1040
806.966	-1650
807.066	-942
807.166	-656
807.267	464
807.367	-289
807.468	-285
807.568	-1517
807.668	245
807.769	-316
807.869	-669
807.969	-638
808.069	-1113
808.170	-475
808.270	-504
808.370	-155
808.470	285
808.570	-1220
808.670	-537
808.770	-140
808.870	-1211
808.970	-350
809.070	-881
809.170	-1054
809.271	-278
809.370	-1271
809.470	-877
809.570	-1062
809.670	-766
809.770	-800
809.870	325
809.970	-734
810.070	-249
810.169	-736
810.269	-1772
810.369	825
810.469	-493
810.568	-899
810.668	-625
810.768	-701
810.867	-883
810.967	-890
811.066	-676
811.166	-1212
811.265	-496
811.365	-498
811.464	-1295
811.564	-1039
811.663	-1036
811.763	-2097
811.862	-640
811.962	-848
812.061	-766
812.160	-1037
812.260	-902
812.359	-668
812.458	-1691
812.557	-689
812.657	-1626
812.756	-650
812.855	-1445
812.954	-975
813.053	-549
813.153	-602
813.252	-2052
813.351	-1226
813.450	-1559
813.549	-707
813.648	-340
813.747	-956
813.846	-289
813.945	-1603
814.044	-1192
814.143	-803
814.242	-556
814.341	-744
814.439	-827
814.538	-729
814.637	-967
814.736	-522
814.835	-1033
814.933	-882
815.032	-227
815.131	-688
815.229	-338
815.328	840
815.427	-786
815.525	-230
815.624	50
815.722	-516
815.821	-529
815.919	-624
816.018	-825
816.116	256
816.215	-957
816.313	-943
816.412	-792
816.510	-259
816.609	875
816.707	516
816.805	146
816.904	-354
817.002	787
817.100	746
817.198	-138
817.296	-568
817.395	-37
817.493	506
817.591	-937
817.689	241
817.787	-47
817.885	953
817.983	2868
818.081	7179
818.179	20032
818.277	50884
818.375	31074
818.473	6331
818.571	1901
818.669	1443
818.767	1965
818.865	1621
818.963	1860
819.061	2622
819.158	6602
819.256	17237
819.354	43849
819.452	99478
819.549	41126
819.647	7539
819.745	1910
819.842	1865
819.940	718
820.038	151
820.135	24
820.233	949
820.330	128
820.428	-227
820.525	1278
820.623	-116
820.720	-908
820.818	-154
820.915	527
821.012	497
821.110	-1022
821.207	402
821.304	116
821.402	-342
821.499	712
821.596	1379
821.693	826
821.791	867
821.888	121
821.985	3976
822.082	992
822.179	-498
822.276	300
822.373	120
822.470	-102
822.567	-792
822.664	-1116
822.761	-169
822.858	-1232
822.955	395
823.052	302
823.149	-402
823.246	-651
823.343	-862
823.440	576
823.536	-627
823.633	-589
823.730	-502
823.827	-497
823.923	-808
824.020	487
824.117	-475
824.213	-956
824.310	226
824.407	-965
824.503	-495
824.600	125
824.696	-1043
824.793	615
824.889	-1220
824.986	-297
825.082	-82
825.179	220
825.275	-217
825.371	-423
825.468	-509
825.564	-1261
825.660	111
825.757	-1164
825.853	-891
825.949	-503
826.045	-870
826.142	-1310
826.238	-373
826.334	-953
826.430	-1296
826.526	-603
826.622	-1030
826.718	-388
826.814	-1211
826.910	-371
827.006	-1136
827.102	-659
827.198	242
827.294	-1035
827.390	-187
827.486	250
827.582	-1682
827.678	-1815
827.774	261
827.869	-1862
827.965	279
828.061	-1395
828.157	-733
828.252	-1122
828.348	-1919
828.444	-214
828.539	-1553
828.635	-737
828.731	-334
828.826	-725
828.922	597
829.017	-1114
829.113	249
829.208	-1209
829.304	-2072
829.399	112
829.495	-701
829.590	257
829.685	-990
829.781	-239
829.876	-1014
829.971	-1085
830.066	-1431
830.162	-567
830.257	-1848
830.352	-1548
830.447	-283
830.543	-568
830.638	-2084
830.733	-859
830.828	-1215
830.923	-591
831.018	-525
831.113	-507
831.208	-1445
831.303	-1081
831.398	-143
831.493	-406
831.588	-521
831.683	-1604
831.778	-1153
831.873	-663
831.967	250
832.062	-1084
832.157	-1239
832.252	164
832.346	-1152
832.441	-202
832.536	215
832.631	1999
832.725	1515
832.820	-437
832.914	-586
833.009	-766
833.104	327
833.198	407
833.293	-805
833.387	-879
833.482	-693
833.576	-958
833.670	-269
833.765	-906
833.859	-1282
833.954	3
834.048	-433
834.142	-486
834.237	-1189
834.331	-891
834.425	-1277
834.519	-1562
834.613	42
834.708	-1130
834.802	-744
834.896	-1977
834.990	-1508
835.084	-602
835.178	-569
835.272	-766
835.366	-1252
835.460	-463
835.554	-1001
835.648	-660
835.742	-773
835.836	-1156
835.930	-2107
836.024	-1013
836.117	-406
836.211	-1027
836.305	-669
836.399	-357
836.493	-1318
836.586	-528
836.680	-1210
836.774	-780
836.867	-225
836.961	-1656
837.055	-1825
837.148	-633
837.242	-1063
837.335	-819
837.429	-625
837.522	-891
837.616	-1072
837.709	-71
837.803	-1255
837.896	-662
837.989	-1210
838.083	-1163
838.176	-673
838.269	-1447
838.363	-733
838.456	-782
838.549	-258
838.642	418
838.735	2508
838.829	817
838.922	-1500
839.015	-1433
839.108	-1028
839.201	-523
839.294	-960
839.387	-1593
839.480	-2363
839.573	-685
839.666	-892
839.759	-1585
839.852	-2059
839.945	-1607
840.038	-1806
840.131	-1205
840.223	-1346
840.316	-1128
840.409	-1249
840.502	-1812
840.594	-484
840.687	-1718
840.780	-1733
840.873	-842
840.965	-1139
841.058	-1676
841.150	-1322
841.243	-1990
841.336	-426
841.428	-1130
841.521	-1723
841.613	-1568
841.706	-982
841.798	-1271
841.890	-1043
841.983	-2348
842.075	-784
842.167	-839
842.260	-1264
842.352	-1245
842.444	-1273
842.537	-1161
842.629	-1263
842.721	-1430
842.813	-306
842.905	-1465
842.997	-1132
843.090	-1156
843.182	-1427
843.274	-772
843.366	781
843.458	-455
843.550	-342
843.642	-1421
843.734	-425
843.826	-1953
843.918	-546
844.009	-777
844.101	-1478
844.193	-1375
844.285	-1047
844.377	-556
844.469	635
844.560	580
844.652	5
844.744	-1052
844.835	-750
844.927	-1505
845.019	-1497
845.110	-1257
845.202	-1463
845.293	-961
845.385	-1774
845.476	-281
845.568	-775
845.659	-1837
845.751	-1075
845.842	-1432
845.934	-590
846.025	-1007
846.116	-372
846.208	-1642
846.299	-1475
846.390	-501
846.482	-1261
846.573	-988
846.664	-1220
846.755	-646
846.846	-321
846.937	-1319
847.029	-1538
847.120	-1530
847.211	-1439
847.302	-997
847.393	-1692
847.484	-461
847.575	-791
847.666	-1596
847.757	-1463
847.847	-1854
847.938	-832
848.029	-1147
848.120	-1607
848.211	-1449
848.302	-1179
848.392	-1722
848.483	-280
848.574	-1642
848.664	-2226
848.755	-1614
848.846	-236
848.936	-1726
849.027	-773
849.118	-1192
849.208	-999
849.299	-134
849.389	1847
849.480	4999
849.570	13429
849.661	27609
849.751	45993
849.841	12116
849.932	157
850.022	-897
850.112	-472
850.203	-772
850.293	-941
850.383	-184
850.474	-1484
850.564	-918
850.654	-819
850.744	-1245
850.834	-947
850.924	-1369
851.014	-886
851.104	-1093
851.194	-1072
851.284	-1492
851.374	-554
851.464	-665
851.554	-1704
851.644	-1273
851.734	-1755
851.824	-1642
851.914	-1307
852.004	-1311
852.094	-755
852.183	-1052
852.273	-937
852.363	-943
852.452	-1563
852.542	-1502
852.632	-1846
852.721	-990
852.811	-1306
852.901	-1167
852.990	-800
853.080	-629
853.169	-648
853.259	-553
853.348	-758
853.438	-8
853.527	1697
853.617	2492
853.706	7445
853.795	15395
853.885	40839
853.974	80361
854.063	154242
854.152	225024
854.242	70941
854.331	10039
854.420	3184
854.509	2172
854.598	1954
854.687	434
854.777	915
854.866	-78
854.955	345
855.044	-834
855.133	-908
855.222	-1212
855.311	-800
855.400	167
855.488	-661
855.577	-1199
855.666	-1108
855.755	-201
855.844	-948
855.933	-1571
856.021	-486
856.110	-164
856.199	-1637
856.288	-1534
856.376	-1279
856.465	-1928
856.554	-742
856.642	-1985
856.731	-982
856.819	-1609
856.908	-1000
856.996	-1556
857.085	-1845
857.173	-918
857.262	-1815
857.350	-1472
857.438	-890
857.527	-568
857.615	-1112
857.703	-887
857.792	-1294
857.880	-1548
857.968	-1434
858.056	-899
858.145	-1025
858.233	-1303
858.321	-1474
858.409	-236
858.497	-1765
858.585	-1531
858.673	-1073
858.761	-1960
858.849	-1444
858.937	-2059
859.025	-715
859.113	-1505
859.201	-1750
859.289	-1012
859.377	-1141
859.465	-828
859.552	-735
859.640	-1324
859.728	-603
859.816	-1619
859.903	-1468
859.991	-2670
860.079	-470
860.166	-1116
860.254	-2450
860.342	-908
860.429	-909
860.517	-1916
860.604	-1318
860.692	-980
860.779	-758
860.867	-1047
860.954	-1536
861.042	-1094
861.129	-1006
861.216	-1166
861.304	-1459
861.391	-775
861.478	-1654
861.565	-896
861.653	-1510
861.740	-1611
861.827	-1405
861.914	-594
862.001	-1046
862.089	-1607
862.176	-841
862.263	-1575
862.350	-1168
862.437	-1699
862.524	-2131
862.611	-1452
862.698	-331
862.785	-424
862.871	-711
862.958	-1691
863.045	-1404
863.132	-1137
863.219	-526
863.306	-1624
863.392	-1643
863.479	-890
863.566	-1488
863.652	-1590
863.739	-1158
863.826	-1321
863.912	-756
863.999	-2031
864.086	-960
864.172	-668
864.259	-1008
864.345	-1357
864.432	-1383
864.518	-1337
864.604	-1089
864.691	-1294
864.777	-218
864.863	-937
864.950	-217
865.036	-1163
865.122	512
865.209	671
865.295	693
865.381	169
865.467	305
865.553	2072
865.639	2649
865.726	8728
865.812	19039
865.898	40344
865.984	60950
866.070	118341
866.156	118650
866.242	25580
866.328	4672
866.414	1176
866.499	1103
866.585	1234
866.671	-248
866.757	307
866.843	56
866.928	-334
867.014	-606
867.100	-281
867.186	197
867.271	670
867.357	-13
867.442	-660
867.528	-615
867.614	522
867.699	-698
867.785	422
867.870	541
867.956	935
868.041	447
868.127	51
868.212	-268
868.297	-37
868.383	328
868.468	417
868.553	1487
868.639	651
868.724	3841
868.809	2509
868.894	-616
868.979	-674
869.065	-710
869.150	-1253
869.235	-1149
869.320	-1368
869.405	-892
869.490	-568
869.575	-1263
869.660	-1256
869.745	-574
869.830	-804
869.915	-526
870.000	-1573
870.085	-870
870.169	-737
870.254	-498
870.339	-1250
870.424	-1653
870.509	-1222
870.593	-1047
870.678	-2003
870.763	-344
870.847	-1082
870.932	-1258
871.016	-1046
871.101	-358
871.186	-1289
871.270	-402
871.355	-1270
871.439	-534
871.523	-897
871.608	-565
871.692	-1012
871.777	-169
871.861	-650
871.945	-509
872.030	-400
872.114	-678
872.198	-1279
872.282	-1419
872.367	-657
872.451	-1392
872.535	-1139
872.619	-673
872.703	-1248
872.787	-1296
872.871	-1165
872.955	-1009
873.039	-968
873.123	-959
873.207	-735
873.291	-916
873.375	-1156
873.459	-746
873.543	-1681
873.627	-1373
873.711	-1316
873.794	-230
873.878	-1522
873.962	-1397
874.045	-1461
874.129	-440
874.137	-492
874.213	-1007
874.245	-1009
874.296	-1020
874.352	-1050
874.380	-1059
874.460	-1533
874.464	-1553
874.547	-1275
874.568	-1073
874.631	-461
874.676	-761
874.714	-1027
874.784	-454
874.798	-337
874.881	997
874.892	765
874.965	-820
874.999	-696
875.048	-555
875.107	-782
875.131	-871
875.215	-1074
875.215	-1073
875.298	-925
875.323	-865
875.381	-676
875.430	-402
875.465	-210
875.538	-669
875.548	-739
875.631	-1799
875.646	-1754
875.714	-1573
875.753	-1632
875.798	-1688
875.861	-1301
875.881	-1180
875.964	-1911
875.968	-1864
876.047	-879
876.076	-603
876.130	-168
876.183	-428
876.213	-578
876.291	-501
876.296	-493
876.379	-1184
876.398	-1097
876.462	-842
876.506	-868
876.545	-887
876.613	-560
876.628	-482
876.711	-608
876.721	-614
876.794	-665
876.828	-856
876.877	-1182
876.935	-782
876.960	-582
877.043	-800
877.043	-798
877.125	-179
877.150	-338
877.208	-669
877.258	-157
877.291	121
877.365	-485
877.374	-546
877.456	-202
877.472	-252
877.539	-504
877.579	-558
877.622	-548
877.687	-266
877.704	-257
877.787	-716
877.794	-730
877.869	-491
877.901	-512
877.952	-622
878.008	-735
878.034	-819
878.115	-470
878.117	-462
878.199	-587
878.222	-702
878.282	-842
878.329	-605
878.364	-464
878.437	-158
878.447	-140
878.529	-585
878.544	-601
878.611	-480
878.651	-634
878.694	-803
878.758	-429
878.776	-316
878.858	-678
878.865	-623
878.941	-135
878.972	-467
879.023	-1004
879.078	-1034
879.105	-918
879.185	209
879.187	223
879.269	-211
879.292	-445
879.351	-791
879.399	-367
879.433	-78
879.506	-196
879.516	-225
879.598	-882
879.613	-931
879.680	-1009
879.720	-516
879.762	-82
879.827	-445
879.844	-527
879.926	126
879.933	154
880.007	569
880.040	607
880.089	683
880.147	1548
880.171	1960
880.253	4407
880.254	4424
880.335	7463
880.360	8311
880.417	11543
880.467	18156
880.499	22865
880.574	26692
880.580	26176
880.662	7993
880.680	5855
880.744	1599
880.787	-145
880.825	-632
880.893	-238
880.907	-200
880.989	-570
881.000	-675
881.070	-926
881.106	-578
881.152	-49
881.213	270
881.233	260
881.315	-59
881.319	-63
881.396	78
881.426	-156
881.478	-709
881.532	-467
881.559	-277
881.639	-611
881.641	-612
881.722	82
881.745	-30
881.803	-415
881.852	-259
881.885	-232
881.958	-444
881.966	-424
882.047	-92
882.064	-46
882.129	-65
882.171	-117
882.210	-92
882.277	401
882.291	499
882.372	-252
882.383	-250
882.454	-246
882.489	-254
882.535	-366
882.596	-586
882.616	-503
882.697	156
882.702	147
882.778	-512
882.808	-495
882.859	-365
882.914	-253
882.940	-100
883.020	-155
883.021	-155
883.102	-344
883.127	-525
883.183	-666
883.233	-603
883.264	-556
883.339	-200
883.345	-162
883.426	-670
883.445	-541
883.507	-121
883.551	-11
883.587	53
883.657	-150
883.668	-114
883.749	264
883.763	387
883.830	-367
883.869	-976
883.910	-719
883.975	-265
883.991	-258
884.072	-139
884.081	-133
884.152	206
884.187	189
884.233	-105
884.292	-229
884.314	-275
884.394	-563
884.398	-576
884.475	-402
884.504	-311
884.555	-135
884.610	-225
884.636	-302
884.716	-71
884.716	-65
884.797	-58
884.821	-196
884.877	-138
884.927	120
884.958	-37
885.033	-188
885.038	-180
885.118	-562
885.139	-651
885.199	-495
885.244	-201
885.279	-29
885.350	-33
885.359	-37
885.439	95
885.456	109
885.520	320
885.561	556
885.600	389
885.667	-399
885.680	-365
885.760	296
885.773	365
885.840	302
885.878	331
885.920	199
885.984	-90
886.000	-38
886.080	129
886.089	133
886.160	-155
886.195	-146
886.240	91
886.300	159
886.320	139
886.400	197
886.406	195
886.480	476
886.511	552
886.560	609
886.616	612
886.640	488
886.720	132
886.722	117
886.800	97
886.827	144
886.879	-22
886.932	-411
886.959	-289
887.038	225
887.039	231
887.119	138
887.143	137
887.198	-139
887.248	-413
887.278	-172
887.354	219
887.358	228
887.437	498
887.459	540
887.517	331
887.564	138
887.596	71
887.669	-83
887.676	-51
887.755	264
887.774	347
887.835	422
887.880	502
887.914	412
887.985	-61
887.994	-22
888.073	501
888.090	599
888.153	689
888.195	711
888.232	673
888.300	638
888.311	710
888.391	1125
888.405	1189
888.470	717
888.510	401
888.549	290
888.615	140
888.628	193
888.708	489
888.720	517
888.787	548
888.825	569
888.866	329
888.930	16
888.945	40
889.024	66
889.035	65
889.103	-68
889.140	-116
889.182	312
889.245	891
889.261	820
889.340	453
889.349	410
889.419	756
889.454	907
889.498	849
889.559	760
889.577	670
889.656	267
889.664	226
889.735	619
889.768	806
889.814	744
889.873	657
889.978	-343
890.083	397
890.187	734
890.292	-228
890.397	443
890.501	525
890.606	890
890.710	481
890.815	1031
890.919	115
891.024	882
891.128	645
891.233	1229
891.337	427
891.442	352
891.546	1012
891.650	-354
891.755	-81
891.859	1598
891.963	424
892.068	937
892.172	263
892.276	642
892.380	841
892.484	396
892.589	281
892.693	667
892.797	209
892.901	365
893.005	404
893.109	975
893.213	983
893.317	870
893.421	578
893.525	57
893.629	503
893.733	508
893.837	-47
893.941	262
894.045	117
894.148	311
894.252	262
894.356	561
894.460	935
894.564	809
894.667	1130
894.771	42
894.875	-69
894.978	-9
895.082	435
895.186	407
895.289	447
895.393	-243
895.496	886
895.600	17
895.703	359
895.807	321
895.910	875
896.014	405
896.117	240
896.221	608
896.324	-255
896.427	717
896.531	-384
896.634	485
896.737	144
896.840	-132
896.944	529
897.047	-60
897.150	352
897.253	784
897.356	441
897.460	329
897.563	-352
897.666	711
897.769	-401
897.872	877
897.975	150
898.078	-202
898.181	-194
898.284	1723
898.387	1253
898.490	844
898.593	198
898.695	458
898.798	138
898.901	165
899.004	907
899.107	307
899.209	174
899.312	781
899.415	198
899.518	-300
899.620	293
899.723	512
899.826	476
899.928	1669
900.031	914
900.133	74
900.236	-223
900.338	548
900.441	621
900.543	554
900.646	-7
900.748	465
900.851	169
900.953	660
901.055	292
901.158	516
901.260	-533
901.362	512
901.465	369
901.567	147
901.669	1047
901.771	215
901.873	724
901.976	351
902.078	-316
902.180	199
902.282	530
902.384	17
902.486	-52
902.588	499
902.690	109
902.792	2
902.894	307
902.996	509
903.098	141
903.200	204
903.302	351
903.404	296
903.505	-253
903.607	1609
903.709	487
903.811	771
903.913	509
904.014	367
904.116	-33
904.218	745
904.319	335
904.421	560
904.523	725
904.624	870
904.726	527
904.827	112
904.929	418
905.030	291
905.132	126
905.233	81
905.335	347
905.436	22
905.537	446
905.639	504
905.740	-349
905.841	403
905.943	339
906.044	115
906.145	130
906.247	361
906.348	130
906.449	-85
906.550	-76
906.651	880
906.752	472
906.854	292
906.955	-239
907.056	140
907.157	-160
907.258	71
907.359	-352
907.460	250
907.561	-336
907.662	-497
907.762	249
907.863	550
907.964	337
908.065	592
908.166	-45
908.267	649
908.367	-355
908.468	395
908.569	363
908.670	772
908.770	629
908.871	1121
908.971	819
909.072	-401
909.173	917
909.273	19
909.374	482
909.474	-421
909.575	-36
909.675	-701
909.776	615
909.876	92
909.977	-313
910.077	949
910.177	372
910.278	500
910.378	247
910.478	343
910.579	187
910.679	667
910.779	336
910.879	664
910.980	340
911.080	-31
911.180	-639
911.280	-535
911.380	464
911.480	647
911.580	169
911.680	455
911.780	809
911.880	-308
911.980	-130
912.080	431
912.180	802
912.280	85
912.380	-156
912.480	-806
912.580	-420
912.679	-22
912.779	811
912.879	487
912.979	1101
913.078	150
913.178	425
913.278	-28
913.377	-365
913.477	780
913.577	-821
913.676	477
913.776	616
913.875	-56
913.975	368
914.074	702
914.174	1175
914.273	-109
914.373	244
914.472	406
914.572	193
914.671	295
914.770	-151
914.870	315
914.969	81
915.068	160
915.167	361
915.267	212
915.366	66
915.465	-202
915.564	333
915.663	-208
915.763	811
915.862	21
915.961	654
916.060	258
916.159	-123
916.258	337
916.357	173
916.456	496
916.555	412
916.654	-160
916.752	568
916.851	78
916.950	427
917.049	1163
917.148	-234
917.247	-102
917.345	298
917.444	-932
917.543	-364
917.642	436
917.740	17
917.839	307
917.937	653
918.036	179
918.135	-10
918.233	-216
918.332	460
918.430	890
918.529	-371
918.627	348
918.726	621
918.824	-130
918.923	86
919.021	425
919.119	-261
919.218	32
919.316	260
919.414	232
919.512	227
919.611	-77
919.709	590
919.807	259
919.905	521
920.003	928
920.102	-787
920.200	59
920.298	539
920.396	264
920.494	383
920.592	-619
920.690	387
920.788	-69
920.886	609
920.984	470
921.082	44
921.180	609
921.277	-45
921.375	417
921.473	495
921.571	650
921.669	457
921.766	908
921.864	1014
921.962	483
922.060	-90
922.157	653
922.255	328
922.352	437
922.450	951
922.548	338
922.645	626
922.743	1357
922.840	1533
922.938	1309
923.035	1870
923.133	1432
923.230	1657
923.327	1759
923.425	1879
923.522	1326
923.619	1754
923.717	1350
923.814	1618
923.911	642
924.008	1962
924.106	709
924.203	1854
924.300	836
924.397	1055
924.494	1462
924.591	1678
924.688	673
924.786	1409
924.883	1273
924.979	875
925.077	1688
925.173	845
925.270	1584
925.367	1628
925.464	1186
925.561	1271
925.658	1616
925.755	1837
925.852	1258
925.948	1552
926.045	2021
926.142	1882
926.239	1600
926.335	1396
926.432	1751
926.529	2134
926.625	2381
926.722	1504
926.818	1263
926.915	1683
927.011	466
927.108	1754
927.204	1398
927.301	1302
927.397	1270
927.494	702
927.590	560
927.687	763
927.783	1557
927.879	417
927.976	904
928.072	958
928.168	795
928.264	786
928.361	549
928.457	1475
928.553	1106
928.649	1074
928.745	1454
928.841	695
928.937	732
929.033	642
929.129	1091
929.225	1307
929.321	784
929.417	780
929.513	903
929.609	536
929.705	-129
929.801	1161
929.897	460
929.993	699
930.089	724
930.184	1017
930.280	1833
930.376	754
930.471	546
930.567	824
930.663	893
930.758	53
930.854	944
930.950	307
931.045	619
931.141	966
931.236	1443
931.332	149
931.427	139
931.523	727
931.618	977
931.714	190
931.809	1298
931.905	298
932.000	-19
932.095	560
932.191	1296
932.286	1743
932.381	747
932.476	598
932.572	176
932.667	263
932.762	398
932.857	517
932.952	795
933.047	370
933.142	571
933.237	770
933.332	1061
933.427	642
933.522	-226
933.617	838
933.712	1029
933.807	821
933.902	496
933.997	779
934.092	414
934.187	326
934.282	859
934.376	1018
934.471	-60
934.566	1216
934.661	1048
934.755	944
934.850	901
934.945	-33
935.039	113
935.134	1024
935.228	601
935.323	617
935.417	-296
935.512	301
935.606	711
935.701	31
935.795	578
935.890	743
935.984	855
936.079	818
936.173	392
936.267	344
936.362	299
936.456	14
936.550	665
936.644	663
936.738	-717
936.833	980
936.927	432
937.021	-617
937.115	344
937.209	-539
937.303	1057
937.397	-450
937.491	167
937.585	1024
937.679	267
937.773	879
937.867	62
937.961	-542
938.055	1369
938.149	1038
938.243	70
938.337	607
938.430	588
938.524	192
938.618	1060
938.712	502
938.805	772
938.899	-3
938.993	1426
939.086	-234
939.180	5
939.274	1825
939.367	1285
939.461	694
939.554	-7
939.648	-107
939.741	312
939.835	1214
939.928	527
940.022	387
940.115	851
940.208	1400
940.302	577
940.395	1010
940.488	-703
940.582	804
940.675	-158
940.768	-526
940.861	543
940.954	653
941.048	643
941.141	1050
941.234	963
941.327	1427
941.420	2794
941.513	1151
941.606	269
941.699	492
941.792	449
941.885	445
941.978	841
942.071	295
942.164	-208
942.257	-435
942.349	577
942.442	287
942.535	22
942.628	897
942.721	-21
942.813	-969
942.906	454
942.999	-609
943.091	-512
943.184	523
943.277	-419
943.369	-26
943.462	-159
943.554	264
943.647	287
943.739	850
943.832	-145
943.924	-724
944.017	-266
944.109	-598
944.201	746
944.294	262
944.386	247
944.478	101
944.571	-194
944.663	622
944.755	-129
944.847	455
944.940	-194
945.032	-136
945.124	586
945.216	987
945.308	-123
945.400	548
945.492	169
945.584	643
945.676	-96
945.768	139
945.860	172
945.952	-477
946.044	283
946.136	-333
946.228	-421
946.320	322
946.412	124
946.503	209
946.595	663
946.687	127
946.779	243
946.870	619
946.962	305
947.054	169
947.145	210
947.237	83
947.329	496
947.420	14
947.512	-831
947.603	-714
947.695	339
947.786	-1090
947.878	192
947.969	113
948.061	235
948.152	-209
948.243	71
948.335	-571
948.426	-450
948.517	406
948.609	-292
948.700	-139
948.791	-259
948.882	-252
948.973	-1
949.065	142
949.156	-318
949.247	-748
949.338	134
949.429	-546
949.520	-319
949.611	-1014
949.702	444
949.793	57
949.884	149
949.975	-352
950.066	-614
950.157	-413
950.247	1121
950.338	-924
950.429	-604
950.520	411
950.611	500
950.701	-623
950.792	-6
950.883	238
950.973	243
951.064	-977
951.155	-847
951.245	119
951.336	307
951.427	-462
951.517	480
951.608	312
951.698	-573
951.788	-118
951.879	-98
951.969	-660
952.060	-44
952.150	-1164
952.240	114
952.331	-1606
952.421	800
952.511	-128
952.602	-23
952.692	-29
952.782	488
952.872	-46
952.962	-137
953.052	-351
953.143	-646
953.233	-220
953.323	-187
953.413	-1339
953.503	408
953.593	-485
953.683	-486
953.773	-780
953.863	-1039
953.953	319
954.042	-905
954.132	-120
954.222	209
954.312	-800
954.402	77
954.492	-290
954.581	-564
954.671	-171
954.761	-1591
954.850	-93
954.940	25
955.030	547
955.119	-311
955.209	147
955.298	-551
955.388	-717
955.477	441
955.567	-538
955.656	-634
955.746	94
955.835	145
955.925	-641
956.014	-1094
956.103	-387
956.193	503
956.282	-137
956.371	-52
956.461	-99
956.550	11
956.639	-636
956.728	-1094
956.817	63
956.906	-467
956.995	194
957.085	-247
957.174	-296
957.263	-353
957.352	-42
957.441	-1203
957.530	-501
957.619	-772
957.708	-173
957.796	320
957.885	-559
957.974	-831
958.063	8
958.152	-795
958.241	705
958.329	-294
958.418	-1028
958.507	-951
958.596	-350
958.684	-824
958.773	-32
958.861	-602
958.950	-814
959.039	-235
959.127	-643
959.216	726
959.304	-893
959.393	-454
959.481	-82
959.570	-661
959.658	-56
959.746	-426
959.835	-135
959.923	-571
960.011	-768
960.100	197
960.188	-48
960.276	-1199
960.365	-327
960.453	-509
960.541	-984
960.629	-105
960.717	-1065
960.805	-1655
960.893	-150
960.981	-802
961.069	-173
961.158	-543
961.245	100
961.333	-550
961.421	-1622
961.509	125
961.597	-1056
961.685	-449
961.773	-512
961.861	-448
961.949	-304
962.036	-1061
962.124	267
962.212	-864
962.299	-948
962.387	-1114
962.475	-647
962.562	-1175
962.650	146
962.738	48
962.825	-659
962.913	-666
963.000	-934
963.088	-906
963.175	-388
963.263	-450
963.350	-1027
963.438	-114
963.525	-988
963.612	336
963.700	-775
963.787	459
963.874	-473
963.962	-840
964.049	-67
964.136	-15
964.223	-601
964.310	-782
964.398	-151
964.485	-1356
964.572	-932
964.659	72
964.746	-946
964.833	-35
964.920	-566
965.007	494
965.094	-476
965.181	-1235
965.268	-871
965.355	-843
965.441	240
965.528	-1394
965.615	-65
965.702	-824
965.789	-827
965.875	-396
965.962	-318
966.049	-1281
966.136	-1079
966.222	-704
966.309	-418
966.395	-786
966.482	-520
966.569	-872
966.655	-374
966.742	-226
966.828	-1144
966.915	-597
967.001	-189
967.087	-1130
967.174	-541
967.260	-102
967.347	-423
967.433	-742
967.519	578
967.605	-1191
967.692	-671
967.778	-1060
967.864	-860
967.950	-439
968.036	-1043
968.123	-693
968.209	-45
968.295	-1074
968.381	436
968.467	-59
968.553	-1584
968.639	783
968.725	-1106
968.811	-684
968.897	-537
968.983	-1033
969.069	-1100
969.154	-524
969.240	801
969.326	-794
969.412	-296
969.497	-107
969.583	-1231
969.669	241
969.755	-705
969.840	-399
969.926	-247
970.012	-370
970.097	750
970.183	-602
970.268	-835
970.354	-181
970.439	-706
970.525	278
970.610	-1655
970.696	217
970.781	-492
970.866	-1290
970.952	402
971.037	-888
971.122	-722
971.208	-409
971.293	-1390
971.378	-1369
971.463	-445
971.549	-990
971.634	-1210
971.719	-563
971.804	-724
971.889	-318
971.974	-1277
972.059	-754
972.144	-317
972.229	-722
972.314	-488
972.399	140
972.484	-1056
972.569	-530
972.654	-1200
972.739	294
972.824	-1351
972.908	-653
972.993	-874
973.078	-716
973.163	-1314
973.247	-754
973.332	-2200
973.417	523
973.501	-1521
973.586	-87
973.671	-860
973.755	-727
973.840	-402
973.924	307
974.009	-393
974.093	-972
974.178	-40
974.262	-1176
974.346	-648
974.431	-465
974.515	-1332
974.600	-1203
974.684	-589
974.768	-628
974.852	-216
974.937	-1146
975.021	-25
975.105	-1077
975.189	50
975.273	-66
975.358	-471
975.442	-864
975.526	-203
975.610	-1017
975.694	-719
975.778	568
975.862	-708
975.946	-1885
976.030	633
976.114	-1422
976.198	-278
976.281	-372
976.365	814
976.449	-1302
976.533	168
976.617	-1193
976.700	-1097
976.784	-20
976.868	-767
976.951	-402
977.035	-926
977.119	-12
977.202	-656
977.286	-333
977.369	-93
977.453	-51
977.536	-1299
977.620	-1396
977.703	-885
977.787	-1337
977.870	-273
977.953	967
978.037	-1697
978.120	674
978.203	-620
978.287	-665
978.370	-200
978.453	-466
978.536	-939
978.620	-451
978.703	-846
978.786	-1564
978.869	-1970
978.952	-1066
979.035	-94
979.118	-4
979.201	-1379
979.284	-638
979.367	-1242
979.450	-56
979.533	-1582
979.616	-275
979.699	-1009
979.782	-1
979.865	-960
979.948	-770
980.030	-497
980.113	-395
980.196	-938
980.279	-807
980.361	-906
980.444	-562
980.526	-230
980.609	122
980.692	-1803
980.774	437
980.857	-1672
980.939	1005
981.022	-817
981.104	-665
981.187	-1144
981.269	-186
981.352	-214
981.434	-1048
981.516	-1259
981.599	604
981.681	-359
981.763	-850
981.846	-1342
981.928	-1308
982.010	-810
982.092	-541
982.174	407
982.256	-1049
982.339	-709
982.421	-931
982.503	-391
982.585	-720
982.667	-920
982.749	-583
982.831	-266
982.913	-1132
982.995	-55
983.077	-1540
983.158	203
983.240	-941
983.322	-173
983.404	107
983.486	-667
983.568	-216
983.649	-68
983.731	-90
983.813	-1280
983.894	-2
983.976	-1635
984.058	-652
984.139	500
984.221	-1335
984.302	-106
984.384	-848
984.465	-1139
984.547	-903
984.628	-766
984.710	-489
984.791	-1308
984.872	-1065
984.954	-823
985.035	-221
985.116	-977
985.198	-1165
985.279	-26
985.360	-1082
985.441	-933
985.522	-532
985.604	-990
985.685	-2761
985.766	181
985.847	-5
985.928	-1276
986.009	-679
986.090	-1050
986.171	-427
986.252	-1506
986.333	-888
986.414	-1550
986.495	-331
986.576	-839
986.656	-1268
986.737	-760
986.818	-226
986.899	-774
986.980	-949
987.060	-709
987.141	-1150
987.222	-12
987.302	-131
987.383	92
987.464	-883
987.544	-503
987.625	-742
987.705	5
987.786	-701
987.866	-895
987.947	-1314
988.027	-183
988.108	-931
988.188	155
988.268	-90
988.349	-435
988.429	-1027
988.509	-473
988.589	-326
988.670	-1954
988.750	130
988.830	-1123
988.910	-701
988.990	-417
989.070	-957
989.151	2
989.231	-768
989.311	-202
989.391	-539
989.471	-806
989.551	-1735
989.631	-1647
989.711	588
989.791	-784
989.870	-1229
989.950	-31
990.030	-1090
990.110	-992
990.190	-1539
990.269	-1333
990.349	-794
990.429	-921
990.509	-416
990.588	-973
990.668	-604
990.747	-1091
990.827	-1027
990.907	-899
990.986	-1476
991.066	-399
991.145	-858
991.225	-328
991.304	-1012
991.383	-416
991.463	-1153
991.542	-981
991.622	-1089
991.701	-1631
991.780	-1347
991.859	-679
991.939	-741
992.018	-1147
992.097	-675
992.176	-548
992.256	-1250
992.335	-909
992.414	-432
992.493	-1375
992.572	-967
992.651	-327
992.730	-1014
992.809	-1080
992.888	-2132
992.967	-986
993.046	-900
993.125	-1334
993.203	-1484
993.282	-471
993.361	54
993.440	-986
993.519	-1189
993.597	-378
993.676	-1921
993.755	-544
993.834	-689
993.912	-1241
993.991	340
994.069	-1668
994.148	-657
994.226	-793
994.305	-991
994.384	-965
994.462	186
994.540	-1047
994.619	-1818
994.697	-164
994.776	-1643
994.854	734
994.932	-1511
995.011	-891
995.089	-1055
995.167	-970
995.245	-967
995.324	-2276
995.402	-420
995.480	-1807
995.558	-1706
995.636	-1880
995.714	-1523
995.792	-629
995.870	-1445
995.948	-927
996.026	-1188
996.104	-2032
996.182	-702
996.260	-998
996.338	-796
996.416	-1630
996.494	-1445
996.572	234
996.649	-940
996.727	-1438
996.805	-916
996.883	-1089
996.960	-1597
997.038	-1077
997.116	-251
997.193	-1466
997.271	-781
997.348	-1704
997.426	-859
997.504	-1875
997.581	-952
997.658	-526
997.736	-1548
997.813	-1607
997.891	-380
997.968	-1928
998.046	-1685
998.123	-1150
998.200	-1274
998.277	-2374
998.355	-699
998.432	-1959
998.509	-1461
998.586	-965
998.663	-836
998.741	-1269
998.818	-1969
998.895	-2235
998.972	-1131
999.049	-1467
999.126	-1726
999.203	-562
999.280	-1039
999.357	-1245
999.434	-962
999.511	-1379
999.587	-569
999.664	-1792
999.741	-843
999.818	-934
999.895	-1213
999.971	-2129
1000.048	-1452
1000.125	-453
1000.202	-2038
1000.278	-870
1000.355	-806
1000.431	-1448
1000.508	-2237
1000.584	-777
1000.661	-647
1000.738	-1844
1000.814	-1250
1000.890	-869
1000.967	-871
1001.043	-919
1001.120	-3127
1001.196	-1730
1001.272	-1753
1001.349	-1408
1001.425	-289
1001.501	-2287
1001.577	-1786
1001.654	-1742
1001.730	-1045
1001.806	-1992
1001.882	-1822
1001.958	-1474
1002.034	-796
1002.110	-1924
1002.186	-1218
1002.262	-1709
1002.338	-1722
1002.414	-1101
1002.490	-180
1002.566	-1406
1002.642	-1452
1002.718	-1211
1002.794	-1895
1002.870	-2021
1002.945	-1383
1003.021	-961
1003.097	-926
1003.173	-1228
1003.248	-1293
1003.324	-1143
1003.400	-741
1003.475	-1976
1003.551	-2057
1003.626	-1649
1003.702	-1591
1003.777	-2192
1003.853	-1431
1003.928	-1999
1004.004	-1229
1004.079	-353
1004.155	-1780
1004.230	-2632
1004.305	-534
1004.381	-2329
1004.456	-2026
1004.531	-1983
1004.607	-1821
1004.682	-1772
1004.757	-1386
1004.832	-1711
1004.907	-1355
1004.982	-2363
1005.057	-948
1005.133	-2095
1005.208	-1777
1005.283	-964
1005.358	-980
1005.433	-1631
1005.508	-1077
1005.583	-1534
1005.657	-1574
1005.732	-1398
1005.807	-1520
1005.882	-1407
1005.957	-1540
1006.032	-559
1006.106	-1247
1006.181	-1945
1006.256	-1273
1006.331	-2794
1006.405	-1156
1006.480	-1810
1006.554	-1728
1006.629	-1735
1006.704	-1254
1006.778	-1292
1006.853	-2151
1006.927	-1966
1007.002	-1654
1007.076	-814
1007.150	-1380
1007.225	-1182
1007.299	-1360
1007.373	-1973
1007.448	-1179
1007.522	-1249
1007.596	-1371
1007.671	-1331
1007.745	-1329
1007.819	-2735
1007.893	-1911
1007.967	-1285
1008.041	-1742
1008.115	-969
1008.190	-1919
1008.264	-365
1008.338	-2351
1008.412	-1492
1008.486	-1247
1008.560	-1046
1008.633	-1697
1008.707	-2157
1008.781	-1287
1008.855	-1658
1008.929	-1623
1009.003	-1989
1009.076	-1448
1009.150	-1477
1009.224	-1243
1009.298	-1282
1009.371	-2225
1009.445	-910
1009.519	-783
1009.592	-2178
1009.666	-1074
1009.739	-1370
1009.813	-2115
1009.886	-831
1009.960	-2609
1010.033	-1061
1010.107	-1037
1010.180	-1573
1010.253	-1558
1010.327	-1938
1010.400	-980
1010.473	-1859
1010.547	-1097
1010.620	-1298
1010.693	-1415
1010.766	-1476
1010.840	-1989
1010.913	-994
1010.986	-2333
1011.059	-1497
1011.132	-1412
1011.205	-1123
1011.278	-1707
1011.351	-1677
1011.424	-2050
1011.497	-1257
1011.570	-1952
1011.643	-1882
1011.716	-1759
1011.789	-1834
1011.862	-1206
1011.934	-1425
1012.007	-2852
1012.080	-1489
1012.153	-850
1012.225	-1470
1012.298	-1549
1012.371	-2005
1012.443	-638
1012.516	-1765
1012.588	-912
1012.661	-876
1012.733	-2887
1012.806	-826
1012.879	-2321
1012.951	-1901
1013.023	-2076
1013.096	-1032
1013.168	-1800
1013.241	-930
1013.313	-1025
1013.385	-2122
1013.458	-1591
1013.530	-1560
1013.602	-2011
1013.674	-1081
1013.746	-2488
1013.819	-2320
1013.891	-1375
1013.963	-2313
1014.035	-2267
1014.107	-1492
1014.179	-1664
1014.251	-1514
1014.323	-1215
1014.395	-1700
1014.467	-718
1014.539	-958
1014.611	-1447
1014.683	-1087
1014.754	-950
1014.826	-2980
1014.898	-978
1014.970	-2460
1015.042	-1588
1015.113	-1069
1015.185	-1834
1015.257	-2386
1015.328	-1303
1015.400	-1751
1015.471	-1393
1015.543	-2713
1015.615	-1280
1015.686	-1801
1015.757	-1670
1015.829	-2003
1015.901	-1576
1015.972	-1068
1016.043	-1623
1016.115	-2305
1016.186	-1582
1016.257	-2103
1016.328	-1903
1016.400	-975
1016.471	-1458
1016.542	-2624
1016.613	-2147
1016.685	-1595
1016.756	-1163
1016.827	-2408
1016.898	-1779
1016.969	-913
1017.040	-1710
1017.111	-1532
1017.182	-1580
1017.253	-1612
1017.324	-1134
1017.395	-1595
1017.466	-1772
1017.537	-1594
1017.608	-1573
1017.678	-1403
1017.749	-1913
1017.820	-864
1017.891	-1957
1017.961	-1499
1018.032	-1286
1018.103	-1631
1018.173	-1477
1018.244	-2225
1018.315	-2338
1018.385	-1471
1018.456	-1737
1018.526	-2040
1018.597	-1797
1018.667	-1227
1018.738	-1922
1018.808	-1892
1018.878	-2023
1018.949	-1173
1019.019	-1375
1019.089	-1668
1019.160	-929
1019.230	-2135
1019.300	-1704
1019.371	-2799
1019.441	-1717
1019.511	-2180
1019.581	-1649
1019.651	-1598
1019.721	-1209
1019.791	-1477
1019.861	-1794
1019.931	-758
1020.001	-1239
1020.071	-2084
1020.141	-2113
1020.211	-1536
1020.281	-2327
1020.351	-2357
1020.421	-1495
1020.491	-973
1020.560	-1722
1020.630	-1157
1020.700	-1309
1020.770	-2538
1020.839	-1759
1020.909	-1136
1020.979	-2259
1021.048	-2200
1021.118	-2019
1021.187	-1953
1021.257	-1650
1021.326	-1248
1021.396	-1979
1021.465	-1281
1021.535	-1283
1021.604	-2040
1021.674	-1920
1021.743	-1523
1021.812	-2340
1021.882	-1852
1021.951	-1564
1022.020	-2236
1022.089	-1638
1022.159	-2486
1022.228	-1993
1022.297	-1592
1022.366	-1163
1022.435	-1429
1022.504	-1856
1022.573	-1859
1022.642	-1358
1022.711	-2042
1022.781	-1861
1022.849	-1807
1022.918	-2589
1022.987	-1981
1023.056	-2238
1023.125	-1203
1023.194	-1390
1023.263	-2038
1023.331	-1489
1023.400	-2242
1023.469	-2424
1023.538	-1046
1023.606	-2261
1023.675	-2338
1023.744	-2704
1023.812	-2250
1023.881	-1022
1023.949	-1902
1024.018	-1407
1024.086	-1728
1024.155	-2212
1024.223	-1620
1024.292	-1807
1024.360	-963
1024.429	-1822
1024.497	-2388
1024.565	-1520
1024.634	-1938
1024.702	-1324
1024.770	-2140
1024.838	-1903
1024.907	-2242
1024.975	-2111
1025.043	-1379
1025.111	-1576
1025.179	-2928
1025.247	-2429
1025.315	-1687
1025.383	-2283
1025.451	-2712
1025.519	-1090
1025.587	-1990
1025.655	-1811
1025.723	-1773
1025.791	-1544
1025.859	-901
1025.927	-1433
1025.995	-2063
1026.062	-1518
1026.130	-1944
1026.198	-1419
1026.266	-2104
1026.333	-2040
1026.401	-1556
1026.469	-2242
1026.536	-2112
1026.604	-2307
1026.671	-2147
1026.739	-2577
1026.806	-1837
1026.874	-2094
1026.941	-2071
1027.009	-2568
1027.076	-1843
1027.144	-1682
1027.211	-2639
1027.278	-2437
1027.345	-1646
1027.413	-1513
1027.480	-1613
1027.547	-2112
1027.614	-1669
1027.682	-1139
1027.749	-2006
1027.816	-1527
1027.883	-1397
1027.950	-2265
1028.017	-2156
1028.084	-1554
1028.151	-2323
1028.218	-1926
1028.285	-2590
1028.352	-2168
1028.419	-2372
1028.486	-1942
1028.553	-1435
1028.619	-2628
1028.686	-1929
1028.753	-1601
1028.820	-2034
1028.886	-1609
1028.953	-1728
1029.020	-1527
1029.086	-2650
1029.153	-2587
1029.220	-2474
1029.286	-1561
1029.353	-1664
1029.419	-2414
1029.486	-2227
1029.552	-1852
1029.619	-1572
1029.685	-3017
1029.751	-2106
1029.818	-1238
1029.884	-1606
1029.951	-1349
1030.017	-2115
1030.083	-1961
1030.149	-1529
1030.216	-2523
1030.282	-2784
1030.348	-2725
1030.414	-2097
1030.480	-2140
1030.546	-2329
1030.612	-1340
1030.678	-3053
1030.744	-2292
1030.810	-1829
1030.876	-2385
1030.942	-2458
1031.008	-1699
1031.074	-2488
1031.140	-1627
1031.206	-2502
1031.272	-2609
1031.337	-1709
1031.403	-1462
1031.469	-1929
1031.534	-2444
1031.600	-1220
1031.666	-2199
1031.731	-2627
1031.797	-2211
1031.863	-2648
1031.928	-1071
1031.994	-1484
1032.059	-1708
1032.125	-2237
1032.190	-2196
1032.256	-2183
1032.321	-2025
1032.386	-2344
1032.452	-1599
1032.517	-2711
1032.582	-926
1032.647	-1749
1032.713	-1800
1032.778	-2174
1032.843	-2421
1032.908	-2344
1032.974	-1456
1033.039	-2222
1033.104	-2313
1033.169	-2319
1033.234	-1746
1033.299	-1719
1033.364	-1027
1033.429	-1925
1033.494	-1153
1033.559	-1784
1033.624	-1977
1033.688	-1697
1033.753	-2155
1033.818	-1862
1033.883	-1775
1033.948	-1226
1034.013	-1779
1034.077	-1406
1034.142	-1888
1034.207	-1884
1034.271	-1667
1034.336	-226
1034.400	-779
1034.465	-1471
1034.530	-1142
1034.594	-1699
1034.658	-1541
1034.723	-2072
1034.787	-2225
1034.852	-2467
1034.916	-1757
1034.981	-1539
1035.045	-2267
1035.109	-2104
1035.173	-2012
1035.238	-2467
1035.302	-1633
1035.366	-1973
1035.430	-2520
1035.495	-2539
1035.559	-1903
1035.623	-2459
1035.687	-2238
1035.751	-2474
1035.815	-1560
1035.879	-1714
1035.943	-1823
1036.007	-1896
1036.071	-2313
1036.135	-1552
1036.198	-2067
1036.262	-2030
1036.326	-1662
1036.390	-2254
1036.454	-1817
1036.517	-1549
1036.581	-1276
1036.645	-774
1036.709	-386
1036.772	-1565
1036.836	-2404
1036.900	-1452
1036.963	-2801
1037.026	-1827
1037.090	-1462
1037.154	-2339
1037.217	-2172
1037.280	-2644
1037.344	-1846
1037.407	-1712
1037.471	-1854
1037.534	-1711
1037.597	-2320
1037.661	-2127
1037.724	-2575
1037.787	-2935
1037.850	-1726
1037.913	-2063
1037.977	-1607
1038.040	-2397
1038.103	-1744
1038.166	-1747
1038.229	-2239
1038.292	-1440
1038.355	-2735
1038.418	-2561
1038.481	-1211
1038.544	-1742
1038.607	-1404
1038.670	-1728
1038.732	-1990
1038.795	-2344
1038.858	-1907
1038.921	-2003
1038.984	-2481
1039.046	-1697
1039.109	-2017
1039.172	-1299
1039.234	-2408
1039.297	-1544
1039.360	-1895
1039.422	-1747
1039.485	-1796
1039.547	-2472
1039.610	-1317
1039.672	-2380
1039.734	-1885
1039.797	-1402
1039.859	-1696
1039.922	-1417
1039.984	-1928
1040.046	-2225
1040.109	-1231
1040.171	-2300
1040.233	-1700
1040.295	-2411
1040.358	-1726
1040.420	-1806
1040.482	-987
1040.544	-1932
1040.606	-1524
1040.668	-2003
1040.730	-1947
1040.792	-3021
1040.854	-1259
1040.916	-1733
1040.978	-2081
1041.040	-794
1041.102	-2150
1041.164	-1275
1041.225	-2301
1041.287	-1554
1041.349	-1891
1041.411	-1715
1041.472	-1131
1041.534	-2670
1041.596	-2782
1041.657	-2188
1041.719	-1375
1041.781	-2450
1041.842	-2175
1041.904	-1934
1041.965	-1775
1042.027	-2422
1042.088	-2066
1042.150	-1795
1042.211	-1763
1042.272	-1278
1042.334	-2371
1042.395	-2287
1042.456	-1366
1042.518	-1582
1042.579	-2394
1042.640	-2382
1042.701	-2657
1042.763	-2004
1042.824	-1784
1042.885	-2197
1042.946	-2590
1043.007	-1135
1043.068	-1162
1043.129	-2152
1043.190	-2084
1043.251	-1693
1043.312	-1602
1043.373	-1691
1043.434	-1661
1043.495	-2208
1043.556	-1158
1043.616	-1652
1043.677	-1431
1043.738	-2186
1043.799	-1593
1043.859	-2197
1043.920	-2306
1043.981	-2024
1044.041	-2284
1044.102	-2064
1044.162	-2003
1044.223	-2506
1044.284	-2303
1044.344	-2835
1044.405	-1942
1044.465	-1416
1044.525	-2666
1044.586	-2447
1044.646	-1125
1044.707	-1889
1044.767	-905
1044.827	-1838
1044.887	-1482
1044.948	-1663
1045.008	-1838
1045.068	-1860
1045.128	-1864
1045.188	-1704
1045.249	-1375
1045.309	-1941
1045.369	-1908
1045.429	-1204
1045.489	-1242
1045.549	-2006
1045.609	-996
1045.669	-2066
1045.729	-1627
1045.789	-1649
1045.848	-1456
1045.908	-2633
1045.968	-1554
1046.028	-1567
1046.088	-1473
1046.147	-291
1046.207	-1622
1046.267	-956
1046.326	-1541
1046.386	-1150
1046.446	-1108
1046.505	-876
1046.565	-246
1046.624	-1213
1046.684	-563
1046.743	-137
1046.803	264
1046.862	152
1046.922	0
