'Start Wavelength	183.907
'End Wavelength	1046.922
'Gate Delay	5.000
'Gate Width (ms)	1.050
'Laser Output Level	0.000
'X Position	0.000
'Y Position	0.000
'Z Position	0.000
'Grid Point Number	1.000
'Shot Number	100.000
183.907	368.000
183.977	-372.000
184.047	192
184.116	276
184.186	560
184.256	-111
184.325	646
184.395	-472
184.465	888
184.534	567
184.604	343
184.674	468
184.743	-182
184.813	774
184.883	146
184.952	196
185.022	-214
185.092	841
185.161	767
185.231	874
185.301	-410
185.370	666
185.440	622
185.509	429
185.579	83
185.649	616
185.718	620
185.788	389
185.857	328
185.927	-606
185.996	559
186.066	-247
186.136	287
186.205	858
186.275	699
186.344	455
186.414	98
186.483	-80
186.553	572
186.622	1349
186.692	623
186.761	794
186.831	607
186.900	219
186.970	376
187.039	-295
187.109	1853
187.178	796
187.248	849
187.317	360
187.387	396
187.456	1124
187.526	1118
187.595	723
187.664	213
187.734	815
187.803	732
187.873	648
187.942	1086
188.012	1393
188.081	1209
188.150	611
188.220	955
188.289	976
188.358	880
188.428	1024
188.497	-182
188.567	1030
188.636	298
188.705	526
188.775	970
188.844	-527
188.913	1484
188.983	33
189.052	354
189.121	149
189.191	685
189.260	1715
189.329	1521
189.399	1377
189.468	769
189.537	203
189.606	957
189.676	1099
189.745	1164
189.814	1067
189.883	1075
189.953	1471
190.022	2354
190.091	4328
190.161	6970
190.230	2832
190.299	906
190.368	645
190.437	558
190.507	655
190.576	859
190.645	155
190.714	620
190.783	-23
190.853	1524
190.922	438
190.991	910
191.060	946
191.129	794
191.198	946
191.268	1035
191.337	878
191.406	826
191.475	601
191.544	769
191.613	737
191.682	875
191.752	344
191.821	704
191.890	671
191.959	136
192.028	809
192.097	1662
192.166	585
192.235	563
192.304	1336
192.373	225
192.442	668
192.511	811
192.580	1196
192.650	478
192.719	1074
192.788	655
192.857	736
192.926	900
192.995	1326
193.064	2287
193.133	2567
193.202	3042
193.271	3141
193.340	3281
193.409	2412
193.478	3020
193.547	3243
193.615	5537
193.684	4885
193.753	3646
193.822	2828
193.891	1730
193.960	2037
194.029	1331
194.098	1639
194.167	1234
194.236	1161
194.305	557
194.374	1512
194.443	1150
194.512	923
194.580	1289
194.649	1757
194.718	1754
194.787	1542
194.856	962
194.925	1458
194.994	2153
195.062	1158
195.131	1451
195.200	1517
195.269	1817
195.338	1751
195.407	677
195.475	1509
195.544	1661
195.613	1685
195.682	1437
195.751	2276
195.819	1992
195.888	1068
195.957	1879
196.026	1694
196.094	2383
196.163	1733
196.232	1909
196.301	1075
196.369	1967
196.438	1832
196.507	1623
196.576	1522
196.644	1301
196.713	1636
196.782	435
196.850	1602
196.919	856
196.988	1590
197.056	1106
197.125	1676
197.194	2140
197.262	1169
197.331	639
197.400	687
197.468	1605
197.537	1286
197.606	2091
197.674	2882
197.743	7973
197.812	2574
197.880	6366
197.949	5087
198.017	5422
198.086	4021
198.155	2105
198.223	2793
198.292	8107
198.360	3345
198.429	2696
198.497	2251
198.566	4826
198.635	6904
198.703	3382
198.772	2373
198.840	8817
198.909	10001
198.977	2800
199.046	2683
199.114	2542
199.183	1973
199.251	1505
199.320	2073
199.388	1604
199.457	782
199.525	1626
199.594	991
199.662	1694
199.731	1341
199.799	2328
199.867	1870
199.936	1509
200.004	2042
200.073	2321
200.141	1046
200.210	1283
200.278	1157
200.346	2311
200.415	1587
200.483	3101
200.552	1690
200.620	1811
200.688	709
200.757	1544
200.825	1499
200.893	2643
200.962	2137
201.030	1805
201.098	1617
201.167	2092
201.235	2595
201.303	2237
201.372	1294
201.440	2568
201.508	1496
201.577	2507
201.645	2501
201.713	1801
201.781	1318
201.850	2601
201.918	1504
201.986	2368
202.055	2567
202.123	2592
202.191	1518
202.259	2528
202.327	2532
202.396	1872
202.464	2079
202.532	2102
202.600	6774
202.669	3547
202.737	1764
202.805	2204
202.873	1020
202.941	1515
203.009	2165
203.078	1553
203.146	2357
203.214	2959
203.282	1065
203.350	2706
203.418	1697
203.487	1316
203.555	1550
203.623	2104
203.691	2340
203.759	1873
203.827	1224
203.895	2010
203.963	1561
204.031	2086
204.099	1770
204.168	2218
204.236	1356
204.304	2056
204.372	2621
204.440	2431
204.508	2089
204.576	1851
204.644	1744
204.712	1668
204.780	2440
204.848	2285
204.916	1674
204.984	2309
205.052	2162
205.120	2131
205.188	2376
205.256	2043
205.324	2374
205.392	2828
205.460	2020
205.528	3280
205.596	3330
205.664	2143
205.732	2516
205.799	8476
205.867	16067
205.935	4415
206.003	3781
206.071	2846
206.139	2487
206.207	2807
206.275	2125
206.343	3261
206.411	2528
206.478	2955
206.546	2967
206.614	3243
206.682	2179
206.750	2401
206.818	3865
206.885	4180
206.953	905
207.021	3310
207.089	3242
207.157	2551
207.225	2826
207.292	3158
207.360	2334
207.428	3241
207.496	1943
207.563	2833
207.631	3058
207.699	1962
207.767	2885
207.834	2110
207.902	2439
207.970	2332
208.038	2342
208.105	3155
208.173	3516
208.241	5040
208.309	4652
208.376	4007
208.444	6194
208.512	5207
208.579	2764
208.647	3724
208.715	4060
208.782	2946
208.850	2779
208.918	2443
208.985	3205
209.053	3229
209.120	2161
209.188	2421
209.256	2098
209.323	2818
209.391	3643
209.459	4383
209.526	2954
209.594	2962
209.661	3432
209.729	2996
209.796	2549
209.864	3621
209.932	1896
209.999	4589
210.067	3575
210.134	3172
210.202	3331
210.269	5214
210.337	4421
210.404	3497
210.472	3293
210.539	3484
210.607	2778
210.674	4142
210.742	3977
210.809	4051
210.877	3632
210.944	4105
211.012	2552
211.079	4849
211.146	3335
211.214	3410
211.281	3759
211.349	4891
211.416	3488
211.484	4114
211.551	3234
211.618	3376
211.686	3480
211.753	3687
211.821	4599
211.888	3642
211.955	3501
212.023	4277
212.090	4947
212.157	4741
212.225	4897
212.292	9863
212.359	18010
212.427	44630
212.494	23519
212.561	9285
212.629	6582
212.696	5478
212.763	5056
212.831	4074
212.898	4360
212.965	4227
213.032	4119
213.100	4620
213.167	3498
213.234	5727
213.301	3985
213.369	4170
213.436	3708
213.503	3792
213.570	4087
213.638	3744
213.705	3380
213.772	3152
213.839	5553
213.906	6315
213.973	4872
214.041	3999
214.108	4146
214.175	4663
214.242	3211
214.309	4810
214.376	4076
214.444	4615
214.511	4445
214.578	4480
214.645	4679
214.712	5482
214.779	4305
214.846	3640
214.913	5053
214.980	4721
215.048	6159
215.115	5936
215.182	5300
215.249	4843
215.316	3693
215.383	4719
215.450	3930
215.517	4636
215.584	3265
215.651	3245
215.718	3208
215.785	5178
215.852	3605
215.919	4134
215.986	3809
216.053	4414
216.120	3888
216.187	4269
216.254	4641
216.321	3653
216.388	4245
216.455	4808
216.522	4755
216.589	5491
216.656	8249
216.722	9494
216.789	6585
216.856	7021
216.923	6281
216.990	6345
217.057	5950
217.124	6881
217.191	6028
217.258	8161
217.324	8912
217.391	10016
217.458	8165
217.525	6561
217.592	4898
217.659	4924
217.725	5657
217.792	7793
217.859	7280
217.926	4043
217.993	3572
218.059	4348
218.126	4363
218.193	3301
218.260	3394
218.327	3266
218.393	3069
218.460	3900
218.527	2715
218.594	3554
218.660	6495
218.727	7393
218.794	3767
218.860	4034
218.927	3090
218.994	3751
219.061	3130
219.127	3355
219.194	6578
219.261	4257
219.327	2650
219.394	2722
219.461	2241
219.527	2938
219.594	4358
219.661	4937
219.727	1936
219.794	4239
219.860	2796
219.927	3660
219.994	5029
220.060	9165
220.127	7063
220.193	5818
220.260	5717
220.326	9491
220.393	11553
220.460	15456
220.526	11018
220.593	7285
220.659	8605
220.726	9627
220.792	21617
220.859	19736
220.925	20738
220.992	26714
221.058	28522
221.125	31112
221.191	23558
221.258	10977
221.324	6855
221.391	5486
221.457	5274
221.524	5787
221.590	7837
221.657	26281
221.723	20708
221.789	16274
221.856	15215
221.922	8683
221.989	6143
222.055	4954
222.121	3945
222.188	6463
222.254	4258
222.321	3461
222.387	3091
222.453	3299
222.520	2852
222.586	3254
222.652	2756
222.719	3063
222.785	4283
222.851	3264
222.918	2661
222.984	2598
223.050	2297
223.116	2675
223.183	3851
223.249	1915
223.315	2370
223.382	3123
223.448	2235
223.514	2041
223.580	2618
223.647	2650
223.713	2054
223.779	2410
223.845	2812
223.911	3155
223.978	1501
224.044	3511
224.110	2585
224.176	4047
224.242	2905
224.309	1476
224.375	3116
224.441	3259
224.507	2721
224.573	1718
224.639	3143
224.705	2338
224.772	2269
224.838	2700
224.904	3576
224.970	2099
225.036	2709
225.102	2349
225.168	3221
225.234	2846
225.300	2204
225.366	2657
225.432	3167
225.499	3169
225.565	2062
225.631	3602
225.697	4232
225.763	4485
225.829	5213
225.895	5784
225.961	8119
226.027	7728
226.093	5914
226.159	8297
226.225	12833
226.291	27205
226.357	42970
226.423	24568
226.489	13289
226.554	9747
226.620	9104
226.686	10841
226.752	15241
226.818	25846
226.884	54629
226.950	52317
227.016	22121
227.082	13949
227.148	9631
227.214	9191
227.279	6883
227.345	6218
227.411	5628
227.477	5753
227.543	8860
227.609	10202
227.674	6979
227.740	5633
227.806	5249
227.872	5143
227.938	4616
228.003	6631
228.069	4544
228.135	3104
228.201	3310
228.267	3306
228.332	3222
228.398	4020
228.464	5081
228.530	3136
228.595	2890
228.661	2534
228.727	5588
228.792	4931
228.858	3085
228.924	3108
228.990	6376
229.055	3824
229.121	5232
229.187	3949
229.252	3099
229.318	3740
229.384	2661
229.449	4496
229.515	965
229.581	2054
229.646	4133
229.712	4092
229.777	7352
229.843	9408
229.909	5977
229.974	6424
230.040	6210
230.105	5235
230.171	5350
230.236	8581
230.302	13329
230.368	10234
230.433	6795
230.499	6133
230.564	6502
230.630	4345
230.695	4049
230.761	5192
230.826	2262
230.892	6475
230.957	4333
231.023	2827
231.088	4017
231.154	3321
231.219	4700
231.284	5101
231.350	6223
231.415	3390
231.481	3272
231.546	3354
231.612	2934
231.677	3689
231.742	2168
231.808	4504
231.873	2728
231.939	1440
232.004	5508
232.069	6948
232.135	3418
232.200	3728
232.265	3533
232.331	2594
232.396	2721
232.461	2095
232.527	2890
232.592	2842
232.657	3487
232.723	5424
232.788	4720
232.853	3448
232.918	3005
232.984	2231
233.049	2596
233.114	4973
233.179	5510
233.245	7536
233.310	10335
233.375	2900
233.440	3668
233.506	3764
233.571	4516
233.636	3328
233.701	3229
233.766	5196
233.832	7839
233.897	3364
233.962	2786
234.027	4967
234.092	4844
234.157	4182
234.222	3648
234.288	6317
234.353	18595
234.418	16369
234.483	8968
234.548	6800
234.613	5363
234.678	5530
234.743	5256
234.808	17422
234.873	11562
234.938	6951
235.004	4760
235.069	5754
235.134	3669
235.199	4848
235.264	4193
235.329	3051
235.394	4440
235.459	6074
235.524	4714
235.589	5262
235.654	3851
235.719	3231
235.784	4445
235.849	4785
235.913	9341
235.978	10969
236.043	12362
236.108	5764
236.173	4644
236.238	6743
236.303	4168
236.368	4603
236.433	8168
236.498	14292
236.563	11336
236.627	19896
236.692	70057
236.757	65306
236.822	26448
236.887	17913
236.952	13891
237.017	10542
237.081	11475
237.146	15627
237.211	31763
237.276	69918
237.341	115746
237.405	60706
237.470	24775
237.535	16489
237.600	10393
237.664	8923
237.729	6360
237.794	9375
237.859	19475
237.923	13778
237.988	8491
238.053	9744
238.118	10037
238.182	26194
238.247	26826
238.312	10170
238.376	8169
238.441	5942
238.506	6692
238.570	4054
238.635	5429
238.700	4309
238.764	3825
238.829	10777
238.893	14637
238.958	7671
239.023	5749
239.087	4538
239.152	5033
239.216	3672
239.281	3862
239.346	3484
239.410	4118
239.475	5215
239.539	22937
239.604	22425
239.668	6766
239.733	4967
239.797	5759
239.862	13610
239.926	20556
239.991	9625
240.055	4659
240.120	4177
240.184	4893
240.249	3274
240.313	4390
240.378	3542
240.442	12170
240.507	25735
240.571	7706
240.635	10127
240.700	13852
240.764	5863
240.829	4212
240.893	2885
240.957	4215
241.022	12191
241.086	23225
241.151	11026
241.215	3866
241.279	6576
241.344	11207
241.408	7050
241.472	4971
241.537	6287
241.601	4644
241.665	4191
241.730	4405
241.794	5993
241.858	4372
241.922	4987
241.987	4480
242.051	3975
242.115	4065
242.179	5387
242.244	4009
242.308	5903
242.372	4926
242.436	5619
242.501	5178
242.565	3519
242.629	3299
242.693	5327
242.757	3259
242.822	4758
242.886	5641
242.950	5828
243.014	5282
243.078	5594
243.142	5104
243.206	5533
243.271	7025
243.335	7770
243.399	12471
243.463	47855
243.527	131554
243.591	46275
243.655	16386
243.719	9682
243.783	9493
243.847	14954
243.911	21259
243.975	16301
244.040	11510
244.104	8193
244.168	5720
244.232	8741
244.296	12028
244.360	18579
244.424	9312
244.488	7289
244.552	5766
244.615	3763
244.679	5065
244.743	5566
244.807	5978
244.871	4828
244.935	4774
244.999	3060
245.063	4269
245.127	5134
245.191	11722
245.255	13018
245.319	7043
245.383	5796
245.446	6130
245.510	3562
245.574	4505
245.638	5647
245.702	3671
245.766	12781
245.829	8323
245.893	5459
245.957	4311
246.021	6099
246.085	5870
246.149	6794
246.212	15911
246.276	27779
246.340	11410
246.404	8898
246.467	8925
246.531	11702
246.595	8282
246.659	7999
246.722	5575
246.786	8340
246.850	8698
246.913	11513
246.977	4505
247.041	5625
247.104	6219
247.168	6682
247.232	13930
247.295	34470
247.359	17926
247.423	7838
247.486	13125
247.550	9273
247.614	6676
247.677	8775
247.741	6738
247.804	4745
247.868	6764
247.932	12712
247.995	34184
248.059	13340
248.122	6213
248.186	8340
248.249	12657
248.313	51972
248.376	57645
248.440	36241
248.503	13208
248.567	12149
248.630	13293
248.694	18785
248.757	24154
248.821	59666
248.884	34705
248.948	28579
249.011	43692
249.075	67800
249.138	60987
249.202	22275
249.265	13877
249.328	18836
249.392	12765
249.455	11496
249.519	8273
249.582	10360
249.645	16213
249.709	13057
249.772	8193
249.835	8862
249.899	10694
249.962	9948
250.025	8558
250.089	21029
250.152	29459
250.215	14693
250.279	10968
250.342	12779
250.405	11432
250.468	11873
250.532	14818
250.595	28019
250.658	110107
250.721	199699
250.785	69074
250.848	32455
250.911	20143
250.974	18321
251.038	20555
251.101	39900
251.164	21649
251.227	21873
251.290	22481
251.354	37591
251.417	154456
251.480	172703
251.543	114043
251.606	284979
251.669	236565
251.732	89902
251.795	69791
251.859	74733
251.922	183609
251.985	115419
252.048	39668
252.111	27291
252.174	23009
252.237	34022
252.300	77302
252.363	95363
252.426	226000
252.489	101329
252.552	43670
252.615	30014
252.678	28243
252.741	59298
252.804	97733
252.867	236234
252.930	131368
252.993	59119
253.056	33704
253.119	24593
253.182	21476
253.245	41978
253.308	30511
253.371	19414
253.434	18221
253.497	17168
253.559	31964
253.622	23224
253.685	21885
253.748	23426
253.811	12550
253.874	16477
253.937	15219
254.000	11908
254.062	19324
254.125	34794
254.188	26729
254.251	23367
254.314	12352
254.376	19906
254.439	22120
254.502	16949
254.565	19829
254.628	38730
254.690	19972
254.753	11914
254.816	10123
254.878	11483
254.941	22432
255.004	25683
255.067	10427
255.129	9580
255.192	6074
255.255	5468
255.317	6743
255.380	5612
255.443	3697
255.505	4225
255.568	3957
255.631	5843
255.693	5720
255.756	4135
255.819	5189
255.881	4009
255.944	4319
256.006	4534
256.069	4829
256.132	4017
256.194	6195
256.257	18267
256.319	13264
256.382	13016
256.444	9116
256.507	6964
256.569	5453
256.632	6377
256.694	12109
256.757	34380
256.819	112373
256.882	50606
256.944	19981
257.007	13294
257.069	12439
257.132	9274
257.194	7874
257.257	6199
257.319	7296
257.381	10775
257.444	26680
257.506	119194
257.569	140127
257.631	52022
257.693	27521
257.756	16311
257.818	13327
257.880	9560
257.943	8091
258.005	6737
258.067	5905
258.130	6497
258.192	6768
258.254	13979
258.317	9381
258.379	6745
258.441	15743
258.503	17937
258.566	22524
258.628	35052
258.690	8836
258.753	8281
258.815	13025
258.877	8096
258.939	6602
259.001	5836
259.064	5765
259.126	7246
259.188	9929
259.250	6033
259.312	7746
259.375	14886
259.437	10567
259.499	6296
259.561	4765
259.623	6664
259.685	6204
259.747	7001
259.809	19974
259.872	44760
259.934	65043
259.996	61681
260.058	16427
260.120	7951
260.182	6983
260.244	5794
260.306	4491
260.368	5749
260.430	4855
260.492	9902
260.554	17157
260.616	12406
260.678	27296
260.740	46573
260.802	11712
260.864	8818
260.926	6289
260.988	7071
261.050	6232
261.112	15262
261.174	44964
261.236	38572
261.298	11186
261.359	17595
261.421	27953
261.483	8194
261.545	6632
261.607	4277
261.669	5936
261.731	10072
261.793	27807
261.854	11825
261.916	7646
261.978	6097
262.040	7950
262.102	6342
262.164	10182
262.225	8894
262.287	5028
262.349	13277
262.411	11122
262.472	5693
262.534	10449
262.596	26774
262.658	9336
262.719	5051
262.781	7669
262.843	25090
262.904	12211
262.966	9478
263.028	12836
263.090	62346
263.151	185832
263.213	59945
263.275	24442
263.336	12128
263.398	8673
263.459	6330
263.521	6561
263.583	13068
263.644	9552
263.706	4503
263.767	3944
263.829	3689
263.891	3048
263.952	3104
264.014	3145
264.075	6988
264.137	16797
264.198	9942
264.260	3712
264.321	3927
264.383	9758
264.444	25617
264.506	8700
264.567	5871
264.629	10154
264.690	22490
264.752	8678
264.813	5864
264.875	4847
264.936	5709
264.998	3522
265.059	4408
265.120	4482
265.182	9779
265.243	49689
265.305	60278
265.366	14936
265.427	7674
265.489	5757
265.550	4257
265.611	5374
265.673	4184
265.734	4364
265.795	4359
265.857	3315
265.918	5533
265.979	15317
266.040	85056
266.102	84351
266.163	22700
266.224	13601
266.286	9299
266.347	6138
266.408	5859
266.469	5809
266.530	5219
266.592	3207
266.653	7794
266.714	13383
266.775	5325
266.836	4125
266.898	3081
266.959	6906
267.020	4903
267.081	4701
267.142	4075
267.203	4283
267.264	2639
267.326	4776
267.387	2703
267.448	2508
267.509	3607
267.570	3795
267.631	3578
267.692	2066
267.753	2874
267.814	3026
267.875	7291
267.936	17766
267.997	10885
268.058	8720
268.119	5066
268.180	4479
268.241	3644
268.302	4361
268.363	3382
268.424	3660
268.485	3747
268.546	2534
268.607	1830
268.668	2161
268.729	2398
268.790	3601
268.851	3315
268.912	9666
268.972	13084
269.033	6699
269.094	3813
269.155	2816
269.216	2785
269.277	3190
269.338	3589
269.398	2729
269.459	3698
269.520	4902
269.581	6774
269.642	8267
269.702	5623
269.763	5108
269.824	4456
269.885	4568
269.945	8108
270.006	4590
270.067	2856
270.128	3177
270.188	2642
270.249	3550
270.310	2811
270.370	3142
270.431	3509
270.492	3070
270.553	4134
270.613	6367
270.674	16715
270.734	6568
270.795	4842
270.856	6311
270.916	4951
270.977	3423
271.038	4035
271.098	4798
271.159	7155
271.219	7809
271.280	3632
271.340	3400
271.401	3978
271.462	12231
271.522	7782
271.583	4658
271.643	4286
271.704	3886
271.764	5263
271.825	11409
271.885	42922
271.946	69840
272.006	19977
272.066	25402
272.127	54195
272.187	16712
272.248	8805
272.308	8727
272.369	34618
272.429	21239
272.489	11838
272.550	13004
272.610	11388
272.671	9413
272.731	9159
272.791	15631
272.852	8838
272.912	7144
272.972	4545
273.033	4314
273.093	7647
273.153	7469
273.214	5726
273.274	5727
273.334	22564
273.394	52546
273.455	18719
273.515	16325
273.575	40735
273.635	17278
273.696	20594
273.756	48776
273.816	20163
273.876	10348
273.936	22451
273.997	45803
274.057	11963
274.117	8375
274.177	11765
274.237	53129
274.297	53372
274.358	32676
274.418	36559
274.478	28284
274.538	11800
274.598	9578
274.658	32917
274.718	43506
274.778	17514
274.838	8585
274.898	17621
274.958	62037
275.018	51871
275.078	33451
275.138	13251
275.198	7416
275.258	5443
275.318	7538
275.378	11195
275.438	12640
275.498	9576
275.558	26660
275.618	58905
275.678	34723
275.738	17144
275.798	14340
275.858	8978
275.918	5115
275.978	6055
276.038	5462
276.098	4582
276.157	7930
276.217	26121
276.277	13157
276.337	8696
276.397	5058
276.457	6218
276.517	5225
276.576	3872
276.636	4233
276.696	6733
276.756	15243
276.815	13782
276.875	4921
276.935	6587
276.995	6513
277.055	4172
277.114	4119
277.174	6679
277.234	21381
277.293	10807
277.353	5868
277.413	5221
277.472	4723
277.532	5345
277.592	5811
277.651	20082
277.711	43753
277.771	15109
277.830	44501
277.890	40558
277.950	27355
278.009	94010
278.069	35163
278.128	28305
278.188	42216
278.248	19254
278.307	44971
278.367	31531
278.426	10220
278.486	7238
278.545	5787
278.605	4662
278.664	4671
278.724	6514
278.783	16864
278.843	52341
278.902	16256
278.962	8357
279.021	9330
279.081	13582
279.140	13377
279.199	9393
279.259	9068
279.318	10349
279.378	12769
279.437	22592
279.496	80294
279.556	272573
279.615	243680
279.675	59487
279.734	32748
279.793	41221
279.853	60858
279.912	23808
279.971	12903
280.031	11561
280.090	17800
280.149	35074
280.208	36712
280.268	182433
280.327	215099
280.386	47756
280.445	30220
280.505	27649
280.564	14262
280.623	10394
280.682	13206
280.742	22494
280.801	7779
280.860	5600
280.919	5688
280.978	5309
281.037	5049
281.097	4641
281.156	4977
281.215	4688
281.274	6630
281.333	28325
281.392	25014
281.451	6503
281.510	4387
281.569	3949
281.628	4139
281.688	3500
281.747	5133
281.806	4872
281.865	3572
281.924	2760
281.983	3219
282.042	3094
282.101	3221
282.160	2794
282.219	2026
282.278	4492
282.337	12329
282.396	9709
282.454	4490
282.513	5843
282.572	20047
282.631	13058
282.690	4714
282.749	3265
282.808	4892
282.867	5299
282.926	5210
282.985	3341
283.043	2258
283.102	2739
283.161	4616
283.220	11429
283.279	27549
283.338	8774
283.396	4451
283.455	4873
283.514	5340
283.573	6743
283.631	5441
283.690	4643
283.749	3822
283.808	8890
283.866	10408
283.925	4532
283.984	4525
284.043	5624
284.101	5864
284.160	4695
284.219	7071
284.277	6577
284.336	7551
284.395	27647
284.453	26915
284.512	9163
284.570	10914
284.629	10288
284.688	7982
284.746	8792
284.805	10600
284.863	12038
284.922	15684
284.981	19943
285.039	27521
285.098	51667
285.156	130379
285.215	329718
285.273	338789
285.332	162000
285.390	78608
285.449	48868
285.507	32609
285.566	23815
285.624	17614
285.683	13936
285.741	10580
285.799	9578
285.858	8287
285.916	8037
285.975	6479
286.033	5662
286.091	5156
286.150	4950
286.208	5442
286.267	6045
286.325	6619
286.383	8307
286.442	6412
286.500	4821
286.558	5144
286.616	3789
286.675	5860
286.733	5285
286.791	5015
286.850	5249
286.908	6864
286.966	11235
287.024	6027
287.083	5164
287.141	3659
287.199	5247
287.257	5589
287.315	4867
287.374	5637
287.432	13111
287.490	9758
287.548	6223
287.606	4981
287.664	6377
287.723	7511
287.781	10474
287.839	7505
287.897	10299
287.955	13979
288.013	24977
288.071	61194
288.129	216683
288.187	568039
288.245	296160
288.303	97376
288.361	54546
288.419	39178
288.477	26570
288.535	19107
288.593	13736
288.651	9494
288.709	7822
288.767	6549
288.825	6344
288.883	5230
288.941	5221
288.999	5092
289.057	4177
289.115	3736
289.173	5300
289.231	4603
289.289	4494
289.346	4049
289.404	4846
289.462	6710
289.520	6850
289.578	4187
289.636	3061
289.694	4078
289.751	3008
289.809	3469
289.867	2988
289.925	4600
289.983	4801
290.040	2823
290.098	2650
290.156	3494
290.214	3640
290.271	2688
290.329	3199
290.387	2095
290.444	1500
290.502	1376
290.560	2734
290.617	2919
290.675	2431
290.733	2410
290.790	2795
290.848	2299
290.906	3451
290.963	3104
291.021	2587
291.078	2770
291.136	3602
291.194	10512
291.251	26430
291.309	7893
291.366	3234
291.424	2747
291.481	2689
291.539	2182
291.596	3039
291.654	2169
291.711	1998
291.769	2437
291.826	7011
291.884	4531
291.941	2489
291.999	2652
292.056	2324
292.114	2928
292.171	2863
292.228	2919
292.286	3902
292.343	5795
292.401	8290
292.458	6085
292.515	3210
292.573	3831
292.630	4066
292.687	4179
292.745	3802
292.802	5538
292.859	15192
292.917	25974
292.974	15250
293.031	4950
293.089	3198
293.146	2331
293.203	2754
293.260	2409
293.318	3573
293.375	6529
293.432	3409
293.489	2803
293.546	3182
293.604	5796
293.661	17629
293.718	50057
293.775	24409
293.832	10445
293.889	7231
293.947	6629
294.004	5745
294.061	4984
294.118	10719
294.175	22926
294.232	32618
294.289	13578
294.346	6106
294.403	6525
294.460	5842
294.517	4935
294.574	4140
294.631	3655
294.688	5488
294.745	13698
294.802	54609
294.859	58045
294.916	20810
294.973	10019
295.030	8389
295.087	7446
295.144	5580
295.201	4644
295.258	4430
295.315	5555
295.372	17596
295.429	40765
295.486	17586
295.542	9513
295.599	20562
295.656	39859
295.713	25852
295.770	36199
295.827	14837
295.883	7559
295.940	6833
295.997	9052
296.054	9438
296.111	5107
296.167	3194
296.224	2460
296.281	2768
296.338	2132
296.394	2781
296.451	4285
296.508	13774
296.564	29085
296.621	19534
296.678	40855
296.734	66279
296.791	23055
296.848	10635
296.904	10665
296.961	20585
297.018	39647
297.074	33742
297.131	11287
297.187	9050
297.244	14047
297.301	40819
297.357	85180
297.414	29184
297.470	10958
297.527	7955
297.583	6660
297.640	6427
297.696	4219
297.753	3868
297.809	2346
297.866	2739
297.922	3023
297.979	2442
298.035	3373
298.092	6998
298.148	21254
298.204	21970
298.261	10192
298.317	18885
298.374	53414
298.430	32761
298.486	13139
298.543	9598
298.599	7186
298.656	9421
298.712	18435
298.768	60567
298.824	53856
298.881	15929
298.937	8594
298.993	7022
299.050	7587
299.106	6240
299.162	4139
299.218	5896
299.275	3548
299.331	5403
299.387	11372
299.443	43591
299.500	49382
299.556	18125
299.612	7904
299.668	7273
299.724	8334
299.780	10848
299.837	6727
299.893	9158
299.949	31603
300.005	42655
300.061	32053
300.117	65518
300.173	33509
300.229	13206
300.285	12834
300.341	14582
300.397	7697
300.453	4071
300.510	4848
300.566	5074
300.622	6372
300.678	17313
300.734	33523
300.790	33039
300.845	45989
300.901	26435
300.957	31785
301.013	26978
301.069	9448
301.125	6960
301.181	6711
301.237	5594
301.293	3311
301.349	3825
301.405	3162
301.461	2491
301.516	2812
301.572	3615
301.628	7797
301.684	7747
301.740	11978
301.796	20607
301.851	13629
301.907	21729
301.963	26519
302.019	44711
302.074	131246
302.130	133528
302.186	55238
302.242	21807
302.297	14991
302.353	13853
302.409	23519
302.464	21148
302.520	16245
302.576	39956
302.631	49702
302.687	24792
302.743	11407
302.798	6243
302.854	5836
302.910	5953
302.965	6891
303.021	11092
303.076	11066
303.132	12975
303.187	15946
303.243	8530
303.299	4701
303.354	4613
303.410	3873
303.465	3855
303.521	3565
303.576	3405
303.632	5894
303.687	12223
303.743	38372
303.798	35805
303.853	13920
303.909	7137
303.964	5883
304.020	8107
304.075	12252
304.130	11124
304.186	16784
304.241	19442
304.297	14933
304.352	8216
304.358	7848
304.407	4865
304.449	4624
304.463	4550
304.518	5288
304.539	4911
304.573	4300
304.629	5396
304.630	5502
304.684	10694
304.720	22758
304.739	28762
304.794	49441
304.811	41709
304.850	23173
304.902	10427
304.905	9620
304.960	7218
304.992	7348
305.015	7450
305.071	6720
305.083	6416
305.126	5304
305.173	4281
305.181	4126
305.236	3088
305.264	3309
305.292	3567
305.347	4464
305.354	4491
305.402	4625
305.445	6012
305.457	6392
305.512	8603
305.535	8096
305.567	7480
305.622	8630
305.626	8999
305.678	17273
305.716	35015
305.733	41423
305.788	50757
305.807	43148
305.843	30264
305.897	39845
305.898	39925
305.953	43626
305.988	28914
306.008	20890
306.063	11015
306.078	9899
306.118	7764
306.168	5429
306.173	5217
306.228	4551
306.259	3997
306.283	3725
306.338	4163
306.349	4331
306.393	4860
306.440	6383
306.448	6666
306.503	6969
306.530	7439
306.558	9434
306.613	19944
306.620	21627
306.668	31289
306.711	36503
306.723	36597
306.778	30213
306.801	22713
306.833	14129
306.888	7506
306.892	7283
306.943	5728
306.982	4561
306.997	4211
307.052	5036
307.072	5131
307.107	6079
307.162	8003
307.163	8057
307.217	13765
307.253	16502
307.272	16953
307.327	18219
307.343	16526
307.381	12697
307.434	11319
307.436	11623
307.491	22545
307.524	33792
307.546	36639
307.600	34021
307.614	29965
307.655	18167
307.704	10493
307.710	10286
307.765	12949
307.795	16077
307.819	19466
307.874	33779
307.885	34016
307.929	27185
307.975	18701
307.984	18664
308.038	27096
308.065	35367
308.093	61659
308.148	132953
308.156	150125
308.202	234608
308.246	290935
308.257	287735
308.312	153034
308.336	104190
308.366	72362
308.421	42790
308.426	40772
308.475	27831
308.517	20876
308.530	19317
308.585	15761
308.607	14539
308.639	14047
308.694	15585
308.697	15827
308.748	28471
308.787	42673
308.803	42831
308.857	33444
308.877	27822
308.912	22099
308.967	19530
308.967	19537
309.021	25501
309.058	32036
309.076	40881
309.130	75855
309.148	91668
309.185	179941
309.238	334532
309.239	335282
309.293	371158
309.328	329974
309.348	284566
309.402	130768
309.418	95703
309.457	63375
309.508	38856
309.511	37970
309.566	31940
309.598	30008
309.620	32003
309.674	39992
309.688	42485
309.729	39544
309.778	31719
309.783	30929
309.837	22289
309.868	18315
309.892	21183
309.946	30345
309.959	33597
310.001	43977
310.049	52933
310.055	51236
310.109	30350
310.139	18458
310.163	14482
310.218	8996
310.229	8220
310.272	7460
310.319	6492
310.326	6357
310.381	6201
310.409	6029
310.435	5927
310.489	6070
310.499	6036
310.543	5673
310.589	5642
310.598	5705
310.652	6067
310.679	6230
310.706	5497
310.760	3712
310.769	3476
310.814	3336
310.859	3206
310.868	3136
310.923	2945
310.948	2851
310.977	3494
311.031	4847
311.038	5021
311.085	4283
311.128	3520
311.139	3588
311.193	4004
311.218	4217
311.247	4081
311.301	3658
311.308	3629
311.356	3934
311.398	4155
311.410	4018
311.464	3434
311.488	3103
311.518	2898
311.572	2618
311.578	2598
311.626	4269
311.668	5747
311.680	5934
311.734	6685
311.758	7017
311.788	6583
311.842	5769
311.847	5684
311.896	7716
311.937	9525
311.950	9258
312.004	8040
312.027	7470
312.058	6091
312.112	3670
312.117	3437
312.165	3859
312.207	4236
312.297	7018
312.386	5537
312.476	4247
312.566	9147
312.656	4808
312.745	2867
312.835	3952
312.925	4496
313.015	4246
313.104	5033
313.194	3624
313.284	2962
313.374	3926
313.463	3986
313.553	2738
313.643	2766
313.732	2948
313.822	3011
313.912	3445
314.001	3484
314.091	5168
314.180	6451
314.270	6650
314.360	6906
314.449	5330
314.539	2883
314.628	2782
314.718	4098
314.808	6762
314.897	2594
314.987	3610
315.076	3801
315.166	6481
315.255	5842
315.345	5562
315.434	5862
315.524	5383
315.613	6508
315.703	7605
315.792	10705
315.881	22834
315.971	9274
316.060	12206
316.150	20034
316.239	22877
316.328	7932
316.418	3294
316.507	3529
316.597	4487
316.686	4718
316.775	9470
316.865	24684
316.954	5661
317.043	2547
317.133	3154
317.222	2736
317.311	3018
317.400	1769
317.490	5142
317.579	5580
317.668	4454
317.757	6624
317.847	17029
317.936	40713
318.025	18310
318.114	10038
318.203	6610
318.293	9422
318.382	20471
318.471	14686
318.560	23166
318.649	54590
318.738	11056
318.828	5823
318.917	8124
319.006	11203
319.095	27477
319.184	67867
319.273	31936
319.362	12205
319.451	6029
319.540	5250
319.629	10520
319.718	17972
319.807	10648
319.896	20103
319.985	82761
320.074	26689
320.163	8064
320.252	13982
320.341	10792
320.430	7716
320.519	9373
320.608	6095
320.697	5013
320.786	4759
320.875	5873
320.964	7583
321.053	11857
321.142	16769
321.230	18184
321.319	14778
321.408	33297
321.497	14342
321.586	13148
321.675	20753
321.764	19023
321.852	11867
321.941	18826
322.030	11831
322.119	14296
322.207	34271
322.296	32410
322.385	15774
322.474	14800
322.562	39337
322.651	21870
322.740	14582
322.829	21579
322.917	30574
323.006	13869
323.095	10896
323.183	10596
323.272	16341
323.361	29387
323.449	102832
323.538	32979
323.626	68320
323.715	41610
323.804	17237
323.892	62158
323.981	30024
324.069	10792
324.158	34571
324.246	31412
324.335	8744
324.424	11758
324.512	4335
324.601	5371
324.689	5332
324.778	9827
324.866	20480
324.954	6008
325.043	5401
325.131	13261
325.220	25134
325.308	29616
325.397	18642
325.485	11503
325.574	2817
325.662	2899
325.750	3870
325.839	3091
325.927	2482
326.015	4874
326.104	10767
326.192	15043
326.280	3996
326.369	4136
326.457	5261
326.545	9260
326.634	4062
326.722	2117
326.810	2127
326.898	3185
326.987	3034
327.075	9336
327.163	11642
327.251	5018
327.340	2865
327.428	2508
327.516	2277
327.604	3554
327.692	4159
327.781	5093
327.869	10007
327.957	6129
328.045	4614
328.133	2888
328.221	5484
328.309	4074
328.397	2538
328.485	4463
328.574	5406
328.662	20695
328.750	13125
328.838	6564
328.926	3241
329.014	3338
329.102	4619
329.190	14301
329.278	8115
329.366	2919
329.454	2243
329.542	2704
329.630	1419
329.718	3319
329.806	3847
329.893	4749
329.981	5343
330.069	11302
330.157	43739
330.245	123757
330.333	59812
330.421	9944
330.509	8212
330.597	24062
330.684	15702
330.772	7307
330.860	10352
330.948	14704
331.036	5523
331.123	2157
331.211	2649
331.299	4879
331.387	10762
331.475	19976
331.562	5576
331.650	3095
331.738	3899
331.825	6819
331.913	2410
332.001	2570
332.089	4476
332.176	13565
332.264	33802
332.352	23712
332.439	6027
332.527	4167
332.614	3314
332.702	5894
332.790	4406
332.877	13745
332.965	29196
333.052	6590
333.140	5833
333.228	14563
333.315	3627
333.403	5010
333.490	17943
333.578	14096
333.665	14661
333.753	7318
333.840	2911
333.928	5968
334.015	19873
334.103	30434
334.190	93896
334.278	20979
334.365	8292
334.452	4922
334.540	3866
334.627	4848
334.715	9803
334.802	23264
334.889	122484
334.977	115107
335.064	12298
335.151	5224
335.239	5647
335.326	9462
335.413	42852
335.501	57210
335.588	6899
335.675	4400
335.762	6207
335.850	11434
335.937	8637
336.024	27930
336.111	121476
336.199	43757
336.286	6794
336.373	3395
336.460	2307
336.547	2669
336.635	3997
336.722	3787
336.809	3770
336.896	6987
336.983	24278
337.070	62317
337.157	93736
337.245	80001
337.332	52684
337.419	6222
337.506	3329
337.593	5115
337.680	19411
337.767	59770
337.854	15349
337.941	17430
338.028	24176
338.115	7587
338.202	9494
338.289	21380
338.376	76736
338.463	22522
338.550	34706
338.637	37063
338.724	14349
338.811	23155
338.898	3723
338.984	2702
339.071	3821
339.158	3300
339.245	10771
339.332	7835
339.419	14406
339.506	13956
339.593	1861
339.679	2750
339.766	2654
339.853	4772
339.940	7410
340.027	3131
340.113	2600
340.200	4421
340.287	2953
340.374	4127
340.460	6462
340.547	2512
340.634	6287
340.720	23490
340.807	12902
340.894	1954
340.980	2586
341.067	2626
341.154	2523
341.240	4795
341.327	10630
341.414	3308
341.500	1580
341.587	2655
341.674	1800
341.760	6892
341.847	8088
341.933	2030
342.020	522
342.106	1992
342.193	2052
342.279	5828
342.366	3079
342.452	7492
342.539	4056
342.625	9535
342.712	23724
342.798	9442
342.885	3106
342.971	1035
343.058	1507
343.144	1718
343.230	2028
343.317	2052
343.403	765
343.490	878
343.576	982
343.662	2093
343.749	2673
343.835	3821
343.921	11588
344.008	70527
344.094	152534
344.180	30949
344.267	9751
344.353	35881
344.439	38948
344.525	13381
344.612	6058
344.698	5287
344.784	2161
344.870	2032
344.957	1039
345.043	4405
345.129	2141
345.215	6278
345.301	3557
345.387	2427
345.474	1414
345.560	1697
345.646	2421
345.732	2136
345.818	2409
345.904	1933
345.990	2575
346.076	4030
346.162	8592
346.249	3086
346.335	1737
346.421	3683
346.507	15647
346.593	55072
346.679	10948
346.765	3425
346.851	1574
346.937	1971
347.023	2521
347.108	3268
347.194	2142
347.280	3103
347.366	3664
347.452	15587
347.538	68326
347.624	44127
347.710	34618
347.796	5449
347.882	2475
347.967	2468
348.053	3647
348.139	2766
348.225	1521
348.311	1798
348.397	889
348.482	3554
348.568	2717
348.654	679
348.740	2226
348.825	1648
348.911	6472
348.997	32065
349.083	62381
349.168	9943
349.254	1970
349.340	2116
349.425	1775
349.511	3032
349.597	3185
349.682	8466
349.768	32120
349.854	13841
349.939	2356
350.025	2132
350.110	4057
350.196	2258
350.282	69
350.367	1922
350.453	6551
350.538	6131
350.624	2932
350.709	3538
350.795	1179
350.880	1538
350.966	3357
351.051	5596
351.137	4489
351.222	2586
351.308	8554
351.393	25627
351.479	4515
351.564	1290
351.649	2006
351.735	1631
351.820	1024
351.906	2621
351.991	3504
352.076	17275
352.162	23877
352.247	4390
352.332	2913
352.418	5189
352.503	7458
352.588	36156
352.673	26084
352.759	6063
352.844	1891
352.929	3542
353.014	3545
353.100	2810
353.185	3048
353.270	6753
353.355	7393
353.441	2527
353.526	3643
353.611	7149
353.696	7780
353.781	4998
353.866	975
353.952	3130
354.037	6922
354.122	16893
354.207	15164
354.292	5345
354.377	1582
354.462	2576
354.547	2561
354.632	3554
354.717	3499
354.802	2913
354.887	1376
354.972	1556
355.057	922
355.142	1203
355.227	1977
355.312	4790
355.397	10464
355.482	27545
355.567	12223
355.652	9768
355.737	11166
355.822	39087
355.907	28956
355.991	4883
356.076	1316
356.161	2328
356.246	1497
356.331	3283
356.416	9820
356.501	73979
356.585	71283
356.670	8325
356.755	5618
356.840	9144
356.924	47839
357.009	174662
357.094	57119
357.179	9493
357.263	5447
357.348	6799
357.433	6699
357.517	5427
357.602	3193
357.687	2231
357.771	2918
357.856	7342
357.941	9021
358.025	41477
358.110	181102
358.195	74054
358.279	8642
358.364	6211
358.448	22810
358.533	66474
358.617	44617
358.702	47004
358.787	14360
358.871	7845
358.956	5411
359.040	1425
359.125	505
359.209	2269
359.294	2842
359.378	4745
359.462	5272
359.547	4265
359.631	3371
359.716	1608
359.800	1418
359.885	5008
359.969	1988
360.053	2186
360.138	1081
360.222	3242
360.306	7906
360.391	6193
360.475	7518
360.559	17613
360.644	22774
360.728	17803
360.812	39757
360.896	110114
360.981	38558
361.065	17647
361.149	4127
361.233	3593
361.318	2555
361.402	3574
361.486	2844
361.570	2377
361.654	4183
361.739	13228
361.823	71436
361.907	107847
361.991	14979
362.075	7311
362.159	15790
362.243	10045
362.327	8872
362.411	11204
362.495	6235
362.580	3544
362.664	2224
362.748	1137
362.832	3303
362.916	4725
363.000	20521
363.084	75372
363.168	125164
363.252	25246
363.336	7759
363.420	13769
363.503	58717
363.587	67083
363.671	9623
363.755	5365
363.839	8475
363.923	2714
364.007	8429
364.091	11895
364.175	21479
364.258	95975
364.342	49212
364.426	34249
364.510	15530
364.594	12043
364.677	19107
364.761	98392
364.845	62610
364.929	15872
365.013	10679
365.096	9908
365.180	12385
365.264	25926
365.347	98689
365.431	38213
365.515	7726
365.598	2653
365.682	3858
365.766	7104
365.849	9674
365.933	4767
366.017	6821
366.100	4403
366.184	1803
366.267	2865
366.351	1349
366.435	1576
366.518	418
366.602	1131
366.685	1883
366.769	3404
366.852	7183
366.936	11263
367.019	5487
367.103	5024
367.186	12213
367.270	2891
367.353	856
367.436	2165
367.520	1151
367.603	2757
367.687	3457
367.770	8904
367.853	5861
367.937	25118
368.020	39882
368.104	7633
368.187	6652
368.270	9658
368.353	8689
368.437	18495
368.520	51243
368.603	24439
368.687	27138
368.770	51059
368.853	10283
368.936	11452
369.020	10552
369.103	3045
369.186	1838
369.269	2363
369.352	6346
369.436	9278
369.519	5436
369.602	1042
369.685	3856
369.768	3802
369.851	2942
369.934	1321
370.018	2338
370.101	6929
370.184	7088
370.267	5100
370.350	8381
370.433	15237
370.516	47057
370.599	54281
370.682	12748
370.765	24137
370.848	31903
370.931	65129
371.014	23682
371.097	3556
371.180	2945
371.263	1831
371.346	599
371.429	2021
371.511	1380
371.594	4873
371.677	9468
371.760	13444
371.843	10700
371.926	66216
372.009	145955
372.091	39629
372.174	26404
372.257	69658
372.340	23225
372.423	16903
372.505	20159
372.588	7547
372.671	18218
372.754	63874
372.836	29271
372.919	27140
373.002	53430
373.085	13048
373.167	9389
373.250	25175
373.332	63971
373.415	96451
373.498	197509
373.580	64107
373.663	94637
373.746	121591
373.828	22681
373.911	9800
373.993	10802
374.076	53460
374.159	47344
374.241	17652
374.324	50915
374.406	32735
374.489	57135
374.571	159980
374.654	56752
374.736	28531
374.819	98796
374.901	142156
374.983	141937
375.066	21302
375.148	8885
375.231	43045
375.313	81766
375.395	25719
375.478	4874
375.560	3539
375.643	6526
375.725	27394
375.807	126867
375.890	99614
375.972	44140
376.054	20435
376.136	39823
376.219	15928
376.301	33305
376.383	102408
376.465	33313
376.548	17291
376.630	24214
376.712	81905
376.794	32732
376.877	4035
376.959	1681
377.041	3667
377.123	9606
377.205	11701
377.287	1657
377.369	1570
377.452	147
377.534	1383
377.616	2232
377.698	1899
377.780	374
377.862	1653
377.944	2015
378.026	361
378.108	1382
378.190	1962
378.272	1343
378.354	503
378.436	874
378.518	4389
378.600	19579
378.682	15396
378.764	33768
378.846	24906
378.928	6655
379.010	8819
379.091	3462
379.173	1775
379.255	566
379.337	4041
379.419	15426
379.501	50565
379.583	18081
379.664	3890
379.746	9442
379.828	32748
379.910	44509
379.991	38652
380.073	4904
380.155	3392
380.237	1816
380.318	1221
380.400	1966
380.482	7021
380.564	9207
380.645	7706
380.727	6751
380.809	4640
380.890	2418
380.972	1845
381.053	1859
381.135	4186
381.217	9921
381.298	34252
381.380	14486
381.461	15151
381.543	81525
381.624	95256
381.706	14247
381.787	7475
381.869	8546
381.951	39660
382.032	155868
382.113	83906
382.195	13144
382.276	8998
382.358	21692
382.439	73037
382.521	86000
382.602	139598
382.684	52796
382.765	97259
382.846	92333
382.928	119295
383.009	59044
383.090	43922
383.172	180638
383.253	267755
383.334	91525
383.416	112787
383.497	51706
383.578	20631
383.659	39124
383.741	160164
383.822	422259
383.903	195397
383.984	71324
384.066	126723
384.147	70986
384.228	13694
384.309	9086
384.390	5939
384.471	4087
384.553	5260
384.634	7947
384.715	8412
384.796	3349
384.877	5444
384.958	30449
385.039	35360
385.120	10195
385.201	6166
385.282	6111
385.363	8405
385.444	6177
385.525	13759
385.606	58414
385.687	48980
385.768	10312
385.849	13753
385.930	70709
386.011	120371
386.092	26443
386.173	5846
386.254	3905
386.335	4915
386.416	4476
386.496	20186
386.577	32903
386.658	12298
386.739	5639
386.820	7404
386.901	5315
386.981	5214
387.062	2217
387.143	6793
387.224	31601
387.304	28773
387.385	9371
387.466	6072
387.547	9143
387.627	4346
387.708	12487
387.789	62208
387.869	79018
387.950	19640
388.031	2558
388.111	2535
388.192	12834
388.273	19628
388.353	9806
388.434	5531
388.514	13085
388.595	71034
388.676	82493
388.756	32672
388.837	29191
388.917	15729
388.998	2051
389.078	3699
389.159	4220
389.239	2384
389.320	6042
389.400	2968
389.480	12857
389.561	38038
389.641	17088
389.722	4784
389.802	8294
389.883	15724
389.963	46776
390.043	29775
390.124	7945
390.204	11940
390.284	36555
390.365	23733
390.445	45128
390.525	131892
390.605	96689
390.686	20581
390.766	6047
390.846	3429
390.927	1507
391.007	2604
391.087	4175
391.167	2001
391.247	1509
391.328	7525
391.408	12356
391.488	7070
391.568	756
391.648	3439
391.728	5582
391.808	5888
391.888	5605
391.969	18819
392.049	30162
392.129	13399
392.209	16202
392.289	42588
392.369	22336
392.449	20648
392.529	11167
392.609	8957
392.689	12446
392.769	42138
392.849	34174
392.929	23881
393.009	63181
393.089	42503
393.169	34773
393.248	146182
393.328	603141
393.408	558992
393.488	106084
393.568	27215
393.648	13354
393.728	8580
393.807	5588
393.887	7611
393.967	5751
394.047	8077
394.127	10125
394.206	21667
394.286	101189
394.366	441780
394.446	404102
394.525	75070
394.605	17911
394.685	14150
394.764	31557
394.844	55192
394.924	34962
395.003	9442
395.083	5466
395.163	6008
395.242	4606
395.322	5967
395.402	2982
395.481	7329
395.561	20883
395.640	59186
395.720	39611
395.799	69370
395.879	52958
395.958	34185
396.038	144614
396.117	569662
396.197	537897
396.276	128206
396.356	37719
396.435	25965
396.515	16573
396.594	17046
396.673	35576
396.753	173922
396.832	541092
396.912	324903
396.991	58820
397.070	16338
397.150	7446
397.229	6680
397.308	8386
397.388	10473
397.467	5442
397.546	3350
397.625	682
397.705	5059
397.784	4260
397.863	2347
397.942	2158
398.022	3175
398.101	18305
398.180	59653
398.259	27411
398.338	6030
398.417	2839
398.497	2254
398.576	3830
398.655	1146
398.734	662
398.813	2869
398.892	17915
398.971	66055
399.050	28606
399.129	2116
399.208	1232
399.287	2995
399.366	1381
399.445	912
399.524	1172
399.603	306
399.682	4335
399.761	17768
399.840	69720
399.919	50434
399.998	5784
400.077	188
400.156	-106
400.235	3868
400.313	814
400.392	2128
400.471	16246
400.550	25346
400.629	5529
400.708	2906
400.786	2811
400.865	12644
400.944	10541
401.023	5094
401.102	201
401.180	425
401.259	553
401.338	2330
401.416	2747
401.495	2131
401.574	1442
401.652	1366
401.731	2666
401.810	1539
401.888	-336
401.967	-155
402.046	150
402.124	1951
402.203	3576
402.281	2719
402.360	2241
402.438	14771
402.517	9397
402.596	3318
402.674	2357
402.753	1196
402.831	433
402.910	1649
402.988	6021
403.066	19414
403.145	10008
403.223	6471
403.302	12994
403.380	9154
403.459	8155
403.537	3584
403.615	1552
403.694	-864
403.772	857
403.850	46
403.929	-365
404.007	482
404.085	2220
404.164	978
404.242	882
404.320	5960
404.398	25956
404.477	33968
404.555	108633
404.633	87607
404.711	22083
404.789	9136
404.868	1237
404.946	867
405.024	-126
405.102	531
405.180	-636
405.258	-1009
405.336	492
405.415	472
405.493	3351
405.571	2395
405.649	-539
405.727	352
405.805	2738
405.883	1942
405.961	2430
406.039	3403
406.117	538
406.195	3333
406.273	19263
406.351	83072
406.429	45119
406.507	6338
406.585	1340
406.663	1569
406.740	2684
406.818	1431
406.896	835
406.974	1918
407.052	5077
407.130	45439
407.208	61844
407.285	10580
407.363	607
407.441	1098
407.519	573
407.596	3050
407.674	18768
407.752	72062
407.830	49388
407.907	10898
407.985	1100
408.063	1551
408.141	-448
408.218	3064
408.296	1046
408.373	467
408.451	1780
408.529	1858
408.606	-264
408.684	-15
408.762	8
408.839	-691
408.917	-688
408.994	-296
409.072	-462
409.149	33
409.227	1013
409.304	1982
409.382	994
409.459	964
409.537	2354
409.614	2371
409.692	48
409.769	828
409.846	2230
409.924	3649
410.001	1579
410.079	902
410.156	1252
410.233	1485
410.311	-45
410.388	-54
410.465	692
410.543	578
410.620	335
410.697	1511
410.775	1609
410.852	-862
410.929	1735
411.006	2081
411.083	711
411.161	3288
411.238	4586
411.315	2798
411.392	-198
411.469	1857
411.547	1561
411.624	-970
411.701	-697
411.778	1163
411.855	3841
411.932	1451
412.009	-31
412.086	-343
412.163	759
412.240	934
412.317	2169
412.394	1408
412.471	-175
412.548	-324
412.625	-268
412.702	1529
412.779	2985
412.856	1530
412.933	-849
413.010	722
413.087	3932
413.164	13814
413.241	19833
413.318	3489
413.395	2312
413.471	3141
413.548	481
413.625	1461
413.702	1810
413.779	1499
413.855	-590
413.932	-1136
414.009	-1378
414.086	80
414.162	-331
414.239	1750
414.316	13530
414.393	33485
414.469	10523
414.546	1077
414.623	-220
414.699	-184
414.776	-140
414.853	92
414.929	587
415.006	-150
415.082	1976
415.159	1651
415.236	542
415.312	750
415.389	2025
415.465	3137
415.542	347
415.618	-331
415.695	2491
415.771	1245
415.848	841
415.924	1113
416.000	750
416.077	847
416.153	-827
416.230	-1082
416.306	-587
416.383	114
416.459	-501
416.535	19
416.612	-363
416.688	317
416.764	-884
416.841	-445
416.917	-116
416.993	639
417.069	512
417.146	2100
417.222	3277
417.298	1193
417.374	-440
417.451	619
417.527	120
417.603	1061
417.679	549
417.755	467
417.831	-1092
417.908	-129
417.984	-1308
418.060	-504
418.136	2845
418.212	3887
418.288	1179
418.364	495
418.440	-459
418.516	1557
418.592	3457
418.668	5836
418.744	7653
418.820	6083
418.896	668
418.972	-880
419.048	46
419.124	3481
419.200	1349
419.276	-28
419.352	-1236
419.428	-186
419.504	-329
419.579	949
419.655	-79
419.731	813
419.807	5434
419.883	10160
419.959	6261
420.034	1873
420.110	3522
420.186	19041
420.262	14180
420.337	1734
420.413	446
420.489	-221
420.565	24
420.640	-298
420.716	867
420.792	-1156
420.867	391
420.943	-1
421.019	1951
421.094	912
421.170	-505
421.245	-256
421.321	343
421.397	1087
421.472	12535
421.548	36656
421.623	17410
421.699	2504
421.774	1278
421.850	995
421.925	2257
422.001	2449
422.076	1415
422.152	2420
422.227	3830
422.302	5561
422.378	7900
422.453	16169
422.529	50535
422.604	207863
422.679	386621
422.755	177616
422.830	38580
422.905	13308
422.981	6075
423.056	4255
423.131	2889
423.207	928
423.282	2529
423.357	5114
423.432	2692
423.508	3666
423.583	8059
423.658	5852
423.733	1932
423.808	1952
423.883	1903
423.959	1221
424.034	552
424.109	594
424.184	32
424.259	-536
424.334	-974
424.409	-254
424.484	-109
424.559	-128
424.634	65
424.709	1524
424.784	985
424.859	598
424.934	1564
425.009	13290
425.084	21638
425.159	6954
425.234	733
425.309	-1041
425.384	-336
425.459	-266
425.534	51
425.609	258
425.683	-526
425.758	-246
425.833	425
425.908	1453
425.983	7360
426.058	23093
426.132	8165
426.207	1051
426.282	3839
426.357	2518
426.431	319
426.506	-82
426.581	392
426.655	1308
426.730	-236
426.805	-793
426.879	515
426.954	404
427.029	2742
427.103	24846
427.178	65516
427.253	25847
427.327	2442
427.402	2248
427.476	5567
427.551	1418
427.625	680
427.700	1493
427.774	-20
427.849	1440
427.923	-516
427.998	-530
428.072	100
428.147	4198
428.221	19296
428.296	47886
428.370	18150
428.444	2710
428.519	4841
428.593	11377
428.667	8245
428.742	12078
428.816	10606
428.890	35904
428.965	42374
429.039	13129
429.113	12492
429.188	3473
429.262	100
429.336	2547
429.410	9862
429.485	6323
429.559	8953
429.633	7011
429.707	1538
429.781	7133
429.855	40362
429.930	50503
430.004	33274
430.078	58233
430.152	51837
430.226	83564
430.300	65525
430.374	7958
430.448	3953
430.522	18460
430.596	57840
430.670	32166
430.744	63766
430.818	86816
430.892	15421
430.966	2438
431.040	59
431.114	-546
431.188	78
431.262	230
431.336	179
431.410	5115
431.484	13539
431.557	7556
431.631	205
431.705	1138
431.779	9590
431.853	41537
431.927	22684
432.000	2600
432.074	77
432.148	1308
432.222	1052
432.295	428
432.369	148
432.443	2631
432.516	26687
432.590	67759
432.664	20825
432.737	1968
432.811	-872
432.885	-868
432.958	-501
433.032	-284
433.106	-1643
433.179	44
433.253	-800
433.326	-788
433.400	-668
433.473	-239
433.547	-822
433.620	71
433.694	1022
433.767	1777
433.841	-6
433.914	-1168
433.988	-1254
434.061	160
434.134	-1529
434.208	-640
434.281	-644
434.355	-842
434.428	-359
434.501	-908
434.575	-1129
434.648	-633
434.721	-1229
434.795	-928
434.868	-1260
434.941	-1620
435.014	-1876
435.088	-732
435.161	402
435.234	626
435.307	1059
435.381	-12
435.454	-35
435.527	545
435.600	97
435.673	-73
435.746	-179
435.819	-999
435.892	-1312
435.966	-410
436.039	-1087
436.112	-291
436.185	-1497
436.258	-1261
436.331	-1553
436.404	-1266
436.477	-1275
436.550	-1190
436.623	-1638
436.696	-1611
436.769	-304
436.842	-131
436.915	-323
436.987	963
437.060	-627
437.133	-1017
437.206	-1485
437.279	-209
437.352	-1720
437.425	-253
437.498	-611
437.570	2050
437.643	770
437.716	-982
437.789	-913
437.861	1073
437.934	5080
438.007	1682
438.080	-882
438.152	180
438.225	4194
438.298	37615
438.370	104152
438.443	36842
438.516	5968
438.588	646
438.661	-856
438.734	-189
438.806	-544
438.879	-203
438.951	149
439.024	2649
439.096	-22
439.169	-623
439.241	-799
439.314	-408
439.386	1039
439.459	2916
439.531	4252
439.604	1286
439.676	-383
439.749	-1489
439.821	-1556
439.893	-730
439.966	-902
440.038	855
440.110	215
440.183	-1413
440.255	-930
440.327	1710
440.400	13306
440.472	57858
440.544	33676
440.617	3630
440.689	1393
440.761	2735
440.833	4558
440.905	2697
440.978	-696
441.050	-408
441.122	-1056
441.194	-616
441.266	-1411
441.338	-1098
441.411	1010
441.483	13462
441.555	20397
441.627	3748
441.699	2249
441.771	1544
441.843	-265
441.915	-1086
441.987	-1065
442.059	-457
442.131	-82
442.203	1425
442.275	1343
442.347	1544
442.419	1246
442.491	16607
442.563	32105
442.635	13915
442.706	12749
442.778	9357
442.850	323
442.922	-859
442.994	220
443.066	1472
443.137	873
443.209	277
443.281	1103
443.353	5302
443.425	24631
443.496	75056
443.568	58005
443.640	16309
443.711	2496
443.783	225
443.855	66
443.926	-187
443.998	667
444.070	1213
444.141	-95
444.213	1602
444.285	2066
444.356	1319
444.428	1480
444.499	-99
444.571	-895
444.642	-1592
444.714	-1004
444.785	1296
444.857	1809
444.928	8634
445.000	5196
445.071	5706
445.143	6205
445.214	2667
445.285	5240
445.357	21123
445.428	62471
445.500	123240
445.571	66578
445.642	27712
445.714	14084
445.785	17212
445.856	3341
445.928	2037
445.999	954
446.070	410
446.141	830
446.213	911
446.284	-717
446.355	1894
446.426	-153
446.497	553
446.569	1906
446.640	3352
446.711	979
446.782	330
446.853	1568
446.924	2163
446.995	-206
447.066	231
447.138	1775
447.209	704
447.280	-1002
447.351	-799
447.422	-1293
447.493	516
447.564	740
447.635	834
447.706	-143
447.777	-968
447.847	-1115
447.918	-1293
447.989	478
448.060	1853
448.131	5988
448.202	4798
448.273	2034
448.344	485
448.414	-800
448.485	-267
448.556	-1094
448.627	-930
448.698	332
448.768	-1089
448.839	-995
448.910	2219
448.981	2047
449.051	-1119
449.122	-1359
449.193	-1030
449.263	-601
449.334	-641
449.405	-465
449.475	2349
449.546	904
449.616	2695
449.687	1395
449.758	627
449.828	-447
449.899	-1184
449.969	-1532
450.040	-594
450.110	587
450.181	1405
450.251	-713
450.322	-1314
450.392	339
450.463	-344
450.533	-566
450.604	-537
450.674	-76
450.744	-228
450.815	-1376
450.885	-863
450.955	-739
451.026	-439
451.096	-525
451.166	267
451.237	3924
451.307	11190
451.377	3402
451.447	-650
451.518	-981
451.588	-292
451.658	-995
451.728	948
451.799	11249
451.869	13802
451.939	1796
452.009	-494
452.079	-408
452.149	405
452.219	1582
452.289	13535
452.360	11389
452.430	742
452.500	-75
452.570	482
452.640	1808
452.710	7771
452.780	12847
452.850	7350
452.920	5015
452.990	2283
453.060	431
453.129	591
453.199	2619
453.269	15926
453.339	36875
453.409	57876
453.479	54064
453.549	78602
453.619	83140
453.688	33344
453.758	3848
453.828	878
453.898	-12
453.968	-193
454.037	156
454.087	-328
454.107	-539
454.168	-1159
454.177	-1267
454.247	-309
454.249	-292
454.316	-327
454.330	-128
454.386	591
454.411	2417
454.456	5261
454.492	7616
454.525	9725
454.574	4917
454.595	2815
454.655	-125
454.665	-592
454.734	309
454.736	385
454.804	2329
454.817	4335
454.873	12103
454.898	13509
454.943	15854
454.979	10226
455.013	5200
455.060	2852
455.082	1961
455.141	2114
455.152	2257
455.221	11487
455.222	11740
455.291	30187
455.303	35088
455.360	52224
455.384	78442
455.430	118961
455.465	89165
455.499	62750
455.546	31870
455.569	18078
455.627	9331
455.638	7789
455.707	1303
455.708	1313
455.777	311
455.789	311
455.846	228
455.869	218
455.916	248
455.950	324
455.985	250
456.031	395
456.054	513
456.112	451
456.124	446
456.193	525
456.193	510
456.262	69
456.274	379
456.332	1590
456.355	1420
456.401	788
456.436	610
456.470	504
456.516	-345
456.540	-767
456.597	-309
456.609	-202
456.678	-283
456.678	-295
456.747	-221
456.759	-363
456.817	-968
456.840	-692
456.886	-308
456.920	-689
456.955	-864
457.001	-9
457.024	370
457.082	487
457.093	557
457.162	2321
457.163	2344
457.232	3375
457.243	3120
457.301	1193
457.324	521
457.370	-261
457.405	146
457.439	596
457.485	-77
457.508	-419
457.566	344
457.577	518
457.646	907
457.647	920
457.715	1967
457.727	2290
457.784	4567
457.808	6038
457.853	7387
457.889	8301
457.922	7535
457.969	5144
457.991	5847
458.050	8060
458.060	8439
458.129	14086
458.130	14226
458.198	10522
458.211	9487
458.267	5266
458.292	3035
458.336	1606
458.372	1933
458.405	3665
458.453	5813
458.474	7703
458.533	15025
458.543	15570
458.611	22177
458.614	22312
458.680	11172
458.694	8245
458.749	3939
458.775	2819
458.818	1601
458.855	1209
458.887	959
458.936	610
458.955	584
459.016	373
459.024	398
459.093	1830
459.097	1820
459.162	771
459.177	815
459.230	1400
459.257	1515
459.299	1701
459.338	1811
459.368	1676
459.418	1940
459.437	1896
459.499	1541
459.505	1552
459.574	767
459.579	840
459.643	1556
459.659	1283
459.711	937
459.740	1155
459.780	1101
459.820	1297
459.849	1533
459.900	1648
459.917	1646
459.981	2196
459.986	2205
460.054	1676
460.061	1603
460.123	1672
460.141	1996
460.191	2776
460.222	2768
460.260	2457
460.302	2607
460.328	2838
460.382	3239
460.397	3355
460.462	3013
460.465	3184
460.534	8663
460.543	9341
460.602	35456
460.623	45232
460.671	72308
460.703	97262
460.739	90189
460.783	70411
460.808	55013
460.864	9130
460.876	6439
460.944	2558
460.945	2522
461.013	2489
461.024	2483
461.081	2115
461.104	2127
461.150	2001
461.184	1667
461.218	1470
461.264	1495
461.286	1709
461.345	1958
461.355	1901
461.423	1814
461.425	1802
461.491	1762
461.505	1873
461.559	4082
461.585	5011
461.628	8461
461.665	12499
461.696	14305
461.745	18983
461.764	17430
461.825	6656
461.832	6407
461.901	3139
461.905	3105
461.969	1691
461.985	1488
462.037	2551
462.065	2985
462.105	2854
462.145	2644
462.173	3870
462.225	6708
462.241	7515
462.305	11135
462.310	10835
462.378	6810
462.385	5934
462.446	3130
462.465	2717
462.514	2351
462.545	2340
462.582	2139
462.625	1957
462.650	1940
462.705	1405
462.718	1405
462.785	2573
462.786	2602
462.854	3434
462.865	3678
462.922	5216
462.945	5886
462.990	4885
463.025	3406
463.058	2880
463.104	2215
463.126	1970
463.184	1925
463.194	1986
463.262	1984
463.264	2002
463.330	2414
463.344	2407
463.398	2922
463.424	3206
463.466	2931
463.504	2777
463.533	2956
463.583	3167
463.601	3313
463.663	3522
463.669	3542
463.737	4138
463.743	4155
463.805	7839
463.823	9121
463.873	13090
463.903	15450
463.940	16292
463.982	18006
464.008	15135
464.062	6935
464.076	6415
464.142	3231
464.144	3193
464.211	2601
464.221	2621
464.279	2708
464.301	2671
464.347	2557
464.381	2651
464.414	3262
464.461	3863
464.482	4180
464.540	5187
464.550	5002
464.617	3439
464.620	3377
464.685	4547
464.699	4820
464.753	6259
464.779	7034
464.820	7917
464.859	8633
464.888	7965
464.938	6853
464.956	7161
465.018	8068
465.023	7900
465.091	5527
465.098	5273
465.158	5262
465.177	5293
465.226	5611
465.257	5769
465.293	6069
465.336	6349
465.361	6685
465.416	7467
465.428	7850
465.495	9915
465.496	9971
465.563	16021
465.575	17091
465.631	21575
465.654	23698
465.698	16179
465.734	9107
465.765	8127
465.813	6467
465.833	6186
465.893	6078
465.900	6148
465.968	6564
465.972	6584
466.035	6672
466.052	6675
466.102	7181
466.131	7440
466.170	7035
466.210	6569
466.237	7169
466.290	8386
466.304	8365
466.369	8013
466.372	8055
466.439	8941
466.449	9033
466.506	9673
466.528	9920
466.573	11971
466.607	13482
466.641	18925
466.687	26387
466.708	28837
466.766	35757
466.775	33540
466.842	16307
466.845	15452
466.909	12195
466.925	11476
466.977	10979
467.004	10720
467.044	11057
467.083	11355
467.111	12061
467.163	13331
467.178	13651
467.242	14874
467.245	14817
467.312	13050
467.321	12793
467.379	12028
467.400	11713
467.446	12030
467.480	12219
467.559	12402
467.638	9625
467.717	9577
467.796	10887
467.875	10490
467.955	9982
468.034	13834
468.113	29721
468.192	42703
468.271	14261
468.350	9557
468.429	10508
468.508	11715
468.588	9677
468.667	8661
468.746	8683
468.825	7713
468.904	8155
468.983	8544
469.062	13193
469.141	15518
469.220	7680
469.299	7363
469.378	8265
469.456	12101
469.535	10861
469.614	9180
469.693	9201
469.772	11098
469.851	14899
469.930	11674
470.009	8869
470.088	8819
470.166	8483
470.245	11697
470.324	13806
470.403	10930
470.482	9226
470.560	8143
470.639	7646
470.718	8914
470.797	7380
470.875	8876
470.954	10152
471.033	12357
471.111	6519
471.190	6430
471.269	5930
471.347	6500
471.426	7330
471.505	7692
471.583	8987
471.662	9514
471.740	7281
471.819	7999
471.898	7251
471.976	7297
472.055	6991
472.133	9940
472.212	12253
472.290	11466
472.369	6660
472.447	8255
472.526	6121
472.604	7557
472.683	6148
472.761	7456
472.839	6029
472.918	7913
472.996	6405
473.075	7972
473.153	7826
473.231	6127
473.310	7951
473.388	7441
473.466	6371
473.545	8545
473.623	10069
473.701	8541
473.780	6482
473.858	5418
473.936	6794
474.014	6974
474.093	8462
474.171	12691
474.249	14761
474.327	9904
474.405	5249
474.484	6572
474.562	5504
474.640	6172
474.718	6591
474.796	7016
474.874	7221
474.952	6431
475.030	6431
475.108	6654
475.187	8058
475.265	8095
475.343	8260
475.421	9433
475.499	6757
475.577	6584
475.655	7819
475.733	15829
475.811	25896
475.889	24524
475.966	17765
476.044	6519
476.122	5664
476.200	6758
476.278	5760
476.356	5956
476.434	6339
476.512	6689
476.590	7127
476.667	7551
476.745	4545
476.823	6260
476.901	5567
476.979	5491
477.056	5908
477.134	5304
477.212	6154
477.290	5413
477.367	4984
477.445	5349
477.523	4082
477.601	5168
477.678	5188
477.756	6620
477.834	7266
477.911	4980
477.989	4853
478.066	4183
478.144	5607
478.222	6238
478.299	7039
478.377	8787
478.454	6274
478.532	4616
478.609	5350
478.687	6195
478.764	4970
478.842	4602
478.919	4177
478.997	5836
479.074	3672
479.152	6198
479.229	7709
479.307	5411
479.384	4215
479.461	4293
479.539	4334
479.616	6159
479.694	4971
479.771	4822
479.848	5323
479.926	7182
480.003	8694
480.080	4869
480.157	5002
480.235	3462
480.312	4311
480.389	5012
480.467	7630
480.544	11523
480.621	5654
480.698	4825
480.775	5418
480.853	5956
480.930	4603
481.007	6262
481.084	7625
481.161	13237
481.238	9151
481.315	3753
481.392	3536
481.470	3999
481.547	4026
481.624	3258
481.701	3572
481.778	4297
481.855	4624
481.932	7685
482.009	13478
482.086	11113
482.163	4596
482.240	5745
482.317	7716
482.393	6674
482.470	4697
482.547	6003
482.624	4258
482.701	4931
482.778	4331
482.855	4119
482.932	3971
483.009	3393
483.085	5569
483.162	7651
483.239	8207
483.316	4941
483.393	4645
483.469	4256
483.546	4928
483.623	5430
483.699	3725
483.776	4868
483.853	4171
483.930	7510
484.006	22005
484.083	39553
484.160	27014
484.236	38434
484.313	29652
484.389	20831
484.466	18784
484.543	17592
484.619	17628
484.696	19523
484.772	19354
484.849	19781
484.925	16242
485.002	16063
485.078	17152
485.155	17026
485.231	14321
485.308	14780
485.384	15093
485.461	17441
485.537	28053
485.614	33068
485.690	16659
485.766	14585
485.843	13392
485.919	17620
485.995	18997
486.072	14020
486.148	13596
486.224	13751
486.301	14069
486.377	15074
486.453	14396
486.530	15348
486.606	20847
486.682	24480
486.758	26071
486.835	30029
486.911	23448
486.987	33981
487.063	35407
487.139	38603
487.215	31351
487.292	21618
487.368	16954
487.444	17477
487.520	21702
487.596	23212
487.672	28256
487.748	64763
487.824	97404
487.900	38459
487.976	18989
488.052	15595
488.128	17969
488.204	15256
488.280	14381
488.356	15631
488.432	29141
488.508	46177
488.584	18884
488.660	12333
488.736	13216
488.812	13014
488.888	16044
488.964	19996
489.039	31245
489.115	49015
489.191	34594
489.267	15155
489.343	12639
489.418	10952
489.494	10416
489.570	9048
489.646	12314
489.722	11350
489.797	11588
489.873	16082
489.949	34114
490.024	33897
490.100	10985
490.176	10207
490.251	11555
490.327	14935
490.403	9863
490.478	9281
490.554	8101
490.629	8489
490.705	8797
490.781	10616
490.856	8702
490.932	11039
491.007	9680
491.083	10675
491.158	9827
491.234	11698
491.309	23358
491.385	27143
491.460	10220
491.536	11435
491.611	8638
491.686	9742
491.762	11911
491.837	20686
491.913	33358
491.988	45869
492.063	59538
492.139	21907
492.214	14620
492.289	7337
492.365	6566
492.440	9292
492.515	8457
492.590	9661
492.666	7564
492.741	11490
492.816	16056
492.891	10461
492.967	10345
493.042	11679
493.117	13766
493.192	18596
493.267	39669
493.342	189219
493.418	300736
493.493	47547
493.568	9004
493.643	8407
493.718	8500
493.793	12226
493.868	13285
493.943	8752
494.018	7529
494.093	6841
494.168	6662
494.243	6448
494.318	5338
494.393	5410
494.468	4779
494.543	5290
494.618	7039
494.693	6508
494.768	5289
494.842	6334
494.917	5292
494.992	6200
495.067	5584
495.142	5217
495.217	5591
495.292	5982
495.366	6407
495.441	8401
495.516	10710
495.591	11787
495.665	36201
495.740	94767
495.815	48080
495.890	9394
495.964	5825
496.039	9301
496.114	7611
496.188	14101
496.263	11479
496.338	6312
496.412	7255
496.487	9644
496.561	8370
496.636	10596
496.710	7836
496.785	10150
496.860	11121
496.934	8307
497.009	8688
497.083	9925
497.158	8878
497.232	11823
497.307	13022
497.381	11990
497.455	13923
497.530	19764
497.604	15322
497.679	16374
497.753	24573
497.827	35683
497.902	34934
497.976	38478
498.050	64758
498.125	245202
498.199	299770
498.273	58696
498.348	40902
498.422	32339
498.496	27723
498.570	24986
498.645	18536
498.719	17211
498.793	21029
498.867	27198
498.941	33155
499.016	87891
499.090	265120
499.164	123067
499.238	13502
499.312	10260
499.386	11167
499.460	10170
499.534	10048
499.609	12690
499.683	16853
499.757	18707
499.831	33908
499.905	158649
499.979	179886
500.053	26940
500.127	21949
500.201	12477
500.275	9935
500.349	9481
500.422	10277
500.496	15235
500.570	27596
500.644	79877
500.718	174268
500.792	51963
500.866	8549
500.940	10567
501.013	11102
501.087	8501
501.161	15202
501.235	20382
501.309	44291
501.382	135446
501.456	143100
501.530	27457
501.603	42477
501.677	21171
501.751	6156
501.825	9394
501.898	15609
501.972	51205
502.046	40522
502.119	9605
502.193	20753
502.266	57023
502.340	34455
502.413	22596
502.487	49670
502.561	30786
502.634	10623
502.708	6713
502.781	4931
502.855	5809
502.928	3272
503.002	4711
503.075	3944
503.149	5399
503.222	5255
503.295	6198
503.369	7393
503.442	10234
503.516	34532
503.589	101490
503.662	76316
503.736	20537
503.809	44018
503.882	41676
503.956	50848
504.029	57400
504.102	36049
504.175	49404
504.249	17321
504.322	10072
504.395	7813
504.468	5453
504.542	5051
504.615	3547
504.688	4051
504.761	1796
504.834	5722
504.907	5977
504.980	8600
505.053	4860
505.127	3168
505.200	8974
505.273	7564
505.346	5140
505.419	2848
505.492	4299
505.565	3091
505.638	4153
505.711	2099
505.784	2141
505.857	2207
505.930	4072
506.003	1541
506.076	5971
506.149	4267
506.221	6549
506.294	7820
506.367	16172
506.440	70089
506.513	49505
506.586	7538
506.659	5855
506.731	2499
506.804	3881
506.877	5448
506.950	6345
507.022	4432
507.095	3700
507.168	6057
507.241	4662
507.313	1592
507.386	2461
507.459	5828
507.531	3532
507.604	1810
507.677	3783
507.749	1121
507.822	4941
507.894	9841
507.967	15946
508.040	7844
508.112	7990
508.185	6352
508.257	4359
508.330	9282
508.402	5404
508.475	4757
508.547	5723
508.620	5839
508.692	9309
508.765	7108
508.837	4135
508.909	4548
508.982	3973
509.054	5774
509.127	4735
509.199	3649
509.271	3676
509.344	3185
509.416	4064
509.488	3724
509.560	4720
509.633	3929
509.705	5706
509.777	5164
509.849	7590
509.922	5472
509.994	4903
510.066	5738
510.138	4738
510.210	13901
510.283	13049
510.355	9853
510.427	9315
510.499	6765
510.571	6638
510.643	6203
510.715	10102
510.787	7052
510.859	7759
510.931	7600
511.003	9340
511.076	9102
511.148	5626
511.219	5335
511.291	10881
511.363	13054
511.435	6844
511.507	4972
511.579	6712
511.651	6762
511.723	4895
511.795	5932
511.867	5966
511.939	6289
512.010	14317
512.082	13310
512.154	6412
512.226	6150
512.298	9970
512.369	14814
512.441	12475
512.513	10722
512.585	8023
512.656	8895
512.728	8509
512.800	6835
512.871	7570
512.943	7338
513.015	5528
513.086	7199
513.158	7455
513.230	6440
513.301	9528
513.373	11928
513.444	8309
513.516	6128
513.588	6350
513.659	6534
513.731	8142
513.802	5741
513.874	12967
513.945	21256
514.016	9978
514.088	6016
514.159	6672
514.231	9042
514.302	14216
514.374	10882
514.445	8514
514.516	17457
514.588	14226
514.659	8849
514.730	14826
514.802	14492
514.873	11056
514.944	14385
515.016	10040
515.087	8374
515.158	11623
515.229	17147
515.301	12963
515.372	20587
515.443	11792
515.514	8210
515.585	5948
515.656	7761
515.728	7345
515.799	5316
515.870	7543
515.941	7028
516.012	6143
516.083	10453
516.154	10039
516.225	12839
516.296	12826
516.367	10302
516.438	10912
516.509	13387
516.580	17243
516.651	45484
516.722	176697
516.793	103769
516.864	20708
516.935	20242
517.006	22098
517.077	27391
517.148	51556
517.219	198495
517.289	386448
517.360	120838
517.431	44437
517.502	10491
517.573	10114
517.643	8718
517.714	11782
517.785	12468
517.856	11806
517.926	15271
517.997	18198
518.068	22695
518.138	30076
518.209	37056
518.280	131211
518.350	571740
518.421	280225
518.492	29453
518.562	16600
518.633	14781
518.703	12687
518.774	23491
518.845	58502
518.915	59890
518.986	21085
519.056	14901
519.127	20231
519.197	30221
519.268	76530
519.338	65840
519.408	13943
519.479	12481
519.549	10339
519.620	8941
519.690	5846
519.760	6116
519.831	5441
519.901	5630
519.971	5736
520.042	6054
520.112	6999
520.182	7656
520.253	8369
520.323	5883
520.393	4670
520.463	8913
520.534	4295
520.604	10923
520.674	9166
520.744	7102
520.814	11168
520.885	12591
520.955	22603
521.025	93743
521.095	51268
521.165	8880
521.235	6592
521.305	4015
521.375	5795
521.445	6022
521.515	5805
521.585	8501
521.655	7134
521.725	7750
521.795	7912
521.865	3970
521.935	9663
522.005	7612
522.075	5149
522.145	6389
522.215	5602
522.285	10249
522.355	12152
522.424	24103
522.494	22922
522.564	10945
522.634	14948
522.704	44513
522.774	21928
522.843	6227
522.913	6628
522.983	7084
523.053	5373
523.122	6088
523.192	6399
523.262	21463
523.331	26452
523.401	6884
523.471	4268
523.540	4066
523.610	3328
523.680	2692
523.749	3385
523.819	5808
523.888	6528
523.958	3753
524.027	4314
524.097	4423
524.166	4538
524.236	3289
524.305	6660
524.375	2939
524.444	1932
524.514	5938
524.583	3829
524.653	5910
524.722	7686
524.791	3952
524.861	5599
524.930	2363
524.999	3506
525.069	6306
525.138	5015
525.207	6216
525.277	4466
525.346	4746
525.415	4919
525.484	3878
525.554	4449
525.623	6327
525.692	8714
525.761	7091
525.830	7512
525.900	8169
525.969	12958
526.038	19054
526.107	33865
526.176	111846
526.245	98103
526.314	31571
526.383	56788
526.452	79467
526.522	133631
526.591	150485
526.660	38923
526.729	22054
526.797	22631
526.867	33907
526.935	151386
527.004	336088
527.073	202702
527.142	19218
527.211	8211
527.280	6742
527.349	7208
527.418	3129
527.487	4642
527.555	2154
527.624	2891
527.693	1550
527.762	4550
527.831	1516
527.899	3171
527.968	2004
528.037	1699
528.106	4299
528.174	7613
528.243	7211
528.312	9843
528.380	14240
528.449	3659
528.518	3865
528.586	1594
528.655	4032
528.723	2682
528.792	1932
528.861	1995
528.929	1022
528.998	3467
529.066	1108
529.135	2579
529.203	1896
529.272	1229
529.340	2277
529.409	4728
529.477	1436
529.545	2648
529.614	5702
529.682	2528
529.751	5654
529.819	7297
529.887	4657
529.956	2605
530.024	3208
530.092	1649
530.161	3495
530.229	4914
530.297	2314
530.365	2954
530.434	2212
530.502	1576
530.570	2867
530.638	1152
530.707	2331
530.775	4806
530.843	2438
530.911	2275
530.979	2075
531.047	1554
531.115	2624
531.183	2339
531.252	2554
531.320	2786
531.388	1811
531.456	3478
531.524	905
531.592	2643
531.660	4690
531.728	2065
531.796	1535
531.864	3238
531.932	2688
532.000	2315
532.067	2713
532.135	3571
532.203	3929
532.271	2896
532.339	6778
532.407	19619
532.475	13271
532.542	6119
532.610	5667
532.678	6815
532.746	28730
532.814	92453
532.881	27652
532.949	5485
533.017	3559
533.084	3681
533.152	2264
533.220	3181
533.287	2292
533.355	3711
533.423	2925
533.490	2089
533.558	2461
533.625	2896
533.693	3766
533.761	4210
533.828	3593
533.896	2991
533.963	6929
534.031	9404
534.098	11890
534.166	7209
534.233	2461
534.300	5051
534.368	3957
534.435	2920
534.503	4070
534.570	4120
534.637	3939
534.705	5581
534.772	6777
534.840	9338
534.907	47526
534.974	70124
535.041	10048
535.109	5768
535.176	4065
535.243	3982
535.310	3689
535.378	2620
535.445	2575
535.512	1928
535.579	2721
535.646	1919
535.714	3627
535.781	5204
535.848	4850
535.915	4576
535.982	4007
536.049	4492
536.116	5071
536.183	3240
536.250	3715
536.317	4362
536.384	4317
536.451	6496
536.518	7414
536.585	4051
536.652	7505
536.719	8903
536.786	5965
536.853	5060
536.920	8473
536.987	13600
537.053	10125
537.120	39107
537.187	44269
537.254	4814
537.321	3495
537.388	5242
537.454	2713
537.521	3111
537.588	2841
537.654	4838
537.721	5613
537.788	5416
537.855	2841
537.921	3606
537.988	3142
538.055	4471
538.121	3331
538.188	4948
538.254	5908
538.321	12772
538.388	9830
538.454	4600
538.521	4333
538.587	3111
538.654	3149
538.720	3552
538.787	3946
538.853	3342
538.920	5025
538.986	6269
539.053	3393
539.119	4944
539.185	4054
539.252	5768
539.318	6955
539.385	7626
539.451	4814
539.517	6311
539.583	6877
539.650	10719
539.716	32399
539.782	13492
539.849	2930
539.915	4747
539.981	3923
540.047	5560
540.114	4199
540.180	6196
540.246	3995
540.312	6254
540.378	11709
540.444	15034
540.510	10399
540.576	36054
540.643	14745
540.709	3462
540.775	3543
540.841	3849
540.907	6434
540.973	9959
541.039	8643
541.105	9996
541.171	5316
541.237	3506
541.303	5775
541.369	6567
541.435	6749
541.500	11439
541.566	7324
541.632	3320
541.698	2947
541.764	4510
541.830	2819
541.896	2912
541.961	4031
542.027	3040
542.093	3555
542.159	5372
542.224	3523
542.290	8241
542.356	10984
542.421	15957
542.487	8806
542.553	5423
542.618	5633
542.684	5378
542.750	4199
542.815	5832
542.881	7399
542.947	29337
543.012	28029
543.078	5428
543.143	4528
543.209	4919
543.274	3005
543.340	4642
543.405	10353
543.471	20150
543.536	6823
543.602	4192
543.667	2855
543.732	5189
543.798	3086
543.863	4915
543.928	2885
543.994	3200
544.059	4336
544.124	4473
544.190	3568
544.255	4426
544.320	3377
544.386	3503
544.451	6681
544.516	7320
544.581	6049
544.646	17523
544.712	35053
544.777	9157
544.842	4920
544.907	6640
544.972	4947
545.037	5690
545.102	6719
545.168	5155
545.233	5466
545.298	7283
545.363	6698
545.428	8147
545.493	11649
545.558	26439
545.623	13984
545.688	5651
545.753	5464
545.818	6254
545.883	5585
545.947	5038
546.012	6536
546.077	7281
546.142	6511
546.207	5959
546.272	8601
546.337	8768
546.401	6366
546.466	7175
546.531	5253
546.596	7453
546.661	6728
546.725	8205
546.790	4903
546.855	7780
546.919	6206
546.984	7458
547.049	6697
547.113	9693
547.178	8929
547.243	11173
547.307	12808
547.372	14061
547.436	15184
547.501	12715
547.565	12987
547.630	14010
547.695	13920
547.759	14296
547.823	14533
547.888	13561
547.952	13011
548.017	13472
548.081	18353
548.146	19573
548.210	17606
548.274	13663
548.339	13169
548.403	12876
548.468	11179
548.532	11072
548.596	12063
548.660	12895
548.725	13289
548.789	16019
548.853	17405
548.917	13814
548.982	16508
549.046	16933
549.110	11195
549.174	11228
549.238	11609
549.303	13464
549.367	14627
549.431	13834
549.495	12480
549.559	13015
549.623	14070
549.687	15867
549.751	18086
549.815	18021
549.879	17998
549.943	15956
550.007	17403
550.071	17787
550.135	17731
550.199	16303
550.263	16094
550.327	16380
550.391	19781
550.455	19503
550.519	17895
550.582	17407
550.646	21132
550.710	23432
550.774	21157
550.838	19762
550.901	20536
550.965	22413
551.029	23678
551.093	26510
551.156	30603
551.220	45960
551.284	59907
551.347	35131
551.411	41070
551.475	49830
551.538	23991
551.602	20677
551.666	17649
551.729	16826
551.793	17620
551.856	17934
551.920	18427
551.983	18611
552.047	15635
552.110	17020
552.174	17820
552.237	16919
552.301	15050
552.364	14549
552.428	13368
552.491	15433
552.554	15784
552.618	16231
552.681	16969
552.745	16411
552.808	22426
552.871	29018
552.934	21364
552.998	17690
553.061	17727
553.124	17034
553.187	18193
553.251	20262
553.314	22055
553.377	24150
553.440	34143
553.503	105840
553.567	219423
553.630	50537
553.693	19848
553.756	16710
553.819	15615
553.882	13544
553.945	14685
554.008	14242
554.071	12122
554.134	14052
554.197	13717
554.260	13058
554.323	14831
554.386	14121
554.449	13173
554.512	14577
554.575	12237
554.638	13288
554.701	13009
554.764	12274
554.827	11771
554.889	11382
554.952	10037
555.015	10481
555.078	10196
555.141	11648
555.203	10550
555.266	11201
555.329	11473
555.391	10126
555.454	10734
555.517	11400
555.580	10071
555.642	9259
555.705	9115
555.768	10327
555.830	9863
555.893	9447
555.955	9434
556.018	8664
556.080	8122
556.143	7780
556.206	8429
556.268	10086
556.330	10225
556.393	9621
556.455	8284
556.518	12692
556.580	13089
556.643	8038
556.705	7977
556.767	6983
556.830	7849
556.892	8308
556.955	11435
557.017	9864
557.079	7683
557.142	7533
557.204	8078
557.266	14229
557.328	14331
557.391	7584
557.453	6515
557.515	6901
557.577	7977
557.639	9095
557.701	7279
557.764	6743
557.826	8198
557.888	9478
557.950	8964
558.012	10075
558.074	12167
558.136	29119
558.198	79853
558.260	31994
558.322	11918
558.384	13400
558.446	14749
558.508	17863
558.570	22456
558.632	30977
558.694	44502
558.756	52675
558.818	164466
558.880	473295
558.942	152283
559.003	88785
559.065	47026
559.127	19119
559.189	16963
559.251	19868
559.312	27613
559.374	67756
559.436	269073
559.498	144860
559.559	22700
559.621	18066
559.683	19577
559.744	31716
559.806	109631
559.868	187582
559.929	36782
559.991	18387
560.052	23889
560.114	75842
560.176	50887
560.237	40188
560.299	74636
560.360	18350
560.422	7071
560.483	6865
560.545	6262
560.606	6019
560.667	5628
560.729	5400
560.790	5031
560.852	5204
560.913	5096
560.974	4974
561.036	4487
561.097	5395
561.158	4573
561.220	5328
561.281	5184
561.342	4521
561.403	6891
561.465	7047
561.526	16556
561.587	25974
561.648	7412
561.709	5166
561.771	5231
561.832	4604
561.893	4608
561.954	4569
562.015	3795
562.076	4723
562.137	4656
562.198	4391
562.259	5748
562.320	4886
562.381	5043
562.442	7102
562.503	6635
562.564	4838
562.625	4741
562.686	4919
562.747	4655
562.808	4858
562.869	4723
562.930	6742
562.991	5565
563.051	5099
563.112	4401
563.173	4959
563.234	4436
563.294	4889
563.355	4171
563.416	5416
563.477	4319
563.537	4479
563.598	5175
563.659	5773
563.720	4690
563.780	5219
563.841	5177
563.901	6102
563.962	4583
564.023	5015
564.083	5405
564.144	5828
564.204	4660
564.265	5092
564.325	6115
564.386	14489
564.446	15513
564.507	5245
564.567	5067
564.628	4507
564.688	3678
564.749	4667
564.809	5568
564.869	7627
564.930	5077
564.990	5135
565.050	4369
565.111	4931
565.171	4330
565.231	4649
565.292	5036
565.352	4361
565.412	5577
565.472	4738
565.532	6283
565.593	5238
565.653	4331
565.713	5428
565.773	5959
565.833	6475
565.893	8500
565.953	5667
566.013	5693
566.074	5477
566.134	7881
566.194	13526
566.254	14312
566.314	9166
566.374	5828
566.434	6725
566.494	6701
566.554	6615
566.614	6911
566.673	8204
566.733	8428
566.793	8465
566.853	8418
566.913	9984
566.973	9369
567.033	9802
567.092	9143
567.152	8007
567.212	9978
567.272	10273
567.331	10256
567.391	11118
567.451	12254
567.511	16104
567.570	15851
567.630	12130
567.690	10772
567.749	11902
567.809	12339
567.868	14428
567.928	16446
567.988	19338
568.047	22599
568.107	27931
568.166	41574
568.226	70099
568.285	105758
568.345	90751
568.404	67057
568.464	53755
568.523	46352
568.582	47077
568.642	51659
568.701	67115
568.761	100857
568.820	175069
568.879	180005
568.939	124787
568.998	84204
569.057	59398
569.116	45139
569.176	35513
569.235	27418
569.294	23512
569.353	19153
569.413	17676
569.472	15000
569.531	12985
569.590	11643
569.649	11502
569.708	9184
569.767	10472
569.827	9917
569.886	9285
569.945	7508
570.004	7962
570.063	7272
570.122	7271
570.181	8184
570.240	7799
570.299	8279
570.358	7754
570.417	6164
570.475	5894
570.534	5648
570.593	7464
570.652	5804
570.711	6415
570.770	5464
570.829	7199
570.887	6989
570.946	6533
571.005	5251
571.064	4930
571.122	6147
571.181	6204
571.240	6180
571.299	4226
571.357	5747
571.416	5652
571.475	6298
571.533	6972
571.592	4836
571.650	5743
571.709	4869
571.768	5170
571.826	4754
571.885	4697
571.943	3970
572.002	4998
572.060	5126
572.119	3654
572.177	3392
572.236	4744
572.294	3686
572.352	5464
572.411	3490
572.469	3752
572.528	3876
572.586	4232
572.644	4861
572.703	7099
572.761	3372
572.819	4316
572.877	3568
572.936	3262
572.994	3523
573.052	3409
573.110	2597
573.169	3585
573.227	2944
573.285	4129
573.343	3309
573.401	3631
573.459	3826
573.517	3787
573.576	3280
573.634	4015
573.692	4500
573.750	4367
573.808	3996
573.866	4911
573.924	5753
573.982	6360
574.040	4114
574.098	4280
574.155	3413
574.213	4195
574.271	2097
574.329	3640
574.387	3275
574.445	3597
574.503	2339
574.560	1943
574.618	2178
574.676	2204
574.734	3395
574.792	3037
574.849	2879
574.907	2386
574.965	3033
575.022	2032
575.080	2455
575.138	4932
575.195	2730
575.253	2943
575.311	3943
575.368	3698
575.426	3169
575.483	3666
575.541	2601
575.598	3056
575.656	3628
575.713	3413
575.771	3411
575.828	2777
575.886	3335
575.943	4572
576.001	2594
576.058	3160
576.115	4529
576.173	4658
576.230	4650
576.287	6286
576.345	4805
576.402	4346
576.459	3850
576.517	4293
576.574	4969
576.631	5745
576.688	4714
576.746	3704
576.803	3481
576.860	3152
576.917	3086
576.974	3669
577.031	3067
577.089	3194
577.146	3648
577.203	4738
577.260	4243
577.317	4560
577.374	5095
577.431	5631
577.488	3758
577.545	3654
577.602	4011
577.659	5343
577.716	6522
577.773	8933
577.830	6241
577.886	5362
577.943	3685
578.000	3732
578.057	4232
578.114	3601
578.171	3344
578.227	6015
578.284	4983
578.341	6287
578.398	4687
578.454	4750
578.511	5467
578.568	5893
578.625	5465
578.681	3919
578.738	3186
578.794	2922
578.851	3372
578.908	2874
578.964	3552
579.021	4265
579.077	2560
579.134	4345
579.190	2836
579.247	2628
579.303	3314
579.360	3303
579.416	3510
579.473	3714
579.529	2894
579.586	3468
579.642	3392
579.698	3980
579.755	4260
579.811	4445
579.867	4997
579.924	4667
579.980	4545
580.036	5990
580.093	6405
580.149	7071
580.205	9368
580.261	7110
580.317	6178
580.374	6226
580.430	6839
580.486	6193
580.542	4819
580.598	4726
580.619	4709
580.654	4683
580.692	3987
580.710	3642
580.765	3658
580.767	3660
580.823	5099
580.838	4782
580.879	3945
580.911	3872
580.935	3818
580.984	3996
580.991	4029
581.047	4434
581.057	4477
581.103	4657
581.130	4942
581.159	5239
581.203	5044
581.215	4994
581.270	5118
581.276	5056
581.326	4423
581.349	4314
581.382	4154
581.422	4117
581.438	4095
581.494	4476
581.494	4468
581.550	3869
581.567	4301
581.606	5150
581.640	4532
581.661	4199
581.713	5386
581.717	5473
581.773	4591
581.786	4560
581.829	4501
581.859	4766
581.885	4995
581.932	4865
581.940	4848
581.996	5349
582.004	5280
582.052	4821
582.077	4504
582.107	4191
582.150	4560
582.163	4636
582.219	4639
582.223	4640
582.274	4750
582.296	4931
582.330	5249
582.368	5621
582.386	5824
582.441	5263
582.441	5261
582.497	5700
582.514	5840
582.552	6355
582.587	7337
582.608	7756
582.659	6730
582.663	6657
582.719	5504
582.732	5349
582.774	4958
582.805	5036
582.830	5119
582.877	4806
582.885	4743
582.941	5667
582.950	5692
582.996	5894
583.023	5845
583.052	5859
583.095	6097
583.107	6190
583.162	7887
583.168	7950
583.218	8034
583.240	7714
583.273	7220
583.313	6627
583.328	6454
583.384	6285
583.385	6276
583.439	6043
583.458	6104
583.494	6258
583.531	6198
583.549	6186
583.603	6289
583.605	6287
583.660	5978
583.676	6059
583.715	6378
583.748	6271
583.770	6215
583.820	6602
583.825	6632
583.881	6339
583.893	6384
583.936	6566
583.965	6535
583.991	6464
584.038	6038
584.046	6015
584.101	6924
584.110	7019
584.156	7220
584.183	7087
584.211	6902
584.255	6458
584.266	6445
584.321	6718
584.328	6806
584.376	7285
584.400	7252
584.431	7196
584.472	7294
584.486	7322
584.541	7908
584.545	7871
584.596	7262
584.617	7374
584.651	7771
584.689	8287
584.706	8459
584.761	8227
584.762	8225
584.816	8269
584.834	8478
584.871	8984
584.906	9346
584.926	9501
584.978	8934
584.980	8928
585.035	9771
585.051	10050
585.090	10481
585.123	10608
585.145	11004
585.195	11485
585.200	11614
585.254	15336
585.267	16421
585.309	20661
585.340	25024
585.364	26700
585.412	20334
585.419	19330
585.473	16450
585.484	16008
585.528	16506
585.556	19147
585.583	22938
585.628	31147
585.637	33643
585.692	63034
585.700	69292
585.747	97102
585.772	79113
585.801	51497
585.845	24298
585.856	19664
585.910	15540
585.917	15118
585.965	13536
585.989	13599
586.019	13981
586.061	14106
586.074	14056
586.128	13900
586.133	13953
586.183	14838
586.205	15046
586.237	15384
586.277	15053
586.292	14974
586.346	15450
586.349	15454
586.401	15297
586.421	15428
586.455	16335
586.493	17550
586.509	18666
586.564	22283
586.565	22435
586.618	31632
586.637	32780
586.672	28675
586.709	22220
586.727	20394
586.781	19212
586.781	19226
586.835	18349
586.853	18271
586.889	18688
586.925	19392
586.944	19558
586.996	19740
586.998	19777
587.052	20141
587.068	20459
587.106	21531
587.140	22069
587.161	22358
587.212	23460
587.215	23553
587.269	25086
587.284	25290
587.323	25854
587.356	26490
587.377	26986
587.427	28667
587.431	28808
587.485	29768
587.499	30107
587.539	31711
587.571	32817
587.593	33766
587.643	36383
587.648	36689
587.702	39445
587.715	40076
587.755	42304
587.786	44411
587.810	46112
587.858	48579
587.864	49064
587.917	54606
587.930	55831
587.971	60804
588.001	64746
588.025	68268
588.073	75304
588.079	76480
588.133	86498
588.145	89010
588.187	99904
588.217	107924
588.241	115658
588.288	131455
588.295	134192
588.348	157763
588.360	163097
588.402	186525
588.431	203725
588.456	221274
588.503	256950
588.510	263384
588.564	318930
588.575	331198
588.617	395494
588.646	443586
588.671	506762
588.718	638808
588.725	674192
588.778	971427
588.789	1038790
588.832	1466615
588.861	1776273
588.886	2020807
588.932	2426176
588.939	2430493
588.993	2268756
589.004	2257311
589.047	2093963
589.075	1891718
589.100	1602782
589.147	1047517
589.154	1006366
589.207	737753
589.218	688917
589.261	626764
589.290	595976
589.314	621123
589.361	685090
589.368	716644
589.421	999565
589.433	1066956
589.475	1528043
589.504	1865982
589.528	2030106
589.576	2231646
589.582	2195976
589.635	1821060
589.647	1715812
589.689	1167701
589.718	787900
589.742	644154
589.790	398890
589.795	386004
589.849	281940
589.861	259500
589.902	219953
589.932	191730
589.955	174458
590.004	140418
590.009	138630
590.062	119409
590.075	114755
590.115	104321
590.146	96440
590.168	92239
590.218	82910
590.222	82436
590.275	75325
590.289	73373
590.328	69854
590.360	66846
590.381	64662
590.431	59280
590.435	59164
590.488	55644
590.503	54685
590.541	52673
590.574	50733
590.594	49556
590.645	46504
590.647	46522
590.700	44584
590.716	44016
590.753	41564
590.787	38953
590.806	38571
590.859	37538
590.859	37602
590.912	37137
590.930	36961
590.965	35831
591.001	34546
591.018	34269
591.071	33042
591.072	32961
591.124	32266
591.143	31907
591.177	31534
591.214	31200
591.230	31290
591.283	31113
591.285	31036
591.336	30255
591.356	29897
591.389	29584
591.427	28990
591.442	28723
591.495	27625
591.498	27469
591.547	26783
591.569	26454
591.600	26625
591.640	26581
591.653	26589
591.706	26499
591.711	26418
591.759	26530
591.782	26498
591.811	26598
591.853	26643
591.864	26490
591.917	25195
591.924	24954
591.969	24113
591.995	23574
592.022	24198
592.066	25078
592.075	25360
592.127	26750
592.137	26927
592.180	27924
592.208	28471
592.233	26712
592.279	23100
592.285	23125
592.338	22956
592.350	22855
592.390	22579
592.421	22283
592.443	22281
592.491	22110
592.495	22211
592.548	22826
592.562	22937
592.600	22743
592.633	22472
592.653	21914
592.704	20209
592.705	20353
592.775	21813
592.846	21264
592.916	21497
592.987	22293
593.058	21351
593.128	19201
593.199	20331
593.270	19132
593.341	20267
593.411	19646
593.482	19615
593.553	19508
593.623	19009
593.694	18870
593.764	20737
593.835	18759
593.906	18377
593.976	18648
594.047	18541
594.117	21567
594.188	20987
594.258	17902
594.329	18176
594.399	17420
594.470	18187
594.540	17679
594.611	17862
594.681	16965
594.751	17899
594.822	17860
594.892	19335
594.963	18208
595.033	19174
595.103	18480
595.174	19488
595.244	26444
595.314	31030
595.384	18753
595.455	18950
595.525	19430
595.595	19583
595.665	19455
595.736	18974
595.806	18276
595.876	17618
595.946	18138
596.016	18572
596.087	18716
596.157	18973
596.227	18133
596.297	20349
596.367	19289
596.437	21755
596.507	27592
596.577	30003
596.647	21408
596.717	20859
596.787	19837
596.857	19421
596.927	20326
596.997	20815
597.067	22197
597.137	27945
597.207	24036
597.277	21017
597.347	20904
597.417	20084
597.487	20325
597.557	21911
597.626	21809
597.696	23082
597.766	25054
597.836	30082
597.906	21701
597.975	19713
598.045	19028
598.115	19995
598.185	19914
598.254	21908
598.324	21429
598.394	22842
598.464	21638
598.533	21267
598.603	20735
598.672	21586
598.742	20420
598.812	20039
598.881	19872
598.951	21131
599.020	20071
599.090	21038
599.159	21658
599.229	20440
599.299	20218
599.368	20966
599.437	20770
599.507	20108
599.576	21251
599.646	25659
599.715	25976
599.785	20149
599.854	19521
599.924	21003
599.993	19999
600.062	19131
600.132	19358
600.201	20527
600.270	22920
600.340	21673
600.409	20697
600.478	21802
600.547	21909
600.617	20411
600.686	18220
600.755	18370
600.824	18515
600.894	17387
600.963	17811
601.032	17269
601.101	17112
601.170	16864
601.239	16663
601.308	17383
601.378	16569
601.447	17934
601.516	16587
601.585	17691
601.654	17552
601.723	18275
601.792	19318
601.861	22774
601.930	28173
601.999	20657
602.068	17351
602.137	19531
602.206	18687
602.275	18394
602.343	20551
602.412	20952
602.481	19818
602.550	19101
602.619	18922
602.688	19080
602.756	19015
602.825	19612
602.894	19042
602.963	18892
603.032	20385
603.100	18899
603.169	18729
603.238	18889
603.307	19190
603.375	19447
603.444	19725
603.513	19544
603.581	19804
603.650	20493
603.719	18599
603.787	18900
603.856	19609
603.924	20012
603.993	20521
604.061	20341
604.130	21463
604.198	21615
604.267	20937
604.335	21149
604.404	20445
604.472	22042
604.541	21500
604.609	21338
604.678	21644
604.746	22873
604.815	22560
604.883	22893
604.951	22863
605.020	23633
605.088	23224
605.156	22997
605.225	22746
605.293	22223
605.361	23257
605.429	23158
605.498	24276
605.566	24285
605.634	24620
605.702	25425
605.771	25349
605.839	26213
605.907	24959
605.975	26040
606.043	24392
606.111	25266
606.180	27387
606.248	35634
606.316	36827
606.384	26700
606.452	27437
606.520	26714
606.588	24342
606.656	24153
606.724	22650
606.792	22044
606.860	20947
606.928	18767
606.996	18654
607.064	17565
607.132	17715
607.200	18908
607.267	19541
607.335	19780
607.403	20427
607.471	19396
607.539	18220
607.607	19296
607.674	17680
607.742	18133
607.810	18438
607.878	17640
607.946	17444
608.013	17874
608.081	18805
608.149	19105
608.216	18725
608.284	20399
608.352	19811
608.419	19822
608.487	25263
608.555	20287
608.622	19083
608.690	19791
608.757	21581
608.825	22676
608.893	22068
608.960	23482
609.028	23597
609.095	26232
609.163	20847
609.230	19574
609.298	18371
609.365	17273
609.432	18552
609.500	20575
609.567	22316
609.635	24912
609.702	25850
609.769	25671
609.837	21315
609.904	19000
609.971	18581
610.039	22679
610.106	28836
610.173	48655
610.241	106405
610.308	74790
610.375	38766
610.442	21420
610.509	18482
610.577	20027
610.644	18334
610.711	18710
610.778	19330
610.845	20781
610.912	24299
610.980	32053
611.047	48896
611.114	31555
611.181	21808
611.248	19640
611.315	21860
611.382	21137
611.449	22493
611.516	22753
611.583	22129
611.650	22543
611.717	22749
611.784	23599
611.851	25094
611.918	28238
611.984	32313
612.051	47470
612.118	96771
612.185	232493
612.252	129232
612.319	34746
612.386	29318
612.452	26914
612.519	27224
612.586	33051
612.653	27736
612.719	25547
612.786	24880
612.853	23162
612.919	21644
612.986	23900
613.053	21381
613.120	20899
613.186	18915
613.253	22221
613.319	20488
613.386	20058
613.453	21789
613.519	22331
613.586	24328
613.652	29085
613.719	26805
613.785	25366
613.852	22692
613.918	24699
613.985	34281
614.051	61336
614.118	144337
614.184	122378
614.250	29054
614.317	24331
614.383	21014
614.449	21739
614.516	22074
614.582	21996
614.648	20944
614.715	20497
614.781	19844
614.847	21214
614.914	20937
614.980	20540
615.046	21255
615.112	20981
615.179	21097
615.245	24503
615.311	30042
615.377	43465
615.443	44542
615.509	28189
615.575	24471
615.642	23260
615.708	25049
615.774	27791
615.840	31819
615.906	37450
615.972	57356
616.038	108835
616.104	168974
616.170	328386
616.236	241085
616.302	54879
616.368	38195
616.434	29509
616.500	28982
616.565	29707
616.631	33128
616.697	28379
616.763	29948
616.829	42195
616.895	65784
616.961	59670
617.026	30733
617.092	23973
617.158	24519
617.224	23991
617.289	22814
617.355	21526
617.421	21426
617.487	22657
617.552	20301
617.618	20173
617.684	19645
617.749	23188
617.815	20114
617.880	18883
617.946	19050
618.012	19937
618.077	20006
618.143	19150
618.208	19360
618.274	21380
618.339	21242
618.405	18701
618.470	18917
618.536	18728
618.601	20774
618.667	18031
618.732	18738
618.798	18148
618.863	17872
618.928	17360
618.994	19240
619.059	20912
619.124	23355
619.190	19840
619.255	17306
619.320	18507
619.386	17897
619.451	17630
619.516	17200
619.581	18155
619.647	17178
619.712	17427
619.777	18013
619.842	17526
619.907	17832
619.972	17425
620.038	17154
620.103	17247
620.168	15725
620.233	17055
620.298	17728
620.363	17153
620.428	17877
620.493	18173
620.558	17408
620.623	17159
620.688	17235
620.753	16967
620.818	17286
620.883	17473
620.948	18132
621.013	18309
621.078	16825
621.143	16230
621.207	19581
621.272	17733
621.337	18654
621.402	20537
621.467	23583
621.532	23932
621.596	20883
621.661	19006
621.726	18390
621.791	18427
621.855	19913
621.920	20040
621.985	19952
622.049	22469
622.114	22093
622.179	20584
622.243	21326
622.308	19813
622.373	21700
622.437	20544
622.502	19371
622.566	20183
622.631	18483
622.695	20541
622.760	20345
622.824	20517
622.889	19575
622.953	21481
623.018	27125
623.082	25222
623.147	20141
623.211	20075
623.276	20592
623.340	17875
623.404	17904
623.469	19185
623.533	18530
623.597	18029
623.662	17594
623.726	18303
623.790	16367
623.854	16825
623.919	17607
623.983	17526
624.047	17448
624.111	17761
624.176	17509
624.240	18477
624.304	20579
624.368	17461
624.432	18337
624.496	18508
624.560	18551
624.625	18919
624.689	17679
624.753	18287
624.817	17536
624.881	16924
624.945	16892
625.009	16492
625.073	16860
625.137	17542
625.201	20507
625.265	19338
625.329	17309
625.393	18160
625.456	16878
625.520	18195
625.584	18460
625.648	23118
625.712	33501
625.776	67493
625.839	71363
625.903	27872
625.967	18737
626.031	30979
626.095	41352
626.158	18701
626.222	12830
626.286	13966
626.349	12180
626.413	12199
626.477	14209
626.540	12745
626.604	11872
626.668	14003
626.731	11960
626.795	12912
626.858	12383
626.922	12127
626.986	13019
627.049	10277
627.113	12937
627.176	11082
627.240	11042
627.303	11644
627.366	11887
627.430	12191
627.493	12341
627.557	11675
627.620	12638
627.684	11693
627.747	12724
627.810	9880
627.874	11474
627.937	10014
628.000	13274
628.064	11675
628.127	8658
628.190	10909
628.253	11013
628.317	10620
628.380	9338
628.443	10519
628.506	9899
628.569	10578
628.632	9744
628.696	9892
628.759	9244
628.822	9790
628.885	8782
628.948	9019
629.011	9302
629.074	9285
629.137	8846
629.200	9021
629.263	10862
629.326	9127
629.389	7879
629.452	8226
629.515	8391
629.578	9206
629.641	11261
629.704	8867
629.767	9412
629.830	8891
629.892	7742
629.955	8533
630.018	10108
630.081	8012
630.144	9817
630.207	7905
630.269	10513
630.332	10094
630.395	8931
630.458	7182
630.520	6732
630.583	8324
630.646	7616
630.708	6800
630.771	7511
630.834	8673
630.896	6883
630.959	7620
631.021	7224
631.084	7807
631.146	9063
631.209	10073
631.272	7264
631.334	7330
631.397	7024
631.459	6617
631.522	7751
631.584	7950
631.646	7774
631.709	8838
631.771	10083
631.834	8492
631.896	7523
631.958	6224
632.021	7465
632.083	6953
632.145	7336
632.208	7558
632.270	8260
632.332	6002
632.395	5322
632.457	8427
632.519	7500
632.581	7646
632.643	5588
632.706	7430
632.768	6514
632.830	7706
632.892	6456
632.954	6367
633.016	6980
633.078	7170
633.141	6010
633.203	6025
633.265	7212
633.327	7442
633.389	5920
633.451	8651
633.513	7315
633.575	8822
633.637	7592
633.698	6877
633.760	7507
633.822	7134
633.884	7019
633.946	6363
634.008	7122
634.070	9731
634.132	14819
634.193	9741
634.255	6775
634.317	6640
634.379	7679
634.441	6461
634.502	6204
634.564	6466
634.626	5771
634.687	6259
634.749	6290
634.811	7012
634.873	4872
634.934	5715
634.996	6554
635.057	5505
635.119	5728
635.181	5513
635.242	6471
635.304	3993
635.365	7757
635.427	5585
635.488	5963
635.550	4904
635.611	5777
635.673	4310
635.734	7445
635.796	6071
635.857	7299
635.918	6306
635.980	7193
636.041	5250
636.102	8079
636.164	6540
636.225	8006
636.286	4446
636.348	6117
636.409	6398
636.470	5248
636.531	6356
636.593	6015
636.654	7116
636.715	5355
636.776	4483
636.838	4365
636.899	5878
636.960	5449
637.021	5026
637.082	4178
637.143	5971
637.204	4910
637.265	3888
637.326	5375
637.387	5822
637.448	3416
637.509	4924
637.570	4381
637.631	5910
637.692	3506
637.753	3685
637.814	4949
637.875	4042
637.936	5702
637.997	4275
638.058	4520
638.119	5829
638.179	4164
638.240	4236
638.301	4345
638.362	3568
638.423	4553
638.483	4993
638.544	3163
638.605	4477
638.666	3475
638.726	5037
638.787	4935
638.848	4618
638.908	3922
638.969	3669
639.030	3901
639.090	3333
639.151	3644
639.211	4431
639.272	5810
639.332	9177
639.393	5935
639.453	4130
639.514	4080
639.574	4779
639.635	3267
639.695	4691
639.756	3438
639.816	5317
639.877	5102
639.937	8163
639.997	9489
640.058	3043
640.118	2835
640.178	5106
640.239	3472
640.299	4001
640.359	4174
640.420	4430
640.480	4236
640.540	3807
640.600	4046
640.661	5104
640.721	4151
640.781	8307
640.841	4682
640.901	5907
640.961	4482
641.021	4384
641.082	3770
641.142	5597
641.202	5394
641.262	2550
641.322	4443
641.382	3362
641.442	4475
641.502	4458
641.562	4548
641.622	3435
641.682	3881
641.742	4267
641.802	4356
641.861	5006
641.921	3453
641.981	5107
642.041	5439
642.101	5442
642.161	2811
642.221	3743
642.280	3898
642.340	3763
642.400	2314
642.460	5090
642.519	3563
642.579	3397
642.639	4575
642.698	1005
642.758	4614
642.818	3654
642.877	3097
642.937	4101
642.997	4766
643.056	5818
643.116	2886
643.175	5038
643.235	3339
643.294	3542
643.354	5060
643.414	5076
643.473	4851
643.532	5725
643.592	7175
643.651	12567
643.711	22108
643.770	42321
643.830	103307
643.889	200760
643.948	40518
644.008	8373
644.067	4580
644.126	3870
644.186	3155
644.245	4710
644.304	2553
644.363	5748
644.423	1796
644.482	3891
644.541	4448
644.600	593
644.659	3907
644.719	4434
644.778	6306
644.837	9122
644.896	18494
644.955	37385
645.014	14230
645.073	8993
645.132	4069
645.191	4523
645.250	3398
645.309	4857
645.368	3709
645.427	5443
645.486	4781
645.545	8685
645.604	3708
645.663	3054
645.722	3211
645.781	4453
645.840	4147
645.898	4152
645.957	7581
646.016	9461
646.075	19132
646.134	34764
646.192	95573
646.251	124424
646.310	15961
646.369	5140
646.427	4953
646.486	2736
646.545	3158
646.603	4063
646.662	4089
646.721	3228
646.779	2887
646.838	2551
646.896	3758
646.955	3256
647.014	5637
647.072	8894
647.131	22836
647.189	9852
647.248	2851
647.306	3883
647.365	3175
647.423	1154
647.481	3303
647.540	1869
647.598	2998
647.657	2188
647.715	2420
647.773	2318
647.832	2877
647.890	1271
647.948	1846
648.007	2761
648.065	1761
648.123	3141
648.181	5255
648.240	8862
648.298	6389
648.356	2907
648.414	3833
648.472	3956
648.531	2858
648.589	2736
648.647	2636
648.705	2962
648.763	2457
648.821	2107
648.879	2527
648.937	2196
648.995	3220
649.053	3321
649.111	5282
649.169	8054
649.227	13417
649.285	27115
649.343	71137
649.401	33660
649.459	15523
649.516	16610
649.574	20579
649.632	58319
649.690	62392
649.748	16544
649.806	21252
649.863	33492
649.921	20089
649.979	10495
650.037	4350
650.094	1636
650.152	2668
650.210	2026
650.268	2848
650.325	2411
650.383	3189
650.440	1535
650.498	1947
650.556	3324
650.613	934
650.671	2632
650.728	1791
650.786	2986
650.843	2286
650.901	843
650.958	2233
651.016	2754
651.073	2324
651.131	927
651.188	1486
651.246	2088
651.303	1049
651.360	1796
651.418	1552
651.475	1991
651.532	793
651.590	1852
651.647	612
651.704	2186
651.762	1581
651.819	2056
651.876	1186
651.933	1322
651.990	1932
652.048	313
652.105	1513
652.162	2389
652.219	1426
652.276	2281
652.333	1436
652.390	861
652.448	2029
652.505	2285
652.562	2919
652.619	5041
652.676	13133
652.733	11901
652.790	1786
652.847	1349
652.904	1848
652.961	216
653.017	4
653.074	2485
653.131	1955
653.188	362
653.245	981
653.302	1638
653.359	94
653.415	1706
653.472	964
653.529	2221
653.586	1046
653.642	950
653.699	2049
653.756	1342
653.813	843
653.869	1413
653.926	981
653.983	995
654.039	1624
654.096	1249
654.152	2030
654.209	345
654.266	1176
654.322	636
654.379	1548
654.435	2075
654.492	2429
654.548	3370
654.605	4537
654.661	3170
654.717	1473
654.774	1944
654.830	1681
654.887	1441
654.943	1707
655.000	2651
655.056	1972
655.112	2013
655.168	340
655.225	1317
655.281	2426
655.337	2605
655.394	5134
655.450	3174
655.506	3266
655.562	5113
655.618	4642
655.675	692
655.731	1626
655.787	1493
655.843	2551
655.899	1120
655.955	1958
656.011	1782
656.067	356
656.123	2243
656.179	1578
656.235	3349
656.291	938
656.347	2149
656.403	1770
656.459	1622
656.515	1852
656.571	1938
656.627	1380
656.683	1575
656.739	2138
656.795	1996
656.850	1203
656.906	2207
656.962	1770
657.018	690
657.074	1188
657.129	1653
657.185	2850
657.241	3210
657.297	1755
657.352	1802
657.408	861
657.464	2244
657.519	1070
657.575	580
657.630	740
657.686	1439
657.742	348
657.797	1019
657.853	995
657.908	2024
657.964	727
658.019	1139
658.075	1503
658.130	1176
658.186	655
658.241	1810
658.297	360
658.352	230
658.407	1675
658.463	871
658.518	1347
658.573	1125
658.629	724
658.684	1686
658.739	1481
658.795	918
658.850	969
658.905	816
658.960	901
659.016	466
659.071	1049
659.126	1719
659.181	1681
659.236	3379
659.291	3996
659.346	3388
659.401	3185
659.457	6258
659.512	9395
659.567	3716
659.622	1004
659.677	1230
659.732	174
659.787	1387
659.842	692
659.897	2730
659.952	2039
660.007	1089
660.061	672
660.116	1162
660.171	448
660.226	742
660.281	2134
660.336	311
660.391	2230
660.445	-411
660.500	1548
660.555	1852
660.610	1201
660.664	1335
660.719	676
660.774	1208
660.828	1215
660.883	1118
660.938	761
660.992	824
661.047	1211
661.101	389
661.156	453
661.211	366
661.265	1281
661.320	1132
661.374	1320
661.429	761
661.483	673
661.538	722
661.592	899
661.647	1202
661.701	2088
661.755	557
661.810	1029
661.864	406
661.919	259
661.973	1488
662.027	1383
662.081	757
662.136	1180
662.190	1718
662.244	1602
662.299	1165
662.353	814
662.407	628
662.461	917
662.515	1276
662.569	1009
662.624	1441
662.678	784
662.732	335
662.786	1097
662.840	1744
662.894	479
662.948	1063
663.002	372
663.056	691
663.110	151
663.164	1088
663.218	474
663.272	851
663.326	1871
663.380	902
663.434	1668
663.488	1398
663.542	-149
663.595	811
663.649	1095
663.703	1119
663.757	514
663.811	1011
663.864	1059
663.918	1603
663.972	487
664.026	973
664.079	885
664.133	1909
664.187	709
664.240	597
664.294	899
664.348	1767
664.401	1656
664.455	1107
664.508	424
664.562	891
664.615	1056
664.669	508
664.722	1240
664.776	1554
664.829	1146
664.883	1053
664.936	450
664.990	1307
665.043	1143
665.097	806
665.150	2005
665.203	741
665.257	993
665.310	1431
665.363	1553
665.417	1093
665.470	1501
665.523	873
665.576	1208
665.630	1215
665.683	1186
665.736	1574
665.789	1726
665.842	245
665.895	1328
665.949	1457
666.002	1221
666.055	1684
666.108	1285
666.161	868
666.214	1569
666.267	1865
666.320	1375
666.373	1561
666.426	1022
666.479	1251
666.532	687
666.585	2055
666.638	2013
666.691	1853
666.744	1628
666.796	1971
666.849	1768
666.902	1751
666.955	804
667.008	1480
667.060	1435
667.113	624
667.166	1053
667.219	1467
667.271	735
667.324	1906
667.377	1618
667.430	2439
667.482	4540
667.535	2393
667.587	1870
667.640	2203
667.693	2095
667.745	2250
667.798	3407
667.850	1241
667.903	1008
667.955	1351
668.008	1092
668.060	2544
668.113	1222
668.165	1853
668.218	1611
668.270	1387
668.322	1518
668.375	1259
668.427	1918
668.479	430
668.532	1294
668.584	2195
668.636	1113
668.689	1242
668.741	1084
668.793	1584
668.845	951
668.898	1773
668.950	1629
669.002	1717
669.054	997
669.106	1233
669.158	1904
669.211	2351
669.263	2082
669.315	3706
669.367	4310
669.419	1944
669.471	2462
669.523	1917
669.575	2880
669.627	1981
669.679	1372
669.731	2142
669.783	1266
669.835	2119
669.886	1780
669.938	2958
669.990	1384
670.042	1186
670.094	1708
670.146	1125
670.197	2213
670.249	2689
670.301	3200
670.353	5055
670.404	7370
670.456	9305
670.508	16806
670.560	29525
670.611	52735
670.663	95312
670.715	246859
670.766	343614
670.818	73544
670.869	12967
670.921	7064
670.972	5086
671.024	3997
671.075	3501
671.127	2094
671.178	2661
671.230	2547
671.281	1824
671.333	1594
671.384	1692
671.436	1750
671.487	2733
671.538	2420
671.590	3292
671.641	4750
671.692	6558
671.744	11573
671.795	7705
671.846	3333
671.897	2880
671.949	1195
672.000	1849
672.051	1945
672.102	2043
672.153	1087
672.204	1412
672.256	1205
672.307	1481
672.358	1657
672.409	2145
672.460	1874
672.511	1794
672.562	1361
672.613	1670
672.664	519
672.715	1695
672.766	1624
672.817	1021
672.868	850
672.919	1970
672.970	1290
673.021	1052
673.071	109
673.122	1443
673.173	1200
673.224	993
673.275	1461
673.326	718
673.376	1529
673.427	491
673.478	462
673.528	1945
673.579	1296
673.630	646
673.680	1385
673.731	797
673.782	850
673.832	823
673.883	1323
673.934	647
673.984	724
674.035	1319
674.085	682
674.136	1147
674.186	240
674.237	2584
674.287	2083
674.338	1377
674.388	765
674.438	1121
674.489	919
674.539	833
674.589	1151
674.640	883
674.690	926
674.740	909
674.791	1523
674.841	880
674.891	1005
674.942	1679
674.992	755
675.042	980
675.092	620
675.142	1329
675.193	1128
675.243	412
675.293	398
675.343	1109
675.393	95
675.443	1042
675.493	372
675.543	667
675.593	829
675.643	1275
675.693	591
675.743	1081
675.793	254
675.843	1095
675.893	-429
675.943	1179
675.993	979
676.043	2165
676.093	500
676.142	724
676.192	570
676.242	863
676.292	-273
676.341	1141
676.391	824
676.441	700
676.491	68
676.540	-319
676.590	210
676.640	583
676.689	82
676.739	626
676.789	493
676.838	433
676.888	384
676.937	159
676.987	123
677.037	406
677.086	-299
677.136	1241
677.185	616
677.235	442
677.284	448
677.333	96
677.383	118
677.432	40
677.482	226
677.531	688
677.580	-40
677.630	526
677.679	451
677.728	722
677.778	142
677.827	47
677.876	-221
677.925	-674
677.975	29
678.024	875
678.073	739
678.122	423
678.171	497
678.220	451
678.269	1317
678.319	1106
678.368	132
678.417	247
678.466	381
678.515	863
678.564	361
678.613	481
678.662	-101
678.711	405
678.760	140
678.809	1009
678.857	231
678.906	651
678.955	506
679.004	947
679.053	997
679.102	639
679.151	270
679.199	391
679.248	729
679.297	619
679.346	-189
679.394	-100
679.443	30
679.492	17
679.540	48
679.589	806
679.638	449
679.686	201
679.735	61
679.784	619
679.832	454
679.881	807
679.929	361
679.978	-72
680.026	-206
680.075	-565
680.123	199
680.172	368
680.220	-328
680.268	1129
680.317	-275
680.365	260
680.414	-195
680.462	466
680.510	500
680.559	121
680.607	79
680.655	143
680.703	-339
680.752	130
680.800	-278
680.848	-149
680.896	-416
680.945	-177
680.993	-75
681.041	-157
681.089	144
681.137	-263
681.185	-524
681.233	91
681.258	-59
681.281	-226
681.329	-135
681.377	-111
681.380	-63
681.425	365
681.473	897
681.502	373
681.521	-47
681.569	804
681.617	417
681.624	516
681.665	990
681.713	847
681.745	698
681.761	589
681.809	337
681.857	1071
681.867	934
681.904	342
681.952	37
681.989	680
682.000	853
682.048	315
682.096	1312
682.111	1210
682.143	887
682.191	432
682.233	760
682.239	785
682.286	1004
682.334	830
682.354	954
682.382	1085
682.430	923
682.476	1164
682.477	1147
682.525	913
682.572	751
682.598	475
682.620	219
682.667	1112
682.715	1931
682.720	1947
682.763	1853
682.810	1711
682.841	1907
682.857	1973
682.905	1755
682.952	1936
682.963	1962
683.000	1946
683.047	1443
683.085	2042
683.095	2195
683.142	1506
683.190	1755
683.206	1883
683.237	2029
683.284	2186
683.328	1953
683.332	1919
683.379	2105
683.426	2397
683.449	2259
683.473	2058
683.521	2285
683.568	2596
683.571	2579
683.615	2153
683.662	1733
683.693	1665
683.709	1615
683.757	2496
683.804	2389
683.814	2545
683.851	2954
683.898	2715
683.936	2291
683.945	2192
683.992	3007
684.039	2557
684.057	2725
684.086	2896
684.133	3086
684.179	2898
684.180	2877
684.227	2978
684.274	3212
684.300	3311
684.321	3370
684.368	2934
684.415	3319
684.422	3275
684.462	2829
684.509	2287
684.543	2670
684.556	2837
684.603	2541
684.649	2725
684.665	2848
684.696	3060
684.743	3389
684.786	3677
684.790	3695
684.837	3527
684.883	3938
684.908	3951
684.930	3892
684.977	4261
685.023	4211
685.029	4184
685.070	3777
685.117	3916
685.150	3810
685.164	3852
685.210	4225
685.257	4774
685.272	4825
685.303	4596
685.350	4130
685.393	4215
685.396	4234
685.443	4189
685.490	4858
685.514	4789
685.536	4664
685.583	4978
685.629	4760
685.636	4680
685.675	4132
685.722	4516
685.757	4687
685.768	4738
685.815	4552
685.861	4662
685.878	4710
685.908	4913
685.954	5306
686.000	5559
686.000	5559
686.047	5953
686.093	6390
686.121	6915
686.139	6891
686.185	6582
686.232	5611
686.242	5441
686.278	5199
686.324	5032
686.363	5188
686.370	5261
686.416	5578
686.463	6596
686.484	6469
686.509	6172
686.555	5972
686.601	6262
686.606	6200
686.647	5344
686.693	5362
686.727	5611
686.739	5779
686.785	5110
686.831	5696
686.848	5471
686.877	5053
686.923	5238
686.969	5228
686.969	5227
687.015	4924
687.061	5212
687.090	5822
687.107	6154
687.153	5792
687.199	5369
687.211	5490
687.245	5875
687.291	5642
687.332	6143
687.336	6202
687.382	6097
687.428	6435
687.453	6354
687.474	6092
687.520	6396
687.565	5973
687.574	5848
687.611	5743
687.657	7073
687.695	6495
687.702	6412
687.748	7150
687.794	7812
687.816	7738
687.839	7181
687.885	6990
687.931	5722
687.937	5662
687.976	5929
688.022	5864
688.058	6217
688.067	6291
688.113	5861
688.158	5859
688.179	5950
688.204	6098
688.249	6087
688.295	5966
688.300	6055
688.340	6765
688.386	7088
688.421	6824
688.431	6722
688.477	6318
688.522	6325
688.542	6468
688.567	6736
688.613	6342
688.658	6483
688.663	6513
688.703	6753
688.749	6651
688.784	7098
688.794	7251
688.839	7075
688.884	7086
688.905	7183
688.930	7243
688.975	7028
689.020	6940
689.026	6913
689.065	6924
689.110	6571
689.146	6990
689.155	7056
689.201	6940
689.246	7176
689.267	6908
689.291	6713
689.336	7250
689.381	6658
689.388	6787
689.426	7509
689.471	7293
689.509	7375
689.516	7396
689.561	7173
689.606	7506
689.630	7450
689.651	7467
689.696	6980
689.741	7552
689.750	7508
689.785	7236
689.830	7158
689.871	7016
689.875	7040
689.920	7283
689.965	7272
689.992	7498
690.010	7575
690.054	7240
690.099	7105
690.112	7238
690.144	7797
690.189	7638
690.233	7884
690.233	7897
690.278	7965
690.323	7948
690.354	7835
690.367	7935
690.412	8527
690.457	9032
690.474	9196
690.501	9364
690.546	8946
690.590	9871
690.595	9814
690.635	9595
690.680	9787
690.716	10106
690.724	10381
690.769	11593
690.813	13479
690.836	14032
690.857	15688
690.902	19628
690.946	23762
690.957	24714
690.991	32727
691.035	43447
691.077	53497
691.080	53580
691.124	52017
691.168	50471
691.198	49611
691.213	46642
691.257	37910
691.301	29031
691.318	25457
691.346	23057
691.390	19426
691.434	15680
691.439	15265
691.478	14337
691.522	12825
691.559	11785
691.567	11766
691.611	11521
691.655	11173
691.680	10708
691.699	10501
691.743	10646
691.787	10320
691.800	10304
691.831	10264
691.875	10009
691.919	9957
691.921	9924
691.964	9920
692.008	10037
692.041	10394
692.052	10498
692.096	10505
692.139	10315
692.162	10429
692.183	10474
692.227	10185
692.271	9778
692.282	9748
692.315	9805
692.359	9865
692.402	9721
692.403	9740
692.447	9684
692.490	9305
692.523	9215
692.534	9363
692.578	10089
692.622	10730
692.643	10893
692.666	10807
692.709	10633
692.753	10226
692.763	10175
692.797	10136
692.840	10076
692.884	10133
692.884	10158
692.928	10245
692.971	10399
693.004	10397
693.015	10463
693.059	10932
693.102	11055
693.124	11235
693.146	11520
693.189	12028
693.233	12621
693.245	12609
693.276	12826
693.320	13646
693.363	14233
693.365	14228
693.407	15695
693.450	16982
693.485	18095
693.493	18749
693.537	21973
693.580	25180
693.605	26951
693.624	30641
693.667	39502
693.710	48326
693.725	51579
693.753	67465
693.797	92104
693.840	116457
693.845	118985
693.883	115608
693.926	111847
693.966	108932
693.970	107131
694.013	85717
694.056	64973
694.086	50342
694.099	47873
694.142	39513
694.185	31365
694.206	27353
694.229	25955
694.272	23444
694.315	20426
694.326	19729
694.358	19000
694.401	17782
694.444	16376
694.446	16272
694.487	15511
694.530	14742
694.566	14050
694.573	13958
694.616	12969
694.659	12023
694.686	11668
694.702	11669
694.745	11040
694.787	10772
694.806	10437
694.830	10332
694.873	10666
694.916	10592
694.926	10596
694.959	10659
695.002	10557
695.044	10338
695.046	10321
695.087	10588
695.130	10447
695.166	10176
695.172	10213
695.215	10444
695.258	10979
695.286	11101
695.301	11048
695.343	10808
695.386	10470
695.406	10246
695.428	10051
695.471	9936
695.514	9811
695.526	9704
695.556	9954
695.599	10340
695.641	10710
695.646	10706
695.684	10454
695.726	10317
695.766	10036
695.769	10049
695.811	9970
695.854	9879
695.886	9744
695.896	9771
695.938	9730
695.981	9668
696.005	9592
696.023	9687
696.065	9957
696.108	10297
696.125	10405
696.150	10578
696.192	10509
696.235	10772
696.245	10737
696.277	10745
696.319	10869
696.361	11125
696.365	11105
696.404	11302
696.446	11458
696.485	11571
696.488	11588
696.530	11471
696.572	11239
696.604	11029
696.614	11012
696.656	10945
696.698	10624
696.724	10475
696.740	10519
696.783	10608
696.825	10756
696.844	10757
696.867	10748
696.909	10634
696.951	10499
696.964	10429
696.992	10395
697.034	10264
697.076	10279
697.083	10236
697.118	10428
697.160	10637
697.202	10739
697.203	10712
697.244	10634
697.286	10431
697.323	10217
697.327	10240
697.369	10212
697.411	10273
697.442	10062
697.453	10090
697.494	10212
697.536	10409
697.562	10495
697.578	10551
697.620	10623
697.661	10534
697.682	10566
697.703	10702
697.744	10742
697.786	10966
697.801	10966
697.828	11132
697.869	11336
697.911	11586
697.921	11601
697.952	11215
697.994	10728
698.035	10169
698.040	10074
698.077	10007
698.118	9882
698.160	9811
698.160	9781
698.201	9990
698.243	10163
698.279	10391
698.284	10454
698.325	10703
698.367	10925
698.399	11062
698.408	11072
698.449	10936
698.491	10848
698.518	10755
698.532	10808
698.573	10876
698.614	10941
698.638	10940
698.656	10944
698.697	10874
698.738	10816
698.757	10761
698.779	10863
698.820	10974
698.862	11102
698.877	11116
698.903	11312
698.944	11567
698.985	11827
698.996	11865
699.026	11665
699.067	11343
699.116	10926
699.235	10588
699.354	10455
699.474	11136
699.593	12281
699.713	11709
699.832	10319
699.951	11756
700.070	9949
700.190	10026
700.309	10462
700.428	11257
700.547	10715
700.667	10825
700.786	12099
700.905	10828
701.024	11397
701.143	10158
701.262	9515
701.381	11013
701.500	9966
701.619	9858
701.738	10016
701.857	9667
701.976	9566
702.095	9401
702.214	10369
702.333	9965
702.452	9565
702.571	9738
702.690	8888
702.809	8854
702.928	8450
703.047	9935
703.165	9339
703.284	8830
703.403	9042
703.522	10902
703.640	10292
703.759	12226
703.878	15869
703.997	8909
704.115	9418
704.234	8134
704.353	8725
704.471	8318
704.590	7710
704.708	8484
704.827	8032
704.946	9656
705.064	9986
705.183	10462
705.301	10875
705.420	16148
705.538	15094
705.656	15958
705.775	25879
705.893	82293
706.012	92717
706.130	15808
706.249	13418
706.367	13625
706.485	13491
706.604	11678
706.722	11504
706.840	14120
706.958	17678
707.077	12643
707.195	11886
707.313	10330
707.431	10132
707.549	10193
707.668	9934
707.786	10367
707.904	10731
708.022	9519
708.140	9832
708.258	9342
708.376	10777
708.494	9772
708.612	11235
708.730	15462
708.848	14229
708.966	13543
709.084	13159
709.202	12361
709.320	12655
709.438	12832
709.556	13066
709.674	13192
709.791	12072
709.909	12219
710.027	11659
710.145	11604
710.263	13136
710.380	12060
710.498	12038
710.616	11970
710.733	12391
710.851	12978
710.969	12614
711.086	11585
711.204	11867
711.322	12306
711.439	11891
711.557	12219
711.674	12421
711.792	13587
711.909	20982
712.027	25236
712.144	11645
712.262	12526
712.379	13366
712.497	17906
712.614	16581
712.732	14977
712.849	14713
712.966	15734
713.084	15998
713.201	15071
713.318	14643
713.436	15027
713.553	14210
713.670	14105
713.787	16391
713.905	16043
714.022	14560
714.139	13545
714.256	14401
714.373	15291
714.490	19731
714.608	38344
714.725	130118
714.842	107241
714.959	16792
715.076	13854
715.193	13085
715.310	12648
715.427	11371
715.544	12604
715.661	12509
715.778	12351
715.895	13159
716.011	13222
716.128	12579
716.245	11589
716.362	12612
716.479	13594
716.596	12055
716.713	12035
716.829	11586
716.946	11770
717.063	10750
717.180	10238
717.296	10227
717.413	11241
717.530	10702
717.646	10701
717.763	10812
717.880	10057
717.996	10417
718.113	10272
718.229	10031
718.346	9551
718.462	8973
718.579	11456
718.695	15030
718.812	14677
718.928	14490
719.045	10888
719.161	9836
719.277	9258
719.394	10910
719.510	11498
719.626	10869
719.743	11291
719.859	11847
719.975	14378
720.092	37536
720.208	62735
720.324	14103
720.440	10796
720.557	11998
720.673	15593
720.789	22660
720.905	50621
721.021	15721
721.137	10280
721.253	9503
721.369	9697
721.486	11644
721.602	15307
721.718	9515
721.834	7999
721.950	8346
722.066	8573
722.181	7739
722.297	9226
722.413	9107
722.529	8282
722.645	8383
722.761	7843
722.877	9481
722.993	8685
723.108	8183
723.224	7797
723.340	8126
723.456	7806
723.571	7660
723.687	6861
723.803	8156
723.918	7681
724.034	7596
724.150	8087
724.265	9328
724.381	19452
724.497	22649
724.612	8181
724.728	7068
724.843	7555
724.959	9256
725.074	19746
725.190	18925
725.305	8811
725.421	6741
725.536	6647
725.651	6466
725.767	6561
725.882	7109
725.997	6620
726.113	7683
726.228	6642
726.343	6612
726.459	5406
726.574	7621
726.689	5574
726.804	7183
726.920	6311
727.035	7046
727.150	7176
727.265	6804
727.380	7633
727.495	6667
727.610	7095
727.725	8966
727.841	15820
727.956	51203
728.071	27733
728.186	7073
728.301	5591
728.416	6364
728.531	6075
728.645	5900
728.760	6102
728.875	5970
728.990	6370
729.105	6253
729.220	5501
729.335	6095
729.449	5333
729.564	4912
729.679	5698
729.794	5685
729.908	6306
730.023	6207
730.138	4292
730.253	5067
730.367	4898
730.482	5016
730.596	4668
730.711	5415
730.826	6151
730.940	6023
731.055	6221
731.169	5365
731.284	4695
731.398	5295
731.513	6753
731.627	5689
731.742	6470
731.856	6769
731.970	5023
732.085	5081
732.199	6632
732.313	8232
732.428	13375
732.542	31167
732.656	17084
732.771	5911
732.885	5772
732.999	5780
733.113	5584
733.227	5145
733.342	4510
733.456	4771
733.570	4971
733.684	5106
733.798	4453
733.912	4950
734.026	3953
734.140	4602
734.254	5574
734.368	10858
734.482	12343
734.596	5013
734.710	4540
734.824	4513
734.938	5037
735.052	4651
735.166	4769
735.280	5264
735.393	4192
735.507	4702
735.621	6624
735.735	12861
735.849	5213
735.962	5113
736.076	4809
736.190	5442
736.303	6815
736.417	9169
736.531	4642
736.644	4991
736.758	3701
736.872	3449
736.985	3568
737.099	3701
737.212	3845
737.326	4834
737.439	3591
737.553	3947
737.666	4123
737.780	3733
737.893	3426
738.007	3603
738.120	3651
738.233	3961
738.347	3016
738.460	4169
738.573	3891
738.687	4071
738.800	4159
738.913	4902
739.026	5153
739.140	7236
739.253	6803
739.366	4513
739.479	3258
739.592	2594
739.705	3059
739.818	4182
739.932	2863
740.045	3464
740.158	3554
740.271	3648
740.384	3836
740.497	4000
740.610	4237
740.723	3883
740.836	3390
740.949	3660
741.062	5017
741.174	4847
741.287	3875
741.400	2927
741.513	3627
741.626	4347
741.739	3468
741.851	4224
741.964	4471
742.077	3499
742.189	3793
742.302	3688
742.415	3116
742.527	3871
742.640	3603
742.753	3991
742.865	3397
742.978	3046
743.090	2976
743.203	3897
743.316	3095
743.428	2801
743.541	2969
743.653	2639
743.766	2844
743.878	3488
743.990	4381
744.103	5246
744.215	3988
744.327	3625
744.440	4609
744.552	5287
744.664	4020
744.777	3157
744.889	2258
745.001	3626
745.113	3082
745.226	3125
745.338	2971
745.450	3439
745.562	2610
745.674	3472
745.786	3322
745.898	3679
746.010	4877
746.122	3816
746.234	3172
746.347	3161
746.459	3321
746.570	3486
746.682	4009
746.794	3984
746.906	2642
747.018	3311
747.130	2876
747.242	3222
747.354	2762
747.466	4258
747.577	2640
747.689	3113
747.801	2846
747.913	2707
748.024	3156
748.136	3261
748.248	2832
748.359	2323
748.471	3432
748.583	4174
748.694	6340
748.806	9176
748.918	4368
749.029	4454
749.141	3339
749.252	4513
749.364	3289
749.475	6398
749.587	4283
749.698	2924
749.809	3954
749.921	2886
750.032	3451
750.144	2731
750.255	2575
750.366	2897
750.478	2418
750.589	2721
750.700	2808
750.811	2941
750.923	4226
751.034	6942
751.145	6004
751.256	2734
751.367	2791
751.479	2796
751.590	2564
751.701	3357
751.812	2426
751.923	3225
752.034	2921
752.145	3225
752.256	2661
752.367	2663
752.478	2572
752.589	2077
752.700	3048
752.811	2662
752.922	3272
753.032	2614
753.143	3256
753.254	2467
753.365	2730
753.476	3308
753.586	2492
753.697	2902
753.808	3170
753.919	2804
754.029	2197
754.140	3248
754.251	3229
754.361	2951
754.472	3287
754.582	3489
754.693	2883
754.804	3982
754.914	2224
755.025	3270
755.135	3722
755.246	3102
755.356	2900
755.466	3948
755.577	3901
755.687	3295
755.798	2249
755.908	3002
756.018	2932
756.129	2810
756.239	2931
756.349	3604
756.460	2552
756.570	3124
756.680	2990
756.790	3380
756.900	2868
757.011	2940
757.121	2993
757.231	2927
757.341	3430
757.451	2343
757.561	3197
757.671	3604
757.781	2241
757.891	3932
758.001	3362
758.111	3829
758.221	4370
758.331	3961
758.441	4104
758.551	4761
758.661	4320
758.771	3940
758.880	3743
758.990	4413
759.100	3659
759.210	4482
759.320	4539
759.429	3860
759.539	3850
759.649	4049
759.758	4693
759.868	5210
759.978	4109
760.087	5028
760.197	5023
760.307	5625
760.416	5381
760.526	3926
760.635	5073
760.745	5363
760.854	5030
760.964	5791
761.073	5768
761.182	5720
761.292	5841
761.401	5929
761.511	5320
761.620	5703
761.729	6485
761.839	6693
761.948	6601
762.057	7184
762.166	6774
762.276	6022
762.385	7757
762.494	8061
762.603	7574
762.712	8806
762.822	7604
762.931	8753
763.040	8507
763.149	9122
763.258	9447
763.367	10804
763.476	11278
763.585	11764
763.694	12361
763.803	13349
763.912	14659
764.021	14794
764.130	15373
764.238	17651
764.347	17263
764.456	19193
764.565	20430
764.674	22203
764.783	24388
764.891	26625
765.000	31249
765.109	35977
765.217	39716
765.326	48833
765.435	57570
765.543	69998
765.652	86257
765.761	112563
765.869	153613
765.978	223469
766.086	340940
766.195	564271
766.303	944242
766.412	1117887
766.520	1003099
766.629	795878
766.737	460432
766.846	289012
766.954	196076
767.062	141632
767.171	114142
767.279	82125
767.387	62485
767.496	52721
767.604	44718
767.712	39050
767.820	34890
767.928	31024
768.037	29163
768.145	27983
768.253	27328
768.361	25482
768.469	25998
768.577	25488
768.685	27626
768.793	29437
768.901	34241
769.009	38504
769.117	46688
769.225	62333
769.333	87117
769.441	132908
769.549	223907
769.657	438243
769.765	852754
769.873	933669
769.981	719544
770.088	354781
770.196	192006
770.304	124686
770.412	87054
770.519	65757
770.627	50581
770.735	42309
770.842	35324
770.950	30572
771.058	25215
771.165	23015
771.273	20918
771.380	19026
771.488	16638
771.595	15408
771.703	14086
771.810	13332
771.918	12219
772.025	12098
772.133	10851
772.240	10512
772.348	10022
772.455	9153
772.562	8808
772.670	8238
772.777	8534
772.884	7819
772.991	7540
773.099	8517
773.206	7258
773.313	7225
773.420	6719
773.528	5799
773.635	6293
773.742	6385
773.849	6886
773.956	6702
774.063	6591
774.170	4908
774.277	6042
774.384	5252
774.491	4384
774.598	4755
774.705	4829
774.812	5618
774.919	5693
775.026	5300
775.133	4624
775.239	5471
775.346	4035
775.453	4251
775.560	4412
775.667	4167
775.773	3273
775.880	4337
775.987	3941
776.093	4906
776.200	3796
776.307	3507
776.413	4453
776.520	3614
776.627	4091
776.733	3685
776.840	3001
776.946	4981
777.053	5180
777.159	6240
777.266	3523
777.372	6075
777.478	4783
777.585	4188
777.691	2868
777.798	2969
777.904	5008
778.010	9362
778.117	5633
778.223	2653
778.329	3061
778.435	2955
778.542	3096
778.648	3144
778.754	2564
778.860	3096
778.966	2997
779.072	3180
779.178	3222
779.284	3572
779.391	2402
779.497	2239
779.603	4755
779.708	4967
779.815	11918
779.920	39101
780.026	74760
780.132	9954
780.238	2899
780.344	2814
780.450	3551
780.556	3039
780.661	2082
780.767	2190
780.873	2434
780.979	3365
781.085	1906
781.190	3108
781.296	1960
781.402	2276
781.507	1253
781.613	2319
781.719	2275
781.824	1847
781.930	3268
782.035	1571
782.141	1880
782.246	2154
782.352	1946
782.457	1236
782.563	1397
782.668	2268
782.773	2236
782.879	1816
782.984	2281
783.090	2921
783.195	3698
783.300	2443
783.405	1783
783.511	1536
783.616	2680
783.721	1246
783.826	2094
783.932	2141
784.037	1682
784.142	1652
784.247	2016
784.352	2440
784.457	1982
784.562	1850
784.667	1526
784.772	1840
784.877	1634
784.982	1424
785.087	1347
785.192	2789
785.297	2086
785.402	2115
785.507	1159
785.611	1534
785.716	1771
785.821	1616
785.926	1206
786.031	1479
786.135	1537
786.240	953
786.345	135
786.450	1902
786.554	1028
786.659	1396
786.763	-81
786.868	2198
786.973	2237
787.077	900
787.182	1411
787.286	1478
787.391	1032
787.495	737
787.600	893
787.704	734
787.809	1969
787.913	1512
788.017	1339
788.122	2185
788.226	1309
788.330	446
788.435	914
788.539	1081
788.643	319
788.747	755
788.852	1038
788.956	1403
789.060	1134
789.164	1234
789.268	394
789.372	1601
789.476	914
789.580	1027
789.684	163
789.788	1268
789.892	826
789.996	1606
790.100	1537
790.204	951
790.308	1770
790.412	1796
790.516	3700
790.620	3147
790.724	1488
790.828	1736
790.931	626
791.035	3633
791.139	2342
791.242	496
791.346	1560
791.450	866
791.554	820
791.657	603
791.761	2011
791.864	2003
791.968	1927
792.072	938
792.175	1060
792.279	639
792.382	1672
792.486	1185
792.589	1599
792.693	1723
792.796	192
792.899	1609
793.003	1473
793.106	64
793.209	758
793.313	1755
793.416	219
793.519	2332
793.623	2014
793.726	3002
793.829	563
793.932	931
794.035	506
794.138	1717
794.242	1185
794.345	1195
794.448	3816
794.551	4936
794.654	18469
794.757	36955
794.860	6805
794.963	2707
795.066	106
795.169	1810
795.272	-173
795.375	1814
795.477	-144
795.580	1282
795.683	98
795.786	1650
795.889	206
795.991	2353
796.094	1232
796.197	-185
796.300	1157
796.402	604
796.505	379
796.608	895
796.710	954
796.813	1025
796.915	1249
797.018	1285
797.120	926
797.223	-840
797.326	1654
797.428	151
797.530	253
797.633	614
797.735	1161
797.838	2929
797.940	2607
798.042	960
798.145	201
798.247	1623
798.349	-409
798.452	1351
798.554	387
798.656	-990
798.758	887
798.860	478
798.962	373
799.065	154
799.167	473
799.269	1191
799.371	834
799.473	1577
799.575	108
799.677	1289
799.779	1948
799.881	712
799.983	1111
800.085	1028
800.187	624
800.289	161
800.390	439
800.492	230
800.594	1392
800.696	-40
800.798	127
800.899	-121
801.001	333
801.103	171
801.205	-484
801.306	691
801.408	-986
801.509	844
801.611	739
801.713	104
801.814	-372
801.916	231
802.017	346
802.119	-114
802.220	263
802.322	-668
802.423	2545
802.525	18
802.626	276
802.727	350
802.829	1564
802.930	-999
803.031	1724
803.133	565
803.234	-354
803.335	226
803.436	-690
803.538	738
803.639	-402
803.740	1010
803.841	685
803.942	720
804.043	849
804.144	-128
804.245	749
804.346	-826
804.447	-277
804.548	1016
804.649	1050
804.750	-107
804.851	-431
804.952	-11
805.053	-1
805.154	-783
805.255	677
805.355	237
805.456	-198
805.557	-82
805.658	-154
805.758	1370
805.859	-99
805.960	-150
806.061	36
806.161	488
806.262	254
806.362	-305
806.463	154
806.564	431
806.664	114
806.765	1299
806.865	1297
806.966	58
807.066	96
807.166	1343
807.267	217
807.367	-696
807.468	847
807.568	-1398
807.668	30
807.769	1157
807.869	52
807.969	364
808.069	-146
808.170	338
808.270	201
808.370	1287
808.470	917
808.570	-605
808.670	-171
808.770	7
808.870	-552
808.970	653
809.070	573
809.170	-312
809.271	-164
809.370	576
809.470	-374
809.570	226
809.670	-367
809.770	35
809.870	457
809.970	756
810.070	89
810.169	904
810.269	-1792
810.369	798
810.469	-236
810.568	47
810.668	-30
810.768	-576
810.867	625
810.967	416
811.066	-390
811.166	226
811.265	-23
811.365	-140
811.464	-668
811.564	515
811.663	867
811.763	-928
811.862	194
811.962	1047
812.061	-290
812.160	11
812.260	503
812.359	671
812.458	-507
812.557	989
812.657	1221
812.756	1187
812.855	165
812.954	4
813.053	583
813.153	24
813.252	-889
813.351	305
813.450	88
813.549	-270
813.648	713
813.747	-238
813.846	368
813.945	-496
814.044	-50
814.143	734
814.242	95
814.341	161
814.439	-261
814.538	545
814.637	535
814.736	658
814.835	591
814.933	-96
815.032	945
815.131	349
815.229	365
815.328	125
815.427	-332
815.525	1808
815.624	443
815.722	505
815.821	749
815.919	740
816.018	151
816.116	2103
816.215	579
816.313	1144
816.412	1742
816.510	929
816.609	2928
816.707	1400
816.805	1765
816.904	1213
817.002	2193
817.100	2321
817.198	3132
817.296	3096
817.395	3286
817.493	5498
817.591	4220
817.689	8861
817.787	11445
817.885	19927
817.983	35576
818.081	75549
818.179	176721
818.277	399164
818.375	333590
818.473	110453
818.571	45838
818.669	28956
818.767	23731
818.865	24504
818.963	29417
819.061	41269
819.158	71120
819.256	147344
819.354	328334
819.452	612847
819.549	414376
819.647	149988
819.745	67321
819.842	38797
819.940	26164
820.038	17735
820.135	14322
820.233	11396
820.330	7569
820.428	7384
820.525	6376
820.623	5478
820.720	3143
820.818	3678
820.915	4135
821.012	3976
821.110	2196
821.207	2774
821.304	1791
821.402	1739
821.499	2412
821.596	2203
821.693	2093
821.791	1974
821.888	1205
821.985	3459
822.082	2175
822.179	1570
822.276	970
822.373	574
822.470	805
822.567	510
822.664	333
822.761	1145
822.858	-176
822.955	1036
823.052	196
823.149	643
823.246	613
823.343	-225
823.440	666
823.536	465
823.633	-687
823.730	158
823.827	-197
823.923	662
824.020	1713
824.117	-6
824.213	-424
824.310	533
824.407	-212
824.503	331
824.600	-34
824.696	-936
824.793	1096
824.889	8
824.986	-63
825.082	-129
825.179	282
825.275	-833
825.371	-1074
825.468	231
825.564	-974
825.660	68
825.757	-363
825.853	870
825.949	-1731
826.045	179
826.142	-400
826.238	-927
826.334	-207
826.430	-358
826.526	151
826.622	113
826.718	-128
826.814	246
826.910	954
827.006	338
827.102	-118
827.198	319
827.294	-393
827.390	-80
827.486	-8
827.582	-1157
827.678	-1552
827.774	-194
827.869	-813
827.965	412
828.061	-1062
828.157	-172
828.252	-369
828.348	-1580
828.444	-307
828.539	-26
828.635	-293
828.731	226
828.826	-1033
828.922	-829
829.017	-712
829.113	-180
829.208	-807
829.304	-1957
829.399	1248
829.495	-830
829.590	172
829.685	-584
829.781	49
829.876	-156
829.971	-227
830.066	-382
830.162	-423
830.257	-989
830.352	-376
830.447	-64
830.543	-570
830.638	-1533
830.733	538
830.828	-933
830.923	142
831.018	-546
831.113	-303
831.208	-1805
831.303	-239
831.398	-57
831.493	-855
831.588	-245
831.683	-806
831.778	-398
831.873	-716
831.967	344
832.062	-1114
832.157	-1301
832.252	-68
832.346	-228
832.441	-95
832.536	-73
832.631	2218
832.725	1035
832.820	101
832.914	-1505
833.009	-766
833.104	-416
833.198	105
833.293	-575
833.387	-706
833.482	-418
833.576	-1115
833.670	926
833.765	-704
833.859	-723
833.954	-276
834.048	-514
834.142	-775
834.237	-917
834.331	-1189
834.425	-580
834.519	-797
834.613	129
834.708	-595
834.802	-250
834.896	-2027
834.990	-191
835.084	20
835.178	-783
835.272	-583
835.366	-761
835.460	-283
835.554	-557
835.648	-299
835.742	-680
835.836	-161
835.930	-1182
836.024	93
836.117	-64
836.211	-335
836.305	497
836.399	1108
836.493	-1539
836.586	765
836.680	-1546
836.774	-1096
836.867	119
836.961	-411
837.055	-984
837.148	-65
837.242	96
837.335	-361
837.429	-899
837.522	-315
837.616	-616
837.709	1893
837.803	207
837.896	-371
837.989	-29
838.083	764
838.176	2809
838.269	1852
838.363	610
838.456	-549
838.549	-108
838.642	251
838.735	1772
838.829	730
838.922	-1342
839.015	-116
839.108	-970
839.201	-449
839.294	-675
839.387	-322
839.480	-416
839.573	302
839.666	-237
839.759	115
839.852	-966
839.945	164
840.038	-618
840.131	-1174
840.223	-582
840.316	-754
840.409	-1380
840.502	-1963
840.594	-196
840.687	-1736
840.780	-921
840.873	-1243
840.965	-15
841.058	811
841.150	2208
841.243	204
841.336	-403
841.428	-577
841.521	-781
841.613	-1536
841.706	237
841.798	-470
841.890	-964
841.983	-1910
842.075	201
842.167	-1027
842.260	-336
842.352	135
842.444	-138
842.537	3058
842.629	3970
842.721	-549
842.813	-964
842.905	-1678
842.997	-409
843.090	-575
843.182	1097
843.274	2154
843.366	8052
843.458	15502
843.550	8739
843.642	-184
843.734	-862
843.826	-48
843.918	630
844.009	-116
844.101	-743
844.193	-492
844.285	-732
844.377	-471
844.469	-61
844.560	-639
844.652	-385
844.744	-438
844.835	-1132
844.927	-861
845.019	-330
845.110	-810
845.202	-581
845.293	8
845.385	-1021
845.476	-908
845.568	-345
845.659	-1093
845.751	264
845.842	-1596
845.934	-1432
846.025	-1459
846.116	-557
846.208	-235
846.299	-1002
846.390	-813
846.482	197
846.573	-196
846.664	-196
846.755	528
846.846	789
846.937	-2407
847.029	-472
847.120	-1401
847.211	-1440
847.302	-281
847.393	-1465
847.484	-320
847.575	-861
847.666	-1901
847.757	-1728
847.847	-878
847.938	-113
848.029	-1242
848.120	-1037
848.211	-374
848.302	-1207
848.392	-1177
848.483	-40
848.574	-1987
848.664	-541
848.755	-1242
848.846	-235
848.936	-1078
849.027	-478
849.118	-189
849.208	-1229
849.299	-1012
849.389	544
849.480	629
849.570	2018
849.661	5121
849.751	6570
849.841	1328
849.932	-538
850.022	-1483
850.112	-537
850.203	-602
850.293	-497
850.383	-515
850.474	-1142
850.564	-857
850.654	-1080
850.744	-447
850.834	-742
850.924	-178
851.014	-450
851.104	-259
851.194	-1175
851.284	-517
851.374	-243
851.464	-559
851.554	-582
851.644	-238
851.734	809
851.824	-15
851.914	-9
852.004	-690
852.094	-969
852.183	-667
852.273	-618
852.363	11
852.452	-1036
852.542	-995
852.632	-1601
852.721	-806
852.811	-901
852.901	-619
852.990	-881
853.080	-1004
853.169	-909
853.259	-638
853.348	-1018
853.438	-547
853.527	-135
853.617	-138
853.706	2418
853.795	3318
853.885	10673
853.974	17956
854.063	37080
854.152	47713
854.242	12052
854.331	975
854.420	-29
854.509	78
854.598	132
854.687	-317
854.777	-426
854.866	-983
854.955	-273
855.044	-974
855.133	-1270
855.222	-966
855.311	-1678
855.400	-311
855.488	-1251
855.577	-715
855.666	-35
855.755	962
855.844	3049
855.933	3093
856.021	204
856.110	-819
856.199	-1428
856.288	-1446
856.376	-1686
856.465	-1023
856.554	-1243
856.642	-805
856.731	-542
856.819	-348
856.908	-1108
856.996	-1293
857.085	-1213
857.173	-544
857.262	-1098
857.350	-432
857.438	-925
857.527	-526
857.615	-616
857.703	-670
857.792	-818
857.880	127
857.968	-674
858.056	-1311
858.145	-1559
858.233	-1405
858.321	-1115
858.409	-710
858.497	-1201
858.585	-1182
858.673	-919
858.761	-1952
858.849	-769
858.937	-436
859.025	-371
859.113	-943
859.201	-1631
859.289	-896
859.377	-1145
859.465	-957
859.552	-1102
859.640	-970
859.728	-134
859.816	-908
859.903	-142
859.991	-1722
860.079	-1312
860.166	-1272
860.254	-1352
860.342	-1150
860.429	-1682
860.517	-1442
860.604	-945
860.692	44
860.779	-763
860.867	-722
860.954	-687
861.042	-725
861.129	-667
861.216	-1210
861.304	-1298
861.391	-603
861.478	-952
861.565	-738
861.653	-135
861.740	-1399
861.827	-1558
861.914	-1005
862.001	-1288
862.089	-967
862.176	-352
862.263	-1261
862.350	-930
862.437	-695
862.524	-1239
862.611	-369
862.698	-1047
862.785	-514
862.871	-415
862.958	-1745
863.045	-287
863.132	-652
863.219	-1779
863.306	-1979
863.392	-628
863.479	-825
863.566	-1072
863.652	-1278
863.739	-1890
863.826	-919
863.912	-803
863.999	-1604
864.086	-1739
864.172	-784
864.259	-1057
864.345	-1444
864.432	-504
864.518	-890
864.604	-446
864.691	-1144
864.777	-1430
864.863	-969
864.950	-11
865.036	-868
865.122	-958
865.209	-1577
865.295	-766
865.381	-603
865.467	-573
865.553	-307
865.639	383
865.726	1290
865.812	3499
865.898	8229
865.984	12866
866.070	26464
866.156	21447
866.242	2886
866.328	-24
866.414	-878
866.499	-112
866.585	-479
866.671	-1098
866.757	-160
866.843	-255
866.928	-1133
867.014	-1527
867.100	-325
867.186	-84
867.271	-682
867.357	224
867.442	174
867.528	-572
867.614	-782
867.699	-468
867.785	-271
867.870	-1188
867.956	-224
868.041	358
868.127	25
868.212	-342
868.297	76
868.383	-1482
868.468	-192
868.553	440
868.639	433
868.724	3100
868.809	1842
868.894	-1389
868.979	-309
869.065	239
869.150	-1110
869.235	-333
869.320	-1237
869.405	-1458
869.490	-1217
869.575	-432
869.660	-880
869.745	-460
869.830	-2207
869.915	-1449
870.000	-394
870.085	-992
870.169	-881
870.254	-1235
870.339	-1109
870.424	-1432
870.509	-548
870.593	-882
870.678	-1157
870.763	-492
870.847	-1082
870.932	-1293
871.016	-866
871.101	-538
871.186	-511
871.270	-134
871.355	-2193
871.439	-709
871.523	-1245
871.608	-963
871.692	-1088
871.777	-763
871.861	-983
871.945	-1107
872.030	-1165
872.114	-451
872.198	-1464
872.282	-1089
872.367	-1018
872.451	-965
872.535	-1578
872.619	-756
872.703	-1541
872.787	-1114
872.871	-1377
872.955	-950
873.039	-1815
873.123	-1204
873.207	-372
873.291	-1474
873.375	-1290
873.459	-742
873.543	-1148
873.627	-1246
873.711	-503
873.794	-233
873.878	-1699
873.962	-2146
874.045	-1606
874.129	-2138
874.137	-2050
874.213	-1172
874.245	-1405
874.296	-1791
874.352	-1505
874.380	-1361
874.460	-1490
874.464	-1497
874.547	-1194
874.568	-1167
874.631	-1090
874.676	-615
874.714	-208
874.784	-454
874.798	-505
874.881	-122
874.892	-194
874.965	-629
874.999	-870
875.048	-1288
875.107	-798
875.131	-561
875.215	-874
875.215	-874
875.298	-1508
875.323	-1582
875.381	-1758
875.430	-1333
875.465	-1023
875.538	-1173
875.548	-1199
875.631	-2189
875.646	-2029
875.714	-1205
875.753	-1274
875.798	-1390
875.861	-1486
875.881	-1515
875.964	-135
875.968	-191
876.047	-1067
876.076	-913
876.130	-716
876.183	-594
876.213	-503
876.291	-624
876.296	-633
876.379	-1237
876.398	-1147
876.462	-917
876.506	-1246
876.545	-1451
876.613	-821
876.628	-677
876.711	-1082
876.721	-1028
876.794	-783
876.828	-917
876.877	-1033
876.935	-636
876.960	-507
877.043	-1402
877.043	-1400
877.125	-592
877.150	-603
877.208	-589
877.258	-439
877.291	-311
877.365	-331
877.374	-357
877.456	-320
877.472	-227
877.539	265
877.579	-16
877.622	-397
877.687	-1125
877.704	-1267
877.787	-707
877.794	-670
877.869	-369
877.901	-499
877.952	-735
878.008	-856
878.034	-898
878.115	-460
878.117	-447
878.199	-513
878.222	-438
878.282	-363
878.329	-470
878.364	-505
878.437	-544
878.447	-538
878.529	-446
878.544	-356
878.611	-121
878.651	-318
878.694	-389
878.758	-397
878.776	-465
878.858	-1349
878.865	-1270
878.941	15
878.972	-232
879.023	-869
879.078	-952
879.105	-907
879.185	324
879.187	348
879.269	-341
879.292	-384
879.351	-398
879.399	-270
879.433	-337
879.506	-761
879.516	-758
879.598	-541
879.613	-493
879.680	-473
879.720	-388
879.762	-276
879.827	-503
879.844	-545
879.926	-657
879.933	-619
880.007	-302
880.040	-381
880.089	-547
880.147	-706
880.171	-678
880.253	288
880.254	290
880.335	846
880.360	1012
880.417	1718
880.467	2936
880.499	3693
880.574	4541
880.580	4494
880.662	1301
880.680	866
880.744	-40
880.787	46
880.825	222
880.893	-220
880.907	-337
880.989	-147
881.000	-222
881.070	-658
881.106	-680
881.152	-455
881.213	-181
881.233	-183
881.315	-637
881.319	-620
881.396	254
881.426	283
881.478	-107
881.532	-92
881.559	-59
881.639	-783
881.641	-799
881.722	-335
881.745	-477
881.803	-226
881.852	33
881.885	-71
881.958	-139
881.966	-126
882.047	165
882.064	136
882.129	-206
882.171	-156
882.210	298
882.277	442
882.291	316
882.372	-235
882.383	-286
882.454	-230
882.489	-155
882.535	-72
882.596	-202
882.616	-205
882.697	-153
882.702	-133
882.778	113
882.808	94
882.859	-111
882.914	-400
882.940	-337
883.020	-98
883.021	-94
883.102	-40
883.127	-55
883.183	60
883.233	-1
883.264	-61
883.339	-107
883.345	-118
883.426	-447
883.445	-548
883.507	-577
883.551	-463
883.587	-345
883.657	195
883.668	270
883.749	437
883.763	357
883.830	-438
883.869	-477
883.910	-56
883.975	172
883.991	39
884.072	-288
884.081	-368
884.152	-402
884.187	-423
884.233	-383
884.292	-260
884.314	-214
884.394	244
884.398	248
884.475	-206
884.504	-392
884.555	-213
884.610	131
884.636	123
884.716	-42
884.716	-37
884.797	13
884.821	156
884.877	169
884.927	-160
884.958	-191
885.033	23
885.038	6
885.118	-241
885.139	-443
885.199	-585
885.244	-324
885.279	3
885.350	419
885.359	402
885.439	218
885.456	96
885.520	-117
885.561	-9
885.600	73
885.667	-39
885.680	-25
885.760	341
885.773	386
885.840	389
885.878	283
885.920	127
885.984	-274
886.000	-277
886.080	140
886.089	142
886.160	319
886.195	550
886.240	696
886.300	426
886.320	262
886.400	364
886.406	343
886.480	271
886.511	143
886.560	142
886.616	221
886.640	205
886.720	294
886.722	285
886.800	-625
886.827	-860
886.879	-546
886.932	-258
886.959	-8
887.038	601
887.039	601
887.119	-28
887.143	-182
887.198	367
887.248	771
887.278	755
887.354	704
887.358	696
887.437	338
887.459	245
887.517	391
887.564	505
887.596	516
887.669	555
887.676	532
887.755	153
887.774	16
887.835	298
887.880	669
887.914	623
887.985	320
887.994	377
888.073	796
888.090	912
888.153	922
888.195	883
888.232	677
888.300	318
888.311	311
888.391	127
888.405	97
888.470	54
888.510	-4
888.549	362
888.615	1063
888.628	1002
888.708	518
888.720	442
888.787	396
888.825	353
888.866	189
888.930	-86
888.945	54
889.024	791
889.035	886
889.103	405
889.140	154
889.182	514
889.245	1000
889.261	1038
889.340	1221
889.349	1236
889.419	916
889.454	751
889.498	843
889.559	976
889.577	966
889.656	897
889.664	888
889.735	767
889.768	705
889.814	870
889.873	1085
889.978	107
890.083	911
890.187	690
890.292	533
890.397	111
890.501	171
890.606	94
890.710	708
890.815	392
890.919	-105
891.024	753
891.128	1314
891.233	43
891.337	854
891.442	478
891.546	990
891.650	116
891.755	617
891.859	1383
891.963	697
892.068	750
892.172	799
892.276	37
892.380	838
892.484	447
892.589	1104
892.693	800
892.797	735
892.901	699
893.005	263
893.109	193
893.213	1229
893.317	505
893.421	776
893.525	1082
893.629	177
893.733	208
893.837	247
893.941	784
894.045	1385
894.148	-869
894.252	455
894.356	747
894.460	1250
894.564	640
894.667	504
894.771	998
894.875	749
894.978	246
895.082	450
895.186	103
895.289	1069
895.393	-36
895.496	984
895.600	668
895.703	235
895.807	771
895.910	946
896.014	378
896.117	301
896.221	-101
896.324	803
896.427	-430
896.531	313
896.634	658
896.737	1049
896.840	1043
896.944	873
897.047	638
897.150	163
897.253	-274
897.356	1036
897.460	1206
897.563	477
897.666	476
897.769	681
897.872	639
897.975	225
898.078	-77
898.181	678
898.284	399
898.387	80
898.490	-141
898.593	863
898.695	979
898.798	582
898.901	601
899.004	261
899.107	304
899.209	143
899.312	909
899.415	340
899.518	719
899.620	330
899.723	1179
899.826	609
899.928	-114
900.031	-205
900.133	-140
900.236	-123
900.338	-634
900.441	471
900.543	862
900.646	533
900.748	-515
900.851	642
900.953	417
901.055	151
901.158	-8
901.260	662
901.362	562
901.465	442
901.567	334
901.669	700
901.771	-124
901.873	457
901.976	-453
902.078	426
902.180	54
902.282	350
902.384	63
902.486	921
902.588	1003
902.690	-87
902.792	105
902.894	395
902.996	768
903.098	260
903.200	462
903.302	350
903.404	1138
903.505	675
903.607	113
903.709	406
903.811	154
903.913	394
904.014	492
904.116	507
904.218	219
904.319	952
904.421	151
904.523	779
904.624	745
904.726	723
904.827	199
904.929	510
905.030	126
905.132	290
905.233	3
905.335	357
905.436	-1
905.537	1362
905.639	1182
905.740	577
905.841	-49
905.943	454
906.044	1165
906.145	-17
906.247	458
906.348	525
906.449	265
906.550	478
906.651	1080
906.752	48
906.854	-137
906.955	-394
907.056	20
907.157	271
907.258	843
907.359	109
907.460	-113
907.561	421
907.662	-89
907.762	115
907.863	-995
907.964	212
908.065	17
908.166	-214
908.267	26
908.367	152
908.468	-386
908.569	546
908.670	982
908.770	678
908.871	827
908.971	173
909.072	611
909.173	140
909.273	304
909.374	120
909.474	569
909.575	77
909.675	-184
909.776	-300
909.876	-274
909.977	54
910.077	530
910.177	183
910.278	-64
910.378	157
910.478	-448
910.579	13
910.679	-84
910.779	12
910.879	594
910.980	166
911.080	-389
911.180	83
911.280	-661
911.380	175
911.480	-195
911.580	91
911.680	205
911.780	253
911.880	-278
911.980	1127
912.080	11
912.180	440
912.280	336
912.380	-79
912.480	306
912.580	-199
912.679	115
912.779	475
912.879	43
912.979	376
913.078	-309
913.178	552
913.278	-757
913.377	61
913.477	557
913.577	-34
913.676	448
913.776	294
913.875	-168
913.975	354
914.074	-157
914.174	554
914.273	-118
914.373	254
914.472	83
914.572	328
914.671	292
914.770	-97
914.870	894
914.969	201
915.068	-134
915.167	559
915.267	524
915.366	-293
915.465	1069
915.564	616
915.663	523
915.763	-363
915.862	-41
915.961	-191
916.060	-552
916.159	486
916.258	-303
916.357	-148
916.456	522
916.555	-163
916.654	435
916.752	396
916.851	-518
916.950	280
917.049	48
917.148	321
917.247	209
917.345	-35
917.444	287
917.543	727
917.642	202
917.740	76
917.839	528
917.937	608
918.036	351
918.135	374
918.233	173
918.332	253
918.430	-348
918.529	-408
918.627	-628
918.726	882
918.824	-111
918.923	272
919.021	-523
919.119	917
919.218	-148
919.316	-41
919.414	329
919.512	197
919.611	146
919.709	236
919.807	961
919.905	781
920.003	-339
920.102	234
920.200	93
920.298	280
920.396	-263
920.494	468
920.592	-376
920.690	551
920.788	-157
920.886	342
920.984	515
921.082	-26
921.180	603
921.277	602
921.375	-136
921.473	-364
921.571	230
921.669	643
921.766	-113
921.864	647
921.962	656
922.060	379
922.157	15
922.255	501
922.352	376
922.450	1241
922.548	1283
922.645	489
922.743	380
922.840	1746
922.938	995
923.035	916
923.133	1154
923.230	1325
923.327	1731
923.425	1661
923.522	1982
923.619	1279
923.717	1432
923.814	705
923.911	973
924.008	2097
924.106	715
924.203	1126
924.300	956
924.397	1051
924.494	1023
924.591	1542
924.688	590
924.786	1285
924.883	1027
924.979	753
925.077	514
925.173	1728
925.270	340
925.367	1780
925.464	939
925.561	1205
925.658	1695
925.755	1668
925.852	1563
925.948	1777
926.045	1956
926.142	1431
926.239	1710
926.335	1733
926.432	1963
926.529	3138
926.625	2291
926.722	1528
926.818	1081
926.915	1786
927.011	1085
927.108	1603
927.204	1069
927.301	965
927.397	399
927.494	950
927.590	495
927.687	2175
927.783	1133
927.879	465
927.976	348
928.072	1616
928.168	542
928.264	782
928.361	809
928.457	493
928.553	332
928.649	1736
928.745	1016
928.841	1543
928.937	869
929.033	855
929.129	769
929.225	1454
929.321	1299
929.417	164
929.513	772
929.609	921
929.705	950
929.801	784
929.897	1007
929.993	900
930.089	441
930.184	221
930.280	1505
930.376	876
930.471	519
930.567	803
930.663	4
930.758	383
930.854	641
930.950	593
931.045	-185
931.141	1351
931.236	1306
931.332	317
931.427	1162
931.523	573
931.618	792
931.714	1426
931.809	1306
931.905	844
932.000	956
932.095	-106
932.191	1039
932.286	966
932.381	605
932.476	555
932.572	44
932.667	876
932.762	1010
932.857	1480
932.952	552
933.047	63
933.142	502
933.237	1016
933.332	411
933.427	698
933.522	777
933.617	379
933.712	671
933.807	1060
933.902	687
933.997	596
934.092	556
934.187	1446
934.282	727
934.376	266
934.471	477
934.566	792
934.661	6
934.755	845
934.850	65
934.945	1166
935.039	696
935.134	557
935.228	874
935.323	918
935.417	114
935.512	648
935.606	921
935.701	908
935.795	45
935.890	821
935.984	102
936.079	589
936.173	140
936.267	115
936.362	159
936.456	1092
936.550	1143
936.644	881
936.738	410
936.833	694
936.927	1487
937.021	974
937.115	501
937.209	-632
937.303	662
937.397	16
937.491	569
937.585	790
937.679	1307
937.773	1042
937.867	-325
937.961	-214
938.055	502
938.149	416
938.243	-169
938.337	1063
938.430	-100
938.524	1826
938.618	2000
938.712	2192
938.805	526
938.899	335
938.993	1148
939.086	1252
939.180	1947
939.274	2703
939.367	272
939.461	831
939.554	-505
939.648	1074
939.741	461
939.835	511
939.928	405
940.022	369
940.115	-30
940.208	623
940.302	987
940.395	567
940.488	-490
940.582	1155
940.675	-107
940.768	476
940.861	414
940.954	891
941.048	-90
941.141	488
941.234	962
941.327	2351
941.420	2448
941.513	1490
941.606	0
941.699	748
941.792	-226
941.885	378
941.978	287
942.071	516
942.164	-257
942.257	258
942.349	240
942.442	259
942.535	-31
942.628	434
942.721	298
942.813	-34
942.906	15
942.999	-174
943.091	-100
943.184	1364
943.277	-395
943.369	429
943.462	-114
943.554	450
943.647	-483
943.739	466
943.832	-4
943.924	-390
944.017	-91
944.109	-418
944.201	589
944.294	695
944.386	-332
944.478	736
944.571	-503
944.663	462
944.755	913
944.847	829
944.940	211
945.032	-74
945.124	864
945.216	1197
945.308	-327
945.400	557
945.492	-208
945.584	-1
945.676	502
945.768	402
945.860	406
945.952	533
946.044	1193
946.136	-34
946.228	-141
946.320	192
946.412	688
946.503	-287
946.595	976
946.687	284
946.779	-459
946.870	-310
946.962	-159
947.054	317
947.145	169
947.237	720
947.329	57
947.420	-207
947.512	-851
947.603	-54
947.695	27
947.786	-402
947.878	-615
947.969	-385
948.061	-283
948.152	-282
948.243	268
948.335	-131
948.426	-132
948.517	-360
948.609	26
948.700	292
948.791	-286
948.882	78
948.973	-169
949.065	44
949.156	-429
949.247	37
949.338	-604
949.429	-674
949.520	197
949.611	-509
949.702	1196
949.793	515
949.884	-201
949.975	-1034
950.066	-197
950.157	-341
950.247	-183
950.338	-64
950.429	92
950.520	412
950.611	13
950.701	-8
950.792	72
950.883	190
950.973	-401
951.064	86
951.155	-211
951.245	502
951.336	-162
951.427	-685
951.517	546
951.608	447
951.698	212
951.788	-580
951.879	-28
951.969	-264
952.060	376
952.150	-758
952.240	269
952.331	-1131
952.421	1467
952.511	-701
952.602	-33
952.692	-534
952.782	-294
952.872	-237
952.962	-717
953.052	-580
953.143	-707
953.233	-33
953.323	-206
953.413	50
953.503	776
953.593	275
953.683	-921
953.773	-770
953.863	-213
953.953	-308
954.042	-118
954.132	-292
954.222	231
954.312	-207
954.402	793
954.492	844
954.581	280
954.671	-429
954.761	-81
954.850	680
954.940	-857
955.030	330
955.119	-766
955.209	-568
955.298	-896
955.388	-5
955.477	211
955.567	-453
955.656	-571
955.746	260
955.835	-148
955.925	-297
956.014	-230
956.103	-5
956.193	247
956.282	-617
956.371	-213
956.461	-379
956.550	-555
956.639	-2
956.728	-787
956.817	-160
956.906	-744
956.995	659
957.085	-678
957.174	-441
957.263	-1266
957.352	-231
957.441	-631
957.530	9
957.619	-610
957.708	-231
957.796	-453
957.885	-360
957.974	-410
958.063	-279
958.152	-384
958.241	-721
958.329	-36
958.418	-624
958.507	-414
958.596	549
958.684	82
958.773	711
958.861	-926
958.950	-150
959.039	-236
959.127	-233
959.216	-417
959.304	-43
959.393	-160
959.481	295
959.570	671
959.658	92
959.746	-36
959.835	166
959.923	-441
960.011	-888
960.100	822
960.188	-187
960.276	-629
960.365	-568
960.453	-437
960.541	-1355
960.629	-50
960.717	-227
960.805	-915
960.893	50
960.981	-671
961.069	575
961.158	-395
961.245	331
961.333	-1095
961.421	-900
961.509	-138
961.597	144
961.685	-713
961.773	-193
961.861	-431
961.949	76
962.036	-530
962.124	-338
962.212	-771
962.299	-254
962.387	-272
962.475	-540
962.562	-776
962.650	-20
962.738	400
962.825	-22
962.913	188
963.000	140
963.088	-559
963.175	174
963.263	-412
963.350	-141
963.438	-155
963.525	-787
963.612	1105
963.700	1361
963.787	3691
963.874	363
963.962	141
964.049	111
964.136	99
964.223	-110
964.310	-880
964.398	-409
964.485	-558
964.572	-438
964.659	182
964.746	-350
964.833	36
964.920	196
965.007	-355
965.094	-256
965.181	-1090
965.268	466
965.355	-649
965.441	9
965.528	-1146
965.615	-82
965.702	-476
965.789	-468
965.875	388
965.962	166
966.049	-706
966.136	149
966.222	-659
966.309	-426
966.395	-562
966.482	-150
966.569	-895
966.655	-634
966.742	-956
966.828	230
966.915	-661
967.001	-518
967.087	-1056
967.174	-637
967.260	-81
967.347	289
967.433	750
967.519	2061
967.605	-241
967.692	12
967.778	-760
967.864	-566
967.950	-662
968.036	-839
968.123	-667
968.209	-802
968.295	-1755
968.381	651
968.467	-219
968.553	-746
968.639	808
968.725	-1001
968.811	513
968.897	-32
968.983	-674
969.069	-870
969.154	271
969.240	-95
969.326	-535
969.412	22
969.497	-320
969.583	-564
969.669	501
969.755	-71
969.840	-918
969.926	137
970.012	-475
970.097	28
970.183	-548
970.268	-300
970.354	147
970.439	-827
970.525	1539
970.610	-776
970.696	-75
970.781	-322
970.866	-583
970.952	627
971.037	-833
971.122	-459
971.208	121
971.293	-159
971.378	-1715
971.463	-785
971.549	-713
971.634	1119
971.719	-14
971.804	212
971.889	494
971.974	-774
972.059	-627
972.144	-195
972.229	-671
972.314	-531
972.399	353
972.484	-329
972.569	-348
972.654	-823
972.739	1421
972.824	0
972.908	-275
972.993	318
973.078	-1102
973.163	-650
973.247	-262
973.332	-1738
973.417	1138
973.501	-1324
973.586	189
973.671	-279
973.755	-879
973.840	298
973.924	-829
974.009	-1251
974.093	-1739
974.178	564
974.262	-222
974.346	-742
974.431	-719
974.515	-306
974.600	-1096
974.684	-112
974.768	-658
974.852	281
974.937	-1668
975.021	137
975.105	-1022
975.189	-50
975.273	20
975.358	-726
975.442	-1255
975.526	-31
975.610	-879
975.694	-1099
975.778	38
975.862	-1122
975.946	-2409
976.030	1099
976.114	-841
976.198	-365
976.281	-1193
976.365	468
976.449	-1346
976.533	-159
976.617	-1038
976.700	-791
976.784	-88
976.868	-695
976.951	-501
977.035	-856
977.119	-269
977.202	-1240
977.286	-211
977.369	-145
977.453	277
977.536	-704
977.620	-1329
977.703	-671
977.787	-878
977.870	-165
977.953	-137
978.037	-1120
978.120	118
978.203	-1225
978.287	-59
978.370	-842
978.453	-904
978.536	-467
978.620	-179
978.703	-295
978.786	-444
978.869	-448
978.952	-1458
979.035	169
979.118	-805
979.201	-806
979.284	-255
979.367	-989
979.450	356
979.533	-1032
979.616	-506
979.699	-712
979.782	-404
979.865	-210
979.948	-983
980.030	-1352
980.113	-717
980.196	-1208
980.279	-827
980.361	-688
980.444	-805
980.526	-421
980.609	-291
980.692	-639
980.774	-203
980.857	-1643
980.939	-345
981.022	-688
981.104	-1110
981.187	-574
981.269	130
981.352	-939
981.434	-1897
981.516	-1008
981.599	-48
981.681	160
981.763	-969
981.846	-920
981.928	-1131
982.010	-1385
982.092	-861
982.174	477
982.256	-1011
982.339	-608
982.421	-939
982.503	-146
982.585	-1118
982.667	-1058
982.749	-1006
982.831	-93
982.913	-1795
982.995	381
983.077	-886
983.158	-39
983.240	-2531
983.322	-598
983.404	-531
983.486	-1557
983.568	-227
983.649	-606
983.731	-981
983.813	-1148
983.894	-639
983.976	-1052
984.058	-1158
984.139	145
984.221	-1550
984.302	305
984.384	-1074
984.465	-1317
984.547	-808
984.628	-1521
984.710	-579
984.791	-893
984.872	-777
984.954	-1130
985.035	-578
985.116	-914
985.198	-1348
985.279	222
985.360	-855
985.441	-1273
985.522	-600
985.604	-1973
985.685	-2287
985.766	-73
985.847	504
985.928	-1286
986.009	-578
986.090	-321
986.171	-459
986.252	-1321
986.333	-219
986.414	-1101
986.495	-392
986.576	-517
986.656	-1052
986.737	-1125
986.818	-645
986.899	-949
986.980	-1046
987.060	-170
987.141	-991
987.222	-951
987.302	-848
987.383	-86
987.464	-818
987.544	-377
987.625	-831
987.705	-469
987.786	-527
987.866	-299
987.947	-859
988.027	-147
988.108	-1116
988.188	-746
988.268	-759
988.349	-1070
988.429	-1333
988.509	-285
988.589	-1466
988.670	-1959
988.750	-5
988.830	-1321
988.910	-724
988.990	-1001
989.070	-1262
989.151	-943
989.231	-1387
989.311	-293
989.391	-655
989.471	-1149
989.551	-1196
989.631	-840
989.711	50
989.791	-916
989.870	-1975
989.950	-221
990.030	-854
990.110	-1818
990.190	-1487
990.269	-672
990.349	-1018
990.429	-714
990.509	-248
990.588	-2653
990.668	-957
990.747	-1168
990.827	-1241
990.907	-467
990.986	-1286
991.066	-673
991.145	-1234
991.225	-170
991.304	-763
991.383	-1155
991.463	-1669
991.542	-910
991.622	-1259
991.701	-1355
991.780	-578
991.859	-619
991.939	-1182
992.018	-982
992.097	-1202
992.176	-999
992.256	-1582
992.335	-713
992.414	-953
992.493	-1582
992.572	-1524
992.651	-286
992.730	-928
992.809	-956
992.888	-1899
992.967	-992
993.046	-1126
993.125	-1905
993.203	-1607
993.282	-817
993.361	-1336
993.440	-1112
993.519	-806
993.597	-422
993.676	-1509
993.755	-284
993.834	-1389
993.912	-2047
993.991	416
994.069	-1119
994.148	-786
994.226	-1216
994.305	-1097
994.384	-1429
994.462	-384
994.540	-1544
994.619	-1317
994.697	-252
994.776	-1806
994.854	-674
994.932	-1545
995.011	-775
995.089	-1339
995.167	-663
995.245	-1115
995.324	-1930
995.402	-1051
995.480	-1324
995.558	-579
995.636	-1824
995.714	-1900
995.792	472
995.870	-1345
995.948	-1056
996.026	-298
996.104	-1701
996.182	-248
996.260	-1505
996.338	-480
996.416	-1232
996.494	-1802
996.572	-167
996.649	-1713
996.727	-1945
996.805	-1147
996.883	-922
996.960	-670
997.038	-337
997.116	-674
997.193	-883
997.271	-659
997.348	-1977
997.426	-1088
997.504	-1045
997.581	-957
997.658	-238
997.736	-1522
997.813	-2146
997.891	-370
997.968	-1659
998.046	-1047
998.123	-1266
998.200	-909
998.277	-1375
998.355	-1381
998.432	-1641
998.509	-960
998.586	-535
998.663	-1341
998.741	-1176
998.818	-1310
998.895	-969
998.972	-1164
999.049	-553
999.126	-1913
999.203	-466
999.280	-1494
999.357	-1758
999.434	-1335
999.511	-771
999.587	-894
999.664	-1507
999.741	-1173
999.818	124
999.895	-1782
999.971	-1314
1000.048	-687
1000.125	-348
1000.202	-1195
1000.278	-1224
1000.355	-1408
1000.431	-1706
1000.508	-1925
1000.584	-798
1000.661	-1128
1000.738	-1803
1000.814	-1118
1000.890	-418
1000.967	-1287
1001.043	-705
1001.120	-2615
1001.196	-819
1001.272	-1852
1001.349	-614
1001.425	-758
1001.501	-982
1001.577	-2373
1001.654	-1453
1001.730	-571
1001.806	-1056
1001.882	-1365
1001.958	-193
1002.034	-1070
1002.110	-923
1002.186	-1657
1002.262	-1648
1002.338	-2650
1002.414	-294
1002.490	-796
1002.566	-2052
1002.642	-1246
1002.718	-537
1002.794	-1539
1002.870	-1486
1002.945	-1669
1003.021	-1487
1003.097	-1243
1003.173	-750
1003.248	-1427
1003.324	-1223
1003.400	-545
1003.475	-1245
1003.551	-1154
1003.626	-844
1003.702	-1896
1003.777	-1342
1003.853	-1390
1003.928	-1460
1004.004	-1657
1004.079	-193
1004.155	-944
1004.230	-2636
1004.305	-412
1004.381	-1195
1004.456	-1211
1004.531	-904
1004.607	-1492
1004.682	-508
1004.757	-2133
1004.832	-1637
1004.907	-1452
1004.982	-560
1005.057	-1441
1005.133	-756
1005.208	-1267
1005.283	-1445
1005.358	-1289
1005.433	-1726
1005.508	-1572
1005.583	-1398
1005.657	-2155
1005.732	-871
1005.807	-2212
1005.882	-1157
1005.957	-1403
1006.032	-1055
1006.106	-1207
1006.181	-706
1006.256	-1961
1006.331	-1831
1006.405	-1927
1006.480	-1569
1006.554	-1402
1006.629	-1095
1006.704	-1320
1006.778	-1444
1006.853	-863
1006.927	-1588
1007.002	-1205
1007.076	-961
1007.150	-2311
1007.225	-1077
1007.299	-1063
1007.373	-2115
1007.448	-1362
1007.522	34
1007.596	-858
1007.671	-1155
1007.745	-1718
1007.819	-1179
1007.893	-1780
1007.967	-1032
1008.041	-2065
1008.115	-280
1008.190	-1887
1008.264	-1348
1008.338	-2125
1008.412	-1752
1008.486	-1278
1008.560	-1300
1008.633	-1555
1008.707	-720
1008.781	-1345
1008.855	-1632
1008.929	-1536
1009.003	-1448
1009.076	-1367
1009.150	-1905
1009.224	-1409
1009.298	-1505
1009.371	-2588
1009.445	-1383
1009.519	-2211
1009.592	-2090
1009.666	-624
1009.739	-2370
1009.813	-1919
1009.886	-1007
1009.960	-2305
1010.033	-1269
1010.107	-1280
1010.180	-2577
1010.253	-1669
1010.327	-1516
1010.400	-1037
1010.473	-1039
1010.547	-592
1010.620	-1489
1010.693	-1455
1010.766	-1711
1010.840	-1355
1010.913	-966
1010.986	-1653
1011.059	-1044
1011.132	-904
1011.205	-790
1011.278	-1463
1011.351	-1127
1011.424	-751
1011.497	-2081
1011.570	-1415
1011.643	-1362
1011.716	-2285
1011.789	-1942
1011.862	-1362
1011.934	-1510
1012.007	-2042
1012.080	-1694
1012.153	-1062
1012.225	-166
1012.298	-846
1012.371	-1219
1012.443	-1094
1012.516	-2971
1012.588	-864
1012.661	-1053
1012.733	-2244
1012.806	-1281
1012.879	-1059
1012.951	-1281
1013.023	-1721
1013.096	-946
1013.168	-1640
1013.241	-841
1013.313	-1376
1013.385	-1689
1013.458	-1632
1013.530	-849
1013.602	-2948
1013.674	-568
1013.746	-2244
1013.819	-1570
1013.891	-1726
1013.963	-2091
1014.035	-1730
1014.107	-1321
1014.179	-1433
1014.251	-2329
1014.323	-1615
1014.395	-1521
1014.467	-1650
1014.539	-1263
1014.611	-1598
1014.683	-1793
1014.754	-1109
1014.826	-2198
1014.898	-1300
1014.970	-1985
1015.042	-1409
1015.113	-1033
1015.185	-2091
1015.257	-2432
1015.328	-1423
1015.400	-1638
1015.471	-1378
1015.543	-2891
1015.615	-1844
1015.686	-1769
1015.757	-1816
1015.829	-1795
1015.901	-1378
1015.972	-1374
1016.043	-1739
1016.115	-2192
1016.186	-1881
1016.257	-2691
1016.328	-1786
1016.400	-1282
1016.471	-2055
1016.542	-1676
1016.613	-1755
1016.685	-1677
1016.756	-1742
1016.827	-1733
1016.898	-1594
1016.969	-2013
1017.040	-1398
1017.111	-2168
1017.182	-2138
1017.253	-1809
1017.324	-1823
1017.395	-2007
1017.466	-973
1017.537	-1984
1017.608	-1338
1017.678	-1252
1017.749	-2241
1017.820	-2084
1017.891	-1006
1017.961	-1339
1018.032	-1580
1018.103	-1486
1018.173	-2089
1018.244	-1838
1018.315	-1676
1018.385	-1658
1018.456	-1703
1018.526	-1689
1018.597	-2187
1018.667	-2166
1018.738	-2543
1018.808	-2137
1018.878	-2769
1018.949	-1235
1019.019	-2060
1019.089	-2541
1019.160	-2407
1019.230	-2621
1019.300	-1617
1019.371	-2220
1019.441	-1988
1019.511	-1844
1019.581	-1792
1019.651	-1668
1019.721	-1998
1019.791	-1338
1019.861	-2238
1019.931	-1805
1020.001	-1571
1020.071	-1861
1020.141	-1563
1020.211	-1943
1020.281	-1760
1020.351	-2484
1020.421	-1609
1020.491	-1238
1020.560	-1929
1020.630	-2048
1020.700	-1462
1020.770	-1899
1020.839	-1824
1020.909	-2243
1020.979	-2213
1021.048	-1865
1021.118	-1954
1021.187	-1576
1021.257	-1750
1021.326	-812
1021.396	-2060
1021.465	-1491
1021.535	-2273
1021.604	-2037
1021.674	-1756
1021.743	-2316
1021.812	-1835
1021.882	-2519
1021.951	-1838
1022.020	-1542
1022.089	-1177
1022.159	-2503
1022.228	-1618
1022.297	-2000
1022.366	-1996
1022.435	-1925
1022.504	-2104
1022.573	-1295
1022.642	-767
1022.711	-2507
1022.781	-1581
1022.849	-616
1022.918	-1622
1022.987	-1735
1023.056	-1873
1023.125	-1431
1023.194	-861
1023.263	-1477
1023.331	-1966
1023.400	-2443
1023.469	-1980
1023.538	-1775
1023.606	-2256
1023.675	-2189
1023.744	-1510
1023.812	-2113
1023.881	-2243
1023.949	-2277
1024.018	-1978
1024.086	-1991
1024.155	-1470
1024.223	-1357
1024.292	-940
1024.360	-1009
1024.429	-1623
1024.497	-1910
1024.565	-2261
1024.634	-1753
1024.702	-1660
1024.770	-1512
1024.838	-2377
1024.907	-2096
1024.975	-2653
1025.043	-1041
1025.111	-2641
1025.179	-1201
1025.247	-1891
1025.315	-1815
1025.383	-1360
1025.451	-1845
1025.519	-2009
1025.587	-2534
1025.655	-1817
1025.723	-2179
1025.791	-1925
1025.859	-1221
1025.927	-1742
1025.995	-1782
1026.062	-1862
1026.130	-1626
1026.198	-1480
1026.266	-1713
1026.333	-1682
1026.401	-1328
1026.469	-2019
1026.536	-1894
1026.604	-1973
1026.671	-1346
1026.739	-1428
1026.806	-1514
1026.874	-1749
1026.941	-2358
1027.009	-1146
1027.076	-1518
1027.144	-954
1027.211	-1878
1027.278	-2865
1027.345	-1768
1027.413	-1769
1027.480	-2153
1027.547	-1435
1027.614	-2490
1027.682	-1598
1027.749	-2003
1027.816	-2048
1027.883	-1670
1027.950	-1320
1028.017	-2146
1028.084	-727
1028.151	-2461
1028.218	-1652
1028.285	-1823
1028.352	-2311
1028.419	-1902
1028.486	-1832
1028.553	-1265
1028.619	-2042
1028.686	-1726
1028.753	-2227
1028.820	-1810
1028.886	-1221
1028.953	-1556
1029.020	-2409
1029.086	-1823
1029.153	-1567
1029.220	-2146
1029.286	-2210
1029.353	-1530
1029.419	-1837
1029.486	-1616
1029.552	-2075
1029.619	-2497
1029.685	-2774
1029.751	-1488
1029.818	-1620
1029.884	-1668
1029.951	-1429
1030.017	-1526
1030.083	-2224
1030.149	-1476
1030.216	-1752
1030.282	-1372
1030.348	-1951
1030.414	-1675
1030.480	-3031
1030.546	-1600
1030.612	-1517
1030.678	-1843
1030.744	-1819
1030.810	-1039
1030.876	-1711
1030.942	-2048
1031.008	-2007
1031.074	-1522
1031.140	-2050
1031.206	-1795
1031.272	-1961
1031.337	-1628
1031.403	-1657
1031.469	-2124
1031.534	-1688
1031.600	-1223
1031.666	-2298
1031.731	-2278
1031.797	-1763
1031.863	-1713
1031.928	-1415
1031.994	-1771
1032.059	-2302
1032.125	-2470
1032.190	-1697
1032.256	-2128
1032.321	-1714
1032.386	-1585
1032.452	-1718
1032.517	-2139
1032.582	-1248
1032.647	-1204
1032.713	-2217
1032.778	-1414
1032.843	-2396
1032.908	-1717
1032.974	-2140
1033.039	-2152
1033.104	-1594
1033.169	-1898
1033.234	-1400
1033.299	-1523
1033.364	-1725
1033.429	-1802
1033.494	-1849
1033.559	-2223
1033.624	-1830
1033.688	-646
1033.753	-1784
1033.818	-2540
1033.883	-1650
1033.948	-2133
1034.013	-2155
1034.077	-1142
1034.142	-1980
1034.207	-1598
1034.271	-728
1034.336	-252
1034.400	-1474
1034.465	-1626
1034.530	-1465
1034.594	-2064
1034.658	-1678
1034.723	-2199
1034.787	-1395
1034.852	-1664
1034.916	-1742
1034.981	-2348
1035.045	-1384
1035.109	-1575
1035.173	-1083
1035.238	-1908
1035.302	-1216
1035.366	-1523
1035.430	-1305
1035.495	-2612
1035.559	-1881
1035.623	-1869
1035.687	-1960
1035.751	-1706
1035.815	-2744
1035.879	-1154
1035.943	-2555
1036.007	-1884
1036.071	-2046
1036.135	-1374
1036.198	-1917
1036.262	-1838
1036.326	-2183
1036.390	-1153
1036.454	-1238
1036.517	-2075
1036.581	-2339
1036.645	-874
1036.709	-2203
1036.772	-1644
1036.836	-2059
1036.900	-1612
1036.963	-1904
1037.026	-1518
1037.090	-1312
1037.154	-1667
1037.217	-2341
1037.280	-1960
1037.344	-1883
1037.407	-1984
1037.471	-1466
1037.534	-2109
1037.597	-2597
1037.661	-2192
1037.724	-1955
1037.787	-1752
1037.850	-1672
1037.913	-2132
1037.977	-1206
1038.040	-1656
1038.103	-2146
1038.166	-1875
1038.229	-2377
1038.292	-1427
1038.355	-1448
1038.418	-1995
1038.481	-1186
1038.544	-1559
1038.607	-1621
1038.670	-1748
1038.732	-2020
1038.795	-1573
1038.858	-2458
1038.921	-934
1038.984	-1177
1039.046	-1834
1039.109	-2354
1039.172	-1997
1039.234	-2434
1039.297	-1459
1039.360	-2244
1039.422	-2572
1039.485	-1618
1039.547	-2589
1039.610	-1567
1039.672	-1173
1039.734	-2259
1039.797	-2080
1039.859	-1121
1039.922	-1803
1039.984	-2028
1040.046	-1074
1040.109	-1867
1040.171	-1766
1040.233	-2298
1040.295	-2180
1040.358	-2166
1040.420	-1834
1040.482	-2108
1040.544	-2018
1040.606	-2274
1040.668	-1961
1040.730	-1121
1040.792	-1894
1040.854	-2229
1040.916	-1875
1040.978	-1911
1041.040	-1647
1041.102	-1950
1041.164	-1777
1041.225	-2002
1041.287	-1848
1041.349	-1830
1041.411	-1693
1041.472	-1428
1041.534	-2270
1041.596	-2348
1041.657	-1451
1041.719	-2228
1041.781	-2350
1041.842	-1842
1041.904	-1898
1041.965	-1328
1042.027	-1637
1042.088	-2215
1042.150	-2044
1042.211	-1712
1042.272	-1704
1042.334	-2221
1042.395	-2356
1042.456	-2087
1042.518	-1184
1042.579	-995
1042.640	-1370
1042.701	-2695
1042.763	-2453
1042.824	-2386
1042.885	-1786
1042.946	-2085
1043.007	-2115
1043.068	-1962
1043.129	-1736
1043.190	-3015
1043.251	-1662
1043.312	-2148
1043.373	-2003
1043.434	-1543
1043.495	-2552
1043.556	-859
1043.616	-1899
1043.677	-1237
1043.738	-2238
1043.799	-1885
1043.859	-2671
1043.920	-2663
1043.981	-1857
1044.041	-1587
1044.102	-2472
1044.162	-2268
1044.223	-1691
1044.284	-1976
1044.344	-2305
1044.405	-2000
1044.465	-2189
1044.525	-1864
1044.586	-1982
1044.646	-2116
1044.707	-1530
1044.767	-1787
1044.827	-1178
1044.887	-1986
1044.948	-1254
1045.008	-1105
1045.068	-1599
1045.128	-1520
1045.188	-1926
1045.249	-1659
1045.309	-1316
1045.369	-1522
1045.429	-1377
1045.489	-2357
1045.549	-1916
1045.609	-1446
1045.669	-1851
1045.729	-1961
1045.789	-2229
1045.848	-613
1045.908	-1110
1045.968	-1461
1046.028	-1736
1046.088	-1611
1046.147	-954
1046.207	-1110
1046.267	-1871
1046.326	-1051
1046.386	-1859
1046.446	-1438
1046.505	-1209
1046.565	-1018
1046.624	-580
1046.684	-1046
1046.743	-548
1046.803	-943
1046.862	-1120
1046.922	0
