'Start Wavelength	183.907
'End Wavelength	1046.922
'Gate Delay	5.000
'Gate Width (ms)	1.050
'Laser Output Level	0.000
'X Position	0.000
'Y Position	0.000
'Z Position	0.000
'Grid Point Number	1.000
'Shot Number	100.000
183.907	757.000
183.977	-44.000
184.047	70
184.116	20
184.186	-113
184.256	286
184.325	267
184.395	119
184.465	1097
184.534	171
184.604	656
184.674	471
184.743	-288
184.813	936
184.883	64
184.952	771
185.022	657
185.092	534
185.161	-317
185.231	494
185.301	-67
185.370	-7
185.440	349
185.509	-156
185.579	986
185.649	973
185.718	877
185.788	584
185.857	-137
185.927	122
185.996	17
186.066	-16
186.136	-857
186.205	706
186.275	-393
186.344	-106
186.414	59
186.483	257
186.553	917
186.622	116
186.692	-856
186.761	-465
186.831	279
186.900	-42
186.970	869
187.039	-109
187.109	493
187.178	674
187.248	-5
187.317	190
187.387	306
187.456	159
187.526	-339
187.595	697
187.664	327
187.734	465
187.803	835
187.873	695
187.942	369
188.012	338
188.081	-381
188.150	71
188.220	471
188.289	316
188.358	437
188.428	1044
188.497	-368
188.567	858
188.636	77
188.705	-113
188.775	738
188.844	-185
188.913	812
188.983	-178
189.052	373
189.121	-197
189.191	200
189.260	1384
189.329	88
189.399	232
189.468	534
189.537	51
189.606	-110
189.676	764
189.745	741
189.814	373
189.883	-146
189.953	493
190.022	204
190.091	1149
190.161	1083
190.230	1461
190.299	120
190.368	428
190.437	-311
190.507	-56
190.576	360
190.645	-189
190.714	180
190.783	485
190.853	753
190.922	842
190.991	276
191.060	-77
191.129	148
191.198	938
191.268	288
191.337	993
191.406	816
191.475	800
191.544	-47
191.613	33
191.682	-46
191.752	849
191.821	49
191.890	-157
191.959	590
192.028	442
192.097	-70
192.166	498
192.235	-314
192.304	669
192.373	-36
192.442	178
192.511	-189
192.580	-390
192.650	530
192.719	-968
192.788	183
192.857	1001
192.926	140
192.995	-322
193.064	544
193.133	755
193.202	848
193.271	836
193.340	168
193.409	445
193.478	1483
193.547	857
193.615	1053
193.684	1896
193.753	202
193.822	1071
193.891	-184
193.960	672
194.029	-106
194.098	1452
194.167	-102
194.236	901
194.305	-253
194.374	-13
194.443	104
194.512	1161
194.580	1021
194.649	945
194.718	912
194.787	268
194.856	45
194.925	617
194.994	645
195.062	885
195.131	674
195.200	943
195.269	767
195.338	156
195.407	1098
195.475	-384
195.544	-871
195.613	644
195.682	882
195.751	705
195.819	601
195.888	931
195.957	1681
196.026	734
196.094	842
196.163	361
196.232	847
196.301	803
196.369	440
196.438	419
196.507	559
196.576	350
196.644	173
196.713	414
196.782	210
196.850	628
196.919	215
196.988	329
197.056	877
197.125	760
197.194	322
197.262	-156
197.331	191
197.400	729
197.468	-18
197.537	159
197.606	867
197.674	808
197.743	1203
197.812	613
197.880	1297
197.949	1270
198.017	874
198.086	1650
198.155	104
198.223	949
198.292	1686
198.360	1085
198.429	-43
198.497	445
198.566	595
198.635	2123
198.703	585
198.772	1095
198.840	1397
198.909	1937
198.977	522
199.046	636
199.114	1212
199.183	-208
199.251	338
199.320	714
199.388	-47
199.457	817
199.525	701
199.594	299
199.662	776
199.731	431
199.799	168
199.867	-15
199.936	-70
200.004	897
200.073	504
200.141	656
200.210	-124
200.278	532
200.346	294
200.415	536
200.483	219
200.552	211
200.620	741
200.688	442
200.757	1128
200.825	-804
200.893	309
200.962	857
201.030	1311
201.098	366
201.167	485
201.235	474
201.303	439
201.372	495
201.440	317
201.508	331
201.577	1139
201.645	434
201.713	-305
201.781	858
201.850	876
201.918	766
201.986	579
202.055	631
202.123	685
202.191	109
202.259	175
202.327	747
202.396	25
202.464	1033
202.532	835
202.600	2539
202.669	1846
202.737	515
202.805	857
202.873	612
202.941	645
203.009	542
203.078	716
203.146	559
203.214	-242
203.282	233
203.350	568
203.418	357
203.487	1065
203.555	71
203.623	505
203.691	-46
203.759	-266
203.827	360
203.895	922
203.963	484
204.031	250
204.099	88
204.168	883
204.236	880
204.304	396
204.372	-24
204.440	1164
204.508	575
204.576	488
204.644	1188
204.712	-226
204.780	1213
204.848	823
204.916	343
204.984	274
205.052	1055
205.120	484
205.188	23
205.256	-217
205.324	203
205.392	178
205.460	1012
205.528	-18
205.596	794
205.664	263
205.732	80
205.799	1804
205.867	2593
205.935	-146
206.003	1025
206.071	198
206.139	-188
206.207	299
206.275	477
206.343	-259
206.411	-447
206.478	897
206.546	930
206.614	147
206.682	451
206.750	750
206.818	743
206.885	743
206.953	-587
207.021	791
207.089	430
207.157	89
207.225	732
207.292	1008
207.360	108
207.428	664
207.496	-125
207.563	1115
207.631	1024
207.699	220
207.767	601
207.834	701
207.902	1024
207.970	350
208.038	239
208.105	444
208.173	448
208.241	690
208.309	1956
208.376	790
208.444	1931
208.512	688
208.579	47
208.647	226
208.715	833
208.782	572
208.850	801
208.918	10
208.985	441
209.053	485
209.120	742
209.188	-247
209.256	244
209.323	-39
209.391	886
209.459	1405
209.526	776
209.594	596
209.661	-46
209.729	997
209.796	574
209.864	734
209.932	-81
209.999	1252
210.067	447
210.134	931
210.202	1105
210.269	1371
210.337	1517
210.404	865
210.472	1463
210.539	108
210.607	620
210.674	1610
210.742	1217
210.809	1007
210.877	1379
210.944	553
211.012	-237
211.079	2564
211.146	823
211.214	571
211.281	1162
211.349	782
211.416	1096
211.484	1140
211.551	651
211.618	826
211.686	971
211.753	114
211.821	1352
211.888	882
211.955	556
212.023	1173
212.090	635
212.157	617
212.225	1413
212.292	1177
212.359	1857
212.427	6944
212.494	3168
212.561	809
212.629	1004
212.696	778
212.763	988
212.831	957
212.898	1449
212.965	166
213.032	865
213.100	908
213.167	1147
213.234	1669
213.301	1042
213.369	1483
213.436	1446
213.503	-313
213.570	625
213.638	167
213.705	374
213.772	422
213.839	894
213.906	1993
213.973	1019
214.041	756
214.108	1668
214.175	1260
214.242	633
214.309	1085
214.376	863
214.444	198
214.511	1576
214.578	1569
214.645	1281
214.712	1512
214.779	904
214.846	284
214.913	1389
214.980	1265
215.048	1660
215.115	2203
215.182	2213
215.249	931
215.316	391
215.383	1035
215.450	523
215.517	1140
215.584	433
215.651	493
215.718	465
215.785	1385
215.852	1067
215.919	2217
215.986	1399
216.053	810
216.120	-263
216.187	1060
216.254	1093
216.321	1163
216.388	1579
216.455	1267
216.522	2042
216.589	1046
216.656	2500
216.722	2691
216.789	1858
216.856	756
216.923	1090
216.990	1137
217.057	1562
217.124	1328
217.191	1867
217.258	2352
217.324	1730
217.391	2958
217.458	2020
217.525	879
217.592	1354
217.659	-97
217.725	1903
217.792	1276
217.859	2179
217.926	542
217.993	979
218.059	963
218.126	965
218.193	641
218.260	844
218.327	1212
218.393	1359
218.460	771
218.527	154
218.594	612
218.660	2442
218.727	3068
218.794	412
218.860	131
218.927	508
218.994	465
219.061	780
219.127	1643
219.194	2236
219.261	610
219.327	-422
219.394	1355
219.461	-177
219.527	762
219.594	967
219.661	1426
219.727	-93
219.794	691
219.860	876
219.927	1019
219.994	1518
220.060	2577
220.127	1357
220.193	1740
220.260	1042
220.326	2121
220.393	2492
220.460	3179
220.526	1863
220.593	1871
220.659	2025
220.726	1544
220.792	4185
220.859	3201
220.925	5079
220.992	6364
221.058	6080
221.125	6359
221.191	3959
221.258	1668
221.324	1574
221.391	824
221.457	645
221.524	1149
221.590	1266
221.657	4282
221.723	2745
221.789	2804
221.856	3272
221.922	1205
221.989	1482
222.055	423
222.121	-670
222.188	1843
222.254	1182
222.321	942
222.387	945
222.453	1177
222.520	395
222.586	384
222.652	1163
222.719	782
222.785	1391
222.851	-159
222.918	547
222.984	743
223.050	752
223.116	-227
223.183	1338
223.249	-134
223.315	700
223.382	1086
223.448	544
223.514	-391
223.580	365
223.647	585
223.713	73
223.779	480
223.845	488
223.911	969
223.978	99
224.044	409
224.110	542
224.176	717
224.242	721
224.309	-174
224.375	755
224.441	1374
224.507	305
224.573	-142
224.639	855
224.705	-598
224.772	473
224.838	318
224.904	580
224.970	1047
225.036	521
225.102	877
225.168	1230
225.234	793
225.300	723
225.366	1368
225.432	1097
225.499	61
225.565	169
225.631	54
225.697	198
225.763	1080
225.829	136
225.895	955
225.961	1243
226.027	1861
226.093	773
226.159	2675
226.225	2419
226.291	6183
226.357	11080
226.423	6094
226.489	3943
226.554	2313
226.620	2009
226.686	2478
226.752	4470
226.818	6146
226.884	14616
226.950	14096
227.016	4165
227.082	2835
227.148	1679
227.214	2241
227.279	2508
227.345	1947
227.411	2327
227.477	1769
227.543	1628
227.609	2506
227.674	3262
227.740	1514
227.806	597
227.872	223
227.938	1508
228.003	2643
228.069	1105
228.135	1227
228.201	377
228.267	711
228.332	572
228.398	520
228.464	2259
228.530	461
228.595	571
228.661	-64
228.727	1795
228.792	1786
228.858	534
228.924	-485
228.990	2097
229.055	917
229.121	1491
229.187	46
229.252	1459
229.318	567
229.384	1648
229.449	1272
229.515	42
229.581	-507
229.646	1334
229.712	1058
229.777	2981
229.843	3901
229.909	2414
229.974	3009
230.040	2091
230.105	1129
230.171	1062
230.236	1989
230.302	2678
230.368	2074
230.433	1409
230.499	1705
230.564	2484
230.630	579
230.695	1326
230.761	1524
230.826	-608
230.892	3057
230.957	419
231.023	725
231.088	778
231.154	106
231.219	1492
231.284	701
231.350	2348
231.415	-168
231.481	902
231.546	1125
231.612	1431
231.677	44
231.742	-381
231.808	1194
231.873	208
231.939	-1205
232.004	2916
232.069	2542
232.135	1029
232.200	594
232.265	605
232.331	417
232.396	733
232.461	51
232.527	-285
232.592	125
232.657	1173
232.723	285
232.788	1252
232.853	1334
232.918	689
232.984	361
233.049	227
233.114	506
233.179	1364
233.245	2373
233.310	3448
233.375	-560
233.440	354
233.506	1312
233.571	1506
233.636	1128
233.701	733
233.766	918
233.832	2991
233.897	742
233.962	-102
234.027	2114
234.092	1898
234.157	1540
234.222	1155
234.288	841
234.353	4986
234.418	5263
234.483	2747
234.548	1747
234.613	1601
234.678	1324
234.743	924
234.808	6538
234.873	3107
234.938	2822
235.004	1052
235.069	1232
235.134	735
235.199	1228
235.264	1291
235.329	-269
235.394	972
235.459	883
235.524	592
235.589	1346
235.654	733
235.719	-407
235.784	1014
235.849	1532
235.913	3086
235.978	2965
236.043	4328
236.108	1723
236.173	41
236.238	1735
236.303	901
236.368	996
236.433	2328
236.498	3309
236.563	2251
236.627	4810
236.692	18651
236.757	16832
236.822	5890
236.887	3696
236.952	3713
237.017	1732
237.081	3884
237.146	3369
237.211	7252
237.276	17399
237.341	33477
237.405	14553
237.470	5802
237.535	4893
237.600	2394
237.664	2815
237.729	804
237.794	1499
237.859	5097
237.923	3198
237.988	2277
238.053	3148
238.118	2742
238.182	7515
238.247	8568
238.312	3041
238.376	2807
238.441	934
238.506	2736
238.570	602
238.635	2438
238.700	1317
238.764	1026
238.829	2817
238.893	3601
238.958	2868
239.023	2739
239.087	825
239.152	2009
239.216	867
239.281	970
239.346	1116
239.410	1252
239.475	1655
239.539	6620
239.604	5376
239.668	2240
239.733	1549
239.797	1114
239.862	994
239.926	5025
239.991	3027
240.055	914
240.120	1045
240.184	1008
240.249	577
240.313	1392
240.378	1082
240.442	3628
240.507	7532
240.571	1641
240.635	3208
240.700	3941
240.764	2077
240.829	1141
240.893	-343
240.957	858
241.022	4128
241.086	7587
241.151	3179
241.215	156
241.279	2542
241.344	3012
241.408	1951
241.472	502
241.537	1886
241.601	1729
241.665	-523
241.730	833
241.794	1702
241.858	1089
241.922	880
241.987	2301
242.051	570
242.115	295
242.179	1180
242.244	627
242.308	1822
242.372	1129
242.436	1703
242.501	1626
242.565	777
242.629	72
242.693	1899
242.757	841
242.822	541
242.886	1042
242.950	1370
243.014	582
243.078	1487
243.142	2009
243.206	1293
243.271	1262
243.335	1529
243.399	2243
243.463	6005
243.527	22001
243.591	7169
243.655	3119
243.719	691
243.783	2565
243.847	2824
243.911	3942
243.975	5036
244.040	4381
244.104	3811
244.168	1588
244.232	2963
244.296	4361
244.360	3703
244.424	1773
244.488	1935
244.552	2615
244.615	-79
244.679	2023
244.743	2002
244.807	1158
244.871	1919
244.935	1736
244.999	-56
245.063	594
245.127	2342
245.191	2408
245.255	1847
245.319	2431
245.383	1161
245.446	2367
245.510	831
245.574	2160
245.638	2934
245.702	412
245.766	6547
245.829	4240
245.893	868
245.957	1006
246.021	2528
246.085	1992
246.149	2909
246.212	8231
246.276	12008
246.340	5148
246.404	3318
246.467	3451
246.531	5114
246.595	3956
246.659	3087
246.722	2753
246.786	3947
246.850	3900
246.913	5672
246.977	1049
247.041	2089
247.104	2883
247.168	2961
247.232	7846
247.295	17446
247.359	8789
247.423	3584
247.486	6072
247.550	5339
247.614	3107
247.677	4284
247.741	2563
247.804	1941
247.868	2675
247.932	5962
247.995	16850
248.059	5734
248.122	2401
248.186	5043
248.249	6053
248.313	24195
248.376	28560
248.440	18055
248.503	6803
248.567	5758
248.630	5737
248.694	9869
248.757	11448
248.821	28462
248.884	17746
248.948	12974
249.011	20087
249.075	32156
249.138	28752
249.202	10764
249.265	6247
249.328	6897
249.392	5215
249.455	4827
249.519	2717
249.582	3149
249.645	7365
249.709	5726
249.772	2957
249.835	3948
249.899	3298
249.962	3356
250.025	3286
250.089	8966
250.152	13944
250.215	7191
250.279	3681
250.342	4772
250.405	4409
250.468	4016
250.532	4148
250.595	7065
250.658	18927
250.721	36689
250.785	13183
250.848	8662
250.911	4526
250.974	4492
251.038	6646
251.101	17333
251.164	6686
251.227	7889
251.290	6014
251.354	8691
251.417	28776
251.480	30746
251.543	17372
251.606	53353
251.669	41989
251.732	16444
251.795	19326
251.859	18929
251.922	36150
251.985	22244
252.048	9399
252.111	8327
252.174	6096
252.237	12897
252.300	32073
252.363	26757
252.426	52170
252.489	23715
252.552	13652
252.615	9209
252.678	8761
252.741	22089
252.804	24305
252.867	47994
252.930	34681
252.993	21389
253.056	12717
253.119	9228
253.182	6861
253.245	8222
253.308	7580
253.371	6840
253.434	6826
253.497	7827
253.559	14882
253.622	10366
253.685	10486
253.748	13155
253.811	6571
253.874	7230
253.937	6349
254.000	5725
254.062	10210
254.125	17073
254.188	15966
254.251	13237
254.314	6178
254.376	9550
254.439	12425
254.502	9865
254.565	10124
254.628	19881
254.690	10840
254.753	5663
254.816	4556
254.878	5383
254.941	10844
255.004	13098
255.067	4579
255.129	5157
255.192	3667
255.255	2472
255.317	3428
255.380	3290
255.443	1404
255.505	1728
255.568	2037
255.631	1987
255.693	3127
255.756	1450
255.819	2896
255.881	2057
255.944	1924
256.006	1372
256.069	1839
256.132	1445
256.194	3199
256.257	6375
256.319	4641
256.382	3820
256.444	3626
256.507	2259
256.569	749
256.632	1675
256.694	2979
256.757	9489
256.819	29350
256.882	11282
256.944	4863
257.007	4259
257.069	4533
257.132	3371
257.194	3021
257.257	1948
257.319	1436
257.381	2290
257.444	7304
257.506	31883
257.569	37007
257.631	13654
257.693	10666
257.756	5267
257.818	4681
257.880	2532
257.943	2779
258.005	2091
258.067	2294
258.130	2546
258.192	2007
258.254	5319
258.317	2986
258.379	2413
258.441	7619
258.503	8796
258.566	7432
258.628	11809
258.690	2905
258.753	2961
258.815	6406
258.877	2377
258.939	1599
259.001	2196
259.064	1927
259.126	1958
259.188	3843
259.250	2686
259.312	2600
259.375	5574
259.437	3720
259.499	2287
259.561	2292
259.623	2765
259.685	2818
259.747	2548
259.809	7260
259.872	15164
259.934	20329
259.996	24530
260.058	8123
260.120	2927
260.182	2485
260.244	2532
260.306	724
260.368	1964
260.430	1570
260.492	6163
260.554	11823
260.616	5057
260.678	11856
260.740	16861
260.802	4074
260.864	3953
260.926	2798
260.988	2817
261.050	2485
261.112	9932
261.174	22485
261.236	14010
261.298	4567
261.359	7050
261.421	9993
261.483	2248
261.545	3491
261.607	835
261.669	2655
261.731	4523
261.793	11428
261.854	5137
261.916	3427
261.978	3449
262.040	4677
262.102	2582
262.164	4007
262.225	3797
262.287	2725
262.349	6515
262.411	5880
262.472	2808
262.534	3232
262.596	9667
262.658	3643
262.719	1625
262.781	3111
262.843	8509
262.904	4497
262.966	2648
263.028	3741
263.090	12774
263.151	37659
263.213	15526
263.275	10592
263.336	4315
263.398	3402
263.459	1501
263.521	1786
263.583	5586
263.644	4713
263.706	2556
263.767	1139
263.829	1863
263.891	1043
263.952	1153
264.014	1827
264.075	4387
264.137	14972
264.198	6052
264.260	1398
264.321	2915
264.383	6380
264.444	20361
264.506	6727
264.567	3759
264.629	7794
264.690	18020
264.752	7184
264.813	3465
264.875	2069
264.936	2560
264.998	2058
265.059	252
265.120	1765
265.182	2912
265.243	12737
265.305	15340
265.366	4362
265.427	2184
265.489	2689
265.550	99
265.611	2249
265.673	1763
265.734	1652
265.795	1945
265.857	858
265.918	863
265.979	4119
266.040	22449
266.102	21099
266.163	6257
266.224	6345
266.286	3042
266.347	1719
266.408	1385
266.469	1791
266.530	830
266.592	809
266.653	3149
266.714	7578
266.775	2443
266.836	2253
266.898	941
266.959	4453
267.020	3476
267.081	2205
267.142	1018
267.203	191
267.264	579
267.326	2416
267.387	775
267.448	768
267.509	1290
267.570	1808
267.631	1517
267.692	374
267.753	924
267.814	379
267.875	3637
267.936	8578
267.997	5324
268.058	4278
268.119	1790
268.180	1776
268.241	853
268.302	982
268.363	293
268.424	1416
268.485	2255
268.546	827
268.607	1812
268.668	564
268.729	90
268.790	1207
268.851	1958
268.912	5953
268.972	7411
269.033	2812
269.094	1216
269.155	1444
269.216	961
269.277	598
269.338	933
269.398	195
269.459	596
269.520	2688
269.581	3483
269.642	3580
269.702	2041
269.763	1343
269.824	1337
269.885	2440
269.945	5374
270.006	1971
270.067	497
270.128	1229
270.188	282
270.249	669
270.310	570
270.370	912
270.431	563
270.492	971
270.553	1541
270.613	3916
270.674	8699
270.734	3814
270.795	1352
270.856	2627
270.916	2342
270.977	1632
271.038	2231
271.098	1992
271.159	4003
271.219	4231
271.280	1731
271.340	1768
271.401	1597
271.462	5683
271.522	3653
271.583	1548
271.643	1947
271.704	1302
271.764	2884
271.825	7125
271.885	24373
271.946	37485
272.006	12068
272.066	15039
272.127	29354
272.187	9214
272.248	5106
272.308	4952
272.369	17940
272.429	12310
272.489	7201
272.550	9352
272.610	8261
272.671	5249
272.731	5004
272.791	8834
272.852	4817
272.912	4519
272.972	2832
273.033	2433
273.093	4026
273.153	5556
273.214	3937
273.274	3551
273.334	15219
273.394	30612
273.455	11601
273.515	10722
273.575	25861
273.635	11842
273.696	11826
273.756	27706
273.816	11623
273.876	5840
273.936	10607
273.997	20042
274.057	6830
274.117	4813
274.177	6780
274.237	32745
274.297	32704
274.358	17230
274.418	21723
274.478	17578
274.538	6604
274.598	5183
274.658	13085
274.718	18951
274.778	7596
274.838	4335
274.898	7031
274.958	25475
275.018	27586
275.078	19823
275.138	7795
275.198	4518
275.258	2551
275.318	3353
275.378	6718
275.438	8620
275.498	5052
275.558	10507
275.618	25205
275.678	20596
275.738	11570
275.798	10474
275.858	7470
275.918	3392
275.978	3951
276.038	3555
276.098	2669
276.157	5650
276.217	19066
276.277	9271
276.337	5633
276.397	3280
276.457	4062
276.517	2996
276.576	2180
276.636	1338
276.696	5258
276.756	10847
276.815	9243
276.875	3717
276.935	3791
276.995	4278
277.055	2735
277.114	3059
277.174	3944
277.234	15582
277.293	7703
277.353	3663
277.413	3089
277.472	3967
277.532	3231
277.592	4404
277.651	11983
277.711	27662
277.771	9279
277.830	29169
277.890	28304
277.950	17158
278.009	50984
278.069	21815
278.128	17229
278.188	28505
278.248	12048
278.307	26597
278.367	20486
278.426	5826
278.486	3970
278.545	2871
278.605	2692
278.664	2601
278.724	4667
278.783	10148
278.843	30658
278.902	10333
278.962	5352
279.021	5325
279.081	5495
279.140	5848
279.199	5468
279.259	3849
279.318	5059
279.378	6481
279.437	10569
279.496	34487
279.556	98931
279.615	94240
279.675	25945
279.734	14796
279.793	18313
279.853	26409
279.912	11620
279.971	7003
280.031	5780
280.090	9512
280.149	17693
280.208	17088
280.268	70196
280.327	87637
280.386	22784
280.445	16468
280.505	16027
280.564	8022
280.623	7647
280.682	9187
280.742	14970
280.801	5480
280.860	3846
280.919	3837
280.978	3694
281.037	3863
281.097	2897
281.156	3412
281.215	3522
281.274	4714
281.333	17383
281.392	17028
281.451	4576
281.510	3442
281.569	1922
281.628	2666
281.688	2024
281.747	3434
281.806	3488
281.865	3184
281.924	2191
281.983	2732
282.042	1876
282.101	1979
282.160	2247
282.219	1541
282.278	1862
282.337	10635
282.396	9052
282.454	3692
282.513	3763
282.572	15781
282.631	11657
282.690	3480
282.749	2032
282.808	4373
282.867	4106
282.926	4028
282.985	2366
283.043	2768
283.102	2294
283.161	3286
283.220	8377
283.279	21288
283.338	7162
283.396	3936
283.455	4425
283.514	4711
283.573	7123
283.631	5150
283.690	4089
283.749	3128
283.808	6624
283.866	10483
283.925	3809
283.984	4677
284.043	5007
284.101	6282
284.160	3912
284.219	7246
284.277	6539
284.336	8522
284.395	22816
284.453	22774
284.512	10087
284.570	10722
284.629	11018
284.688	10159
284.746	10117
284.805	12963
284.863	15619
284.922	20393
284.981	24406
285.039	36273
285.098	59206
285.156	115532
285.215	198207
285.273	192463
285.332	132610
285.390	81891
285.449	53857
285.507	36285
285.566	26203
285.624	20164
285.683	16414
285.741	12673
285.799	11035
285.858	9750
285.916	9250
285.975	7390
286.033	6065
286.091	6251
286.150	5248
286.208	5056
286.267	7051
286.325	6632
286.383	8171
286.442	8302
286.500	5260
286.558	4395
286.616	3808
286.675	5480
286.733	5468
286.791	4671
286.850	4918
286.908	7071
286.966	11213
287.024	6492
287.083	3079
287.141	3852
287.199	3711
287.257	5277
287.315	4361
287.374	4625
287.432	10962
287.490	9473
287.548	4462
287.606	3652
287.664	3213
287.723	5421
287.781	9026
287.839	4592
287.897	4660
287.955	4432
288.013	7003
288.071	14951
288.129	49044
288.187	151023
288.245	79244
288.303	25142
288.361	13468
288.419	12695
288.477	9415
288.535	6142
288.593	4503
288.651	4678
288.709	3577
288.767	3030
288.825	3329
288.883	2654
288.941	2644
288.999	2849
289.057	2610
289.115	2147
289.173	2639
289.231	3068
289.289	2565
289.346	2229
289.404	3060
289.462	5712
289.520	6535
289.578	4212
289.636	2413
289.694	1843
289.751	1341
289.809	2678
289.867	2546
289.925	3665
289.983	4429
290.040	3325
290.098	1585
290.156	2741
290.214	4726
290.271	2604
290.329	1932
290.387	1829
290.444	1994
290.502	1432
290.560	2022
290.617	2986
290.675	2474
290.733	2147
290.790	3214
290.848	2674
290.906	2261
290.963	2898
291.021	3195
291.078	2923
291.136	4823
291.194	13516
291.251	33263
291.309	12891
291.366	4590
291.424	2644
291.481	3233
291.539	3425
291.596	2983
291.654	1789
291.711	2116
291.769	2942
291.826	6653
291.884	5664
291.941	2146
291.999	2531
292.056	3718
292.114	4196
292.171	2338
292.228	3566
292.286	4231
292.343	7946
292.401	9885
292.458	6793
292.515	3880
292.573	4516
292.630	4742
292.687	4623
292.745	4514
292.802	7457
292.859	21255
292.917	28200
292.974	19017
293.031	7261
293.089	4176
293.146	3778
293.203	3232
293.260	3316
293.318	4618
293.375	10450
293.432	7381
293.489	3778
293.546	3731
293.604	5900
293.661	15159
293.718	41994
293.775	30282
293.832	13447
293.889	8427
293.947	7151
294.004	5358
294.061	6265
294.118	12342
294.175	29500
294.232	47094
294.289	22858
294.346	9360
294.403	7279
294.460	5465
294.517	5480
294.574	4428
294.631	5018
294.688	6539
294.745	14518
294.802	49065
294.859	70099
294.916	30341
294.973	12275
295.030	10484
295.087	8842
295.144	7509
295.201	6467
295.258	5113
295.315	7686
295.372	16855
295.429	35440
295.486	19027
295.542	13072
295.599	28552
295.656	56903
295.713	38785
295.770	38752
295.827	18227
295.883	9825
295.940	8705
295.997	12584
296.054	14099
296.111	7988
296.167	5663
296.224	4216
296.281	3879
296.338	5391
296.394	5354
296.451	6419
296.508	14481
296.564	33699
296.621	28700
296.678	40123
296.734	64557
296.791	31015
296.848	15364
296.904	14618
296.961	24301
297.018	39190
297.074	35976
297.131	16752
297.187	11159
297.244	14301
297.301	33484
297.357	67599
297.414	30245
297.470	12425
297.527	9139
297.583	7984
297.640	7206
297.696	6768
297.753	5596
297.809	3881
297.866	3631
297.922	4420
297.979	3580
298.035	5231
298.092	8509
298.148	21041
298.204	25118
298.261	13402
298.317	20720
298.374	51913
298.430	36553
298.486	15859
298.543	10938
298.599	8860
298.656	10214
298.712	15001
298.768	27450
298.824	22957
298.881	9091
298.937	6263
298.993	5542
299.050	7829
299.106	9049
299.162	6000
299.218	6659
299.275	5932
299.331	6577
299.387	12771
299.443	37287
299.500	46135
299.556	19631
299.612	9697
299.668	8821
299.724	6935
299.780	6941
299.837	6781
299.893	11309
299.949	30393
300.005	42468
300.061	35305
300.117	60960
300.173	37873
300.229	16569
300.285	16600
300.341	20700
300.397	13374
300.453	7946
300.510	6947
300.566	6899
300.622	8064
300.678	11403
300.734	26298
300.790	33768
300.845	44130
300.901	28098
300.957	30884
301.013	31468
301.069	14818
301.125	10212
301.181	10448
301.237	8801
301.293	6118
301.349	5579
301.405	5121
301.461	5742
301.516	7372
301.572	8251
301.628	13105
301.684	12988
301.740	16577
301.796	26885
301.851	21430
301.907	28804
301.963	34973
302.019	45006
302.074	107883
302.130	122154
302.186	65224
302.242	28256
302.297	19136
302.353	15980
302.409	26826
302.464	28191
302.520	23604
302.576	42491
302.631	55240
302.687	35418
302.743	17787
302.798	10314
302.854	9173
302.910	8188
302.965	9902
303.021	16540
303.076	18242
303.132	19071
303.187	24860
303.243	15836
303.299	8659
303.354	7269
303.410	6990
303.465	5899
303.521	6706
303.576	7052
303.632	9542
303.687	13983
303.743	37614
303.798	40111
303.853	19131
303.909	10852
303.964	9358
304.020	11906
304.075	19637
304.130	18899
304.186	27342
304.241	33947
304.297	27054
304.352	16023
304.358	15446
304.407	10770
304.449	9190
304.463	8666
304.518	8459
304.539	8735
304.573	9171
304.629	8938
304.630	9043
304.684	14148
304.720	23053
304.739	27509
304.794	48750
304.811	42893
304.850	28889
304.902	14472
304.905	13545
304.960	9795
304.992	9419
305.015	9146
305.071	9668
305.083	9399
305.126	8431
305.173	6686
305.181	6403
305.236	5834
305.264	6034
305.292	6193
305.347	6878
305.354	6974
305.402	7677
305.445	8097
305.457	8216
305.512	8970
305.535	9874
305.567	11071
305.622	11183
305.626	11477
305.678	17659
305.716	31218
305.733	36310
305.788	49231
305.807	44226
305.843	35757
305.897	37573
305.898	37547
305.953	42669
305.988	31220
306.008	24871
306.063	14788
306.078	13299
306.118	9796
306.168	7836
306.173	7671
306.228	6911
306.259	6443
306.283	6037
306.338	5675
306.349	5727
306.393	5923
306.440	6554
306.448	6687
306.503	7729
306.530	8731
306.558	10629
306.613	22187
306.620	24107
306.668	35458
306.711	39560
306.723	39871
306.778	34882
306.801	27885
306.833	19342
306.888	10846
306.892	10525
306.943	7131
306.982	6554
306.997	6361
307.052	6851
307.072	7111
307.107	8092
307.162	11827
307.163	11902
307.217	17770
307.253	20852
307.272	21831
307.327	24156
307.343	22182
307.381	17611
307.434	14024
307.436	14063
307.491	22915
307.524	33899
307.546	38154
307.600	38891
307.614	34774
307.655	22746
307.704	13785
307.710	13121
307.765	12944
307.795	15402
307.819	18120
307.874	33166
307.885	33326
307.929	28347
307.975	19331
307.984	18412
308.038	18745
308.065	22594
308.093	33099
308.148	63718
308.156	71926
308.202	115193
308.246	148080
308.257	149182
308.312	95486
308.336	72556
308.366	54991
308.421	37362
308.426	35934
308.475	23760
308.517	17609
308.530	16007
308.585	13600
308.607	13019
308.639	12466
308.694	13842
308.697	14055
308.748	22705
308.787	34597
308.803	35816
308.857	31177
308.877	26409
308.912	20344
308.967	16276
308.967	16326
309.021	19611
309.058	23918
309.076	27679
309.130	44784
309.148	52851
309.185	91424
309.238	157720
309.239	157998
309.293	183660
309.328	172771
309.348	154990
309.402	83615
309.418	66424
309.457	47647
309.508	32268
309.511	31419
309.566	26541
309.598	25907
309.620	27827
309.674	36995
309.688	40091
309.729	39777
309.778	33540
309.783	32923
309.837	25359
309.868	21789
309.892	22290
309.946	27230
309.959	29857
310.001	37188
310.049	44534
310.055	43741
310.109	30675
310.139	21322
310.163	16391
310.218	9889
310.229	9075
310.272	7327
310.319	6618
310.326	6422
310.381	5946
310.409	5726
310.435	5586
310.489	5148
310.499	5176
310.543	5536
310.589	6086
310.598	6026
310.652	6321
310.679	6067
310.706	5260
310.760	3704
310.769	3492
310.814	3521
310.859	3859
310.868	3708
310.923	3055
310.948	2784
310.977	3076
311.031	3924
311.038	4077
311.085	4059
311.128	3678
311.139	3606
311.193	3749
311.218	3742
311.247	3606
311.301	3485
311.308	3488
311.356	3373
311.398	3468
311.410	3415
311.464	3099
311.488	3033
311.518	2851
311.572	2434
311.578	2441
311.626	3540
311.668	4594
311.680	4745
311.734	5432
311.758	5795
311.788	5474
311.842	4915
311.847	4907
311.896	6311
311.937	7681
311.950	7445
312.004	6705
312.027	6351
312.058	5227
312.112	3420
312.117	3288
312.165	3101
312.207	3030
312.297	5330
312.386	3966
312.476	2922
312.566	5999
312.656	2969
312.745	3217
312.835	3263
312.925	3546
313.015	3590
313.104	4036
313.194	2846
313.284	2364
313.374	3735
313.463	3395
313.553	3164
313.643	2519
313.732	1703
313.822	2355
313.912	2838
314.001	3014
314.091	4135
314.180	5335
314.270	4055
314.360	4582
314.449	3665
314.539	3087
314.628	2998
314.718	3169
314.808	3875
314.897	2455
314.987	2812
315.076	2617
315.166	3553
315.255	4188
315.345	4486
315.434	3975
315.524	4375
315.613	3730
315.703	4375
315.792	4595
315.881	3754
315.971	3797
316.060	8067
316.150	15037
316.239	16516
316.328	5745
316.418	2679
316.507	2568
316.597	3945
316.686	3130
316.775	6989
316.865	17411
316.954	4362
317.043	1526
317.133	2777
317.222	2090
317.311	1988
317.400	1356
317.490	3884
317.579	3466
317.668	2039
317.757	3446
317.847	4185
317.936	4718
318.025	7439
318.114	4305
318.203	3240
318.293	5320
318.382	9181
318.471	8542
318.560	14155
318.649	38173
318.738	7828
318.828	4498
318.917	5697
319.006	7849
319.095	19549
319.184	47872
319.273	22293
319.362	9315
319.451	3629
319.540	3706
319.629	6478
319.718	11968
319.807	7754
319.896	15387
319.985	58008
320.074	18050
320.163	6259
320.252	10507
320.341	8189
320.430	6418
320.519	7332
320.608	4848
320.697	4177
320.786	3291
320.875	4065
320.964	4265
321.053	7084
321.142	11061
321.230	10549
321.319	9350
321.408	21428
321.497	10487
321.586	9224
321.675	14813
321.764	13297
321.852	8655
321.941	12213
322.030	7840
322.119	10761
322.207	22241
322.296	23376
322.385	10641
322.474	9624
322.562	22771
322.651	14210
322.740	9475
322.829	14214
322.917	20772
323.006	9192
323.095	6558
323.183	8077
323.272	10496
323.361	17836
323.449	62616
323.538	21859
323.626	43859
323.715	26185
323.804	11487
323.892	41401
323.981	19821
324.069	7975
324.158	23882
324.246	21347
324.335	5896
324.424	7164
324.512	3673
324.601	3394
324.689	4641
324.778	6438
324.866	12728
324.954	4092
325.043	4274
325.131	9370
325.220	19026
325.308	20813
325.397	14039
325.485	7722
325.574	1993
325.662	1918
325.750	2374
325.839	2309
325.927	1860
326.015	3457
326.104	6657
326.192	9617
326.280	2847
326.369	2797
326.457	2898
326.545	5423
326.634	2811
326.722	1634
326.810	1618
326.898	2144
326.987	2794
327.075	5169
327.163	7504
327.251	4248
327.340	1451
327.428	3137
327.516	2284
327.604	1634
327.692	2882
327.781	4117
327.869	6984
327.957	4460
328.045	3262
328.133	1924
328.221	3566
328.309	3015
328.397	2797
328.485	2961
328.574	4072
328.662	12507
328.750	7759
328.838	4018
328.926	2528
329.014	2652
329.102	3730
329.190	10913
329.278	5742
329.366	2088
329.454	2484
329.542	2284
329.630	2013
329.718	2304
329.806	2160
329.893	2661
329.981	1933
330.069	1885
330.157	3166
330.245	5810
330.333	3083
330.421	2750
330.509	4097
330.597	14239
330.684	9496
330.772	4953
330.860	8743
330.948	10816
331.036	3892
331.123	1442
331.211	2198
331.299	4171
331.387	9469
331.475	15279
331.562	4677
331.650	2657
331.738	2810
331.825	5889
331.913	2653
332.001	1990
332.089	4129
332.176	9408
332.264	22972
332.352	16301
332.439	5055
332.527	2925
332.614	2836
332.702	4963
332.790	3006
332.877	9427
332.965	20955
333.052	4580
333.140	4928
333.228	9996
333.315	3145
333.403	3906
333.490	13408
333.578	10529
333.665	10537
333.753	4923
333.840	1746
333.928	4755
334.015	14754
334.103	22558
334.190	64568
334.278	15479
334.365	5993
334.452	3330
334.540	2901
334.627	4205
334.715	7279
334.802	14660
334.889	74350
334.977	65425
335.064	6813
335.151	2790
335.239	4223
335.326	7907
335.413	31420
335.501	40417
335.588	5679
335.675	2996
335.762	5417
335.850	8163
335.937	5771
336.024	17599
336.111	74513
336.199	25736
336.286	4227
336.373	2473
336.460	1708
336.547	2349
336.635	3701
336.722	3458
336.809	3527
336.896	5751
336.983	19289
337.070	44469
337.157	66346
337.245	50477
337.332	34182
337.419	4357
337.506	3602
337.593	4597
337.680	15994
337.767	43819
337.854	12329
337.941	14719
338.028	16960
338.115	5206
338.202	8042
338.289	14787
338.376	49840
338.463	15591
338.550	27456
338.637	26201
338.724	11526
338.811	17049
338.898	3407
338.984	3195
339.071	2319
339.158	3449
339.245	8483
339.332	5762
339.419	12351
339.506	10516
339.593	1225
339.679	1766
339.766	1946
339.853	3414
339.940	5687
340.027	2614
340.113	2281
340.200	2904
340.287	2596
340.374	2826
340.460	4397
340.547	1752
340.634	3973
340.720	14882
340.807	7818
340.894	2320
340.980	1788
341.067	2075
341.154	2796
341.240	3834
341.327	6870
341.414	2860
341.500	2337
341.587	3270
341.674	2386
341.760	5202
341.847	5755
341.933	2147
342.020	-233
342.106	1258
342.193	1928
342.279	4202
342.366	2645
342.452	4653
342.539	3005
342.625	6158
342.712	14290
342.798	5810
342.885	2524
342.971	428
343.058	892
343.144	1183
343.230	2295
343.317	2355
343.403	799
343.490	1039
343.576	1250
343.662	1390
343.749	1935
343.835	2806
343.921	7435
344.008	45680
344.094	100069
344.180	19766
344.267	7165
344.353	24236
344.439	25601
344.525	8518
344.612	5287
344.698	4382
344.784	2412
344.870	1933
344.957	1844
345.043	2650
345.129	1791
345.215	4220
345.301	1940
345.387	2221
345.474	981
345.560	1380
345.646	1982
345.732	2199
345.818	1821
345.904	1146
345.990	2165
346.076	2738
346.162	7333
346.249	2722
346.335	1277
346.421	2474
346.507	10111
346.593	34556
346.679	7278
346.765	2709
346.851	1598
346.937	897
347.023	2296
347.108	2319
347.194	1456
347.280	1485
347.366	2587
347.452	9757
347.538	43745
347.624	29869
347.710	22789
347.796	4509
347.882	1958
347.967	1818
348.053	4145
348.139	2548
348.225	1451
348.311	526
348.397	2193
348.482	3066
348.568	2572
348.654	951
348.740	1170
348.825	832
348.911	4491
348.997	20678
349.083	41261
349.168	6516
349.254	1824
349.340	1634
349.425	902
349.511	1805
349.597	2734
349.682	5671
349.768	20455
349.854	9108
349.939	2032
350.025	1687
350.110	2947
350.196	1952
350.282	-323
350.367	1516
350.453	5194
350.538	3735
350.624	2596
350.709	3587
350.795	1490
350.880	717
350.966	1921
351.051	4276
351.137	2420
351.222	1784
351.308	5774
351.393	16340
351.479	3744
351.564	1732
351.649	1744
351.735	1449
351.820	1765
351.906	1011
351.991	2733
352.076	11931
352.162	14942
352.247	3486
352.332	1522
352.418	3597
352.503	5776
352.588	24780
352.673	16595
352.759	5070
352.844	2056
352.929	2357
353.014	2189
353.100	2510
353.185	2748
353.270	3997
353.355	5446
353.441	2393
353.526	2694
353.611	5054
353.696	4483
353.781	3576
353.866	760
353.952	2375
354.037	4891
354.122	10992
354.207	9327
354.292	3728
354.377	2456
354.462	1223
354.547	2354
354.632	2793
354.717	3100
354.802	1155
354.887	887
354.972	995
355.057	909
355.142	777
355.227	2094
355.312	3334
355.397	7423
355.482	17119
355.567	7886
355.652	6443
355.737	6864
355.822	23931
355.907	17489
355.991	3983
356.076	1078
356.161	1952
356.246	1134
356.331	1893
356.416	6886
356.501	46372
356.585	44165
356.670	4864
356.755	4852
356.840	6142
356.924	27936
357.009	106453
357.094	36363
357.179	6982
357.263	4084
357.348	5346
357.433	4112
357.517	3973
357.602	3029
357.687	2802
357.771	3910
357.856	9004
357.941	7967
358.025	26018
358.110	112369
358.195	47128
358.279	5790
358.364	4541
358.448	16218
358.533	42225
358.617	28412
358.702	29546
358.787	10788
358.871	6376
358.956	4321
359.040	1755
359.125	959
359.209	2240
359.294	3988
359.378	6758
359.462	4221
359.547	3651
359.631	3035
359.716	1542
359.800	2231
359.885	5041
359.969	2237
360.053	1968
360.138	1300
360.222	2787
360.306	6156
360.391	3618
360.475	7109
360.559	13201
360.644	15109
360.728	10205
360.812	24921
360.896	68910
360.981	25893
361.065	12082
361.149	3831
361.233	2608
361.318	1915
361.402	3270
361.486	3191
361.570	2302
361.654	2626
361.739	9233
361.823	43873
361.907	67946
361.991	10021
362.075	4893
362.159	8704
362.243	6919
362.327	3442
362.411	5188
362.495	4217
362.580	3157
362.664	1902
362.748	1706
362.832	2086
362.916	1542
363.000	8337
363.084	39034
363.168	75099
363.252	15484
363.336	5565
363.420	9864
363.503	43982
363.587	47911
363.671	7365
363.755	3439
363.839	6240
363.923	1867
364.007	6286
364.091	7211
364.175	16095
364.258	67261
364.342	27576
364.426	8414
364.510	4298
364.594	8386
364.677	13111
364.761	60313
364.845	40133
364.929	10149
365.013	7257
365.096	7782
365.180	8141
365.264	19986
365.347	72636
365.431	28895
365.515	6463
365.598	2176
365.682	4267
365.766	7219
365.849	8863
365.933	3280
366.017	6494
366.100	5140
366.184	1451
366.267	2724
366.351	1477
366.435	1575
366.518	967
366.602	1900
366.685	1605
366.769	2001
366.852	6488
366.936	9278
367.019	3804
367.103	4746
367.186	10828
367.270	3039
367.353	595
367.436	1883
367.520	1028
367.603	2517
367.687	2825
367.770	5516
367.853	5331
367.937	17218
368.020	26379
368.104	5323
368.187	4895
368.270	7697
368.353	6089
368.437	13378
368.520	36128
368.603	17189
368.687	18138
368.770	32208
368.853	7327
368.936	9253
369.020	9366
369.103	2730
369.186	569
369.269	3234
369.352	4721
369.436	7199
369.519	4384
369.602	1075
369.685	3670
369.768	2100
369.851	3271
369.934	1811
370.018	2073
370.101	4581
370.184	6700
370.267	4554
370.350	5255
370.433	10181
370.516	30396
370.599	33027
370.682	7606
370.765	16478
370.848	21660
370.931	41444
371.014	16284
371.097	2819
371.180	3137
371.263	2375
371.346	788
371.429	2855
371.511	2321
371.594	4809
371.677	8676
371.760	11978
371.843	8577
371.926	42085
372.009	97223
372.091	28526
372.174	18930
372.257	46120
372.340	17102
372.423	14765
372.505	17711
372.588	6597
372.671	13821
372.754	40333
372.836	19956
372.919	22336
373.002	40489
373.085	10318
373.167	7229
373.250	17525
373.332	42038
373.415	59252
373.498	124093
373.580	40442
373.663	55648
373.746	77310
373.828	15261
373.911	8000
373.993	9879
374.076	41740
374.159	34496
374.241	13762
374.324	32981
374.406	22638
374.489	37664
374.571	106863
374.654	38039
374.736	19822
374.819	65488
374.901	89543
374.983	90647
375.066	15243
375.148	7128
375.231	34232
375.313	62700
375.395	19403
375.478	5062
375.560	3722
375.643	4961
375.725	18629
375.807	81635
375.890	65678
375.972	29866
376.054	15448
376.136	30137
376.219	12141
376.301	22632
376.383	64477
376.465	21191
376.548	11291
376.630	16797
376.712	51781
376.794	21123
376.877	3536
376.959	1483
377.041	3366
377.123	8753
377.205	10000
377.287	1886
377.369	1929
377.452	1856
377.534	1446
377.616	3235
377.698	2552
377.780	667
377.862	1764
377.944	2677
378.026	1078
378.108	1904
378.190	1373
378.272	1620
378.354	628
378.436	1582
378.518	4979
378.600	15854
378.682	11568
378.764	23642
378.846	16726
378.928	5409
379.010	6128
379.091	3564
379.173	1813
379.255	1402
379.337	3201
379.419	10816
379.501	32985
379.583	12083
379.664	4100
379.746	7267
379.828	23992
379.910	30136
379.991	26227
380.073	4314
380.155	3077
380.237	2299
380.318	2212
380.400	1714
380.482	4861
380.564	6197
380.645	4809
380.727	5149
380.809	4411
380.890	2734
380.972	1505
381.053	2230
381.135	3254
381.217	7387
381.298	23344
381.380	10762
381.461	11477
381.543	51278
381.624	60152
381.706	10382
381.787	6197
381.869	7044
381.951	24990
382.032	99226
382.113	57271
382.195	9357
382.276	8095
382.358	15385
382.439	49178
382.521	55696
382.602	88935
382.684	36391
382.765	61763
382.846	62533
382.928	85995
383.009	44688
383.090	34063
383.172	121822
383.253	180781
383.334	61638
383.416	73613
383.497	34429
383.578	15748
383.659	29048
383.741	103243
383.822	272223
383.903	128588
383.984	47247
384.066	80116
384.147	43912
384.228	10172
384.309	7645
384.390	5733
384.471	4229
384.553	5112
384.634	7012
384.715	6097
384.796	3627
384.877	5149
384.958	22501
385.039	23694
385.120	7621
385.201	5490
385.282	6656
385.363	7565
385.444	4737
385.525	9685
385.606	38307
385.687	32157
385.768	8924
385.849	10156
385.930	44992
386.011	82224
386.092	19137
386.173	4032
386.254	4047
386.335	5302
386.416	4333
386.496	14115
386.577	22695
386.658	9526
386.739	5224
386.820	7408
386.901	5284
386.981	4524
387.062	2304
387.143	4587
387.224	21079
387.304	19926
387.385	7086
387.466	3821
387.547	7393
387.627	4044
387.708	9801
387.789	41977
387.869	51829
387.950	13621
388.031	2151
388.111	2734
388.192	13167
388.273	17711
388.353	7859
388.434	3934
388.514	9235
388.595	48910
388.676	56106
388.756	22033
388.837	20030
388.917	11484
388.998	1405
389.078	2917
389.159	3297
389.239	1815
389.320	4709
389.400	2589
389.480	10178
389.561	26213
389.641	12299
389.722	4173
389.802	5836
389.883	11742
389.963	32910
390.043	22373
390.124	7025
390.204	8884
390.284	24112
390.365	14628
390.445	24930
390.525	33943
390.605	22188
390.686	9335
390.766	4346
390.846	2648
390.927	1397
391.007	1641
391.087	3508
391.167	2567
391.247	1447
391.328	6171
391.408	10208
391.488	6736
391.568	829
391.648	2596
391.728	5097
391.808	4256
391.888	4095
391.969	13989
392.049	20935
392.129	10866
392.209	11784
392.289	29934
392.369	15762
392.449	17324
392.529	8745
392.609	6349
392.689	7554
392.769	27852
392.849	21136
392.929	17953
393.009	40734
393.089	23102
393.169	7343
393.248	18506
393.328	106834
393.408	110641
393.488	18313
393.568	6258
393.648	3393
393.728	2635
393.807	1705
393.887	4170
393.967	2393
394.047	3742
394.127	4794
394.206	8559
394.286	33657
394.366	173612
394.446	176392
394.525	31076
394.605	8285
394.685	8972
394.764	25160
394.844	41007
394.924	24732
395.003	5847
395.083	3300
395.163	3619
395.242	2735
395.322	3765
395.402	1620
395.481	5233
395.561	16057
395.640	42980
395.720	26822
395.799	49988
395.879	35852
395.958	14153
396.038	49397
396.117	226347
396.197	233207
396.276	57406
396.356	18799
396.435	15939
396.515	7130
396.594	6379
396.673	8492
396.753	26220
396.832	100759
396.912	79438
396.991	20104
397.070	5732
397.150	1729
397.229	3001
397.308	1894
397.388	2783
397.467	1693
397.546	1514
397.625	-326
397.705	3590
397.784	2873
397.863	1384
397.942	904
398.022	2748
398.101	15260
398.180	46431
398.259	21638
398.338	5515
398.417	2597
398.497	1583
398.576	3458
398.655	1023
398.734	1650
398.813	2822
398.892	15269
398.971	51472
399.050	21322
399.129	1969
399.208	1936
399.287	2393
399.366	2009
399.445	1624
399.524	1613
399.603	483
399.682	4002
399.761	14172
399.840	54356
399.919	38410
399.998	4718
400.077	1288
400.156	666
400.235	3904
400.313	987
400.392	2121
400.471	12321
400.550	17643
400.629	3656
400.708	2057
400.786	3442
400.865	11867
400.944	10822
401.023	5722
401.102	274
401.180	917
401.259	1844
401.338	2775
401.416	2816
401.495	2380
401.574	3397
401.652	2199
401.731	2650
401.810	789
401.888	616
401.967	117
402.046	1257
402.124	2660
402.203	2917
402.281	2195
402.360	3653
402.438	15083
402.517	8235
402.596	3460
402.674	2635
402.753	1487
402.831	853
402.910	1774
402.988	3836
403.066	9938
403.145	6173
403.223	4855
403.302	5872
403.380	5284
403.459	4402
403.537	1863
403.615	1805
403.694	-486
403.772	1644
403.850	835
403.929	832
404.007	1601
404.085	1987
404.164	659
404.242	1664
404.320	9282
404.398	27024
404.477	28513
404.555	69853
404.633	58010
404.711	21429
404.789	10586
404.868	2747
404.946	1054
405.024	768
405.102	1536
405.180	217
405.258	-246
405.336	2349
405.415	1125
405.493	4889
405.571	3069
405.649	1256
405.727	450
405.805	2724
405.883	2006
405.961	3189
406.039	4012
406.117	527
406.195	2984
406.273	13561
406.351	52251
406.429	30614
406.507	6624
406.585	2353
406.663	2142
406.740	1950
406.818	1280
406.896	995
406.974	2231
407.052	2833
407.130	29671
407.208	38989
407.285	7427
407.363	1065
407.441	1046
407.519	1065
407.596	1507
407.674	2595
407.752	4595
407.830	10339
407.907	5830
407.985	751
408.063	1323
408.141	578
408.218	3492
408.296	2522
408.373	929
408.451	1202
408.529	1024
408.606	793
408.684	730
408.762	299
408.839	427
408.917	4
408.994	229
409.072	-526
409.149	-366
409.227	420
409.304	795
409.382	-361
409.459	79
409.537	810
409.614	586
409.692	170
409.769	395
409.846	322
409.924	2204
410.001	-847
410.079	404
410.156	1566
410.233	529
410.311	-390
410.388	181
410.465	863
410.543	171
410.620	998
410.697	1095
410.775	773
410.852	-201
410.929	2203
411.006	1966
411.083	797
411.161	1346
411.238	3313
411.315	2770
411.392	79
411.469	1400
411.547	1192
411.624	-943
411.701	-138
411.778	953
411.855	2644
411.932	2045
412.009	232
412.086	1066
412.163	1028
412.240	2072
412.317	2801
412.394	1909
412.471	646
412.548	1264
412.625	100
412.702	1216
412.779	2956
412.856	2162
412.933	893
413.010	1030
413.087	3431
413.164	10238
413.241	13810
413.318	3091
413.395	2032
413.471	2622
413.548	1645
413.625	998
413.702	1635
413.779	1563
413.855	-237
413.932	505
414.009	-571
414.086	-154
414.162	1274
414.239	2226
414.316	10581
414.393	22575
414.469	6436
414.546	1385
414.623	43
414.699	1447
414.776	613
414.853	248
414.929	766
415.006	499
415.082	2050
415.159	1319
415.236	1376
415.312	1437
415.389	2111
415.465	2559
415.542	1525
415.618	117
415.695	1950
415.771	1276
415.848	827
415.924	1648
416.000	763
416.077	590
416.153	-838
416.230	-743
416.306	630
416.383	1248
416.459	684
416.535	120
416.612	969
416.688	645
416.764	674
416.841	318
416.917	861
416.993	222
417.069	1250
417.146	854
417.222	1626
417.298	711
417.374	781
417.451	518
417.527	1264
417.603	1307
417.679	783
417.755	468
417.831	10
417.908	809
417.984	-364
418.060	-441
418.136	2589
418.212	3441
418.288	1163
418.364	1026
418.440	30
418.516	2588
418.592	3952
418.668	5961
418.744	6316
418.820	4898
418.896	1288
418.972	-446
419.048	159
419.124	3603
419.200	1295
419.276	687
419.352	-521
419.428	639
419.504	1023
419.579	1369
419.655	-10
419.731	954
419.807	3852
419.883	7574
419.959	5342
420.034	1662
420.110	3449
420.186	14998
420.262	10742
420.337	2000
420.413	630
420.489	497
420.565	815
420.640	-11
420.716	1115
420.792	-156
420.867	679
420.943	-483
421.019	1532
421.094	543
421.170	496
421.245	-617
421.321	521
421.397	-150
421.472	1163
421.548	705
421.623	2246
421.699	1169
421.774	1205
421.850	209
421.925	1354
422.001	1214
422.076	192
422.152	694
422.227	2293
422.302	2200
422.378	2020
422.453	3598
422.529	10054
422.604	47723
422.679	114806
422.755	52617
422.830	10257
422.905	3440
422.981	1648
423.056	371
423.131	1138
423.207	451
423.282	956
423.357	4111
423.432	2238
423.508	2014
423.583	6221
423.658	4776
423.733	1709
423.808	2331
423.883	2397
423.959	1521
424.034	-190
424.109	740
424.184	-18
424.259	-210
424.334	-246
424.409	-618
424.484	164
424.559	729
424.634	-163
424.709	1415
424.784	1970
424.859	1078
424.934	2215
425.009	9882
425.084	18107
425.159	6693
425.234	1742
425.309	-429
425.384	1907
425.459	3249
425.534	1849
425.609	549
425.683	667
425.758	1060
425.833	593
425.908	1565
425.983	5784
426.058	18669
426.132	8568
426.207	1902
426.282	5013
426.357	3698
426.431	1395
426.506	1458
426.581	1020
426.655	713
426.730	1537
426.805	855
426.879	1042
426.954	1639
427.029	3272
427.103	18766
427.178	47054
427.253	20591
427.327	3552
427.402	3250
427.476	9376
427.551	3531
427.625	2682
427.700	2687
427.774	533
427.849	2639
427.923	422
427.998	931
428.072	295
428.147	4356
428.221	7734
428.296	13699
428.370	5351
428.444	2774
428.519	5305
428.593	12585
428.667	10379
428.742	14349
428.816	10619
428.890	18126
428.965	18990
429.039	11611
429.113	14843
429.188	5834
429.262	680
429.336	3446
429.410	9816
429.485	7372
429.559	11595
429.633	8811
429.707	2116
429.781	6389
429.855	25583
429.930	32273
430.004	31205
430.078	56967
430.152	39978
430.226	18847
430.300	15039
430.374	2903
430.448	4172
430.522	17710
430.596	52859
430.670	28151
430.744	30353
430.818	49753
430.892	12913
430.966	1982
431.040	2348
431.114	743
431.188	565
431.262	1038
431.336	1002
431.410	5963
431.484	15892
431.557	9962
431.631	770
431.705	877
431.779	1635
431.853	8933
431.927	6778
432.000	1574
432.074	1281
432.148	3054
432.222	1442
432.295	392
432.369	991
432.443	3293
432.516	20464
432.590	51636
432.664	21937
432.737	3441
432.811	85
432.885	535
432.958	937
433.032	-53
433.106	-400
433.179	-493
433.253	65
433.326	154
433.400	-127
433.473	260
433.547	313
433.620	350
433.694	1856
433.767	2537
433.841	280
433.914	450
433.988	-219
434.061	126
434.134	86
434.208	368
434.281	-330
434.355	-46
434.428	701
434.501	313
434.575	-200
434.648	123
434.721	421
434.795	-519
434.868	-442
434.941	-141
435.014	-546
435.088	622
435.161	767
435.234	1892
435.307	1950
435.381	959
435.454	458
435.527	873
435.600	68
435.673	-7
435.746	-406
435.819	690
435.892	676
435.966	-361
436.039	87
436.112	1072
436.185	16
436.258	-385
436.331	-582
436.404	-546
436.477	27
436.550	-97
436.623	-357
436.696	149
436.769	578
436.842	651
436.915	1430
436.987	2319
437.060	1126
437.133	-242
437.206	-43
437.279	1276
437.352	137
437.425	983
437.498	989
437.570	2390
437.643	3221
437.716	661
437.789	327
437.861	983
437.934	4718
438.007	3351
438.080	388
438.152	770
438.225	3705
438.298	28895
438.370	79629
438.443	36291
438.516	7899
438.588	2112
438.661	-7
438.734	525
438.806	1086
438.879	1383
438.951	893
439.024	2395
439.096	1055
439.169	492
439.241	544
439.314	833
439.386	3277
439.459	4179
439.531	5695
439.604	2147
439.676	1289
439.749	357
439.821	224
439.893	908
439.966	139
440.038	911
440.110	1826
440.183	320
440.255	794
440.327	2465
440.400	12822
440.472	50825
440.544	38570
440.617	6012
440.689	3294
440.761	3848
440.833	4825
440.905	4403
440.978	615
441.050	856
441.122	624
441.194	-85
441.266	900
441.338	167
441.411	2207
441.483	14140
441.555	24954
441.627	8086
441.699	4730
441.771	5814
441.843	1591
441.915	606
441.987	-430
442.059	752
442.131	1637
442.203	3999
442.275	4271
442.347	4417
442.419	1631
442.491	3978
442.563	9523
442.635	11206
442.706	18529
442.778	18735
442.850	3674
442.922	732
442.994	2162
443.066	3397
443.137	3143
443.209	1916
443.281	1994
443.353	3877
443.425	9975
443.496	18245
443.568	18256
443.640	8192
443.711	3223
443.783	1938
443.855	1177
443.926	441
443.998	1328
444.070	4150
444.141	3478
444.213	2502
444.285	4447
444.356	4411
444.428	3580
444.499	2148
444.571	1
444.642	648
444.714	1203
444.785	3287
444.857	6583
444.928	17171
445.000	13847
445.071	11094
445.143	14621
445.214	7258
445.285	7160
445.357	25245
445.428	30167
445.500	43461
445.571	42946
445.642	20384
445.714	16765
445.785	28773
445.856	11947
445.928	5572
445.999	4062
446.070	2602
446.141	2596
446.213	5031
446.284	3175
446.355	3925
446.426	3109
446.497	2513
446.569	4932
446.640	9342
446.711	5876
446.782	2700
446.853	3560
446.924	2733
446.995	1527
447.066	3224
447.138	6843
447.209	6146
447.280	558
447.351	606
447.422	875
447.493	2778
447.564	4081
447.635	4442
447.706	2112
447.777	1320
447.847	1091
447.918	1030
447.989	3488
448.060	6351
448.131	13611
448.202	13820
448.273	8017
448.344	4313
448.414	1914
448.485	1684
448.556	1067
448.627	1413
448.698	1608
448.768	1138
448.839	1968
448.910	5992
448.981	8125
449.051	3009
449.122	1325
449.193	1026
449.263	1168
449.334	1394
449.405	2555
449.475	5981
449.546	6402
449.616	7669
449.687	9607
449.758	2945
449.828	2016
449.899	539
449.969	216
450.040	1196
450.110	3156
450.181	3584
450.251	1206
450.322	590
450.392	2055
450.463	2205
450.533	1491
450.604	2204
450.674	1775
450.744	1738
450.815	1477
450.885	2116
450.955	1425
451.026	1418
451.096	2024
451.166	3817
451.237	9500
451.307	25846
451.377	17389
451.447	3385
451.518	1715
451.588	1739
451.658	2719
451.728	5617
451.799	23160
451.869	36261
451.939	12807
452.009	3310
452.079	2869
452.149	3498
452.219	8250
452.289	27982
452.360	32755
452.430	8500
452.500	4069
452.570	3842
452.640	5114
452.710	13743
452.780	29652
452.850	19703
452.920	13944
452.990	7296
453.060	4239
453.129	5827
453.199	8346
453.269	30327
453.339	74135
453.409	117989
453.479	100796
453.549	153981
453.619	169290
453.688	95104
453.758	19286
453.828	7650
453.898	4629
453.968	4039
454.037	3601
454.087	3410
454.107	3293
454.168	2477
454.177	2317
454.247	2765
454.249	2802
454.316	3072
454.330	3793
454.386	6123
454.411	10722
454.456	16291
454.492	23072
454.525	28942
454.574	18541
454.595	14288
454.655	5725
454.665	4489
454.734	7243
454.736	7611
454.804	15090
454.817	19664
454.873	31630
454.898	36207
454.943	42737
454.979	29455
455.013	18855
455.060	11540
455.082	9920
455.141	15875
455.152	16672
455.221	36781
455.222	37793
455.291	75900
455.303	82081
455.360	99444
455.384	123122
455.430	145365
455.465	122148
455.499	103991
455.546	66232
455.569	47850
455.627	33045
455.638	31246
455.707	9911
455.708	9943
455.777	6301
455.789	6210
455.846	5544
455.869	5360
455.916	5149
455.950	5601
455.985	5664
456.031	5306
456.054	5063
456.112	4371
456.124	4335
456.193	5164
456.193	5116
456.262	6887
456.274	7491
456.332	9026
456.355	9402
456.401	8540
456.436	6954
456.470	5808
456.516	4526
456.540	4048
456.597	4006
456.609	3991
456.678	3849
456.678	3822
456.747	3491
456.759	3454
456.817	3250
456.840	3257
456.886	3273
456.920	3479
456.955	3847
457.001	4677
457.024	5583
457.082	7782
457.093	8015
457.162	11107
457.163	11186
457.232	11501
457.243	11082
457.301	7577
457.324	6392
457.370	5752
457.405	6186
457.439	6261
457.485	5971
457.508	6021
457.566	5501
457.577	5368
457.646	5204
457.647	5238
457.715	5905
457.727	6175
457.784	7383
457.808	7298
457.853	7778
457.889	9024
457.922	9688
457.969	10900
457.991	10844
458.050	10683
458.060	10744
458.129	9781
458.130	9811
458.198	8715
458.211	8487
458.267	6953
458.292	6392
458.336	6531
458.372	6412
458.405	6467
458.453	7241
458.474	8084
458.533	11305
458.543	11597
458.611	13913
458.614	14047
458.680	11583
458.694	10636
458.749	8634
458.775	7729
458.818	7087
458.855	6956
458.887	6801
458.936	6768
458.955	6812
459.016	7297
459.024	7332
459.093	7860
459.097	7896
459.162	8604
459.177	8927
459.230	9900
459.257	10234
459.299	9816
459.338	9438
459.368	9611
459.418	10074
459.437	9719
459.499	9082
459.505	9081
459.574	7909
459.579	7872
459.643	7658
459.659	7685
459.711	8335
459.740	8716
459.780	9663
459.820	10759
459.849	11499
459.900	12788
459.917	12475
459.981	11682
459.986	11534
460.054	8963
460.061	8809
460.123	9704
460.141	9896
460.191	11507
460.222	12359
460.260	12846
460.302	14227
460.328	13284
460.382	10809
460.397	10860
460.462	9496
460.465	9462
460.534	10686
460.543	10841
460.602	17880
460.623	20416
460.671	27895
460.703	34026
460.739	30539
460.783	26702
460.808	24302
460.864	12748
460.876	12150
460.944	11315
460.945	11279
461.013	10992
461.024	10874
461.081	10962
461.104	11299
461.150	10786
461.184	10462
461.218	10683
461.264	9763
461.286	9777
461.345	10852
461.355	10999
461.423	12645
461.425	12669
461.491	14346
461.505	14801
461.559	31309
461.585	39163
461.628	68910
461.665	96717
461.696	105170
461.745	123220
461.764	103771
461.825	31729
461.832	31184
461.901	16794
461.905	16450
461.969	14274
461.985	14003
462.037	13595
462.065	13287
462.105	16473
462.145	20104
462.173	32219
462.225	54788
462.241	61152
462.305	89359
462.310	86351
462.378	39575
462.385	33453
462.446	19649
462.465	15508
462.514	12801
462.545	12674
462.582	12649
462.625	12549
462.650	12660
462.705	12956
462.718	13887
462.785	18748
462.786	18973
462.854	32027
462.865	34206
462.922	42041
462.945	45626
462.990	31302
463.025	18622
463.058	16299
463.104	12500
463.126	12263
463.184	12988
463.194	13090
463.262	13618
463.264	13651
463.330	14378
463.344	14384
463.398	16935
463.424	18284
463.466	19512
463.504	20815
463.533	20566
463.583	19798
463.601	20799
463.663	23988
463.669	24730
463.737	33744
463.743	34526
463.805	57044
463.823	63667
463.873	104535
463.903	129843
463.940	136924
463.982	146572
464.008	114092
464.062	40794
464.076	37684
464.142	17531
464.144	17371
464.211	15527
464.221	15477
464.279	15874
464.301	16027
464.347	18643
464.381	20520
464.414	25279
464.461	31934
464.482	32780
464.540	35180
464.550	33237
464.617	18763
464.620	18222
464.685	19317
464.699	19635
464.753	21659
464.779	22754
464.820	24717
464.859	26420
464.888	28545
464.938	32167
464.956	32700
465.018	34611
465.023	33744
465.091	21771
465.098	20429
465.158	20225
465.177	20294
465.226	21125
465.257	21614
465.293	22805
465.336	24165
465.361	26258
465.416	30871
465.428	34444
465.495	53586
465.496	54026
465.563	109624
465.575	119221
465.631	144419
465.654	155318
465.698	89948
465.734	34165
465.765	28436
465.813	18441
465.833	17621
465.893	17444
465.900	17528
465.968	18068
465.972	18079
466.035	17476
466.052	17280
466.102	17619
466.131	17790
466.170	17928
466.210	17956
466.237	18374
466.290	19177
466.304	19589
466.369	21228
466.372	21334
466.439	23404
466.449	23655
466.506	26543
466.528	27599
466.573	44461
466.607	56981
466.641	96509
466.687	151440
466.708	168407
466.766	214806
466.775	196451
466.842	55450
466.845	48636
466.909	29309
466.925	24812
466.977	22962
467.004	22128
467.044	23732
467.083	25312
467.111	27122
467.163	30357
467.178	30966
467.242	33221
467.245	33207
467.312	31566
467.321	31289
467.379	34858
467.400	36049
467.446	42047
467.480	46246
467.559	38195
467.638	29389
467.717	30227
467.796	33630
467.875	37317
467.955	38787
468.034	65848
468.113	179362
468.192	267563
468.271	55761
468.350	26025
468.429	26683
468.508	25025
468.588	26429
468.667	28612
468.746	29189
468.825	30370
468.904	27605
468.983	38961
469.062	76063
469.141	97963
469.220	33715
469.299	28600
469.378	31118
469.456	29913
469.535	28566
469.614	31168
469.693	34519
469.772	52696
469.851	84452
469.930	51228
470.009	28680
470.088	27637
470.166	30513
470.245	39598
470.324	48309
470.403	40287
470.482	31451
470.560	26415
470.639	28686
470.718	32300
470.797	28948
470.875	34466
470.954	58185
471.033	66965
471.111	25176
471.190	20954
471.269	20723
471.347	22530
471.426	25295
471.505	30962
471.583	29001
471.662	25795
471.740	22611
471.819	23857
471.898	23254
471.976	23564
472.055	24091
472.133	29592
472.212	48698
472.290	53088
472.369	29110
472.447	23809
472.526	23556
472.604	27210
472.683	27178
472.761	24005
472.839	24561
472.918	23593
472.996	27163
473.075	35772
473.153	31948
473.231	25239
473.310	33704
473.388	31830
473.466	28264
473.545	26946
473.623	33288
473.701	33677
473.780	22713
473.858	20680
473.936	23635
474.014	24853
474.093	29833
474.171	54931
474.249	89405
474.327	51114
474.405	21380
474.484	20103
474.562	20882
474.640	22325
474.718	26323
474.796	22873
474.874	18370
474.952	18190
475.030	18431
475.108	18474
475.187	19812
475.265	19640
475.343	24043
475.421	25655
475.499	24854
475.577	28722
475.655	42231
475.733	105464
475.811	200128
475.889	178484
475.966	108037
476.044	25847
476.122	25454
476.200	27534
476.278	25475
476.356	25623
476.434	26449
476.512	29401
476.590	31948
476.667	29775
476.745	25929
476.823	25356
476.901	27577
476.979	29751
477.056	27358
477.134	27075
477.212	26067
477.290	25955
477.367	23355
477.445	23158
477.523	24415
477.601	24295
477.678	24940
477.756	37033
477.834	43589
477.911	25629
477.989	24215
478.066	25561
478.144	32158
478.222	25774
478.299	25496
478.377	25754
478.454	21189
478.532	20902
478.609	23625
478.687	24876
478.764	21201
478.842	23008
478.919	25199
478.997	26237
479.074	24721
479.152	34161
479.229	48835
479.307	28500
479.384	19977
479.461	20740
479.539	27627
479.616	35345
479.694	27283
479.771	31472
479.848	33808
479.926	53131
480.003	55256
480.080	23818
480.157	23162
480.235	23138
480.312	24242
480.389	30463
480.467	59402
480.544	78517
480.621	34138
480.698	28234
480.775	34896
480.853	37426
480.930	27681
481.007	28093
481.084	34145
481.161	35201
481.238	34552
481.315	24862
481.392	24384
481.470	22623
481.547	24806
481.624	24326
481.701	24921
481.778	28210
481.855	32200
481.932	55944
482.009	105581
482.086	65409
482.163	25411
482.240	22589
482.317	26532
482.393	26572
482.470	26142
482.547	27540
482.624	23752
482.701	25805
482.778	24642
482.855	20854
482.932	20958
483.009	19801
483.085	21736
483.162	25761
483.239	24921
483.316	20290
483.393	21143
483.469	22676
483.546	30317
483.623	35035
483.699	25256
483.776	27989
483.853	32200
483.930	49616
484.006	147298
484.083	255295
484.160	79828
484.236	73772
484.313	60061
484.389	49483
484.466	44241
484.543	41126
484.619	43832
484.696	45983
484.772	55893
484.849	65021
484.925	42745
485.002	41968
485.078	44029
485.155	46177
485.231	42238
485.308	42114
485.384	46863
485.461	63032
485.537	140106
485.614	171344
485.690	48818
485.766	40663
485.843	41801
485.919	56210
485.995	58893
486.072	35927
486.148	35506
486.224	35027
486.301	41694
486.377	52422
486.453	47588
486.530	42903
486.606	51973
486.682	62309
486.758	107025
486.835	136556
486.911	94119
486.987	175073
487.063	134323
487.139	129380
487.215	89389
487.292	45327
487.368	39647
487.444	41793
487.520	47848
487.596	39772
487.672	41725
487.748	57090
487.824	72625
487.900	45776
487.976	40892
488.052	47282
488.128	55188
488.204	48587
488.280	45592
488.356	57227
488.432	163989
488.508	268121
488.584	67769
488.660	36796
488.736	36512
488.812	39325
488.888	48299
488.964	60276
489.039	122124
489.115	188584
489.191	111898
489.267	44779
489.343	41351
489.418	32254
489.494	31556
489.570	30471
489.646	34841
489.722	36299
489.797	40647
489.873	76475
489.949	208409
490.024	160791
490.100	36415
490.176	34099
490.251	40103
490.327	51313
490.403	32006
490.478	27918
490.554	25198
490.629	26494
490.705	27852
490.781	30211
490.856	32869
490.932	37537
491.007	33508
491.083	35436
491.158	35736
491.234	54714
491.309	155252
491.385	155559
491.460	39701
491.536	41342
491.611	31403
491.686	34462
491.762	44259
491.837	85228
491.913	148541
491.988	212530
492.063	237552
492.139	106867
492.214	65172
492.289	28152
492.365	26581
492.440	33467
492.515	41768
492.590	39289
492.666	31692
492.741	49663
492.816	92358
492.891	47048
492.967	34625
493.042	38573
493.117	48404
493.192	60534
493.267	128995
493.342	538897
493.418	736148
493.493	96787
493.568	31790
493.643	30231
493.718	41625
493.793	67490
493.868	57981
493.943	32812
494.018	26453
494.093	29373
494.168	29259
494.243	23488
494.318	22644
494.393	22107
494.468	21140
494.543	21128
494.618	25955
494.693	23651
494.768	26529
494.842	26405
494.917	19527
494.992	21529
495.067	20023
495.142	20856
495.217	22232
495.292	23957
495.366	29815
495.441	37470
495.516	48831
495.591	57941
495.665	164308
495.740	388798
495.815	162082
495.890	44141
495.964	34552
496.039	35988
496.114	32367
496.188	34108
496.263	33413
496.338	33101
496.412	41598
496.487	47572
496.561	43265
496.636	43198
496.710	36465
496.785	41265
496.860	52478
496.934	35592
497.009	32928
497.083	32464
497.158	34057
497.232	44268
497.307	57661
497.381	39695
497.455	55154
497.530	82751
497.604	44549
497.679	46532
497.753	83221
497.827	103496
497.902	72936
497.976	84270
498.050	200237
498.125	826735
498.199	786137
498.273	102986
498.348	58852
498.422	49110
498.496	50835
498.570	47791
498.645	41556
498.719	45736
498.793	64046
498.867	114182
498.941	147142
499.016	348458
499.090	957205
499.164	307274
499.238	46669
499.312	39066
499.386	46855
499.460	46171
499.534	45209
499.609	60387
499.683	103456
499.757	89215
499.831	164692
499.905	676423
499.979	604134
500.053	127053
500.127	115720
500.201	63149
500.275	47215
500.349	45909
500.422	54340
500.496	72202
500.570	133905
500.644	376988
500.718	741570
500.792	151506
500.866	51660
500.940	75217
501.013	58398
501.087	55490
501.161	86152
501.235	119518
501.309	282968
501.382	749078
501.456	583404
501.530	148457
501.603	290374
501.677	95431
501.751	44316
501.825	51567
501.898	105611
501.972	341599
502.046	193440
502.119	57791
502.193	135375
502.266	372248
502.340	159875
502.413	162031
502.487	330649
502.561	195225
502.634	53587
502.708	34620
502.781	31108
502.855	26868
502.928	25357
503.002	27418
503.075	28041
503.149	33341
503.222	35003
503.295	40705
503.369	53834
503.442	72713
503.516	242773
503.589	659049
503.662	404808
503.736	122788
503.809	304285
503.882	220278
503.956	315417
504.029	250324
504.102	65890
504.175	53030
504.249	30739
504.322	42523
504.395	40664
504.468	27777
504.542	31948
504.615	21324
504.688	21202
504.761	21750
504.834	28892
504.907	30088
504.980	44540
505.053	28130
505.127	31525
505.200	41451
505.273	57620
505.346	31945
505.419	24963
505.492	21984
505.565	17962
505.638	17677
505.711	19477
505.784	19425
505.857	19686
505.930	22533
506.003	21607
506.076	26398
506.149	40624
506.221	53842
506.294	42024
506.367	113892
506.440	413965
506.513	184472
506.586	56157
506.659	28930
506.731	23042
506.804	28335
506.877	39857
506.950	30964
507.022	21349
507.095	35718
507.168	42326
507.241	21632
507.313	17330
507.386	20667
507.459	25082
507.531	18202
507.604	16067
507.677	18914
507.749	15036
507.822	21359
507.894	35251
507.967	39590
508.040	22882
508.112	22240
508.185	21600
508.257	20717
508.330	31121
508.402	23462
508.475	25630
508.547	27432
508.620	27843
508.692	56625
508.765	28041
508.837	18511
508.909	18493
508.982	18305
509.054	21759
509.127	18272
509.199	18117
509.271	16918
509.344	17103
509.416	17808
509.488	18664
509.560	19456
509.633	19624
509.705	22225
509.777	23125
509.849	30693
509.922	23956
509.994	20442
510.066	21546
510.138	20639
510.210	33096
510.283	28483
510.355	26316
510.427	22430
510.499	20531
510.571	19994
510.643	21407
510.715	33701
510.787	29133
510.859	24243
510.931	31384
511.003	35047
511.076	31799
511.148	21847
511.219	25961
511.291	52475
511.363	63392
511.435	22807
511.507	19908
511.579	20335
511.651	20498
511.723	20979
511.795	20047
511.867	21855
511.939	31214
512.010	87028
512.082	57815
512.154	21930
512.226	20756
512.298	27376
512.369	36670
512.441	29066
512.513	28712
512.585	21914
512.656	25663
512.728	29527
512.800	19959
512.871	21226
512.943	20206
513.015	17202
513.086	19896
513.158	22981
513.230	23674
513.301	32861
513.373	32681
513.444	21363
513.516	18516
513.588	20153
513.659	21287
513.731	25210
513.802	22939
513.874	44081
513.945	77125
514.016	28202
514.088	20205
514.159	20972
514.231	28536
514.302	34529
514.374	26998
514.445	31653
514.516	88520
514.588	57103
514.659	34143
514.730	79289
514.802	41561
514.873	21139
514.944	22381
515.016	22281
515.087	27040
515.158	48426
515.229	70941
515.301	20144
515.372	19301
515.443	17416
515.514	18108
515.585	15731
515.656	17861
515.728	18013
515.799	18273
515.870	19350
515.941	21661
516.012	22207
516.083	26050
516.154	27195
516.225	35333
516.296	35739
516.367	34567
516.438	40496
516.509	50171
516.580	68020
516.651	186490
516.722	680357
516.793	279279
516.864	78344
516.935	75558
517.006	86971
517.077	110997
517.148	211992
517.219	700654
517.289	1100175
517.360	498555
517.431	149699
517.502	47875
517.573	42242
517.643	39541
517.714	40794
517.785	42629
517.856	44937
517.926	53139
517.997	61053
518.068	77451
518.138	99811
518.209	135785
518.280	433152
518.350	1511377
518.421	581714
518.492	99156
518.562	56836
518.633	54618
518.703	38738
518.774	42538
518.845	53164
518.915	50888
518.986	46461
519.056	51475
519.127	79355
519.197	130655
519.268	398283
519.338	234366
519.408	60674
519.479	53296
519.549	37912
519.620	29649
519.690	24574
519.760	25799
519.831	26417
519.901	26446
519.971	23119
520.042	27785
520.112	37366
520.182	33725
520.253	33500
520.323	26887
520.393	31586
520.463	39177
520.534	33739
520.604	63738
520.674	38561
520.744	42981
520.814	67490
520.885	64120
520.955	117261
521.025	474668
521.095	153310
521.165	35006
521.235	32424
521.305	26500
521.375	22432
521.445	24319
521.515	29118
521.585	34597
521.655	30626
521.725	28111
521.795	27785
521.865	22590
521.935	47327
522.005	41748
522.075	23864
522.145	28089
522.215	34788
522.285	53001
522.355	74052
522.424	156448
522.494	127104
522.564	45961
522.634	63670
522.704	174250
522.774	61408
522.843	26051
522.913	24406
522.983	28320
523.053	23732
523.122	25478
523.192	29853
523.262	92308
523.331	87412
523.401	24309
523.471	17970
523.540	20664
523.610	16300
523.680	17365
523.749	19572
523.819	29828
523.888	29881
523.958	17739
524.027	21851
524.097	22908
524.166	19798
524.236	21335
524.305	23287
524.375	18896
524.444	17628
524.514	22313
524.583	24225
524.653	33197
524.722	37487
524.791	22313
524.861	21486
524.930	17059
524.999	20708
525.069	29747
525.138	27505
525.207	39416
525.277	21924
525.346	20823
525.415	19258
525.484	18850
525.554	28971
525.623	26460
525.692	18377
525.761	20689
525.830	17431
525.900	18495
525.969	28101
526.038	27571
526.107	24357
526.176	45406
526.245	40050
526.314	41809
526.383	47133
526.452	40457
526.522	67247
526.591	109524
526.660	88296
526.729	44117
526.797	42167
526.867	83641
526.935	373372
527.004	277083
527.073	105712
527.142	27621
527.211	20729
527.280	23161
527.349	23343
527.418	14311
527.487	18162
527.555	14507
527.624	14530
527.693	14808
527.762	16889
527.831	15275
527.899	16671
527.968	17052
528.037	16134
528.106	20358
528.174	35583
528.243	36423
528.312	53065
528.380	59750
528.449	22713
528.518	17251
528.586	11955
528.655	16064
528.723	15064
528.792	14362
528.861	18334
528.929	16033
528.998	15169
529.066	12995
529.135	13609
529.203	12711
529.272	13116
529.340	15152
529.409	16311
529.477	16440
529.545	25405
529.614	27070
529.682	30405
529.751	37756
529.819	33669
529.887	22670
529.956	14486
530.024	17109
530.092	13121
530.161	16084
530.229	24537
530.297	16844
530.365	14342
530.434	12598
530.502	13055
530.570	13188
530.638	11534
530.707	14501
530.775	16977
530.843	13320
530.911	14402
530.979	13611
531.047	12943
531.115	15082
531.183	13297
531.252	14672
531.320	15723
531.388	13894
531.456	14572
531.524	11961
531.592	13447
531.660	16887
531.728	13800
531.796	13450
531.864	13892
531.932	14732
532.000	14547
532.067	15713
532.135	16984
532.203	18771
532.271	19685
532.339	31965
532.407	76163
532.475	45123
532.542	26753
532.610	27203
532.678	32054
532.746	119638
532.814	286267
532.881	65264
532.949	21714
533.017	17515
533.084	15319
533.152	15142
533.220	15393
533.287	16220
533.355	14057
533.423	14081
533.490	12813
533.558	15020
533.625	15934
533.693	17891
533.761	17518
533.828	18678
533.896	17806
533.963	32391
534.031	37410
534.098	48937
534.166	26063
534.233	18516
534.300	19128
534.368	19119
534.435	17786
534.503	16419
534.570	16529
534.637	14891
534.705	15190
534.772	15698
534.840	15947
534.907	25845
534.974	27473
535.041	18196
535.109	27359
535.176	15557
535.243	14308
535.310	14837
535.378	11831
535.445	14436
535.512	12946
535.579	14800
535.646	13086
535.714	14629
535.781	16591
535.848	16815
535.915	20700
535.982	20690
536.049	21330
536.116	21284
536.183	17873
536.250	18336
536.317	18650
536.384	20972
536.451	26379
536.518	27126
536.585	21088
536.652	28223
536.719	32490
536.786	26805
536.853	22950
536.920	35817
536.987	48501
537.053	41692
537.120	152110
537.187	114442
537.254	19331
537.321	16106
537.388	16629
537.454	13606
537.521	14067
537.588	13783
537.654	16575
537.721	16617
537.788	16834
537.855	13768
537.921	14119
537.988	14765
538.055	16292
538.121	16407
538.188	18180
538.254	25852
538.321	41865
538.388	26706
538.454	16496
538.521	14867
538.587	13399
538.654	14528
538.720	13725
538.787	15817
538.853	16617
538.920	23688
538.986	26125
539.053	19661
539.119	19205
539.185	17155
539.252	19737
539.318	28076
539.385	21360
539.451	19416
539.517	19612
539.583	23373
539.650	50143
539.716	119565
539.782	29384
539.849	17183
539.915	17114
539.981	16851
540.047	19707
540.114	18853
540.180	20168
540.246	18073
540.312	25321
540.378	46070
540.444	41288
540.510	46937
540.576	126183
540.643	37039
540.709	16528
540.775	16844
540.841	16665
540.907	27000
540.973	40486
541.039	25630
541.105	26407
541.171	17720
541.237	16723
541.303	18545
541.369	19829
541.435	22986
541.500	34432
541.566	23394
541.632	15479
541.698	13959
541.764	15034
541.830	13589
541.896	14911
541.961	16599
542.027	15253
542.093	16016
542.159	17609
542.224	20174
542.290	26734
542.356	39313
542.421	42396
542.487	28094
542.553	21759
542.618	24611
542.684	18711
542.750	18685
542.815	23129
542.881	37814
542.947	114867
543.012	70532
543.078	16975
543.143	16214
543.209	17722
543.274	17815
543.340	20148
543.405	44008
543.471	62992
543.536	18520
543.602	16962
543.667	17134
543.732	15240
543.798	14609
543.863	16942
543.928	13321
543.994	13684
544.059	14164
544.124	13413
544.190	14129
544.255	15170
544.320	15658
544.386	17228
544.451	22306
544.516	24187
544.581	25124
544.646	72126
544.712	99181
544.777	24962
544.842	23839
544.907	27433
544.972	21745
545.037	20728
545.102	22929
545.168	22116
545.233	24412
545.298	25872
545.363	29642
545.428	29361
545.493	45057
545.558	89256
545.623	38068
545.688	23684
545.753	21710
545.818	20783
545.883	21955
545.947	21415
546.012	26199
546.077	26824
546.142	22013
546.207	21304
546.272	26372
546.337	25494
546.401	22040
546.466	20675
546.531	20133
546.596	22225
546.661	22133
546.725	20643
546.790	18789
546.855	19045
546.919	19510
546.984	20436
547.049	22642
547.113	29043
547.178	22845
547.243	25435
547.307	27530
547.372	31359
547.436	39217
547.501	21835
547.565	23905
547.630	27179
547.695	29269
547.759	40835
547.823	32007
547.888	21639
547.952	20334
548.017	23197
548.081	27859
548.146	46280
548.210	35371
548.274	20232
548.339	19640
548.403	19073
548.468	18216
548.532	19553
548.596	19230
548.660	20341
548.725	22946
548.789	28140
548.853	32715
548.917	24725
548.982	44657
549.046	43156
549.110	21831
549.174	20760
549.238	18869
549.303	16962
549.367	20288
549.431	19122
549.495	19077
549.559	18974
549.623	20319
549.687	23253
549.751	33259
549.815	24494
549.879	23491
549.943	20335
550.007	23288
550.071	23541
550.135	29766
550.199	25428
550.263	22415
550.327	29139
550.391	46452
550.455	25283
550.519	22905
550.582	23357
550.646	32222
550.710	31287
550.774	23967
550.838	22839
550.901	25352
550.965	26740
551.029	29530
551.093	32876
551.156	48146
551.220	110753
551.284	102977
551.347	49656
551.411	148135
551.475	144562
551.538	29396
551.602	23794
551.666	22343
551.729	20505
551.793	24673
551.856	27152
551.920	31291
551.983	28017
552.047	23248
552.110	20672
552.174	20927
552.237	20761
552.301	19696
552.364	21141
552.428	20538
552.491	21204
552.554	22659
552.618	22377
552.681	24828
552.745	26914
552.808	41559
552.871	55827
552.934	37237
552.998	30243
553.061	32978
553.124	31673
553.187	33694
553.251	39775
553.314	45477
553.377	50796
553.440	87601
553.503	327369
553.567	490951
553.630	76563
553.693	34531
553.756	27300
553.819	22814
553.882	22434
553.945	20873
554.008	19185
554.071	19535
554.134	19185
554.197	18351
554.260	17673
554.323	21672
554.386	20432
554.449	19410
554.512	18680
554.575	18286
554.638	20453
554.701	17985
554.764	17962
554.827	18425
554.889	16712
554.952	15980
555.015	15620
555.078	16975
555.141	16781
555.203	16476
555.266	16611
555.329	18366
555.391	16445
555.454	18244
555.517	17584
555.580	16897
555.642	16380
555.705	16500
555.768	17689
555.830	17304
555.893	15768
555.955	17271
556.018	18197
556.080	17414
556.143	17328
556.206	18657
556.268	20105
556.330	19487
556.393	19115
556.455	21580
556.518	39167
556.580	35199
556.643	17724
556.705	16746
556.767	15801
556.830	18162
556.892	19824
556.955	28981
557.017	22138
557.079	18657
557.142	16498
557.204	20665
557.266	37386
557.328	31327
557.391	17905
557.453	16943
557.515	16557
557.577	21353
557.639	21065
557.701	15920
557.764	15746
557.826	16862
557.888	18426
557.950	17837
558.012	15992
558.074	16658
558.136	21982
558.198	31677
558.260	22264
558.322	19407
558.384	18650
558.446	20162
558.508	22927
558.570	26558
558.632	41505
558.694	57582
558.756	33856
558.818	58040
558.880	120192
558.942	41143
559.003	33950
559.065	22118
559.127	18455
559.189	18610
559.251	18956
559.312	20150
559.374	31266
559.436	73745
559.498	39251
559.559	20086
559.621	17994
559.683	21654
559.744	33259
559.806	59843
559.868	61554
559.929	26971
559.991	25901
560.052	26916
560.114	36838
560.176	28490
560.237	29064
560.299	38018
560.360	22988
560.422	22847
560.483	21370
560.545	21509
560.606	20964
560.667	21354
560.729	20332
560.790	20192
560.852	20719
560.913	20263
560.974	20659
561.036	20162
561.097	21191
561.158	21102
561.220	21482
561.281	21713
561.342	22360
561.403	24889
561.465	30321
561.526	58272
561.587	70294
561.648	27291
561.709	22104
561.771	21752
561.832	21634
561.893	21538
561.954	19505
562.015	20009
562.076	20837
562.137	21673
562.198	19759
562.259	20214
562.320	20785
562.381	22904
562.442	30012
562.503	24616
562.564	20892
562.625	19867
562.686	20874
562.747	22120
562.808	20172
562.869	22845
562.930	29235
562.991	27165
563.051	24994
563.112	23095
563.173	22085
563.234	21295
563.294	20699
563.355	20858
563.416	22109
563.477	20725
563.537	22460
563.598	24600
563.659	23478
563.720	22520
563.780	22866
563.841	23818
563.901	22924
563.962	22616
564.023	22270
564.083	24009
564.144	23749
564.204	23980
564.265	24563
564.325	32156
564.386	68369
564.446	55231
564.507	23340
564.567	22234
564.628	20938
564.688	21390
564.749	22264
564.809	28073
564.869	33188
564.930	23642
564.990	19731
565.050	20275
565.111	21440
565.171	20515
565.231	20610
565.292	20209
565.352	18930
565.412	20874
565.472	21199
565.532	22255
565.593	20156
565.653	19222
565.713	19393
565.773	21749
565.833	24602
565.893	28114
565.953	22871
566.013	21193
566.074	24672
566.134	34128
566.194	56760
566.254	55175
566.314	33164
566.374	22788
566.434	21864
566.494	20971
566.554	20661
566.614	21064
566.673	20205
566.733	22381
566.793	21606
566.853	22334
566.913	21348
566.973	22114
567.033	22514
567.092	21506
567.152	21600
567.212	23044
567.272	23354
567.331	25462
567.391	22642
567.451	25308
567.511	38989
567.570	40236
567.630	23126
567.690	20631
567.749	19503
567.809	19900
567.868	21479
567.928	22667
567.988	25160
568.047	22949
568.107	19784
568.166	20524
568.226	19379
568.285	22157
568.345	21728
568.404	22089
568.464	19928
568.523	20129
568.582	20388
568.642	21335
568.701	21848
568.761	23165
568.820	24189
568.879	27745
568.939	37614
568.998	27725
569.057	20931
569.116	20045
569.176	18514
569.235	19495
569.294	18868
569.353	18629
569.413	20045
569.472	20881
569.531	18794
569.590	18162
569.649	18062
569.708	18005
569.767	19805
569.827	22124
569.886	18875
569.945	17698
570.004	19041
570.063	20380
570.122	19584
570.181	21916
570.240	26835
570.299	26343
570.358	22556
570.417	19442
570.475	18871
570.534	20387
570.593	19221
570.652	19220
570.711	20692
570.770	20380
570.829	23107
570.887	20182
570.946	22521
571.005	19738
571.064	19535
571.122	22587
571.181	26456
571.240	22042
571.299	19631
571.357	22462
571.416	23732
571.475	27422
571.533	27879
571.592	21038
571.650	23908
571.709	18508
571.768	17742
571.826	17144
571.885	16765
571.943	18542
572.002	18983
572.060	20338
572.119	17703
572.177	16817
572.236	15691
572.294	15976
572.352	15689
572.411	16157
572.469	15436
572.528	14792
572.586	15814
572.644	17493
572.703	19492
572.761	18040
572.819	17305
572.877	16755
572.936	16114
572.994	15964
573.052	16792
573.110	16435
573.169	15529
573.227	15339
573.285	15791
573.343	16376
573.401	16135
573.459	16385
573.517	15439
573.576	15956
573.634	16398
573.692	17179
573.750	15208
573.808	16294
573.866	19489
573.924	27880
573.982	26370
574.040	18545
574.098	16624
574.155	15802
574.213	15250
574.271	14034
574.329	14397
574.387	14454
574.445	14705
574.503	14664
574.560	12886
574.618	13422
574.676	13124
574.734	13771
574.792	13837
574.849	13422
574.907	13331
574.965	13907
575.022	12242
575.080	13795
575.138	14334
575.195	14833
575.253	15110
575.311	16279
575.368	14498
575.426	14309
575.483	14317
575.541	14483
575.598	14973
575.656	16667
575.713	15741
575.771	13360
575.828	14442
575.886	14550
575.943	16560
576.001	17296
576.058	17483
576.115	18671
576.173	21388
576.230	24311
576.287	23806
576.345	20949
576.402	18049
576.459	18490
576.517	19091
576.574	20946
576.631	21107
576.688	19084
576.746	17452
576.803	17138
576.860	16434
576.917	17489
576.974	17124
577.031	17056
577.089	17485
577.146	18582
577.203	17912
577.260	20109
577.317	21337
577.374	24752
577.431	22600
577.488	20205
577.545	19537
577.602	20404
577.659	22070
577.716	27991
577.773	35216
577.830	28304
577.886	21209
577.943	19584
578.000	18398
578.057	21434
578.114	20760
578.171	21628
578.227	26082
578.284	26999
578.341	24684
578.398	23275
578.454	23230
578.511	25995
578.568	25653
578.625	21587
578.681	19391
578.738	17339
578.794	17135
578.851	17343
578.908	16295
578.964	17529
579.021	17780
579.077	15865
579.134	15344
579.190	15557
579.247	15392
579.303	16114
579.360	14154
579.416	14291
579.473	16122
579.529	14766
579.586	15706
579.642	16244
579.698	16915
579.755	17866
579.811	17408
579.867	18544
579.924	18098
579.980	20269
580.036	24654
580.093	26201
580.149	33962
580.205	38917
580.261	32271
580.317	28515
580.374	27353
580.430	26976
580.486	25865
580.542	23613
580.598	21289
580.619	20472
580.654	19076
580.692	18155
580.710	17737
580.765	18323
580.767	18366
580.823	17193
580.838	17226
580.879	17381
580.911	17222
580.935	17152
580.984	16180
580.991	16072
581.047	18023
581.057	18177
581.103	18949
581.130	19015
581.159	19120
581.203	21129
581.215	21704
581.270	21343
581.276	21166
581.326	19632
581.349	19335
581.382	18902
581.422	18369
581.438	18203
581.494	19100
581.494	19060
581.550	16525
581.567	16998
581.606	18011
581.640	17558
581.661	17323
581.713	16741
581.717	16719
581.773	16397
581.786	16494
581.829	16729
581.859	16872
581.885	17038
581.932	17029
581.940	17048
581.996	17297
582.004	17147
582.052	16327
582.077	16322
582.107	16388
582.150	16654
582.163	16706
582.219	17137
582.223	17142
582.274	17510
582.296	17641
582.330	17790
582.368	18531
582.386	18937
582.441	17949
582.441	17955
582.497	18024
582.514	18949
582.552	21359
582.587	26097
582.608	28688
582.659	21931
582.663	21419
582.719	16790
582.732	16694
582.774	16650
582.805	16637
582.830	16649
582.877	16267
582.885	16169
582.941	16666
582.950	16626
582.996	16442
583.023	16810
583.052	17524
583.095	18833
583.107	19163
583.162	22815
583.168	22944
583.218	23808
583.240	22968
583.273	21640
583.313	19820
583.328	19190
583.384	18170
583.385	18154
583.439	17354
583.458	16994
583.494	16529
583.531	16010
583.549	15810
583.603	15677
583.605	15660
583.660	15373
583.676	15527
583.715	16060
583.748	15930
583.770	15871
583.820	16233
583.825	16237
583.881	15545
583.893	15353
583.936	14764
583.965	14398
583.991	14118
584.038	14050
584.046	14068
584.101	14924
584.110	14893
584.156	14449
584.183	14477
584.211	14493
584.255	14375
584.266	14341
584.321	13719
584.328	13737
584.376	14089
584.400	14115
584.431	13979
584.472	13829
584.486	13785
584.541	13882
584.545	13862
584.596	13454
584.617	13610
584.651	14244
584.689	14986
584.706	15019
584.761	15096
584.762	15095
584.816	14558
584.834	14803
584.871	15321
584.906	14971
584.926	14825
584.978	15214
584.980	15217
585.035	16214
585.051	16390
585.090	17190
585.123	17957
585.145	18289
585.195	18457
585.200	18618
585.254	23106
585.267	25071
585.309	33214
585.340	40637
585.364	43061
585.412	28701
585.419	26591
585.473	18630
585.484	17829
585.528	17648
585.556	18198
585.583	18906
585.628	20870
585.637	21565
585.692	28298
585.700	29808
585.747	36162
585.772	32742
585.801	26675
585.845	19037
585.856	17670
585.910	16372
585.917	16234
585.965	16016
585.989	16246
586.019	16298
586.061	16001
586.074	16032
586.128	16362
586.133	16547
586.183	18476
586.205	18596
586.237	18543
586.277	19162
586.292	19296
586.346	18619
586.349	18644
586.401	18710
586.421	19086
586.455	20884
586.493	23882
586.509	26351
586.564	38436
586.565	39054
586.618	68714
586.637	67783
586.672	50695
586.709	29446
586.727	22381
586.781	17666
586.781	17643
586.835	16787
586.853	16533
586.889	16322
586.925	16268
586.944	15988
586.996	15794
586.998	15802
587.052	16867
587.068	17003
587.106	16838
587.140	16814
587.161	16916
587.212	17622
587.215	17636
587.269	18088
587.284	18118
587.323	17622
587.356	17342
587.377	17261
587.427	17647
587.431	17691
587.485	17951
587.499	18078
587.539	18036
587.571	18076
587.593	18182
587.643	18424
587.648	18462
587.702	19093
587.715	19425
587.755	20357
587.786	20951
587.810	20854
587.858	19480
587.864	19408
587.917	20988
587.930	21140
587.971	22434
588.001	23979
588.025	24220
588.073	22325
588.079	22183
588.133	23534
588.145	23622
588.187	23854
588.217	24733
588.241	25894
588.288	28437
588.295	28824
588.348	32699
588.360	33664
588.402	37447
588.431	39902
588.456	41612
588.503	46855
588.510	47684
588.564	54955
588.575	56897
588.617	64280
588.646	69047
588.671	74259
588.718	87631
588.725	91034
588.778	124502
588.789	134299
588.832	223231
588.861	298147
588.886	433289
588.932	736291
588.939	762572
588.993	924266
589.004	914441
589.047	512475
589.075	266805
589.100	186566
589.147	98328
589.154	94003
589.207	75587
589.218	72854
589.261	71760
589.290	72523
589.314	75709
589.361	86170
589.368	90850
589.421	137707
589.433	150904
589.475	287263
589.504	401029
589.528	530889
589.576	799715
589.582	776475
589.635	401095
589.647	322707
589.689	155245
589.718	69758
589.742	58604
589.790	43846
589.795	43627
589.849	45518
589.861	47111
589.902	52240
589.932	51883
589.955	44338
590.004	27550
590.009	26809
590.062	23553
590.075	22753
590.115	21379
590.146	20571
590.168	20536
590.218	20687
590.222	20708
590.275	21573
590.289	21816
590.328	21579
590.360	21008
590.381	20537
590.431	19881
590.435	19851
590.488	20040
590.503	20129
590.541	20136
590.574	20222
590.594	19959
590.645	19054
590.647	19033
590.700	19472
590.716	19644
590.753	19231
590.787	18749
590.806	18336
590.859	17402
590.859	17370
590.912	17119
590.930	17101
590.965	17329
591.001	17753
591.018	17565
591.071	16828
591.072	16852
591.124	17680
591.143	18103
591.177	17976
591.214	17882
591.230	18104
591.283	18858
591.285	18922
591.336	19636
591.356	19888
591.389	19538
591.427	19094
591.442	18936
591.495	18560
591.498	18560
591.547	17722
591.569	17439
591.600	17377
591.640	17197
591.653	17436
591.706	18752
591.711	18923
591.759	20285
591.782	21144
591.811	22782
591.853	25135
591.864	24175
591.917	18893
591.924	18218
591.969	18508
591.995	18796
592.022	18809
592.066	18870
592.075	19512
592.127	23795
592.137	24679
592.180	28464
592.208	30679
592.233	26929
592.279	19793
592.285	19535
592.338	17931
592.350	17609
592.390	17385
592.421	17280
592.443	17210
592.491	17172
592.495	17147
592.548	17311
592.562	17399
592.600	17224
592.633	17135
592.653	17080
592.704	16944
592.705	17022
592.775	16130
592.846	16836
592.916	17644
592.987	19455
593.058	18410
593.128	16245
593.199	16467
593.270	15055
593.341	15104
593.411	16840
593.482	16638
593.553	16287
593.623	15055
593.694	17393
593.764	19379
593.835	16815
593.906	15555
593.976	16229
594.047	18081
594.117	22805
594.188	23477
594.258	15548
594.329	15650
594.399	15457
594.470	15016
594.540	14619
594.611	14975
594.681	14375
594.751	15279
594.822	15929
594.892	17318
594.963	16687
595.033	16802
595.103	16875
595.174	21786
595.244	36161
595.314	46681
595.384	18882
595.455	17685
595.525	17588
595.595	16449
595.665	17518
595.736	16971
595.806	17005
595.876	15488
595.946	16734
596.016	15021
596.087	16589
596.157	17077
596.227	16247
596.297	17095
596.367	17564
596.437	21502
596.507	34564
596.577	43346
596.647	20327
596.717	17036
596.787	16623
596.857	16093
596.927	16734
596.997	16659
597.067	20007
597.137	27228
597.207	21071
597.277	16420
597.347	16586
597.417	16767
597.487	16253
597.557	16611
597.626	18311
597.696	21064
597.766	27664
597.836	41255
597.906	22427
597.975	16244
598.045	16521
598.115	16131
598.185	15997
598.254	17307
598.324	17975
598.394	17785
598.464	17468
598.533	16371
598.603	15904
598.672	16333
598.742	16830
598.812	16202
598.881	14794
598.951	14611
599.020	14111
599.090	14788
599.159	15258
599.229	14146
599.299	13935
599.368	14249
599.437	15457
599.507	16433
599.576	19264
599.646	24635
599.715	24957
599.785	17069
599.854	19574
599.924	22211
599.993	18499
600.062	15923
600.132	15981
600.201	15660
600.270	17905
600.340	15743
600.409	14927
600.478	15498
600.547	14325
600.617	16301
600.686	15741
600.755	15680
600.824	16623
600.894	15746
600.963	15703
601.032	14157
601.101	14679
601.170	14507
601.239	14084
601.308	15494
601.378	15393
601.447	14395
601.516	13326
601.585	15164
601.654	14358
601.723	16266
601.792	17546
601.861	21091
601.930	29531
601.999	19040
602.068	14248
602.137	14943
602.206	14201
602.275	15748
602.343	18086
602.412	17730
602.481	13937
602.550	13451
602.619	13495
602.688	14659
602.756	14429
602.825	13786
602.894	13680
602.963	14054
603.032	14610
603.100	13122
603.169	13515
603.238	13255
603.307	13076
603.375	13202
603.444	14967
603.513	12757
603.581	13855
603.650	14101
603.719	12655
603.787	12693
603.856	13729
603.924	12898
603.993	14371
604.061	12560
604.130	13985
604.198	13923
604.267	13356
604.335	12516
604.404	12343
604.472	12884
604.541	13780
604.609	13319
604.678	12853
604.746	12760
604.815	13396
604.883	13324
604.951	13226
605.020	12264
605.088	13595
605.156	12941
605.225	13516
605.293	13453
605.361	13242
605.429	12636
605.498	13482
605.566	13598
605.634	14087
605.702	14181
605.771	13578
605.839	14060
605.907	13970
605.975	13841
606.043	14342
606.111	15019
606.180	17817
606.248	30503
606.316	34659
606.384	17734
606.452	22490
606.520	20111
606.588	14543
606.656	12020
606.724	12452
606.792	11903
606.860	12069
606.928	11413
606.996	11495
607.064	10345
607.132	11349
607.200	12376
607.267	12200
607.335	11152
607.403	12413
607.471	10908
607.539	11232
607.607	11326
607.674	11374
607.742	12934
607.810	13220
607.878	12342
607.946	11085
608.013	11023
608.081	12673
608.149	11825
608.216	10937
608.284	12601
608.352	11993
608.419	14048
608.487	25984
608.555	14857
608.622	10754
608.690	10928
608.757	11217
608.825	11862
608.893	11933
608.960	14631
609.028	19692
609.095	27890
609.163	13974
609.230	13427
609.298	13424
609.365	10005
609.432	10577
609.500	11252
609.567	12385
609.635	12733
609.702	12932
609.769	13761
609.837	17574
609.904	13386
609.971	10145
610.039	13945
610.106	15524
610.173	23671
610.241	46810
610.308	42143
610.375	25867
610.442	12943
610.509	11424
610.577	12948
610.644	11811
610.711	11346
610.778	12400
610.845	11336
610.912	15494
610.980	25509
611.047	50918
611.114	26593
611.181	12608
611.248	10681
611.315	12749
611.382	10029
611.449	10630
611.516	13348
611.583	11496
611.650	11147
611.717	11757
611.784	11684
611.851	11842
611.918	12936
611.984	14369
612.051	22258
612.118	37944
612.185	80095
612.252	45604
612.319	14276
612.386	12636
612.452	12812
612.519	16672
612.586	28332
612.653	16629
612.719	11594
612.786	10678
612.853	10626
612.919	10295
612.986	10282
613.053	10519
613.120	9638
613.186	9467
613.253	12065
613.319	9719
613.386	10788
613.453	10851
613.519	13741
613.586	18804
613.652	26153
613.719	20518
613.785	18013
613.852	15375
613.918	16299
613.985	30792
614.051	76697
614.118	221509
614.184	185185
614.250	26432
614.317	13938
614.383	12037
614.449	11033
614.516	11661
614.582	12712
614.648	11649
614.715	10391
614.781	10891
614.847	11832
614.914	11646
614.980	11505
615.046	11636
615.112	10669
615.179	10271
615.245	10432
615.311	10614
615.377	12160
615.443	11867
615.509	11457
615.575	12238
615.642	11702
615.708	13177
615.774	13530
615.840	14566
615.906	17322
615.972	18119
616.038	26962
616.104	50130
616.170	113569
616.236	84275
616.302	25942
616.368	17991
616.434	15651
616.500	16408
616.565	17524
616.631	17152
616.697	14963
616.763	16177
616.829	19698
616.895	28017
616.961	25146
617.026	17400
617.092	14130
617.158	15220
617.224	13117
617.289	14802
617.355	14308
617.421	14299
617.487	16555
617.552	14148
617.618	12525
617.684	12225
617.749	15607
617.815	13562
617.880	12653
617.946	13536
618.012	13090
618.077	13615
618.143	13600
618.208	13711
618.274	14815
618.339	14376
618.405	13370
618.470	14856
618.536	14986
618.601	18728
618.667	16764
618.732	15082
618.798	14795
618.863	15698
618.928	14346
618.994	16594
619.059	19343
619.124	24834
619.190	17716
619.255	14831
619.320	16155
619.386	15625
619.451	13677
619.516	15026
619.581	15533
619.647	14321
619.712	14281
619.777	14902
619.842	15696
619.907	15879
619.972	15639
620.038	15752
620.103	14761
620.168	13152
620.233	14738
620.298	13394
620.363	14733
620.428	14895
620.493	14150
620.558	13680
620.623	13201
620.688	14616
620.753	13096
620.818	13927
620.883	14109
620.948	13461
621.013	14353
621.078	14910
621.143	14570
621.207	17639
621.272	16690
621.337	17722
621.402	21140
621.467	29994
621.532	29463
621.596	20857
621.661	18893
621.726	17471
621.791	17776
621.855	18471
621.920	21377
621.985	23253
622.049	27497
622.114	24486
622.179	20383
622.243	22030
622.308	19674
622.373	22661
622.437	19509
622.502	18685
622.566	19020
622.631	18452
622.695	20591
622.760	19202
622.824	19288
622.889	19688
622.953	21392
623.018	30943
623.082	28200
623.147	19864
623.211	19042
623.276	18924
623.340	17411
623.404	17601
623.469	17441
623.533	17073
623.597	16267
623.662	16965
623.726	17039
623.790	16626
623.854	16558
623.919	18419
623.983	17752
624.047	17143
624.111	16817
624.176	17016
624.240	17417
624.304	19417
624.368	17135
624.432	17303
624.496	17679
624.560	19372
624.625	20512
624.689	17054
624.753	16012
624.817	17025
624.881	15124
624.945	16126
625.009	16305
625.073	16836
625.137	16617
625.201	21419
625.265	21110
625.329	16204
625.393	17987
625.456	17209
625.520	17957
625.584	22222
625.648	29455
625.712	54374
625.776	136378
625.839	146602
625.903	46465
625.967	26991
626.031	51054
626.095	78759
626.158	23515
626.222	14259
626.286	14935
626.349	14518
626.413	14237
626.477	16746
626.540	14186
626.604	14270
626.668	15219
626.731	13467
626.795	15683
626.858	15747
626.922	13898
626.986	15465
627.049	12839
627.113	13885
627.176	13071
627.240	13719
627.303	13810
627.366	12907
627.430	14333
627.493	13906
627.557	13805
627.620	15039
627.684	14073
627.747	13953
627.810	11453
627.874	13175
627.937	11567
628.000	15745
628.064	14692
628.127	10279
628.190	13786
628.253	13374
628.317	12056
628.380	12844
628.443	12491
628.506	11881
628.569	12657
628.632	11512
628.696	11892
628.759	11366
628.822	11001
628.885	11416
628.948	11861
629.011	12160
629.074	12436
629.137	11418
629.200	11581
629.263	13220
629.326	9383
629.389	11224
629.452	11740
629.515	12184
629.578	11274
629.641	13112
629.704	12736
629.767	12094
629.830	11592
629.892	11287
629.955	9876
630.018	12365
630.081	12058
630.144	15697
630.207	11514
630.269	13976
630.332	15954
630.395	12943
630.458	11013
630.520	10133
630.583	11576
630.646	10134
630.708	9372
630.771	10457
630.834	10497
630.896	9583
630.959	9997
631.021	10028
631.084	10875
631.146	13792
631.209	15633
631.272	9709
631.334	9721
631.397	9235
631.459	9032
631.522	10755
631.584	9628
631.646	10008
631.709	11804
631.771	14103
631.834	11086
631.896	9959
631.958	7212
632.021	10587
632.083	8354
632.145	9793
632.208	9192
632.270	10667
632.332	8417
632.395	8593
632.457	10369
632.519	10119
632.581	9590
632.643	8152
632.706	9146
632.768	7940
632.830	8944
632.892	8900
632.954	8152
633.016	9252
633.078	8198
633.141	8509
633.203	8543
633.265	8813
633.327	8006
633.389	7717
633.451	10628
633.513	12359
633.575	13046
633.637	11213
633.698	9797
633.760	8971
633.822	8029
633.884	8656
633.946	8658
634.008	9301
634.070	12306
634.132	19322
634.193	11225
634.255	8026
634.317	7645
634.379	8748
634.441	7581
634.502	7211
634.564	8040
634.626	8019
634.687	7020
634.749	8108
634.811	7810
634.873	6119
634.934	6928
634.996	8721
635.057	7255
635.119	7099
635.181	7901
635.242	8351
635.304	5612
635.365	9050
635.427	6613
635.488	7782
635.550	7489
635.611	7302
635.673	6070
635.734	9189
635.796	8034
635.857	9110
635.918	6913
635.980	8544
636.041	7110
636.102	8102
636.164	7522
636.225	7931
636.286	6501
636.348	8005
636.409	7619
636.470	6205
636.531	7617
636.593	9476
636.654	9076
636.715	6901
636.776	6567
636.838	5726
636.899	8074
636.960	6741
637.021	5829
637.082	6508
637.143	5953
637.204	5948
637.265	5523
637.326	6290
637.387	5751
637.448	5801
637.509	6491
637.570	5945
637.631	7890
637.692	4869
637.753	5225
637.814	6060
637.875	5277
637.936	6499
637.997	5960
638.058	7154
638.119	7972
638.179	6498
638.240	5468
638.301	5580
638.362	4594
638.423	6964
638.483	6661
638.544	4963
638.605	6808
638.666	5083
638.726	6256
638.787	5942
638.848	5494
638.908	5398
638.969	5546
639.030	6012
639.090	3921
639.151	5088
639.211	7289
639.272	9238
639.332	15269
639.393	8109
639.453	4880
639.514	6574
639.574	6177
639.635	5212
639.695	6799
639.756	4478
639.816	6942
639.877	8223
639.937	13275
639.997	16954
640.058	5586
640.118	4484
640.178	5390
640.239	4750
640.299	5793
640.359	4828
640.420	5200
640.480	5302
640.540	4082
640.600	4767
640.661	5284
640.721	4848
640.781	7933
640.841	4927
640.901	6085
640.961	6360
641.021	6620
641.082	5893
641.142	10059
641.202	7276
641.262	3198
641.322	6246
641.382	3772
641.442	6101
641.502	5181
641.562	5220
641.622	3594
641.682	5692
641.742	4505
641.802	5731
641.861	6987
641.921	6427
641.981	7415
642.041	7402
642.101	8497
642.161	5187
642.221	4674
642.280	5643
642.340	4438
642.400	3966
642.460	5504
642.519	5360
642.579	4982
642.639	5421
642.698	2411
642.758	6737
642.818	5340
642.877	4172
642.937	5180
642.997	7013
643.056	9450
643.116	4761
643.175	6090
643.235	4096
643.294	4633
643.354	5015
643.414	4515
643.473	5536
643.532	4409
643.592	5288
643.651	7062
643.711	10980
643.770	18180
643.830	39044
643.889	73681
643.948	16523
644.008	5788
644.067	4185
644.126	4200
644.186	4737
644.245	4852
644.304	2577
644.363	6469
644.423	3095
644.482	4806
644.541	4822
644.600	2063
644.659	4873
644.719	4096
644.778	5235
644.837	6247
644.896	10151
644.955	17573
645.014	11043
645.073	11309
645.132	4936
645.191	5146
645.250	3793
645.309	5353
645.368	3930
645.427	4476
645.486	3377
645.545	5714
645.604	3449
645.663	4289
645.722	3879
645.781	4492
645.840	4411
645.898	4067
645.957	4889
646.016	5069
646.075	9446
646.134	14551
646.192	36325
646.251	45759
646.310	7244
646.369	4063
646.427	4137
646.486	2896
646.545	4316
646.603	4112
646.662	4244
646.721	4214
646.779	3214
646.838	2745
646.896	4383
646.955	3915
647.014	5309
647.072	5090
647.131	10240
647.189	4217
647.248	2233
647.306	3539
647.365	4333
647.423	1731
647.481	5214
647.540	2320
647.598	4013
647.657	3603
647.715	3612
647.773	1647
647.832	4327
647.890	3184
647.948	3286
648.007	4425
648.065	3246
648.123	4824
648.181	7721
648.240	12652
648.298	9250
648.356	3746
648.414	5035
648.472	4441
648.531	4509
648.589	3668
648.647	3288
648.705	3789
648.763	3201
648.821	3570
648.879	3472
648.937	3778
648.995	3940
649.053	3225
649.111	4278
649.169	6809
649.227	8393
649.285	12997
649.343	29732
649.401	20261
649.459	25736
649.516	26063
649.574	35456
649.632	101130
649.690	107181
649.748	24498
649.806	30235
649.863	41866
649.921	14395
649.979	6117
650.037	4413
650.094	2853
650.152	3957
650.210	3400
650.268	4528
650.325	2898
650.383	3118
650.440	2552
650.498	3780
650.556	2882
650.613	3043
650.671	3301
650.728	3275
650.786	3428
650.843	3211
650.901	1767
650.958	3126
651.016	2821
651.073	2753
651.131	2982
651.188	2753
651.246	3335
651.303	3307
651.360	3965
651.418	3142
651.475	3160
651.532	2355
651.590	3034
651.647	2564
651.704	2411
651.762	2724
651.819	3495
651.876	1897
651.933	3388
651.990	3417
652.048	1408
652.105	2692
652.162	3309
652.219	2088
652.276	2959
652.333	2996
652.390	2637
652.448	3604
652.505	3831
652.562	4391
652.619	7517
652.676	19451
652.733	17402
652.790	3768
652.847	1789
652.904	2990
652.961	1645
653.017	1752
653.074	2650
653.131	2880
653.188	1805
653.245	2484
653.302	3572
653.359	1894
653.415	1929
653.472	2302
653.529	3280
653.586	2087
653.642	2072
653.699	2645
653.756	1684
653.813	1674
653.869	2808
653.926	764
653.983	2104
654.039	1995
654.096	2073
654.152	3636
654.209	1664
654.266	3173
654.322	1649
654.379	3213
654.435	4576
654.492	4528
654.548	6869
654.605	10857
654.661	4480
654.717	2892
654.774	4073
654.830	3449
654.887	2863
654.943	3113
655.000	2566
655.056	2378
655.112	3806
655.168	2310
655.225	2801
655.281	4563
655.337	6578
655.394	13388
655.450	7310
655.506	6586
655.562	13068
655.618	9133
655.675	2322
655.731	3273
655.787	1955
655.843	4269
655.899	2409
655.955	2121
656.011	2601
656.067	1928
656.123	2374
656.179	2448
656.235	3659
656.291	913
656.347	3128
656.403	2128
656.459	3070
656.515	4441
656.571	4263
656.627	3591
656.683	2576
656.739	2680
656.795	3407
656.850	2815
656.906	3821
656.962	2907
657.018	1563
657.074	2345
657.129	2429
657.185	3252
657.241	3537
657.297	2805
657.352	2528
657.408	2261
657.464	4412
657.519	2809
657.575	1931
657.630	1965
657.686	2020
657.742	3039
657.797	2398
657.853	2677
657.908	3958
657.964	1781
658.019	2529
658.075	3433
658.130	2452
658.186	1308
658.241	3113
658.297	2476
658.352	2207
658.407	2705
658.463	2567
658.518	1962
658.573	2891
658.629	2054
658.684	2084
658.739	2635
658.795	1139
658.850	3059
658.905	1552
658.960	3174
659.016	2052
659.071	2705
659.126	2366
659.181	3471
659.236	6429
659.291	6579
659.346	4514
659.401	5261
659.457	10265
659.512	15132
659.567	6252
659.622	3196
659.677	1942
659.732	1761
659.787	3347
659.842	4025
659.897	5307
659.952	3068
660.007	2578
660.061	3641
660.116	1708
660.171	1429
660.226	2192
660.281	2707
660.336	2089
660.391	2287
660.445	1195
660.500	2119
660.555	2894
660.610	1498
660.664	2425
660.719	2476
660.774	2882
660.828	2527
660.883	2521
660.938	2369
660.992	1386
661.047	2823
661.101	1855
661.156	1349
661.211	2196
661.265	1758
661.320	1543
661.374	2233
661.429	2286
661.483	3189
661.538	1327
661.592	2751
661.647	2543
661.701	3030
661.755	2112
661.810	2487
661.864	2461
661.919	2272
661.973	2039
662.027	2362
662.081	1544
662.136	2161
662.190	2754
662.244	2684
662.299	2509
662.353	2227
662.407	1874
662.461	3045
662.515	2879
662.569	2535
662.624	2919
662.678	2448
662.732	2151
662.786	1985
662.840	2637
662.894	2719
662.948	2940
663.002	1400
663.056	2492
663.110	1982
663.164	2015
663.218	2307
663.272	2287
663.326	3630
663.380	3415
663.434	3232
663.488	1933
663.542	2901
663.595	2097
663.649	3032
663.703	2863
663.757	2419
663.811	2313
663.864	1531
663.918	2563
663.972	1864
664.026	1906
664.079	2428
664.133	2492
664.187	2867
664.240	974
664.294	2214
664.348	2294
664.401	2441
664.455	1662
664.508	2161
664.562	2105
664.615	3035
664.669	2016
664.722	2982
664.776	1376
664.829	2721
664.883	2203
664.936	2062
664.990	1906
665.043	3704
665.097	2917
665.150	4181
665.203	2274
665.257	2683
665.310	2843
665.363	3087
665.417	4047
665.470	3210
665.523	2288
665.576	3061
665.630	3143
665.683	2503
665.736	3325
665.789	3819
665.842	2462
665.895	3445
665.949	2486
666.002	3079
666.055	2868
666.108	3934
666.161	3010
666.214	3291
666.267	3402
666.320	4145
666.373	3223
666.426	3102
666.479	3247
666.532	4087
666.585	5255
666.638	4449
666.691	3804
666.744	5454
666.796	4788
666.849	4159
666.902	3067
666.955	3206
667.008	2440
667.060	2034
667.113	1852
667.166	2757
667.219	3572
667.271	3222
667.324	3138
667.377	3421
667.430	3983
667.482	8033
667.535	5215
667.587	3520
667.640	3197
667.693	3630
667.745	6294
667.798	6312
667.850	2708
667.903	3241
667.955	2762
668.008	3341
668.060	4438
668.113	4026
668.165	4394
668.218	3835
668.270	2995
668.322	3549
668.375	2849
668.427	3444
668.479	3684
668.532	3805
668.584	4210
668.636	3173
668.689	2703
668.741	3245
668.793	3991
668.845	3891
668.898	3423
668.950	3423
669.002	3303
669.054	2495
669.106	3215
669.158	4061
669.211	2932
669.263	5240
669.315	7292
669.367	9457
669.419	4620
669.471	4469
669.523	4371
669.575	5191
669.627	3718
669.679	3302
669.731	3333
669.783	3823
669.835	3141
669.886	4313
669.938	3707
669.990	3016
670.042	2181
670.094	3726
670.146	2853
670.197	3794
670.249	4091
670.301	4574
670.353	5242
670.404	6701
670.456	8926
670.508	13389
670.560	23821
670.611	41759
670.663	74685
670.715	188289
670.766	258872
670.818	59461
670.869	12247
670.921	8099
670.972	6246
671.024	5522
671.075	3931
671.127	3807
671.178	3233
671.230	4109
671.281	2462
671.333	3687
671.384	3804
671.436	4027
671.487	3931
671.538	3976
671.590	4539
671.641	5353
671.692	6155
671.744	7235
671.795	5781
671.846	4086
671.897	4438
671.949	3638
672.000	3247
672.051	4167
672.102	3460
672.153	2585
672.204	4099
672.256	3553
672.307	3908
672.358	3836
672.409	3886
672.460	3672
672.511	2496
672.562	3273
672.613	2559
672.664	3454
672.715	2959
672.766	2728
672.817	2894
672.868	2592
672.919	3085
672.970	2601
673.021	3460
673.071	2255
673.122	3344
673.173	4143
673.224	3297
673.275	2214
673.326	3273
673.376	3787
673.427	3250
673.478	2865
673.528	3604
673.579	2670
673.630	3373
673.680	3715
673.731	2986
673.782	2088
673.832	1923
673.883	3611
673.934	2247
673.984	2977
674.035	2968
674.085	2753
674.136	3923
674.186	3852
674.237	5220
674.287	9053
674.338	4015
674.388	3430
674.438	3573
674.489	2598
674.539	4007
674.589	3576
674.640	3528
674.690	2718
674.740	3157
674.791	3757
674.841	4165
674.891	3355
674.942	3107
674.992	2891
675.042	3314
675.092	3210
675.142	2538
675.193	2624
675.243	2205
675.293	3032
675.343	2640
675.393	2476
675.443	2960
675.493	2656
675.543	2259
675.593	2837
675.643	1888
675.693	3701
675.743	3009
675.793	2301
675.843	2268
675.893	2767
675.943	2472
675.993	3224
676.043	2539
676.093	3330
676.142	2594
676.192	2979
676.242	2878
676.292	2434
676.341	3682
676.391	2410
676.441	2635
676.491	2567
676.540	2549
676.590	1666
676.640	2462
676.689	2353
676.739	1769
676.789	2036
676.838	1633
676.888	1831
676.937	2678
676.987	1868
677.037	2200
677.086	2540
677.136	2741
677.185	1890
677.235	1171
677.284	1982
677.333	2887
677.383	1988
677.432	1326
677.482	2216
677.531	2260
677.580	2615
677.630	2062
677.679	2041
677.728	2192
677.778	1916
677.827	736
677.876	2258
677.925	1749
677.975	1716
678.024	1851
678.073	1909
678.122	2518
678.171	2548
678.220	1906
678.269	4078
678.319	2766
678.368	2371
678.417	2294
678.466	2691
678.515	2371
678.564	2341
678.613	2235
678.662	2321
678.711	1875
678.760	3339
678.809	2150
678.857	2228
678.906	2788
678.955	2480
679.004	2578
679.053	2532
679.102	1968
679.151	2962
679.199	1925
679.248	2107
679.297	2636
679.346	2842
679.394	1951
679.443	2663
679.492	2445
679.540	2207
679.589	1767
679.638	2089
679.686	1751
679.735	2612
679.784	2349
679.832	2004
679.881	2266
679.929	1571
679.978	1184
680.026	1792
680.075	2159
680.123	1544
680.172	1519
680.220	1954
680.268	2292
680.317	2021
680.365	1561
680.414	1449
680.462	2211
680.510	2309
680.559	1752
680.607	1544
680.655	1409
680.703	2638
680.752	1591
680.800	2059
680.848	1637
680.896	963
680.945	1785
680.993	1436
681.041	1497
681.089	1822
681.137	1843
681.185	1304
681.233	1862
681.258	1773
681.281	1614
681.329	2024
681.377	2126
681.380	2184
681.425	1840
681.473	2897
681.502	3104
681.521	3106
681.569	2736
681.617	3141
681.624	3223
681.665	3201
681.713	3773
681.745	3318
681.761	2990
681.809	3707
681.857	3886
681.867	4035
681.904	4281
681.952	4393
681.989	4210
682.000	4056
682.048	3924
682.096	4412
682.111	4644
682.143	4929
682.191	4617
682.233	5337
682.239	5364
682.286	4773
682.334	4867
682.354	5024
682.382	5127
682.430	5669
682.476	5493
682.477	5424
682.525	5224
682.572	5095
682.598	5389
682.620	5566
682.667	5448
682.715	6646
682.720	6664
682.763	6159
682.810	6534
682.841	6703
682.857	6709
682.905	5861
682.952	6294
682.963	6556
683.000	7195
683.047	7134
683.085	7643
683.095	7712
683.142	6976
683.190	7049
683.206	6964
683.237	6676
683.284	8487
683.328	7860
683.332	7754
683.379	8151
683.426	7442
683.449	7567
683.473	7585
683.521	7809
683.568	8393
683.571	8423
683.615	8183
683.662	9481
683.693	8848
683.709	8413
683.757	8759
683.804	8906
683.814	9024
683.851	9210
683.898	9683
683.936	9556
683.945	9499
683.992	10021
684.039	9834
684.057	10168
684.086	10541
684.133	10246
684.179	10693
684.180	10659
684.227	10503
684.274	10726
684.300	10976
684.321	11117
684.368	10619
684.415	11176
684.422	11159
684.462	10754
684.509	10398
684.543	10730
684.556	10850
684.603	10592
684.649	11651
684.665	11535
684.696	11290
684.743	11463
684.786	12381
684.790	12446
684.837	12341
684.883	13849
684.908	14244
684.930	14268
684.977	14287
685.023	14112
685.029	14134
685.070	13746
685.117	13225
685.150	13518
685.164	13826
685.210	14791
685.257	15956
685.272	15921
685.303	15269
685.350	14465
685.393	15568
685.396	15672
685.443	16022
685.490	16627
685.514	16722
685.536	16512
685.583	16311
685.629	16324
685.636	16391
685.675	16539
685.722	16045
685.757	16062
685.768	16159
685.815	16528
685.861	16579
685.878	16776
685.908	17206
685.954	17670
686.000	18929
686.000	18946
686.047	20837
686.093	23575
686.121	23934
686.139	22838
686.185	20936
686.232	18917
686.242	18714
686.278	18847
686.324	17410
686.363	17605
686.370	17758
686.416	17484
686.463	18948
686.484	19061
686.509	19038
686.555	18614
686.601	18322
686.606	18453
686.647	19028
686.693	18350
686.727	18169
686.739	18234
686.785	18264
686.831	18362
686.848	18388
686.877	18081
686.923	18049
686.969	17183
686.969	17180
687.015	17539
687.061	18472
687.090	18886
687.107	18849
687.153	18898
687.199	18351
687.211	18125
687.245	18015
687.291	18986
687.332	19755
687.336	19811
687.382	19750
687.428	19844
687.453	19990
687.474	19699
687.520	19061
687.565	18481
687.574	18327
687.611	18346
687.657	18392
687.695	18428
687.702	18496
687.748	18729
687.794	19302
687.816	19731
687.839	19749
687.885	18944
687.931	18141
687.937	18068
687.976	18641
688.022	20235
688.058	20483
688.067	20435
688.113	20626
688.158	20210
688.179	20346
688.204	20591
688.249	20783
688.295	20682
688.300	20724
688.340	21261
688.386	21953
688.421	21965
688.431	21836
688.477	21330
688.522	21265
688.542	21100
688.567	21327
688.613	21159
688.658	21547
688.663	21528
688.703	21206
688.749	21559
688.784	21507
688.794	21536
688.839	21486
688.884	22036
688.905	22030
688.930	21980
688.975	22109
689.020	21650
689.026	21609
689.065	21868
689.110	22146
689.146	22229
689.155	22160
689.201	22128
689.246	21783
689.267	21649
689.291	21808
689.336	22352
689.381	22720
689.388	22635
689.426	22177
689.471	22700
689.509	22603
689.516	22601
689.561	22324
689.606	22132
689.630	22293
689.651	22613
689.696	22407
689.741	22976
689.750	22954
689.785	22771
689.830	22715
689.871	22580
689.875	22599
689.920	22589
689.965	22660
689.992	22678
690.010	23007
690.054	23075
690.099	24009
690.112	24182
690.144	24267
690.189	23537
690.233	24149
690.233	24186
690.278	24159
690.323	24268
690.354	24399
690.367	24719
690.412	25239
690.457	26208
690.474	26369
690.501	26389
690.546	26493
690.590	27051
690.595	27011
690.635	28235
690.680	30012
690.716	31482
690.724	32172
690.769	35244
690.813	38468
690.836	39947
690.857	44020
690.902	53077
690.946	62272
690.957	64367
690.991	83202
691.035	108879
691.077	132764
691.080	133098
691.124	132456
691.168	132622
691.198	132843
691.213	125871
691.257	104790
691.301	83006
691.318	74704
691.346	68274
691.390	57078
691.434	45811
691.439	44538
691.478	41999
691.522	38938
691.559	36080
691.567	35911
691.611	34719
691.655	32923
691.680	32141
691.699	31855
691.743	31397
691.787	29948
691.800	29675
691.831	30175
691.875	30862
691.919	31163
691.921	31129
691.964	31511
692.008	31251
692.041	31437
692.052	31536
692.096	31343
692.139	31384
692.162	31090
692.183	30818
692.227	30782
692.271	30025
692.282	29990
692.315	30296
692.359	30483
692.402	30114
692.403	30169
692.447	30033
692.490	30290
692.523	30164
692.534	30328
692.578	30541
692.622	30955
692.643	31107
692.666	31037
692.709	30766
692.753	30547
692.763	30375
692.797	30199
692.840	30272
692.884	30124
692.884	30192
692.928	31176
692.971	31839
693.004	32209
693.015	32343
693.059	32731
693.102	33395
693.124	33482
693.146	34012
693.189	35287
693.233	36457
693.245	36696
693.276	38433
693.320	40487
693.363	42789
693.365	42795
693.407	46191
693.450	49102
693.485	51465
693.493	53140
693.537	61419
693.580	69638
693.605	74330
693.624	83216
693.667	103744
693.710	124761
693.725	131896
693.753	169257
693.797	227698
693.840	286607
693.845	292979
693.883	290470
693.926	286948
693.966	283867
693.970	279491
694.013	228105
694.056	176409
694.086	140280
694.099	133733
694.142	112271
694.185	90589
694.206	80095
694.229	75962
694.272	67764
694.315	59866
694.326	57582
694.358	54620
694.401	50748
694.444	46421
694.446	46119
694.487	44320
694.530	42030
694.566	40308
694.573	40034
694.616	37263
694.659	34603
694.686	32991
694.702	32897
694.745	32395
694.787	31912
694.806	31600
694.830	31635
694.873	31435
694.916	31155
694.926	31030
694.959	30754
695.002	30564
695.044	30193
695.046	30108
695.087	30677
695.130	30984
695.166	31330
695.172	31433
695.215	31507
695.258	31693
695.286	31731
695.301	31664
695.343	31238
695.386	30710
695.406	30416
695.428	30227
695.471	29690
695.514	29084
695.526	28813
695.556	28819
695.599	29187
695.641	29084
695.646	29011
695.684	29032
695.726	29252
695.766	28911
695.769	28971
695.811	29273
695.854	29352
695.886	29332
695.896	29293
695.938	28785
695.981	28236
696.005	27945
696.023	28161
696.065	28478
696.108	28762
696.125	28794
696.150	29098
696.192	29552
696.235	29928
696.245	29969
696.277	29979
696.319	29741
696.361	29691
696.365	29596
696.404	30402
696.446	31334
696.485	31999
696.488	32042
696.530	31692
696.572	31237
696.604	30826
696.614	30719
696.656	29882
696.698	29094
696.724	28455
696.740	28437
696.783	28428
696.825	28250
696.844	28078
696.867	28336
696.909	28819
696.951	29222
696.964	29280
696.992	28822
697.034	27948
697.076	27205
697.083	26981
697.118	27461
697.160	28062
697.202	28697
697.203	28637
697.244	28225
697.286	27757
697.323	27225
697.327	27273
697.369	27058
697.411	26828
697.442	26548
697.453	26759
697.494	27444
697.536	28044
697.562	28380
697.578	28339
697.620	28032
697.661	27559
697.682	27332
697.703	27775
697.744	28411
697.786	29198
697.801	29365
697.828	29639
697.869	29943
697.911	30219
697.921	30218
697.952	29650
697.994	28780
698.035	27915
698.040	27727
698.077	27310
698.118	26836
698.160	26299
698.160	26223
698.201	26752
698.243	27244
698.279	27656
698.284	27741
698.325	27757
698.367	27764
698.399	27716
698.408	27675
698.449	27151
698.491	26592
698.518	26166
698.532	26379
698.573	26779
698.614	27198
698.638	27370
698.656	27426
698.697	27359
698.738	27289
698.757	27186
698.779	27475
698.820	27873
698.862	28272
698.877	28345
698.903	28864
698.944	29564
698.985	30259
698.996	30371
699.026	30048
699.067	29480
699.116	28723
699.235	28360
699.354	27617
699.474	29217
699.593	34898
699.713	31264
699.832	28643
699.951	29160
700.070	27138
700.190	26530
700.309	27601
700.428	32134
700.547	27040
700.667	27383
700.786	30964
700.905	26186
701.024	29165
701.143	27262
701.262	24007
701.381	23822
701.500	26133
701.619	26129
701.738	24525
701.857	23600
701.976	23948
702.095	23322
702.214	25696
702.333	26955
702.452	24470
702.571	23128
702.690	22824
702.809	23067
702.928	21819
703.047	23212
703.165	22220
703.284	22004
703.403	22918
703.522	26362
703.640	26946
703.759	32950
703.878	45853
703.997	25511
704.115	23187
704.234	21664
704.353	21733
704.471	20845
704.590	20599
704.708	20851
704.827	20322
704.946	23045
705.064	27052
705.183	23642
705.301	31813
705.420	47911
705.538	42359
705.656	42210
705.775	66399
705.893	196647
706.012	217312
706.130	43080
706.249	36482
706.367	35980
706.485	38277
706.604	34933
706.722	35767
706.840	42059
706.958	36756
707.077	31094
707.195	30377
707.313	29530
707.431	29763
707.549	29454
707.668	29813
707.786	30116
707.904	29082
708.022	29005
708.140	28351
708.258	27459
708.376	29062
708.494	28786
708.612	33740
708.730	51287
708.848	45577
708.966	40576
709.084	37801
709.202	37173
709.320	39467
709.438	40202
709.556	38077
709.674	37479
709.791	37894
709.909	36570
710.027	35947
710.145	35937
710.263	37089
710.380	36471
710.498	35696
710.616	36544
710.733	37047
710.851	37059
710.969	39151
711.086	35917
711.204	35581
711.322	36413
711.439	37047
711.557	37276
711.674	37954
711.792	40172
711.909	56479
712.027	65797
712.144	36064
712.262	35398
712.379	40220
712.497	58021
712.614	55856
712.732	45635
712.849	44319
712.966	47886
713.084	53581
713.201	47423
713.318	45908
713.436	43997
713.553	44085
713.670	44134
713.787	51606
713.905	49134
714.022	42220
714.139	40479
714.256	42061
714.373	41811
714.490	44791
714.608	52991
714.725	103540
714.842	93647
714.959	40165
715.076	38231
715.193	37924
715.310	36761
715.427	36748
715.544	34376
715.661	37264
715.778	37670
715.895	41136
716.011	40964
716.128	37234
716.245	35390
716.362	39031
716.479	39469
716.596	34678
716.713	34939
716.829	32895
716.946	33761
717.063	33114
717.180	32490
717.296	32193
717.413	32364
717.530	32300
717.646	31819
717.763	31587
717.880	29968
717.996	29935
718.113	30800
718.229	30841
718.346	28752
718.462	30266
718.579	33840
718.695	47156
718.812	45922
718.928	47449
719.045	32041
719.161	29422
719.277	27638
719.394	30490
719.510	34917
719.626	29799
719.743	34977
719.859	30980
719.975	31060
720.092	42896
720.208	57804
720.324	33027
720.440	29342
720.557	34420
720.673	44853
720.789	72095
720.905	160791
721.021	48442
721.137	28469
721.253	29840
721.369	30146
721.486	35629
721.602	49803
721.718	27804
721.834	24569
721.950	25577
722.066	25339
722.181	24379
722.297	26073
722.413	24225
722.529	25105
722.645	24441
722.761	24626
722.877	25323
722.993	24466
723.108	24688
723.224	24326
723.340	24393
723.456	21983
723.571	23003
723.687	20742
723.803	22725
723.918	22304
724.034	22664
724.150	22881
724.265	29304
724.381	63698
724.497	70490
724.612	22975
724.728	20614
724.843	21844
724.959	27530
725.074	59316
725.190	60220
725.305	24647
725.421	22560
725.536	18451
725.651	19826
725.767	17883
725.882	18829
725.997	18127
726.113	19111
726.228	18471
726.343	19350
726.459	17005
726.574	20840
726.689	18422
726.804	18802
726.920	18878
727.035	19807
727.150	20023
727.265	18564
727.380	19468
727.495	19153
727.610	18868
727.725	24182
727.841	41065
727.956	122694
728.071	67957
728.186	20255
728.301	16277
728.416	19124
728.531	15871
728.645	15548
728.760	16962
728.875	15397
728.990	16282
729.105	16581
729.220	15756
729.335	16931
729.449	15178
729.564	14475
729.679	14813
729.794	15648
729.908	19313
730.023	16210
730.138	13418
730.253	14336
730.367	13974
730.482	14816
730.596	14331
730.711	14906
730.826	14185
730.940	13343
731.055	14344
731.169	12979
731.284	13266
731.398	13960
731.513	18168
731.627	15371
731.742	18703
731.856	19513
731.970	12173
732.085	13337
732.199	14132
732.313	14046
732.428	17580
732.542	26177
732.656	17954
732.771	13185
732.885	12122
732.999	14024
733.113	14659
733.227	14216
733.342	12533
733.456	12068
733.570	12416
733.684	11858
733.798	11925
733.912	10886
734.026	10241
734.140	12061
734.254	15105
734.368	31559
734.482	37002
734.596	11600
734.710	10549
734.824	11733
734.938	11457
735.052	11917
735.166	15460
735.280	12549
735.393	11453
735.507	12034
735.621	18330
735.735	39774
735.849	14653
735.962	11245
736.076	13370
736.190	12827
736.303	21041
736.417	25418
736.531	12435
736.644	13174
736.758	10123
736.872	10518
736.985	9307
737.099	9921
737.212	9280
737.326	10573
737.439	10117
737.553	10470
737.666	9881
737.780	10248
737.893	9576
738.007	9340
738.120	9413
738.233	9693
738.347	10125
738.460	9503
738.573	10592
738.687	10108
738.800	10480
738.913	13190
739.026	11844
739.140	16403
739.253	18707
739.366	11173
739.479	9067
739.592	9508
739.705	9056
739.818	10608
739.932	8886
740.045	9610
740.158	9542
740.271	9853
740.384	8734
740.497	9147
740.610	8927
740.723	9187
740.836	8919
740.949	10196
741.062	11981
741.174	11283
741.287	9559
741.400	9508
741.513	9914
741.626	10611
741.739	10271
741.851	9581
741.964	8810
742.077	9585
742.189	9387
742.302	9785
742.415	8920
742.527	8602
742.640	8624
742.753	8647
742.865	7462
742.978	8481
743.090	8240
743.203	9277
743.316	9090
743.428	8265
743.541	8078
743.653	8362
743.766	7171
743.878	9385
743.990	14575
744.103	12252
744.215	8605
744.327	10077
744.440	9857
744.552	13590
744.664	9836
744.777	8577
744.889	7921
745.001	8209
745.113	7563
745.226	8041
745.338	7884
745.450	8043
745.562	8021
745.674	8241
745.786	7593
745.898	9191
746.010	9663
746.122	8344
746.234	8530
746.347	7707
746.459	7919
746.570	8193
746.682	8126
746.794	8584
746.906	7347
747.018	7705
747.130	7881
747.242	8102
747.354	7289
747.466	9193
747.577	7274
747.689	8316
747.801	8301
747.913	7482
748.024	6884
748.136	6645
748.248	8002
748.359	8128
748.471	7856
748.583	9203
748.694	16127
748.806	22036
748.918	13415
749.029	9791
749.141	8905
749.252	9439
749.364	9298
749.475	15977
749.587	13941
749.698	8143
749.809	7926
749.921	8012
750.032	7280
750.144	7891
750.255	7066
750.366	7114
750.478	7228
750.589	7786
750.700	7900
750.811	9200
750.923	10053
751.034	17297
751.145	16767
751.256	8666
751.367	7406
751.479	6624
751.590	7309
751.701	8014
751.812	8003
751.923	8258
752.034	7092
752.145	7147
752.256	8263
752.367	7857
752.478	7425
752.589	7479
752.700	8020
752.811	8276
752.922	7803
753.032	7776
753.143	7934
753.254	7516
753.365	7903
753.476	8507
753.586	7579
753.697	8517
753.808	8135
753.919	8147
754.029	7277
754.140	7798
754.251	7851
754.361	8485
754.472	8354
754.582	8764
754.693	8299
754.804	8991
754.914	7680
755.025	8058
755.135	8837
755.246	8923
755.356	7578
755.466	9096
755.577	8854
755.687	8405
755.798	8739
755.908	9799
756.018	8043
756.129	9404
756.239	9244
756.349	9366
756.460	8482
756.570	9887
756.680	8896
756.790	9834
756.900	10058
757.011	9071
757.121	8692
757.231	9465
757.341	8210
757.451	9361
757.561	9542
757.671	9609
757.781	8940
757.891	10531
758.001	11007
758.111	10925
758.221	10317
758.331	11605
758.441	12076
758.551	13493
758.661	12975
758.771	11987
758.880	12368
758.990	12761
759.100	11360
759.210	13122
759.320	13219
759.429	13519
759.539	12808
759.649	12745
759.758	13295
759.868	14009
759.978	13477
760.087	14851
760.197	14063
760.307	14755
760.416	14836
760.526	14495
760.635	15098
760.745	14356
760.854	15543
760.964	15942
761.073	16864
761.182	16211
761.292	17675
761.401	19928
761.511	17915
761.620	18962
761.729	18980
761.839	20045
761.948	19922
762.057	21368
762.166	21220
762.276	20967
762.385	23572
762.494	23386
762.603	23892
762.712	25588
762.822	26037
762.931	28720
763.040	28245
763.149	30402
763.258	32316
763.367	33738
763.476	34148
763.585	36128
763.694	39269
763.803	41716
763.912	43264
764.021	45345
764.130	48364
764.238	53244
764.347	55134
764.456	60486
764.565	64503
764.674	70591
764.783	78546
764.891	85200
765.000	96397
765.109	108174
765.217	124103
765.326	145234
765.435	171117
765.543	199345
765.652	243306
765.761	306493
765.869	390508
765.978	514176
766.086	685245
766.195	903728
766.303	1050334
766.412	810382
766.520	812580
766.629	1043058
766.737	857381
766.846	638206
766.954	476535
767.062	369335
767.171	306352
767.279	228323
767.387	180310
767.496	150386
767.604	129173
767.712	112987
767.820	101217
767.928	93988
768.037	86118
768.145	82588
768.253	79119
768.361	76894
768.469	77670
768.577	79102
768.685	83832
768.793	87977
768.901	97206
769.009	113532
769.117	134461
769.225	171806
769.333	227031
769.441	322388
769.549	477560
769.657	734478
769.765	925113
769.873	738344
769.981	900304
770.088	701207
770.196	465273
770.304	326783
770.412	240991
770.519	188659
770.627	150639
770.735	124710
770.842	106284
770.950	92799
771.058	79350
771.165	71255
771.273	63806
771.380	58932
771.488	53308
771.595	49780
771.703	45919
771.810	43521
771.918	38872
772.025	36525
772.133	35077
772.240	32320
772.348	31952
772.455	30296
772.562	28647
772.670	27217
772.777	27110
772.884	24224
772.991	24304
773.099	23385
773.206	21429
773.313	21426
773.420	21342
773.528	19727
773.635	19391
773.742	19944
773.849	19071
773.956	18614
774.063	17271
774.170	17735
774.277	17886
774.384	16576
774.491	15738
774.598	16100
774.705	15921
774.812	16013
774.919	15685
775.026	15815
775.133	15542
775.239	13943
775.346	14585
775.453	14115
775.560	13735
775.667	14164
775.773	13573
775.880	13882
775.987	13009
776.093	12766
776.200	12358
776.307	12743
776.413	12715
776.520	11932
776.627	12270
776.733	11841
776.840	10623
776.946	12686
777.053	11843
777.159	12389
777.266	10899
777.372	12610
777.478	11453
777.585	11532
777.691	10752
777.798	12445
777.904	14058
778.010	26245
778.117	15522
778.223	11227
778.329	9809
778.435	10439
778.542	9772
778.648	9442
778.754	9271
778.860	9524
778.966	9637
779.072	9722
779.178	9217
779.284	9862
779.391	8766
779.497	9426
779.603	13941
779.708	16059
779.815	30958
779.920	101303
780.026	192656
780.132	34888
780.238	13046
780.344	10595
780.450	9815
780.556	9453
780.661	8700
780.767	9209
780.873	8333
780.979	8735
781.085	8254
781.190	7958
781.296	7321
781.402	7171
781.507	6107
781.613	7499
781.719	6490
781.824	7213
781.930	6093
782.035	7187
782.141	6496
782.246	7738
782.352	7039
782.457	6840
782.563	5233
782.668	5827
782.773	6881
782.879	7283
782.984	7463
783.090	8448
783.195	9956
783.300	8561
783.405	6789
783.511	7525
783.616	6958
783.721	6373
783.826	6605
783.932	7394
784.037	7049
784.142	6894
784.247	6062
784.352	7055
784.457	5967
784.562	6905
784.667	6370
784.772	6786
784.877	6099
784.982	6358
785.087	5747
785.192	6348
785.297	5998
785.402	5281
785.507	6089
785.611	5604
785.716	5759
785.821	6219
785.926	5541
786.031	5832
786.135	5404
786.240	5640
786.345	5150
786.450	5967
786.554	5264
786.659	4802
786.763	3731
786.868	6167
786.973	6281
787.077	5753
787.182	5070
787.286	6132
787.391	5689
787.495	5165
787.600	4870
787.704	5708
787.809	5339
787.913	5600
788.017	4656
788.122	4794
788.226	4929
788.330	4233
788.435	4301
788.539	5671
788.643	4702
788.747	5265
788.852	4232
788.956	4256
789.060	5618
789.164	5041
789.268	3987
789.372	5334
789.476	4779
789.580	4149
789.684	4552
789.788	5983
789.892	4938
789.996	4685
790.100	5262
790.204	5012
790.308	5570
790.412	6933
790.516	11199
790.620	10197
790.724	6051
790.828	5608
790.931	4415
791.035	9098
791.139	7395
791.242	4030
791.346	5085
791.450	4007
791.554	4431
791.657	3052
791.761	4354
791.864	5114
791.968	4238
792.072	5054
792.175	4885
792.279	4975
792.382	4853
792.486	5306
792.589	5019
792.693	5949
792.796	3555
792.899	4345
793.003	4566
793.106	3197
793.209	3556
793.313	5577
793.416	3497
793.519	6115
793.623	5947
793.726	8096
793.829	5103
793.932	4605
794.035	3207
794.138	4989
794.242	5430
794.345	7406
794.448	10435
794.551	18231
794.654	54691
794.757	110151
794.860	24282
794.963	8550
795.066	5025
795.169	4858
795.272	2969
795.375	2900
795.477	3741
795.580	4257
795.683	2644
795.786	3825
795.889	2400
795.991	4795
796.094	5736
796.197	4476
796.300	4673
796.402	4016
796.505	3111
796.608	3373
796.710	4300
796.813	3117
796.915	3237
797.018	3276
797.120	3381
797.223	2637
797.326	4068
797.428	3978
797.530	4129
797.633	3823
797.735	5837
797.838	10512
797.940	9280
798.042	2602
798.145	3179
798.247	3557
798.349	2083
798.452	4130
798.554	1940
798.656	1670
798.758	3525
798.860	3072
798.962	2508
799.065	3616
799.167	2156
799.269	3718
799.371	4694
799.473	4314
799.575	4422
799.677	6875
799.779	5370
799.881	4493
799.983	4543
800.085	2927
800.187	2935
800.289	3205
800.390	3613
800.492	2571
800.594	3299
800.696	1597
800.798	3441
800.899	1993
801.001	2689
801.103	3212
801.205	2130
801.306	2457
801.408	1776
801.509	2394
801.611	3170
801.713	3064
801.814	2376
801.916	2823
802.017	1314
802.119	2113
802.220	3164
802.322	1515
802.423	7938
802.525	4270
802.626	3478
802.727	2636
802.829	2594
802.930	950
803.031	2978
803.133	2184
803.234	1654
803.335	2289
803.436	1453
803.538	2880
803.639	1096
803.740	2804
803.841	1999
803.942	2934
804.043	2070
804.144	1915
804.245	2128
804.346	2057
804.447	1559
804.548	4427
804.649	4397
804.750	2296
804.851	1939
804.952	2530
805.053	1722
805.154	1526
805.255	2644
805.355	2212
805.456	1878
805.557	973
805.658	1185
805.758	2450
805.859	2011
805.960	2179
806.061	841
806.161	1792
806.262	1994
806.362	2004
806.463	2302
806.564	3097
806.664	2288
806.765	4429
806.865	3812
806.966	3129
807.066	1826
807.166	3227
807.267	1874
807.367	1975
807.468	2372
807.568	1070
807.668	1686
807.769	2505
807.869	1023
807.969	1116
808.069	1574
808.170	1948
808.270	1791
808.370	2913
808.470	4073
808.570	2499
808.670	1438
808.770	2331
808.870	1340
808.970	2253
809.070	1327
809.170	1195
809.271	1705
809.370	1817
809.470	2073
809.570	2089
809.670	1167
809.770	1970
809.870	2315
809.970	1971
810.070	959
810.169	1344
810.269	559
810.369	2279
810.469	1011
810.568	723
810.668	1039
810.768	1576
810.867	1367
810.967	1142
811.066	1961
811.166	1573
811.265	1964
811.365	779
811.464	1628
811.564	2316
811.663	1646
811.763	592
811.862	1134
811.962	2083
812.061	544
812.160	1590
812.260	1201
812.359	1373
812.458	1456
812.557	4014
812.657	4437
812.756	2896
812.855	1390
812.954	1477
813.053	1438
813.153	2021
813.252	329
813.351	2294
813.450	1320
813.549	1982
813.648	1479
813.747	1904
813.846	2515
813.945	734
814.044	1328
814.143	1605
814.242	2064
814.341	1048
814.439	1346
814.538	2287
814.637	504
814.736	1599
814.835	990
814.933	1742
815.032	2500
815.131	1580
815.229	914
815.328	1147
815.427	720
815.525	2142
815.624	1607
815.722	1329
815.821	1637
815.919	1702
816.018	1191
816.116	2003
816.215	1042
816.313	1526
816.412	1180
816.510	2010
816.609	2511
816.707	1427
816.805	2178
816.904	379
817.002	1937
817.100	2752
817.198	2231
817.296	1342
817.395	1434
817.493	2493
817.591	974
817.689	2040
817.787	2090
817.885	3127
817.983	4999
818.081	9285
818.179	18814
818.277	50380
818.375	49296
818.473	16699
818.571	7775
818.669	5622
818.767	4323
818.865	4659
818.963	4696
819.061	6130
819.158	9542
819.256	19538
819.354	43540
819.452	100901
819.549	76366
819.647	23890
819.745	9200
819.842	6840
819.940	3439
820.038	2721
820.135	2653
820.233	3009
820.330	2373
820.428	1677
820.525	2455
820.623	2153
820.720	2043
820.818	3006
820.915	3168
821.012	3768
821.110	776
821.207	2977
821.304	1011
821.402	1874
821.499	1648
821.596	2039
821.693	1164
821.791	2768
821.888	3201
821.985	6502
822.082	4477
822.179	2745
822.276	1521
822.373	648
822.470	818
822.567	1848
822.664	654
822.761	2414
822.858	178
822.955	1765
823.052	1307
823.149	1235
823.246	790
823.343	845
823.440	1391
823.536	1208
823.633	723
823.730	1082
823.827	1376
823.923	1914
824.020	1978
824.117	928
824.213	611
824.310	1432
824.407	899
824.503	2189
824.600	1739
824.696	1631
824.793	1792
824.889	1340
824.986	1592
825.082	1871
825.179	1525
825.275	569
825.371	673
825.468	2234
825.564	454
825.660	1924
825.757	1850
825.853	2693
825.949	926
826.045	1271
826.142	580
826.238	898
826.334	897
826.430	332
826.526	2231
826.622	1782
826.718	195
826.814	1012
826.910	1215
827.006	1259
827.102	1181
827.198	1767
827.294	281
827.390	293
827.486	1610
827.582	569
827.678	301
827.774	1427
827.869	-372
827.965	2329
828.061	-760
828.157	867
828.252	1279
828.348	1210
828.444	2030
828.539	-562
828.635	763
828.731	1755
828.826	493
828.922	1971
829.017	683
829.113	484
829.208	945
829.304	502
829.399	1564
829.495	1310
829.590	1265
829.685	142
829.781	1534
829.876	-343
829.971	749
830.066	950
830.162	1371
830.257	533
830.352	1658
830.447	2154
830.543	1385
830.638	803
830.733	1289
830.828	1511
830.923	1403
831.018	1320
831.113	498
831.208	291
831.303	500
831.398	745
831.493	644
831.588	939
831.683	299
831.778	1406
831.873	356
831.967	1144
832.062	-187
832.157	-274
832.252	196
832.346	716
832.441	1220
832.536	2557
832.631	7444
832.725	4991
832.820	943
832.914	404
833.009	114
833.104	957
833.198	1743
833.293	824
833.387	2066
833.482	1993
833.576	489
833.670	1947
833.765	756
833.859	56
833.954	1699
834.048	245
834.142	1027
834.237	880
834.331	474
834.425	1453
834.519	202
834.613	1029
834.708	756
834.802	971
834.896	134
834.990	1064
835.084	1249
835.178	996
835.272	915
835.366	318
835.460	815
835.554	898
835.648	507
835.742	1111
835.836	941
835.930	355
836.024	568
836.117	1851
836.211	1845
836.305	3909
836.399	6385
836.493	996
836.586	1548
836.680	183
836.774	453
836.867	1605
836.961	773
837.055	-46
837.148	648
837.242	978
837.335	557
837.429	1253
837.522	911
837.616	3043
837.709	7865
837.803	5498
837.896	2415
837.989	2518
838.083	4935
838.176	11404
838.269	9190
838.363	2629
838.456	1112
838.549	3211
838.642	4411
838.735	8966
838.829	3321
838.922	805
839.015	660
839.108	57
839.201	1121
839.294	1411
839.387	1679
839.480	1641
839.573	3759
839.666	5580
839.759	1364
839.852	211
839.945	2012
840.038	649
840.131	-221
840.223	971
840.316	236
840.409	818
840.502	-580
840.594	1857
840.687	-144
840.780	1078
840.873	232
840.965	2756
841.058	3598
841.150	10424
841.243	6096
841.336	1977
841.428	1514
841.521	854
841.613	844
841.706	2001
841.798	685
841.890	260
841.983	6
842.075	1815
842.167	622
842.260	2513
842.352	4395
842.444	5701
842.537	11111
842.629	16473
842.721	2860
842.813	1836
842.905	449
842.997	1764
843.090	2436
843.182	5166
843.274	11180
843.366	26841
843.458	50834
843.550	31038
843.642	4889
843.734	2761
843.826	4667
843.918	3248
844.009	1215
844.101	58
844.193	842
844.285	99
844.377	1034
844.469	2427
844.560	988
844.652	1656
844.744	1015
844.835	2125
844.927	1666
845.019	3258
845.110	2114
845.202	1363
845.293	334
845.385	817
845.476	1154
845.568	1014
845.659	770
845.751	1427
845.842	373
845.934	517
846.025	492
846.116	1309
846.208	1310
846.299	786
846.390	1372
846.482	2507
846.573	2293
846.664	3738
846.755	5438
846.846	4215
846.937	546
847.029	2003
847.120	701
847.211	1355
847.302	1830
847.393	433
847.484	993
847.575	1200
847.666	801
847.757	1605
847.847	831
847.938	1369
848.029	1493
848.120	508
848.211	1117
848.302	186
848.392	935
848.483	1651
848.574	369
848.664	412
848.755	9
848.846	870
848.936	176
849.027	1533
849.118	678
849.208	1683
849.299	1229
849.389	1324
849.480	1314
849.570	1848
849.661	1280
849.751	3244
849.841	1473
849.932	1268
850.022	118
850.112	1329
850.203	184
850.293	253
850.383	969
850.474	230
850.564	301
850.654	1333
850.744	186
850.834	713
850.924	310
851.014	1414
851.104	336
851.194	993
851.284	1438
851.374	2186
851.464	1355
851.554	1979
851.644	1654
851.734	4146
851.824	2427
851.914	1310
852.004	644
852.094	386
852.183	26
852.273	449
852.363	780
852.452	500
852.542	938
852.632	1280
852.721	498
852.811	-84
852.901	795
852.990	628
853.080	1185
853.169	1055
853.259	136
853.348	762
853.438	-562
853.527	903
853.617	1370
853.706	1803
853.795	2306
853.885	5044
853.974	6998
854.063	13897
854.152	19296
854.242	6599
854.331	1680
854.420	778
854.509	1423
854.598	1608
854.687	2036
854.777	2876
854.866	-17
854.955	930
855.044	-43
855.133	-108
855.222	274
855.311	1217
855.400	513
855.488	1331
855.577	2000
855.666	3015
855.755	4779
855.844	8786
855.933	10233
856.021	3641
856.110	1712
856.199	91
856.288	-105
856.376	816
856.465	628
856.554	738
856.642	602
856.731	621
856.819	1417
856.908	1012
856.996	507
857.085	77
857.173	624
857.262	576
857.350	1235
857.438	795
857.527	473
857.615	160
857.703	1314
857.792	854
857.880	1280
857.968	110
858.056	-622
858.145	556
858.233	-102
858.321	438
858.409	731
858.497	299
858.585	372
858.673	1205
858.761	45
858.849	-192
858.937	-14
859.025	38
859.113	122
859.201	133
859.289	1586
859.377	19
859.465	825
859.552	73
859.640	-197
859.728	273
859.816	148
859.903	822
859.991	836
860.079	1230
860.166	48
860.254	648
860.342	-159
860.429	105
860.517	72
860.604	638
860.692	950
860.779	684
860.867	13
860.954	197
861.042	-322
861.129	497
861.216	942
861.304	-347
861.391	970
861.478	569
861.565	68
861.653	498
861.740	211
861.827	1281
861.914	171
862.001	86
862.089	-294
862.176	206
862.263	-391
862.350	-171
862.437	-398
862.524	-549
862.611	547
862.698	582
862.785	669
862.871	819
862.958	-374
863.045	688
863.132	147
863.219	255
863.306	-519
863.392	767
863.479	181
863.566	904
863.652	-180
863.739	279
863.826	-109
863.912	233
863.999	-449
864.086	-169
864.172	145
864.259	-343
864.345	-412
864.432	36
864.518	-376
864.604	746
864.691	-402
864.777	206
864.863	716
864.950	121
865.036	-426
865.122	279
865.209	533
865.295	342
865.381	6
865.467	521
865.553	925
865.639	218
865.726	499
865.812	2235
865.898	4234
865.984	6144
866.070	11518
866.156	10596
866.242	2345
866.328	-121
866.414	53
866.499	300
866.585	98
866.671	776
866.757	666
866.843	875
866.928	774
867.014	83
867.100	1102
867.186	1056
867.271	973
867.357	3848
867.442	4011
867.528	1652
867.614	-494
867.699	-28
867.785	870
867.870	765
867.956	541
868.041	1600
868.127	1731
868.212	2201
868.297	533
868.383	837
868.468	1995
868.553	3627
868.639	4158
868.724	9319
868.809	7378
868.894	1647
868.979	507
869.065	1404
869.150	-60
869.235	202
869.320	341
869.405	35
869.490	-820
869.575	-217
869.660	368
869.745	543
869.830	-653
869.915	-88
870.000	20
870.085	422
870.169	-225
870.254	-166
870.339	-236
870.424	-374
870.509	-571
870.593	430
870.678	319
870.763	161
870.847	328
870.932	-48
871.016	513
871.101	-487
871.186	-195
871.270	291
871.355	154
871.439	-180
871.523	319
871.608	213
871.692	-266
871.777	206
871.861	405
871.945	-401
872.030	265
872.114	590
872.198	-510
872.282	-455
872.367	-159
872.451	-362
872.535	-103
872.619	8
872.703	-1224
872.787	133
872.871	-118
872.955	-913
873.039	-415
873.123	106
873.207	117
873.291	719
873.375	590
873.459	-327
873.543	-508
873.627	-375
873.711	-788
873.794	185
873.878	-199
873.962	-207
874.045	-465
874.129	-378
874.137	-381
874.213	-416
874.245	15
874.296	720
874.352	10
874.380	-341
874.460	13
874.464	27
874.547	-139
874.568	-219
874.631	-428
874.676	-312
874.714	-235
874.784	-65
874.798	-21
874.881	98
874.892	92
874.965	29
874.999	-30
875.048	-121
875.107	361
875.131	558
875.215	-171
875.215	-170
875.298	469
875.323	169
875.381	-481
875.430	-13
875.465	319
875.538	355
875.548	349
875.631	25
875.646	-47
875.714	-342
875.753	-16
875.798	359
875.861	-110
875.881	-280
875.964	238
875.968	225
876.047	117
876.076	174
876.130	247
876.183	-102
876.213	-257
876.291	622
876.296	669
876.379	313
876.398	220
876.462	33
876.506	219
876.545	335
876.613	296
876.628	299
876.711	25
876.721	81
876.794	602
876.828	472
876.877	171
876.935	30
876.960	-15
877.043	-230
877.043	-229
877.125	109
877.150	231
877.208	456
877.258	436
877.291	487
877.365	122
877.374	63
877.456	349
877.472	297
877.539	62
877.579	73
877.622	108
877.687	-410
877.704	-557
877.787	422
877.794	380
877.869	-145
877.901	-50
877.952	256
878.008	272
878.034	236
878.115	50
878.117	50
878.199	-147
878.222	113
878.282	603
878.329	286
878.364	109
878.437	248
878.447	271
878.529	124
878.544	143
878.611	129
878.651	-71
878.694	-195
878.758	567
878.776	744
878.858	-89
878.865	-67
878.941	448
878.972	251
879.023	-358
879.078	-428
879.105	-324
879.185	20
879.187	25
879.269	191
879.292	167
879.351	-53
879.399	-89
879.433	123
879.506	159
879.516	101
879.598	90
879.613	105
879.680	193
879.720	176
879.762	280
879.827	-392
879.844	-580
879.926	-58
879.933	2
880.007	547
880.040	450
880.089	442
880.147	1185
880.171	1427
880.253	2982
880.254	2992
880.335	4214
880.360	4658
880.417	6181
880.467	9108
880.499	11278
880.574	14305
880.580	14236
880.662	4913
880.680	3847
880.744	1289
880.787	683
880.825	459
880.893	368
880.907	350
880.989	-3
881.000	-22
881.070	-14
881.106	76
881.152	211
881.213	136
881.233	23
881.315	418
881.319	392
881.396	320
881.426	337
881.478	142
881.532	-43
881.559	6
881.639	-197
881.641	-205
881.722	183
881.745	144
881.803	204
881.852	242
881.885	42
881.958	-271
881.966	-251
882.047	684
882.064	587
882.129	373
882.171	1132
882.210	1949
882.277	2512
882.291	2425
882.372	808
882.383	666
882.454	-67
882.489	-265
882.535	-188
882.596	50
882.616	127
882.697	-91
882.702	-53
882.778	394
882.808	401
882.859	424
882.914	328
882.940	502
883.020	1116
883.021	1112
883.102	-150
883.127	-258
883.183	124
883.233	-158
883.264	-364
883.339	373
883.345	428
883.426	-201
883.445	-195
883.507	14
883.551	-104
883.587	-118
883.657	470
883.668	493
883.749	146
883.763	132
883.830	30
883.869	-257
883.910	-246
883.975	147
883.991	132
884.072	191
884.081	130
884.152	139
884.187	243
884.233	130
884.292	213
884.314	280
884.394	-36
884.398	-22
884.475	474
884.504	493
884.555	361
884.610	187
884.636	-46
884.716	-464
884.716	-457
884.797	544
884.821	789
884.877	412
884.927	121
884.958	59
885.033	-217
885.038	-215
885.118	-17
885.139	29
885.199	-25
885.244	42
885.279	281
885.350	335
885.359	292
885.439	103
885.456	56
885.520	118
885.561	231
885.600	275
885.667	286
885.680	287
885.760	307
885.773	294
885.840	391
885.878	445
885.920	406
885.984	215
886.000	161
886.080	290
886.089	268
886.160	-95
886.195	-294
886.240	-265
886.300	-147
886.320	-49
886.400	637
886.406	661
886.480	592
886.511	542
886.560	722
886.616	1033
886.640	954
886.720	681
886.722	666
886.800	39
886.827	-3
886.879	130
886.932	-34
886.959	266
887.038	1272
887.039	1265
887.119	371
887.143	114
887.198	527
887.248	748
887.278	578
887.354	244
887.358	235
887.437	-41
887.459	-90
887.517	502
887.564	959
887.596	679
887.669	-47
887.676	-14
887.755	452
887.774	539
887.835	194
887.880	41
887.914	366
887.985	939
887.994	879
888.073	228
888.090	109
888.153	-46
888.195	-213
888.232	-3
888.300	542
888.311	520
888.391	196
888.405	152
888.470	-47
888.510	-178
888.549	278
888.615	1037
888.628	953
888.708	431
888.720	349
888.787	348
888.825	330
888.866	406
888.930	556
888.945	535
889.024	379
889.035	363
889.103	502
889.140	558
889.182	551
889.245	571
889.261	580
889.340	579
889.349	582
889.419	533
889.454	501
889.498	381
889.559	233
889.577	346
889.656	844
889.664	895
889.735	669
889.768	561
889.814	338
889.873	48
889.978	539
890.083	-250
890.187	527
890.292	462
890.397	523
890.501	1025
890.606	951
890.710	936
890.815	116
890.919	33
891.024	31
891.128	1433
891.233	530
891.337	883
891.442	738
891.546	740
891.650	309
891.755	732
891.859	983
891.963	-102
892.068	-233
892.172	1165
892.276	-113
892.380	846
892.484	200
892.589	9
892.693	242
892.797	446
892.901	310
893.005	339
893.109	-130
893.213	732
893.317	760
893.421	1117
893.525	220
893.629	-20
893.733	444
893.837	228
893.941	511
894.045	620
894.148	580
894.252	293
894.356	152
894.460	-286
894.564	-164
894.667	739
894.771	174
894.875	416
894.978	79
895.082	-56
895.186	730
895.289	391
895.393	-207
895.496	360
895.600	118
895.703	-783
895.807	-59
895.910	160
896.014	644
896.117	266
896.221	626
896.324	778
896.427	-199
896.531	90
896.634	127
896.737	642
896.840	-126
896.944	-233
897.047	-285
897.150	138
897.253	-171
897.356	1348
897.460	627
897.563	256
897.666	-534
897.769	302
897.872	-472
897.975	-82
898.078	-792
898.181	-136
898.284	-208
898.387	343
898.490	821
898.593	698
898.695	-134
898.798	664
898.901	664
899.004	659
899.107	-173
899.209	576
899.312	250
899.415	360
899.518	13
899.620	-83
899.723	212
899.826	-11
899.928	1799
900.031	309
900.133	-201
900.236	-514
900.338	67
900.441	-76
900.543	261
900.646	571
900.748	-460
900.851	848
900.953	-434
901.055	819
901.158	-13
901.260	1079
901.362	340
901.465	328
901.567	88
901.669	133
901.771	-140
901.873	-293
901.976	815
902.078	866
902.180	147
902.282	101
902.384	543
902.486	475
902.588	467
902.690	1025
902.792	510
902.894	178
902.996	651
903.098	-449
903.200	200
903.302	127
903.404	-88
903.505	-431
903.607	510
903.709	255
903.811	-348
903.913	-19
904.014	-295
904.116	-77
904.218	411
904.319	330
904.421	567
904.523	116
904.624	262
904.726	-38
904.827	147
904.929	-850
905.030	120
905.132	607
905.233	-631
905.335	-427
905.436	159
905.537	222
905.639	642
905.740	363
905.841	30
905.943	69
906.044	214
906.145	285
906.247	-565
906.348	-7
906.449	55
906.550	269
906.651	-1
906.752	-689
906.854	-615
906.955	419
907.056	238
907.157	512
907.258	-723
907.359	802
907.460	122
907.561	-133
907.662	625
907.762	369
907.863	-80
907.964	-82
908.065	-487
908.166	-161
908.267	114
908.367	23
908.468	-15
908.569	63
908.670	559
908.770	868
908.871	583
908.971	704
909.072	895
909.173	38
909.273	-472
909.374	-277
909.474	-137
909.575	204
909.675	57
909.776	294
909.876	-344
909.977	-63
910.077	446
910.177	-191
910.278	391
910.378	-139
910.478	-59
910.579	2
910.679	-373
910.779	317
910.879	253
910.980	1243
911.080	-185
911.180	-527
911.280	28
911.380	-355
911.480	-303
911.580	336
911.680	-954
911.780	260
911.880	621
911.980	325
912.080	53
912.180	572
912.280	-55
912.380	671
912.480	-537
912.580	-291
912.679	49
912.779	597
912.879	729
912.979	-280
913.078	-444
913.178	-456
913.278	-733
913.377	-96
913.477	700
913.577	-150
913.676	325
913.776	-12
913.875	-288
913.975	325
914.074	-182
914.174	-447
914.273	-1176
914.373	163
914.472	-139
914.572	-438
914.671	-6
914.770	-424
914.870	-499
914.969	-292
915.068	-365
915.167	299
915.267	-310
915.366	111
915.465	-214
915.564	-544
915.663	79
915.763	181
915.862	-60
915.961	260
916.060	-37
916.159	-58
916.258	-611
916.357	-633
916.456	-156
916.555	563
916.654	-513
916.752	516
916.851	22
916.950	681
917.049	-228
917.148	-832
917.247	-140
917.345	-390
917.444	43
917.543	408
917.642	-422
917.740	-892
917.839	-423
917.937	411
918.036	-767
918.135	-351
918.233	-621
918.332	-714
918.430	-652
918.529	-346
918.627	-309
918.726	-332
918.824	-353
918.923	-390
919.021	-564
919.119	-50
919.218	-689
919.316	96
919.414	-508
919.512	-76
919.611	150
919.709	-152
919.807	-191
919.905	489
920.003	-504
920.102	-435
920.200	-504
920.298	-388
920.396	-801
920.494	-523
920.592	-670
920.690	-471
920.788	-614
920.886	-180
920.984	6
921.082	-367
921.180	-251
921.277	-547
921.375	8
921.473	-76
921.571	-253
921.669	15
921.766	-1027
921.864	454
921.962	764
922.060	135
922.157	313
922.255	-702
922.352	-802
922.450	310
922.548	-971
922.645	-293
922.743	-507
922.840	-190
922.938	-344
923.035	-124
923.133	238
923.230	-849
923.327	-118
923.425	79
923.522	16
923.619	49
923.717	-87
923.814	-451
923.911	-148
924.008	-143
924.106	-1506
924.203	78
924.300	-604
924.397	-810
924.494	198
924.591	463
924.688	-518
924.786	93
924.883	-312
924.979	-379
925.077	92
925.173	61
925.270	-221
925.367	-599
925.464	-453
925.561	663
925.658	362
925.755	-139
925.852	121
925.948	145
926.045	-102
926.142	-574
926.239	-424
926.335	-170
926.432	-112
926.529	-986
926.625	-163
926.722	-53
926.818	-585
926.915	-1205
927.011	-426
927.108	-97
927.204	-642
927.301	123
927.397	133
927.494	-569
927.590	-659
927.687	-510
927.783	-452
927.879	-362
927.976	-889
928.072	-5
928.168	-630
928.264	321
928.361	-444
928.457	442
928.553	-533
928.649	-904
928.745	184
928.841	-87
928.937	-760
929.033	-26
929.129	-374
929.225	-778
929.321	14
929.417	103
929.513	-387
929.609	-569
929.705	-553
929.801	-659
929.897	-1444
929.993	-497
930.089	-350
930.184	-527
930.280	-371
930.376	-26
930.471	-1040
930.567	-282
930.663	51
930.758	-708
930.854	-437
930.950	-580
931.045	-933
931.141	84
931.236	-410
931.332	-370
931.427	-907
931.523	-297
931.618	-404
931.714	-631
931.809	-153
931.905	-482
932.000	-626
932.095	-918
932.191	-502
932.286	-527
932.381	-269
932.476	-638
932.572	-224
932.667	-463
932.762	-1140
932.857	-264
932.952	-786
933.047	-235
933.142	-1200
933.237	-153
933.332	-637
933.427	-517
933.522	-596
933.617	-419
933.712	-669
933.807	-238
933.902	-59
933.997	-102
934.092	-1048
934.187	-901
934.282	-653
934.376	-769
934.471	-1148
934.566	-992
934.661	84
934.755	-548
934.850	-239
934.945	-712
935.039	-906
935.134	187
935.228	-363
935.323	-521
935.417	-491
935.512	-167
935.606	-866
935.701	-660
935.795	-173
935.890	-374
935.984	5
936.079	-503
936.173	-431
936.267	-672
936.362	-928
936.456	-199
936.550	-806
936.644	-55
936.738	-32
936.833	-308
936.927	968
937.021	2102
937.115	-539
937.209	-1254
937.303	814
937.397	-89
937.491	-693
937.585	122
937.679	-290
937.773	675
937.867	-1035
937.961	-886
938.055	-690
938.149	-362
938.243	-384
938.337	-239
938.430	-736
938.524	-486
938.618	-815
938.712	153
938.805	-990
938.899	-904
938.993	58
939.086	-252
939.180	-1406
939.274	-952
939.367	-19
939.461	-866
939.554	-558
939.648	-326
939.741	-1438
939.835	-322
939.928	-444
940.022	-534
940.115	-970
940.208	417
940.302	-351
940.395	-559
940.488	-921
940.582	510
940.675	-963
940.768	-507
940.861	-607
940.954	-473
941.048	-422
941.141	-494
941.234	-897
941.327	-76
941.420	200
941.513	106
941.606	-357
941.699	-67
941.792	-787
941.885	-214
941.978	13
942.071	-914
942.164	-531
942.257	-55
942.349	108
942.442	489
942.535	-493
942.628	-161
942.721	893
942.813	-114
942.906	836
942.999	-522
943.091	-312
943.184	773
943.277	283
943.369	-244
943.462	-939
943.554	-441
943.647	-1146
943.739	-329
943.832	-680
943.924	-819
944.017	-227
944.109	-1271
944.201	-454
944.294	-436
944.386	171
944.478	-990
944.571	-449
944.663	-5
944.755	27
944.847	-199
944.940	206
945.032	-859
945.124	-721
945.216	797
945.308	-602
945.400	398
945.492	7
945.584	94
945.676	-889
945.768	-206
945.860	-262
945.952	-1253
946.044	1
946.136	-85
946.228	-542
946.320	-607
946.412	73
946.503	-240
946.595	392
946.687	52
946.779	180
946.870	-114
946.962	-682
947.054	-708
947.145	341
947.237	-775
947.329	-238
947.420	-593
947.512	-847
947.603	-22
947.695	54
947.786	-1477
947.878	-213
947.969	-602
948.061	-890
948.152	-581
948.243	-122
948.335	-540
948.426	-497
948.517	-70
948.609	-190
948.700	-835
948.791	-307
948.882	-40
948.973	-1535
949.065	-444
949.156	238
949.247	-939
949.338	-335
949.429	-996
949.520	-35
949.611	-504
949.702	-176
949.793	-408
949.884	-382
949.975	-268
950.066	-292
950.157	-450
950.247	-431
950.338	-204
950.429	-501
950.520	244
950.611	-319
950.701	-178
950.792	-468
950.883	-282
950.973	-807
951.064	-115
951.155	-481
951.245	36
951.336	-390
951.427	-1574
951.517	-163
951.608	-47
951.698	-1359
951.788	365
951.879	-729
951.969	-82
952.060	-457
952.150	-870
952.240	-734
952.331	-916
952.421	1162
952.511	11
952.602	-508
952.692	-369
952.782	-593
952.872	-33
952.962	-146
953.052	-435
953.143	-1200
953.233	-27
953.323	52
953.413	-1035
953.503	98
953.593	-53
953.683	-112
953.773	-1376
953.863	1
953.953	-851
954.042	231
954.132	-305
954.222	-653
954.312	-859
954.402	-183
954.492	-373
954.581	1927
954.671	417
954.761	-1253
954.850	25
954.940	-404
955.030	-898
955.119	-92
955.209	-499
955.298	-1202
955.388	-349
955.477	506
955.567	-631
955.656	-432
955.746	-294
955.835	-501
955.925	-837
956.014	-978
956.103	-724
956.193	-683
956.282	-148
956.371	-811
956.461	-782
956.550	-1105
956.639	-10
956.728	-263
956.817	-498
956.906	-864
956.995	323
957.085	-544
957.174	-85
957.263	-991
957.352	-451
957.441	-310
957.530	-59
957.619	-204
957.708	-786
957.796	5
957.885	161
957.974	-687
958.063	-123
958.152	-1079
958.241	714
958.329	196
958.418	-149
958.507	-1074
958.596	867
958.684	-1110
958.773	303
958.861	179
958.950	554
959.039	381
959.127	151
959.216	309
959.304	-235
959.393	-56
959.481	514
959.570	326
959.658	356
959.746	-131
959.835	1765
959.923	3470
960.011	844
960.100	871
960.188	-301
960.276	-468
960.365	288
960.453	437
960.541	-803
960.629	-218
960.717	147
960.805	-521
960.893	-142
960.981	-563
961.069	514
961.158	-700
961.245	-86
961.333	-222
961.421	-831
961.509	-374
961.597	-318
961.685	-690
961.773	131
961.861	-711
961.949	-191
962.036	-1603
962.124	-119
962.212	-1141
962.299	-1005
962.387	-607
962.475	-521
962.562	-873
962.650	-722
962.738	-65
962.825	-594
962.913	-51
963.000	-717
963.088	-719
963.175	-279
963.263	-217
963.350	-587
963.438	97
963.525	-454
963.612	2156
963.700	5795
963.787	18350
963.874	7465
963.962	65
964.049	-182
964.136	-185
964.223	-514
964.310	-347
964.398	-280
964.485	-1019
964.572	-121
964.659	2371
964.746	1795
964.833	-678
964.920	-1642
965.007	-1116
965.094	-886
965.181	-1097
965.268	-294
965.355	-1151
965.441	-503
965.528	-1480
965.615	-120
965.702	-723
965.789	-1615
965.875	-821
965.962	-708
966.049	-1825
966.136	-55
966.222	-1092
966.309	-275
966.395	-638
966.482	-406
966.569	-968
966.655	-1014
966.742	-1168
966.828	-251
966.915	-956
967.001	-1320
967.087	-1236
967.174	-1074
967.260	-168
967.347	1068
967.433	4357
967.519	12117
967.605	3017
967.692	-467
967.778	-1248
967.864	-1455
967.950	-887
968.036	-1556
968.123	-1337
968.209	-1266
968.295	-2082
968.381	54
968.467	-526
968.553	-2790
968.639	-267
968.725	-1371
968.811	433
968.897	732
968.983	-360
969.069	-1798
969.154	-843
969.240	-464
969.326	-2176
969.412	-2123
969.497	-1868
969.583	-1282
969.669	-492
969.755	-894
969.840	-1455
969.926	-1306
970.012	-1635
970.097	-173
970.183	-1441
970.268	-555
970.354	581
970.439	1702
970.525	7664
970.610	1361
970.696	-222
970.781	-1705
970.866	-1664
970.952	-1365
971.037	-2042
971.122	-520
971.208	-913
971.293	-874
971.378	-1629
971.463	-742
971.549	-800
971.634	-206
971.719	-810
971.804	-1236
971.889	678
971.974	-1822
972.059	-1898
972.144	-1178
972.229	-1059
972.314	-2057
972.399	-1322
972.484	-1062
972.569	-569
972.654	-583
972.739	2308
972.824	2299
972.908	-640
972.993	-1114
973.078	-2127
973.163	-1458
973.247	-576
973.332	-1921
973.417	-469
973.501	-1983
973.586	-1051
973.671	-1428
973.755	-1683
973.840	-1606
973.924	-591
974.009	-980
974.093	-1888
974.178	31
974.262	1081
974.346	1113
974.431	77
974.515	-1225
974.600	-1335
974.684	-330
974.768	-1764
974.852	-1086
974.937	-1049
975.021	-602
975.105	-1279
975.189	-864
975.273	-1150
975.358	-2165
975.442	-1509
975.526	-1079
975.610	-1971
975.694	-1813
975.778	102
975.862	-1569
975.946	-2805
976.030	-220
976.114	-1942
976.198	-909
976.281	-1759
976.365	-1176
976.449	-1873
976.533	-967
976.617	-2364
976.700	-969
976.784	-678
976.868	-1024
976.951	-170
977.035	-419
977.119	-877
977.202	-1436
977.286	-1074
977.369	-1863
977.453	-679
977.536	-1490
977.620	-1786
977.703	-410
977.787	-2051
977.870	-954
977.953	-794
978.037	-1828
978.120	246
978.203	-854
978.287	3069
978.370	316
978.453	-1691
978.536	-1630
978.620	190
978.703	1404
978.786	-740
978.869	-2437
978.952	-2482
979.035	-372
979.118	-886
979.201	-2066
979.284	-1548
979.367	-2052
979.450	-982
979.533	-1653
979.616	-1300
979.699	-1812
979.782	-2059
979.865	-1531
979.948	-1387
980.030	-1638
980.113	-2512
980.196	-2404
980.279	-798
980.361	-1763
980.444	-2369
980.526	-1359
980.609	-1799
980.692	-1897
980.774	-865
980.857	-2214
980.939	-1040
981.022	-1186
981.104	-2313
981.187	-1160
981.269	-1257
981.352	-623
981.434	-1971
981.516	-1896
981.599	-807
981.681	-1729
981.763	-792
981.846	-2061
981.928	-1730
982.010	-1191
982.092	-2071
982.174	-1473
982.256	-1886
982.339	-1311
982.421	-2453
982.503	-1760
982.585	-2207
982.667	-1479
982.749	-1724
982.831	-957
982.913	-2292
982.995	-48
983.077	-2330
983.158	-92
983.240	-2380
983.322	-1169
983.404	-1215
983.486	-2246
983.568	-2633
983.649	-1966
983.731	-830
983.813	-2135
983.894	-2045
983.976	-1919
984.058	-1742
984.139	-760
984.221	-3005
984.302	-624
984.384	-1447
984.465	-2432
984.547	-1381
984.628	-1694
984.710	-1364
984.791	-2314
984.872	-1420
984.954	-2084
985.035	-2167
985.116	-2065
985.198	-2150
985.279	-44
985.360	-1893
985.441	-2827
985.522	-441
985.604	-1782
985.685	-2798
985.766	-1481
985.847	-426
985.928	-2161
986.009	-1929
986.090	-1544
986.171	-458
986.252	-1773
986.333	-1874
986.414	-1477
986.495	-1413
986.576	-1627
986.656	-1557
986.737	-898
986.818	-1460
986.899	-2017
986.980	-2417
987.060	-1269
987.141	-1977
987.222	-1337
987.302	-1146
987.383	-921
987.464	-2726
987.544	-340
987.625	-1549
987.705	-325
987.786	-1157
987.866	-2226
987.947	-1332
988.027	-1308
988.108	-2717
988.188	-1567
988.268	-1225
988.349	-1697
988.429	-1589
988.509	-1341
988.589	-2038
988.670	-2752
988.750	-732
988.830	-1077
988.910	-1391
988.990	-1602
989.070	-1644
989.151	-1926
989.231	-2492
989.311	-1412
989.391	-1491
989.471	-1673
989.551	-1890
989.631	-1725
989.711	-198
989.791	-1869
989.870	-2340
989.950	-1371
990.030	-1884
990.110	-1406
990.190	-1927
990.269	-1636
990.349	-968
990.429	-1051
990.509	-1486
990.588	-2657
990.668	-1554
990.747	-1642
990.827	-1584
990.907	-1061
990.986	-1953
991.066	-726
991.145	-1056
991.225	-1381
991.304	-2077
991.383	-1442
991.463	-1454
991.542	-833
991.622	-1846
991.701	-1845
991.780	-1934
991.859	-2002
991.939	-1477
992.018	-1384
992.097	-1373
992.176	-1356
992.256	-1505
992.335	-2287
992.414	-386
992.493	-2246
992.572	-1796
992.651	-299
992.730	-1942
992.809	-1110
992.888	-2534
992.967	-1704
993.046	-1068
993.125	-2688
993.203	-1132
993.282	-1186
993.361	-2345
993.440	-1371
993.519	-2200
993.597	-1230
993.676	-2683
993.755	-616
993.834	-1142
993.912	-3175
993.991	-930
994.069	-1714
994.148	-1821
994.226	-1767
994.305	-1652
994.384	-1859
994.462	-579
994.540	-2170
994.619	-2088
994.697	-1152
994.776	-1989
994.854	-1308
994.932	-1565
995.011	-1320
995.089	-1568
995.167	-1517
995.245	-1029
995.324	-2405
995.402	-1167
995.480	-2366
995.558	-1395
995.636	-3056
995.714	-2003
995.792	-824
995.870	-2449
995.948	-1595
996.026	-1519
996.104	-1928
996.182	-365
996.260	-2220
996.338	-1062
996.416	-2609
996.494	-1812
996.572	-236
996.649	-2092
996.727	-2551
996.805	-591
996.883	-1682
996.960	-1616
997.038	-1161
997.116	-1263
997.193	-2463
997.271	-695
997.348	-2045
997.426	-1286
997.504	-2237
997.581	-1506
997.658	-864
997.736	-2172
997.813	-2295
997.891	-299
997.968	-2305
998.046	-1303
998.123	-1786
998.200	-1089
998.277	-2050
998.355	-900
998.432	-1243
998.509	-1630
998.586	-494
998.663	-1496
998.741	-1364
998.818	-1700
998.895	-2143
998.972	-1389
999.049	-2134
999.126	-1440
999.203	-850
999.280	-1232
999.357	-1688
999.434	-2342
999.511	-1639
999.587	-1036
999.664	-1261
999.741	-1419
999.818	-1095
999.895	-1619
999.971	-2027
1000.048	-2201
1000.125	-622
1000.202	-1845
1000.278	-1708
1000.355	-1738
1000.431	-1618
1000.508	-2065
1000.584	-1115
1000.661	-1500
1000.738	-2036
1000.814	-2252
1000.890	-1283
1000.967	-1795
1001.043	-1194
1001.120	-2413
1001.196	-1641
1001.272	-2171
1001.349	-1857
1001.425	-919
1001.501	-1399
1001.577	-1439
1001.654	-1302
1001.730	-1823
1001.806	-955
1001.882	-1907
1001.958	-1017
1002.034	-1293
1002.110	-925
1002.186	-2808
1002.262	-1369
1002.338	-2431
1002.414	-149
1002.490	-1228
1002.566	-1463
1002.642	-1828
1002.718	-716
1002.794	-2145
1002.870	-2016
1002.945	-1938
1003.021	-1698
1003.097	-1783
1003.173	-1308
1003.248	-2013
1003.324	-1295
1003.400	-1401
1003.475	-2174
1003.551	-1230
1003.626	-1744
1003.702	-2487
1003.777	-1676
1003.853	-2074
1003.928	-2408
1004.004	-1211
1004.079	-743
1004.155	-1386
1004.230	-2242
1004.305	-1196
1004.381	-2318
1004.456	-1217
1004.531	-1918
1004.607	-1785
1004.682	-2359
1004.757	-1818
1004.832	-2120
1004.907	-1604
1004.982	-958
1005.057	-1172
1005.133	-2345
1005.208	-1556
1005.283	-1609
1005.358	-718
1005.433	-2420
1005.508	-735
1005.583	-2323
1005.657	-2080
1005.732	-1033
1005.807	-1975
1005.882	-2395
1005.957	-1436
1006.032	-1418
1006.106	-1650
1006.181	-1864
1006.256	-986
1006.331	-2680
1006.405	-2445
1006.480	-1837
1006.554	-1760
1006.629	-1532
1006.704	-2033
1006.778	-1281
1006.853	-701
1006.927	-2293
1007.002	-1704
1007.076	-1542
1007.150	-1511
1007.225	-1797
1007.299	-1737
1007.373	-2862
1007.448	-1667
1007.522	-1517
1007.596	-1712
1007.671	-1853
1007.745	-1344
1007.819	-2766
1007.893	-2409
1007.967	-1086
1008.041	-3118
1008.115	-1131
1008.190	-1547
1008.264	-1887
1008.338	-2469
1008.412	-1855
1008.486	-1676
1008.560	-1312
1008.633	-2358
1008.707	-1375
1008.781	-1815
1008.855	-2293
1008.929	-1692
1009.003	-2267
1009.076	-1265
1009.150	-1448
1009.224	-1807
1009.298	-1536
1009.371	-3346
1009.445	-1442
1009.519	-1847
1009.592	-2632
1009.666	-1207
1009.739	-1598
1009.813	-2094
1009.886	-1265
1009.960	-2565
1010.033	-1292
1010.107	-996
1010.180	-2455
1010.253	-1970
1010.327	-1661
1010.400	-1082
1010.473	-1475
1010.547	-784
1010.620	-1792
1010.693	-1597
1010.766	-2538
1010.840	-1663
1010.913	-1305
1010.986	-1679
1011.059	-1423
1011.132	-1562
1011.205	-1362
1011.278	-1680
1011.351	-1879
1011.424	-2363
1011.497	-2212
1011.570	-1660
1011.643	-1810
1011.716	-1938
1011.789	-2196
1011.862	-2053
1011.934	-1377
1012.007	-2260
1012.080	-1293
1012.153	-1698
1012.225	-1306
1012.298	-2471
1012.371	-2614
1012.443	-1686
1012.516	-2764
1012.588	-1804
1012.661	-2102
1012.733	-3094
1012.806	-935
1012.879	-2510
1012.951	-2339
1013.023	-1948
1013.096	-1610
1013.168	-2022
1013.241	-1527
1013.313	-2441
1013.385	-2276
1013.458	-1896
1013.530	-1073
1013.602	-1941
1013.674	-1462
1013.746	-1392
1013.819	-2126
1013.891	-1899
1013.963	-2278
1014.035	-2597
1014.107	-1719
1014.179	-1863
1014.251	-1972
1014.323	-1513
1014.395	-1625
1014.467	-1759
1014.539	-1977
1014.611	-2200
1014.683	-2176
1014.754	-1580
1014.826	-2317
1014.898	-2134
1014.970	-3404
1015.042	-1062
1015.113	-1274
1015.185	-1750
1015.257	-3060
1015.328	-1490
1015.400	-1893
1015.471	-2106
1015.543	-2576
1015.615	-2768
1015.686	-1952
1015.757	-2382
1015.829	-1837
1015.901	-2283
1015.972	-2106
1016.043	-1874
1016.115	-1876
1016.186	-1220
1016.257	-2399
1016.328	-1864
1016.400	-1643
1016.471	-1999
1016.542	-1508
1016.613	-1764
1016.685	-1268
1016.756	-1933
1016.827	-2024
1016.898	-2501
1016.969	-1403
1017.040	-1863
1017.111	-2932
1017.182	-1840
1017.253	-1380
1017.324	-2219
1017.395	-2181
1017.466	-1778
1017.537	-1648
1017.608	-2346
1017.678	-2301
1017.749	-1697
1017.820	-1995
1017.891	-2385
1017.961	-2491
1018.032	-1405
1018.103	-1428
1018.173	-2350
1018.244	-2779
1018.315	-2144
1018.385	-1618
1018.456	-2140
1018.526	-1854
1018.597	-2348
1018.667	-1421
1018.738	-1974
1018.808	-1029
1018.878	-1494
1018.949	-1963
1019.019	-1919
1019.089	-1955
1019.160	-1540
1019.230	-2937
1019.300	-2168
1019.371	-2743
1019.441	-1537
1019.511	-2000
1019.581	-2223
1019.651	-2375
1019.721	-1570
1019.791	-2172
1019.861	-1827
1019.931	-3072
1020.001	-1328
1020.071	-1774
1020.141	-1929
1020.211	-2099
1020.281	-2405
1020.351	-2765
1020.421	-1312
1020.491	-2053
1020.560	-2671
1020.630	-1619
1020.700	-2578
1020.770	-1954
1020.839	-2028
1020.909	-1829
1020.979	-2145
1021.048	-2064
1021.118	-3039
1021.187	-2100
1021.257	-2477
1021.326	-2015
1021.396	-2221
1021.465	-2454
1021.535	-3229
1021.604	-2019
1021.674	-2006
1021.743	-2275
1021.812	-1950
1021.882	-2318
1021.951	-1920
1022.020	-1478
1022.089	-1535
1022.159	-2799
1022.228	-3352
1022.297	-2647
1022.366	-1070
1022.435	-3053
1022.504	-2224
1022.573	-3300
1022.642	-2429
1022.711	-2809
1022.781	-1526
1022.849	-1924
1022.918	-2994
1022.987	-2261
1023.056	-3339
1023.125	-1936
1023.194	-2125
1023.263	-1998
1023.331	-1134
1023.400	-1466
1023.469	-2514
1023.538	-1570
1023.606	-1772
1023.675	-1919
1023.744	-1811
1023.812	-2084
1023.881	-2638
1023.949	-2119
1024.018	-1912
1024.086	-2534
1024.155	-2375
1024.223	-2793
1024.292	-2273
1024.360	-2297
1024.429	-2346
1024.497	-2153
1024.565	-1610
1024.634	-2058
1024.702	-1975
1024.770	-2431
1024.838	-2723
1024.907	-1889
1024.975	-1787
1025.043	-2096
1025.111	-2469
1025.179	-1733
1025.247	-2858
1025.315	-2704
1025.383	-1986
1025.451	-1880
1025.519	-2519
1025.587	-3092
1025.655	-1439
1025.723	-2793
1025.791	-2548
1025.859	-1722
1025.927	-2320
1025.995	-2044
1026.062	-2370
1026.130	-1740
1026.198	-2249
1026.266	-2361
1026.333	-2540
1026.401	-2526
1026.469	-2911
1026.536	-2039
1026.604	-3351
1026.671	-2356
1026.739	-2107
1026.806	-2151
1026.874	-2778
1026.941	-2264
1027.009	-2640
1027.076	-1652
1027.144	-1910
1027.211	-2810
1027.278	-2533
1027.345	-1989
1027.413	-2198
1027.480	-2870
1027.547	-2405
1027.614	-1994
1027.682	-2112
1027.749	-2373
1027.816	-1839
1027.883	-2295
1027.950	-1981
1028.017	-2595
1028.084	-1784
1028.151	-3173
1028.218	-2393
1028.285	-2702
1028.352	-3027
1028.419	-3079
1028.486	-1990
1028.553	-1700
1028.619	-2491
1028.686	-2056
1028.753	-2456
1028.820	-2923
1028.886	-2269
1028.953	-1801
1029.020	-1579
1029.086	-1984
1029.153	-3327
1029.220	-1750
1029.286	-2232
1029.353	-1971
1029.419	-2327
1029.486	-2118
1029.552	-2722
1029.619	-2872
1029.685	-2455
1029.751	-2348
1029.818	-1409
1029.884	-2654
1029.951	-1091
1030.017	-2581
1030.083	-2251
1030.149	-2466
1030.216	-2821
1030.282	-2804
1030.348	-2624
1030.414	-3159
1030.480	-2153
1030.546	-1919
1030.612	-1825
1030.678	-2679
1030.744	-3517
1030.810	-2094
1030.876	-1796
1030.942	-2178
1031.008	-2044
1031.074	-2993
1031.140	-2656
1031.206	-2090
1031.272	-2640
1031.337	-2921
1031.403	-2586
1031.469	-2274
1031.534	-2476
1031.600	-2297
1031.666	-2645
1031.731	-2499
1031.797	-2233
1031.863	-2520
1031.928	-2342
1031.994	-2413
1032.059	-2641
1032.125	-1408
1032.190	-2167
1032.256	-2741
1032.321	-2330
1032.386	-2237
1032.452	-2087
1032.517	-2093
1032.582	-2635
1032.647	-1746
1032.713	-2976
1032.778	-2075
1032.843	-2743
1032.908	-2930
1032.974	-1728
1033.039	-2605
1033.104	-2152
1033.169	-3181
1033.234	-2077
1033.299	-1185
1033.364	-2174
1033.429	-2190
1033.494	-2410
1033.559	-2172
1033.624	-3001
1033.688	-2420
1033.753	-2899
1033.818	-2518
1033.883	-2647
1033.948	-1955
1034.013	-2429
1034.077	-2139
1034.142	-2700
1034.207	-2334
1034.271	-2306
1034.336	-1562
1034.400	-1538
1034.465	-2576
1034.530	-1251
1034.594	-2153
1034.658	-1503
1034.723	-3187
1034.787	-2738
1034.852	-2373
1034.916	-2164
1034.981	-2276
1035.045	-2526
1035.109	-2298
1035.173	-1314
1035.238	-2905
1035.302	-2364
1035.366	-2116
1035.430	-2252
1035.495	-2424
1035.559	-2422
1035.623	-2063
1035.687	-2414
1035.751	-2178
1035.815	-2247
1035.879	-2518
1035.943	-2424
1036.007	-3325
1036.071	-2012
1036.135	-2244
1036.198	-1962
1036.262	-1962
1036.326	-2444
1036.390	-1914
1036.454	-1852
1036.517	-1930
1036.581	-2419
1036.645	-1025
1036.709	-803
1036.772	-1544
1036.836	-2568
1036.900	-1376
1036.963	-2643
1037.026	-1883
1037.090	-2161
1037.154	-2738
1037.217	-1741
1037.280	-2162
1037.344	-2377
1037.407	-2058
1037.471	-2303
1037.534	-2562
1037.597	-2174
1037.661	-2738
1037.724	-2321
1037.787	-2562
1037.850	-2521
1037.913	-2208
1037.977	-2038
1038.040	-2397
1038.103	-2444
1038.166	-1601
1038.229	-2244
1038.292	-2543
1038.355	-2058
1038.418	-2069
1038.481	-2178
1038.544	-2971
1038.607	-1959
1038.670	-2513
1038.732	-3130
1038.795	-3247
1038.858	-2370
1038.921	-1289
1038.984	-2099
1039.046	-2129
1039.109	-1814
1039.172	-2658
1039.234	-2272
1039.297	-2103
1039.360	-2287
1039.422	-2944
1039.485	-2051
1039.547	-1993
1039.610	-2556
1039.672	-2857
1039.734	-2502
1039.797	-2657
1039.859	-2430
1039.922	-2419
1039.984	-1895
1040.046	-3547
1040.109	-2402
1040.171	-3038
1040.233	-2544
1040.295	-2017
1040.358	-2831
1040.420	-2753
1040.482	-2746
1040.544	-2757
1040.606	-2386
1040.668	-3047
1040.730	-2632
1040.792	-2712
1040.854	-3043
1040.916	-2286
1040.978	-2353
1041.040	-1760
1041.102	-2610
1041.164	-2895
1041.225	-2496
1041.287	-2651
1041.349	-2467
1041.411	-2331
1041.472	-2502
1041.534	-2459
1041.596	-2366
1041.657	-1867
1041.719	-2566
1041.781	-2731
1041.842	-2124
1041.904	-2958
1041.965	-2876
1042.027	-2859
1042.088	-2114
1042.150	-2360
1042.211	-2393
1042.272	-2054
1042.334	-2436
1042.395	-2445
1042.456	-1993
1042.518	-2258
1042.579	-2327
1042.640	-2537
1042.701	-2153
1042.763	-2691
1042.824	-2638
1042.885	-2398
1042.946	-2848
1043.007	-2351
1043.068	-2306
1043.129	-1953
1043.190	-1876
1043.251	-1644
1043.312	-2008
1043.373	-2501
1043.434	-3095
1043.495	-2396
1043.556	-1277
1043.616	-3114
1043.677	-1705
1043.738	-2388
1043.799	-2910
1043.859	-2810
1043.920	-2325
1043.981	-2220
1044.041	-2166
1044.102	-2310
1044.162	-2476
1044.223	-2833
1044.284	-2054
1044.344	-1943
1044.405	-2693
1044.465	-2811
1044.525	-2362
1044.586	-1668
1044.646	-2572
1044.707	-1531
1044.767	-2224
1044.827	-2410
1044.887	-2177
1044.948	-2325
1045.008	-1622
1045.068	-2375
1045.128	-1809
1045.188	-1915
1045.249	-1716
1045.309	-2622
1045.369	-1697
1045.429	-2337
1045.489	-2313
1045.549	-2173
1045.609	-1817
1045.669	-2719
1045.729	-2223
1045.789	-2331
1045.848	-2510
1045.908	-1689
1045.968	-1928
1046.028	-1587
1046.088	-1623
1046.147	-1374
1046.207	-2071
1046.267	-1309
1046.326	-1697
1046.386	-2042
1046.446	-1409
1046.505	-1851
1046.565	-1802
1046.624	-1565
1046.684	-1335
1046.743	-877
1046.803	-1000
1046.862	-806
1046.922	0
