'Start Wavelength	183.907
'End Wavelength	1046.922
'Gate Delay	5.000
'Gate Width (ms)	1.050
'Laser Output Level	0.000
'X Position	0.000
'Y Position	0.000
'Z Position	0.000
'Grid Point Number	1.000
'Shot Number	100.000
183.907	766.000
183.977	79.000
184.047	197
184.116	634
184.186	473
184.256	73
184.325	-530
184.395	-443
184.465	1054
184.534	-317
184.604	-183
184.674	198
184.743	259
184.813	625
184.883	81
184.952	576
185.022	763
185.092	766
185.161	1209
185.231	556
185.301	1006
185.370	35
185.440	178
185.509	-687
185.579	86
185.649	618
185.718	619
185.788	630
185.857	1
185.927	-272
185.996	206
186.066	333
186.136	791
186.205	560
186.275	-5
186.344	338
186.414	384
186.483	133
186.553	741
186.622	1729
186.692	782
186.761	1
186.831	855
186.900	10
186.970	969
187.039	679
187.109	846
187.178	866
187.248	287
187.317	372
187.387	568
187.456	917
187.526	295
187.595	622
187.664	540
187.734	1270
187.803	1159
187.873	699
187.942	1275
188.012	556
188.081	76
188.150	783
188.220	1480
188.289	1164
188.358	-157
188.428	1104
188.497	-475
188.567	560
188.636	603
188.705	407
188.775	263
188.844	-546
188.913	1111
188.983	568
189.052	674
189.121	298
189.191	414
189.260	1041
189.329	308
189.399	625
189.468	654
189.537	-155
189.606	894
189.676	750
189.745	1073
189.814	1530
189.883	467
189.953	360
190.022	1156
190.091	1915
190.161	3022
190.230	966
190.299	208
190.368	745
190.437	109
190.507	897
190.576	765
190.645	681
190.714	77
190.783	357
190.853	1237
190.922	367
190.991	1032
191.060	745
191.129	492
191.198	602
191.268	989
191.337	842
191.406	1654
191.475	557
191.544	503
191.613	402
191.682	117
191.752	914
191.821	728
191.890	71
191.959	1368
192.028	649
192.097	543
192.166	1288
192.235	411
192.304	610
192.373	899
192.442	1018
192.511	722
192.580	976
192.650	918
192.719	568
192.788	951
192.857	296
192.926	-349
192.995	644
193.064	1358
193.133	2416
193.202	2047
193.271	2069
193.340	1581
193.409	2390
193.478	2123
193.547	2487
193.615	3917
193.684	2752
193.753	2183
193.822	2081
193.891	1092
193.960	1317
194.029	341
194.098	1529
194.167	499
194.236	678
194.305	508
194.374	-96
194.443	416
194.512	1231
194.580	1109
194.649	1527
194.718	1796
194.787	985
194.856	754
194.925	1121
194.994	773
195.062	1520
195.131	1314
195.200	1495
195.269	1279
195.338	1226
195.407	1395
195.475	858
195.544	1453
195.613	1729
195.682	1349
195.751	1777
195.819	1578
195.888	1211
195.957	1981
196.026	2381
196.094	1380
196.163	1759
196.232	1642
196.301	1118
196.369	852
196.438	1497
196.507	275
196.576	918
196.644	1090
196.713	866
196.782	814
196.850	1432
196.919	963
196.988	1185
197.056	730
197.125	1358
197.194	1666
197.262	728
197.331	658
197.400	790
197.468	839
197.537	857
197.606	638
197.674	2164
197.743	3482
197.812	1328
197.880	2654
197.949	2315
198.017	2604
198.086	1822
198.155	956
198.223	1395
198.292	3001
198.360	1730
198.429	940
198.497	1113
198.566	1469
198.635	3669
198.703	1362
198.772	1510
198.840	2769
198.909	3724
198.977	1388
199.046	2001
199.114	1109
199.183	461
199.251	2130
199.320	788
199.388	1061
199.457	611
199.525	1317
199.594	1222
199.662	1176
199.731	1179
199.799	1520
199.867	1788
199.936	1114
200.004	1646
200.073	886
200.141	1237
200.210	730
200.278	1027
200.346	1581
200.415	1456
200.483	1673
200.552	780
200.620	362
200.688	1137
200.757	664
200.825	749
200.893	1375
200.962	1583
201.030	1746
201.098	1451
201.167	822
201.235	464
201.303	1047
201.372	1704
201.440	850
201.508	942
201.577	1947
201.645	1563
201.713	961
201.781	1539
201.850	1155
201.918	1218
201.986	1437
202.055	1389
202.123	1359
202.191	578
202.259	1517
202.327	1117
202.396	1481
202.464	881
202.532	1602
202.600	3718
202.669	1604
202.737	2060
202.805	1071
202.873	1334
202.941	1201
203.009	1131
203.078	1358
203.146	1827
203.214	458
203.282	1438
203.350	1343
203.418	1533
203.487	1621
203.555	1134
203.623	1356
203.691	1265
203.759	987
203.827	938
203.895	1496
203.963	966
204.031	834
204.099	675
204.168	734
204.236	2526
204.304	2444
204.372	1590
204.440	928
204.508	1268
204.576	147
204.644	1864
204.712	882
204.780	1384
204.848	1457
204.916	455
204.984	1444
205.052	1893
205.120	2634
205.188	1708
205.256	890
205.324	1824
205.392	1218
205.460	2035
205.528	1759
205.596	1719
205.664	1293
205.732	1038
205.799	3268
205.867	5652
205.935	2227
206.003	1956
206.071	1960
206.139	1708
206.207	1665
206.275	2085
206.343	1342
206.411	1005
206.478	1541
206.546	1672
206.614	1308
206.682	1628
206.750	1906
206.818	1804
206.885	2135
206.953	83
207.021	2212
207.089	1779
207.157	663
207.225	1297
207.292	1348
207.360	1461
207.428	1226
207.496	922
207.563	2275
207.631	1865
207.699	1492
207.767	1777
207.834	513
207.902	1436
207.970	1463
208.038	1458
208.105	1428
208.173	2383
208.241	1485
208.309	2562
208.376	1948
208.444	4299
208.512	1509
208.579	1226
208.647	2347
208.715	2867
208.782	1386
208.850	1256
208.918	2216
208.985	1344
209.053	1643
209.120	2267
209.188	909
209.256	1620
209.323	1291
209.391	2118
209.459	2605
209.526	1369
209.594	1389
209.661	1584
209.729	1486
209.796	2202
209.864	1864
209.932	318
209.999	3156
210.067	2964
210.134	2501
210.202	1982
210.269	3299
210.337	2505
210.404	1776
210.472	2620
210.539	1786
210.607	2179
210.674	3706
210.742	2383
210.809	1525
210.877	2315
210.944	3238
211.012	2592
211.079	3166
211.146	2093
211.214	1884
211.281	2629
211.349	2773
211.416	1844
211.484	2699
211.551	2218
211.618	2462
211.686	2842
211.753	1138
211.821	1848
211.888	2149
211.955	2101
212.023	1934
212.090	1987
212.157	2151
212.225	2309
212.292	4779
212.359	6283
212.427	15114
212.494	8403
212.561	2618
212.629	3367
212.696	3495
212.763	3087
212.831	2161
212.898	3028
212.965	1465
213.032	2007
213.100	2879
213.167	2457
213.234	3023
213.301	3026
213.369	1960
213.436	2533
213.503	2367
213.570	3012
213.638	3221
213.705	2045
213.772	1427
213.839	3588
213.906	3284
213.973	3570
214.041	1854
214.108	2581
214.175	2505
214.242	2705
214.309	2339
214.376	3889
214.444	2235
214.511	3662
214.578	2424
214.645	3150
214.712	2777
214.779	3331
214.846	2880
214.913	3214
214.980	3282
215.048	4404
215.115	4595
215.182	4260
215.249	2538
215.316	3031
215.383	2870
215.450	2483
215.517	2963
215.584	2343
215.651	1700
215.718	2429
215.785	2849
215.852	3232
215.919	3713
215.986	4343
216.053	1842
216.120	1779
216.187	2716
216.254	2315
216.321	2229
216.388	2427
216.455	3050
216.522	2460
216.589	3860
216.656	6228
216.722	5767
216.789	4500
216.856	5305
216.923	4629
216.990	3637
217.057	2571
217.124	4172
217.191	4852
217.258	6105
217.324	6430
217.391	8347
217.458	6050
217.525	4889
217.592	3182
217.659	1898
217.725	4049
217.792	4507
217.859	4563
217.926	2628
217.993	1483
218.059	2918
218.126	1392
218.193	2048
218.260	1608
218.327	1452
218.393	2050
218.460	1278
218.527	1576
218.594	2160
218.660	4859
218.727	5589
218.794	2276
218.860	1868
218.927	2095
218.994	1854
219.061	1789
219.127	2045
219.194	3804
219.261	1494
219.327	1493
219.394	2420
219.461	536
219.527	1710
219.594	3630
219.661	2320
219.727	1454
219.794	1923
219.860	1316
219.927	1951
219.994	3938
220.060	6379
220.127	4611
220.193	2488
220.260	2514
220.326	4964
220.393	7242
220.460	11505
220.526	6959
220.593	3973
220.659	4278
220.726	4364
220.792	9448
220.859	9323
220.925	12474
220.992	19184
221.058	16568
221.125	14405
221.191	9958
221.258	4128
221.324	3726
221.391	3624
221.457	3279
221.524	1884
221.590	3620
221.657	9811
221.723	7619
221.789	7250
221.856	6838
221.922	3906
221.989	2251
222.055	1164
222.121	1781
222.188	4350
222.254	2585
222.321	2328
222.387	1154
222.453	2601
222.520	2167
222.586	1896
222.652	2066
222.719	2837
222.785	2495
222.851	1157
222.918	1689
222.984	2853
223.050	3968
223.116	1919
223.183	2567
223.249	869
223.315	1025
223.382	2332
223.448	1617
223.514	377
223.580	1909
223.647	1100
223.713	1005
223.779	1428
223.845	1362
223.911	2507
223.978	1239
224.044	795
224.110	863
224.176	1775
224.242	869
224.309	-78
224.375	1208
224.441	635
224.507	567
224.573	361
224.639	1382
224.705	284
224.772	722
224.838	652
224.904	2070
224.970	1033
225.036	907
225.102	1900
225.168	2016
225.234	2472
225.300	1162
225.366	1733
225.432	1321
225.499	1112
225.565	2026
225.631	1301
225.697	1630
225.763	2340
225.829	2569
225.895	2991
225.961	5591
226.027	3346
226.093	4193
226.159	5370
226.225	6649
226.291	15575
226.357	27930
226.423	16048
226.489	8465
226.554	5409
226.620	4967
226.686	5762
226.752	11370
226.818	14046
226.884	33841
226.950	31667
227.016	12927
227.082	6791
227.148	5298
227.214	6981
227.279	6874
227.345	5778
227.411	4523
227.477	3232
227.543	6298
227.609	7920
227.674	7167
227.740	3945
227.806	3542
227.872	2092
227.938	3156
228.003	7936
228.069	3325
228.135	1564
228.201	1189
228.267	2344
228.332	2377
228.398	3170
228.464	3529
228.530	1449
228.595	1977
228.661	1775
228.727	4443
228.792	4877
228.858	2452
228.924	1019
228.990	2718
229.055	1718
229.121	3157
229.187	2004
229.252	2890
229.318	1784
229.384	1783
229.449	3923
229.515	451
229.581	861
229.646	2743
229.712	2602
229.777	6461
229.843	7254
229.909	5113
229.974	6903
230.040	6051
230.105	2533
230.171	2920
230.236	4909
230.302	8711
230.368	5385
230.433	2801
230.499	3767
230.564	7692
230.630	3277
230.695	1278
230.761	2506
230.826	141
230.892	4662
230.957	2709
231.023	991
231.088	922
231.154	1550
231.219	2424
231.284	2932
231.350	5083
231.415	1125
231.481	2479
231.546	753
231.612	1271
231.677	1093
231.742	-584
231.808	2724
231.873	834
231.939	-269
232.004	4735
232.069	4937
232.135	1893
232.200	1483
232.265	1812
232.331	999
232.396	-149
232.461	1377
232.527	1962
232.592	108
232.657	1655
232.723	4697
232.788	3095
232.853	2108
232.918	1131
232.984	367
233.049	536
233.114	2695
233.179	3913
233.245	5658
233.310	7737
233.375	1192
233.440	2689
233.506	1718
233.571	392
233.636	1387
233.701	1331
233.766	5047
233.832	6846
233.897	2460
233.962	2635
234.027	4584
234.092	2988
234.157	2502
234.222	3489
234.288	4120
234.353	14072
234.418	14099
234.483	7818
234.548	5669
234.613	3898
234.678	3475
234.743	3586
234.808	14676
234.873	9511
234.938	4324
235.004	3744
235.069	2897
235.134	2689
235.199	1754
235.264	1647
235.329	906
235.394	2994
235.459	4793
235.524	2922
235.589	2416
235.654	1763
235.719	871
235.784	2998
235.849	3217
235.913	8030
235.978	9774
236.043	10159
236.108	3822
236.173	3951
236.238	4901
236.303	2212
236.368	2419
236.433	4872
236.498	10855
236.563	5771
236.627	10329
236.692	39778
236.757	35130
236.822	14094
236.887	11085
236.952	7854
237.017	5007
237.081	6650
237.146	8166
237.211	18572
237.276	37987
237.341	69609
237.405	33769
237.470	14020
237.535	10493
237.600	6465
237.664	5551
237.729	3804
237.794	5781
237.859	13229
237.923	9612
237.988	5324
238.053	7402
238.118	8039
238.182	18640
238.247	19785
238.312	8216
238.376	7590
238.441	5816
238.506	6435
238.570	2779
238.635	3695
238.700	1962
238.764	2533
238.829	7658
238.893	11459
238.958	5667
239.023	5868
239.087	2746
239.152	4069
239.216	2151
239.281	1786
239.346	2579
239.410	2613
239.475	3414
239.539	17223
239.604	15509
239.668	5181
239.733	2890
239.797	4266
239.862	10364
239.926	15887
239.991	7210
240.055	3459
240.120	2416
240.184	3838
240.249	1812
240.313	1833
240.378	2951
240.442	10426
240.507	18504
240.571	7598
240.635	8424
240.700	12036
240.764	3545
240.829	3734
240.893	1541
240.957	3490
241.022	9955
241.086	19827
241.151	9932
241.215	3653
241.279	5912
241.344	10597
241.408	5465
241.472	2743
241.537	4548
241.601	3504
241.665	1778
241.730	2035
241.794	4294
241.858	4000
241.922	2650
241.987	3151
242.051	2005
242.115	2594
242.179	3800
242.244	2016
242.308	3138
242.372	4003
242.436	6402
242.501	3210
242.565	2229
242.629	2304
242.693	3358
242.757	1459
242.822	3873
242.886	3453
242.950	3922
243.014	2973
243.078	4244
243.142	4419
243.206	3147
243.271	3908
243.335	3758
243.399	5329
243.463	16190
243.527	50754
243.591	17196
243.655	8301
243.719	4283
243.783	6187
243.847	6791
243.911	9860
243.975	13719
244.040	11346
244.104	6967
244.168	3710
244.232	6688
244.296	9905
244.360	8580
244.424	6202
244.488	4388
244.552	4453
244.615	1715
244.679	2986
244.743	4152
244.807	5700
244.871	3577
244.935	3124
244.999	2052
245.063	3559
245.127	5026
245.191	6527
245.255	5823
245.319	5427
245.383	4433
245.446	5205
245.510	2660
245.574	4523
245.638	4131
245.702	3890
245.766	12475
245.829	7180
245.893	4690
245.957	3063
246.021	5214
246.085	4604
246.149	5760
246.212	15593
246.276	24794
246.340	10762
246.404	7287
246.467	6874
246.531	12653
246.595	7887
246.659	6989
246.722	6143
246.786	7923
246.850	8932
246.913	12126
246.977	4448
247.041	4711
247.104	6052
247.168	5807
247.232	13951
247.295	31121
247.359	16282
247.423	7217
247.486	13582
247.550	9006
247.614	6927
247.677	8025
247.741	6020
247.804	3725
247.868	5720
247.932	12086
247.995	29080
248.059	11732
248.122	4900
248.186	6859
248.249	11943
248.313	45502
248.376	51423
248.440	32136
248.503	11498
248.567	10014
248.630	14050
248.694	19338
248.757	23009
248.821	50669
248.884	30323
248.948	25285
249.011	38446
249.075	57706
249.138	52398
249.202	19993
249.265	11411
249.328	15121
249.392	10457
249.455	8711
249.519	6692
249.582	8212
249.645	14821
249.709	11085
249.772	5320
249.835	5806
249.899	7832
249.962	7014
250.025	5996
250.089	16731
250.152	26643
250.215	12368
250.279	7863
250.342	8343
250.405	8725
250.468	7560
250.532	9169
250.595	13978
250.658	42421
250.721	77556
250.785	29076
250.848	17141
250.911	8821
250.974	8860
251.038	11892
251.101	28568
251.164	13496
251.227	15126
251.290	12611
251.354	15293
251.417	60602
251.480	65064
251.543	39093
251.606	113597
251.669	90900
251.732	34521
251.795	39243
251.859	36874
251.922	75062
251.985	47592
252.048	21271
252.111	15558
252.174	12942
252.237	23975
252.300	58895
252.363	54525
252.426	106397
252.489	50540
252.552	34622
252.615	22585
252.678	19271
252.741	40640
252.804	48242
252.867	99782
252.930	70420
252.993	47018
253.056	26878
253.119	24941
253.182	17732
253.245	19141
253.308	17027
253.371	16892
253.434	19249
253.497	20377
253.559	31486
253.622	25913
253.685	25489
253.748	27654
253.811	13186
253.874	15100
253.937	15659
254.000	10953
254.062	19367
254.125	31399
254.188	33287
254.251	30434
254.314	13430
254.376	21583
254.439	25234
254.502	21304
254.565	19770
254.628	37834
254.690	22834
254.753	13655
254.816	10872
254.878	12375
254.941	20948
255.004	24401
255.067	10152
255.129	10845
255.192	6295
255.255	5248
255.317	7297
255.380	5930
255.443	3871
255.505	3953
255.568	4888
255.631	6576
255.693	6489
255.756	4875
255.819	5402
255.881	3317
255.944	4203
256.006	3885
256.069	4470
256.132	3166
256.194	5814
256.257	17130
256.319	13847
256.382	11948
256.444	7075
256.507	5422
256.569	4288
256.632	4623
256.694	8844
256.757	20482
256.819	63675
256.882	25495
256.944	10460
257.007	8990
257.069	10454
257.132	9634
257.194	6434
257.257	5869
257.319	5582
257.381	5628
257.444	15441
257.506	69904
257.569	86321
257.631	51259
257.693	26503
257.756	11655
257.818	11019
257.880	6376
257.943	6156
258.005	4545
258.067	5916
258.130	6351
258.192	7376
258.254	15338
258.317	9604
258.379	6760
258.441	17095
258.503	18397
258.566	19118
258.628	29166
258.690	7132
258.753	6755
258.815	13218
258.877	6993
258.939	4625
259.001	4661
259.064	5347
259.126	5485
259.188	8976
259.250	5832
259.312	8569
259.375	29387
259.437	19156
259.499	6668
259.561	6315
259.623	7037
259.685	8521
259.747	6773
259.809	17119
259.872	36458
259.934	51820
259.996	64582
260.058	20463
260.120	7332
260.182	6002
260.244	4980
260.306	4404
260.368	4516
260.430	5282
260.492	17767
260.554	38047
260.616	23924
260.678	29312
260.740	43586
260.802	12366
260.864	8860
260.926	5664
260.988	7496
261.050	7753
261.112	26265
261.174	59478
261.236	36288
261.298	11233
261.359	17016
261.421	27161
261.483	7553
261.545	6730
261.607	4228
261.669	4868
261.731	10749
261.793	28162
261.854	12820
261.916	8703
261.978	11477
262.040	13843
262.102	6798
262.164	11136
262.225	10857
262.287	5222
262.349	14987
262.411	13053
262.472	6904
262.534	9982
262.596	25688
262.658	9276
262.719	5089
262.781	7601
262.843	24615
262.904	11800
262.966	6454
263.028	9049
263.090	35298
263.151	102820
263.213	42705
263.275	27628
263.336	10274
263.398	6751
263.459	5192
263.521	4969
263.583	14221
263.644	11804
263.706	4498
263.767	2966
263.829	4017
263.891	3121
263.952	2590
264.014	3974
264.075	12418
264.137	40655
264.198	14252
264.260	5301
264.321	5634
264.383	15590
264.444	52993
264.506	17924
264.567	8799
264.629	18092
264.690	48671
264.752	15908
264.813	7765
264.875	5541
264.936	7153
264.998	6190
265.059	3074
265.120	3675
265.182	7562
265.243	32847
265.305	35813
265.366	9077
265.427	6208
265.489	4921
265.550	3759
265.611	4803
265.673	6220
265.734	6066
265.795	4419
265.857	2978
265.918	3420
265.979	9483
266.040	51956
266.102	46891
266.163	14066
266.224	16328
266.286	8328
266.347	4183
266.408	4716
266.469	4436
266.530	3941
266.592	3661
266.653	8575
266.714	16275
266.775	4688
266.836	3242
266.898	2733
266.959	11733
267.020	9442
267.081	4093
267.142	2763
267.203	2884
267.264	1639
267.326	3656
267.387	3083
267.448	3257
267.509	2744
267.570	2536
267.631	2612
267.692	2281
267.753	3237
267.814	2716
267.875	7211
267.936	22273
267.997	17016
268.058	12762
268.119	5336
268.180	4565
268.241	3867
268.302	2935
268.363	2913
268.424	3264
268.485	5087
268.546	3874
268.607	2331
268.668	2347
268.729	1892
268.790	4510
268.851	5493
268.912	15857
268.972	17612
269.033	8017
269.094	3498
269.155	3372
269.216	2177
269.277	3544
269.338	2925
269.398	2823
269.459	3790
269.520	6223
269.581	8392
269.642	10491
269.702	5711
269.763	4537
269.824	3499
269.885	4993
269.945	9146
270.006	3670
270.067	2011
270.128	2995
270.188	3133
270.249	3475
270.310	2407
270.370	3084
270.431	2836
270.492	2970
270.553	3181
270.613	9658
270.674	20058
270.734	8622
270.795	5273
270.856	6516
270.916	6060
270.977	3671
271.038	5323
271.098	5659
271.159	7641
271.219	8794
271.280	4202
271.340	3867
271.401	5257
271.462	13857
271.522	8628
271.583	5092
271.643	4865
271.704	3907
271.764	6018
271.825	13143
271.885	42526
271.946	62688
272.006	20315
272.066	24083
272.127	48496
272.187	14964
272.248	8617
272.308	8252
272.369	32240
272.429	20285
272.489	15621
272.550	19375
272.610	15068
272.671	12372
272.731	12716
272.791	21555
272.852	10830
272.912	7857
272.972	5269
273.033	4925
273.093	9391
273.153	12656
273.214	9016
273.274	7760
273.334	34471
273.394	58993
273.455	21859
273.515	21217
273.575	51251
273.635	21400
273.696	22345
273.756	46892
273.816	19082
273.876	10751
273.936	21802
273.997	48719
274.057	14070
274.117	8749
274.177	14211
274.237	63659
274.297	60627
274.358	37351
274.418	39383
274.478	32207
274.538	13250
274.598	9705
274.658	33610
274.718	46209
274.778	19608
274.838	9782
274.898	20961
274.958	65639
275.018	51119
275.078	33061
275.138	13805
275.198	7834
275.258	5695
275.318	7251
275.378	14472
275.438	15537
275.498	10525
275.558	24783
275.618	57163
275.678	37306
275.738	23067
275.798	24700
275.858	17714
275.918	6918
275.978	7794
276.038	7263
276.098	5592
276.157	11836
276.217	34157
276.277	16283
276.337	11752
276.397	6596
276.457	7561
276.517	7599
276.576	5133
276.636	3784
276.696	7553
276.756	18476
276.815	15665
276.875	6953
276.935	7421
276.995	7087
277.055	4441
277.114	4267
277.174	7355
277.234	27845
277.293	12615
277.353	6841
277.413	3989
277.472	5238
277.532	5261
277.592	5323
277.651	12947
277.711	25135
277.771	9705
277.830	33499
277.890	28672
277.950	18141
278.009	54195
278.069	21659
278.128	16952
278.188	24916
278.248	12102
278.307	24556
278.367	17347
278.426	6722
278.486	6357
278.545	4162
278.605	4443
278.664	3312
278.724	5101
278.783	15497
278.843	48659
278.902	14340
278.962	7450
279.021	9100
279.081	7477
279.140	7370
279.199	6658
279.259	6576
279.318	6603
279.378	8155
279.437	14902
279.496	64311
279.556	145888
279.615	121502
279.675	30784
279.734	19104
279.793	30578
279.853	59287
279.912	23316
279.971	10765
280.031	10348
280.090	21618
280.149	46280
280.208	27527
280.268	110672
280.327	120431
280.386	29148
280.445	24122
280.505	26049
280.564	14917
280.623	13100
280.682	16111
280.742	25337
280.801	8640
280.860	6406
280.919	7640
280.978	6346
281.037	6618
281.097	5833
281.156	5373
281.215	4507
281.274	6581
281.333	31500
281.392	27792
281.451	5750
281.510	4983
281.569	4719
281.628	4555
281.688	4274
281.747	5640
281.806	7093
281.865	4501
281.924	4133
281.983	3634
282.042	3685
282.101	3408
282.160	3432
282.219	2977
282.278	3965
282.337	16396
282.396	12982
282.454	4333
282.513	6262
282.572	26276
282.631	16510
282.690	5363
282.749	4470
282.808	6929
282.867	7176
282.926	6327
282.985	3380
283.043	2199
283.102	3789
283.161	5371
283.220	17556
283.279	38005
283.338	11055
283.396	5723
283.455	5667
283.514	5842
283.573	9272
283.631	7212
283.690	5284
283.749	4316
283.808	10035
283.866	13432
283.925	3854
283.984	4289
284.043	6261
284.101	7465
284.160	6360
284.219	17461
284.277	9920
284.336	9389
284.395	32865
284.453	30895
284.512	8996
284.570	11086
284.629	10075
284.688	6341
284.746	6281
284.805	6405
284.863	7748
284.922	10911
284.981	10305
285.039	13690
285.098	25102
285.156	69846
285.215	200129
285.273	197714
285.332	78930
285.390	37921
285.449	25990
285.507	16238
285.566	12324
285.624	9977
285.683	7379
285.741	6145
285.799	5864
285.858	7405
285.916	5373
285.975	4403
286.033	4028
286.091	4090
286.150	3410
286.208	5686
286.267	10047
286.325	6352
286.383	9356
286.442	7959
286.500	4248
286.558	3382
286.616	4159
286.675	5742
286.733	5075
286.791	4456
286.850	6714
286.908	9311
286.966	14394
287.024	6747
287.083	3924
287.141	3374
287.199	3555
287.257	6591
287.315	5484
287.374	5115
287.432	14618
287.490	9942
287.548	4906
287.606	5058
287.664	5003
287.723	9506
287.781	18177
287.839	7754
287.897	5487
287.955	6330
288.013	9496
288.071	21717
288.129	76553
288.187	232840
288.245	105831
288.303	31757
288.361	20646
288.419	24384
288.477	19325
288.535	9637
288.593	7035
288.651	6174
288.709	5338
288.767	5432
288.825	4930
288.883	5494
288.941	6952
288.999	4882
289.057	4520
289.115	7409
289.173	7690
289.231	6077
289.289	6307
289.346	5954
289.404	6298
289.462	9188
289.520	9207
289.578	5574
289.636	4027
289.694	3193
289.751	3109
289.809	4139
289.867	3128
289.925	4929
289.983	6760
290.040	3825
290.098	3439
290.156	4542
290.214	5875
290.271	3564
290.329	3995
290.387	2975
290.444	3251
290.502	1971
290.560	3777
290.617	5688
290.675	5062
290.733	4245
290.790	4676
290.848	4258
290.906	5760
290.963	5388
291.021	6430
291.078	5510
291.136	7824
291.194	23478
291.251	56584
291.309	18263
291.366	7969
291.424	6600
291.481	6389
291.539	4915
291.596	5206
291.654	1960
291.711	2916
291.769	3510
291.826	9915
291.884	7649
291.941	4178
291.999	4282
292.056	5197
292.114	5794
292.171	4518
292.228	4402
292.286	5419
292.343	11604
292.401	15743
292.458	11458
292.515	6693
292.573	7783
292.630	7448
292.687	7380
292.745	6937
292.802	12130
292.859	38229
292.917	42009
292.974	23986
293.031	9294
293.089	7650
293.146	6283
293.203	5831
293.260	5955
293.318	9937
293.375	20850
293.432	11571
293.489	5443
293.546	5400
293.604	7936
293.661	18062
293.718	56403
293.775	38466
293.832	17222
293.889	11027
293.947	12863
294.004	10783
294.061	10168
294.118	19002
294.175	43078
294.232	69769
294.289	28579
294.346	12954
294.403	9875
294.460	9514
294.517	9143
294.574	7001
294.631	6873
294.688	8711
294.745	20986
294.802	70661
294.859	99501
294.916	41064
294.973	21869
295.030	16031
295.087	13152
295.144	9107
295.201	8503
295.258	8132
295.315	8341
295.372	22348
295.429	46025
295.486	22796
295.542	17011
295.599	43867
295.656	84946
295.713	53066
295.770	52485
295.827	22767
295.883	13631
295.940	12143
295.997	18055
296.054	18295
296.111	9654
296.167	7519
296.224	6618
296.281	5741
296.338	5842
296.394	6861
296.451	8936
296.508	21873
296.564	49076
296.621	38622
296.678	47901
296.734	77516
296.791	34847
296.848	19163
296.904	17904
296.961	30838
297.018	50478
297.074	47830
297.131	19463
297.187	14011
297.244	17404
297.301	44585
297.357	88791
297.414	33099
297.470	15069
297.527	10992
297.583	9053
297.640	10014
297.696	8849
297.753	7176
297.809	6247
297.866	5311
297.922	5278
297.979	5217
298.035	6739
298.092	10539
298.148	28338
298.204	30646
298.261	15915
298.317	25737
298.374	65523
298.430	38950
298.486	19024
298.543	14245
298.599	11582
298.656	11006
298.712	17300
298.768	35200
298.824	26070
298.881	10346
298.937	7919
298.993	7722
299.050	11011
299.106	10019
299.162	7778
299.218	8071
299.275	6544
299.331	7722
299.387	13649
299.443	45200
299.500	52934
299.556	21746
299.612	11775
299.668	10572
299.724	10367
299.780	11463
299.837	8324
299.893	14131
299.949	39655
300.005	52719
300.061	42450
300.117	79037
300.173	41663
300.229	18461
300.285	19005
300.341	23129
300.397	12210
300.453	8857
300.510	7411
300.566	7825
300.622	9742
300.678	19831
300.734	39738
300.790	40106
300.845	52291
300.901	31893
300.957	40319
301.013	34803
301.069	14856
301.125	11103
301.181	11154
301.237	9064
301.293	6811
301.349	6333
301.405	5594
301.461	6196
301.516	8112
301.572	8403
301.628	15241
301.684	15855
301.740	22974
301.796	33188
301.851	22497
301.907	32139
301.963	36813
302.019	49267
302.074	132136
302.130	133258
302.186	60895
302.242	26769
302.297	19131
302.353	19389
302.409	32395
302.464	30181
302.520	24726
302.576	49892
302.631	63322
302.687	36440
302.743	16901
302.798	11498
302.854	9651
302.910	10236
302.965	13529
303.021	20816
303.076	19608
303.132	21048
303.187	25561
303.243	14929
303.299	10065
303.354	7598
303.410	7582
303.465	7350
303.521	6363
303.576	7575
303.632	9676
303.687	14593
303.743	42379
303.798	41160
303.853	17099
303.909	11347
303.964	10627
304.020	12559
304.075	19751
304.130	18246
304.186	28393
304.241	31898
304.297	25370
304.352	15022
304.358	14564
304.407	10843
304.449	10687
304.463	10639
304.518	11552
304.539	11180
304.573	10571
304.629	11850
304.630	11995
304.684	19290
304.720	29794
304.739	34856
304.794	54838
304.811	47890
304.850	30459
304.902	16585
304.905	15762
304.960	11767
304.992	11828
305.015	11779
305.071	10318
305.083	10002
305.126	8831
305.173	7424
305.181	7244
305.236	6415
305.264	7229
305.292	8112
305.347	10543
305.354	10609
305.402	11090
305.445	11777
305.457	11926
305.512	13492
305.535	14128
305.567	15081
305.622	16581
305.626	17074
305.678	31980
305.716	53944
305.733	60171
305.788	71713
305.807	64369
305.843	53098
305.897	56035
305.898	55985
305.953	57507
305.988	41530
306.008	33323
306.063	22298
306.078	20111
306.118	15519
306.168	11759
306.173	11485
306.228	8761
306.259	8844
306.283	9219
306.338	9343
306.349	9706
306.393	11554
306.440	12800
306.448	13012
306.503	15680
306.530	19024
306.558	31181
306.613	73195
306.620	78934
306.668	98525
306.711	87920
306.723	82297
306.778	56521
306.801	42703
306.833	29440
306.888	16399
306.892	15829
306.943	13238
306.982	12653
306.997	12785
307.052	13939
307.072	14947
307.107	20587
307.162	32815
307.163	33020
307.217	58799
307.253	71272
307.272	71832
307.327	72988
307.343	66089
307.381	50119
307.434	36847
307.436	37885
307.491	76161
307.524	108743
307.546	110500
307.600	84173
307.614	72886
307.655	45189
307.704	25832
307.710	26103
307.765	36472
307.795	46965
307.819	60507
307.874	105417
307.885	107924
307.929	79608
307.975	42403
307.984	41377
308.038	48071
308.065	55007
308.093	99752
308.148	202146
308.156	220953
308.202	320920
308.246	403737
308.257	384515
308.312	208232
308.336	136130
308.366	106375
308.421	67305
308.426	63251
308.475	43151
308.517	29318
308.530	27623
308.585	23943
308.607	22718
308.639	25554
308.694	33389
308.697	33989
308.748	82270
308.787	129130
308.803	125854
308.857	91978
308.877	74083
308.912	58542
308.967	46291
308.967	46061
309.021	53611
309.058	60280
309.076	77393
309.130	135476
309.148	156631
309.185	296403
309.238	513339
309.239	515179
309.293	534451
309.328	507747
309.348	434205
309.402	205561
309.418	144775
309.457	103425
309.508	57706
309.511	56973
309.566	47617
309.598	42790
309.620	47417
309.674	61252
309.688	65046
309.729	61299
309.778	52273
309.783	51374
309.837	39495
309.868	33788
309.892	46164
309.946	78126
309.959	86610
310.001	115674
310.049	145697
310.055	140489
310.109	82420
310.139	48886
310.163	40574
310.218	27658
310.229	25419
310.272	23536
310.319	21476
310.326	21675
310.381	23934
310.409	24745
310.435	24732
310.489	24683
310.499	24734
310.543	27744
310.589	30850
310.598	30985
310.652	31824
310.679	31424
310.706	26764
310.760	16991
310.769	15508
310.814	13067
310.859	11167
310.868	11459
310.923	12942
310.948	13824
310.977	16300
311.031	21214
311.038	21874
311.085	21015
311.128	19529
311.139	19303
311.193	17989
311.218	17415
311.247	16162
311.301	13738
311.308	13413
311.356	15465
311.398	17573
311.410	17138
311.464	14660
311.488	13476
311.518	13149
311.572	12520
311.578	12445
311.626	17787
311.668	22580
311.680	24500
311.734	32831
311.758	36518
311.788	36108
311.842	34923
311.847	34718
311.896	45505
311.937	54935
311.950	53954
312.004	49053
312.027	46596
312.058	36975
312.112	19840
312.117	18107
312.165	17932
312.207	17760
312.297	38041
312.386	28694
312.476	20015
312.566	36575
312.656	19069
312.745	14748
312.835	20006
312.925	22426
313.015	23538
313.104	31165
313.194	13996
313.284	14828
313.374	17350
313.463	16420
313.553	14004
313.643	13860
313.732	11215
313.822	12976
313.912	16255
314.001	18964
314.091	26812
314.180	43389
314.270	26700
314.360	36666
314.449	25559
314.539	16371
314.628	15097
314.718	24188
314.808	37143
314.897	15148
314.987	13908
315.076	18694
315.166	30800
315.255	36073
315.345	27307
315.434	35783
315.524	29368
315.613	32121
315.703	29403
315.792	39595
315.881	114071
315.971	47868
316.060	62796
316.150	135305
316.239	141110
316.328	46527
316.418	15348
316.507	17132
316.597	21263
316.686	22840
316.775	50844
316.865	143162
316.954	25552
317.043	12778
317.133	13986
317.222	13516
317.311	13755
317.400	11590
317.490	18647
317.579	21321
317.668	18252
317.757	27822
317.847	56474
317.936	192880
318.025	78945
318.114	47793
318.203	34868
318.293	45400
318.382	89301
318.471	65013
318.560	97788
318.649	220551
318.738	48006
318.828	29994
318.917	33928
319.006	50195
319.095	139356
319.184	257319
319.273	122407
319.362	52213
319.451	22659
319.540	21933
319.629	42320
319.718	70716
319.807	45241
319.896	77097
319.985	300793
320.074	104604
320.163	41222
320.252	90294
320.341	63278
320.430	49848
320.519	43318
320.608	28663
320.697	26717
320.786	25417
320.875	27729
320.964	33364
321.053	46900
321.142	66608
321.230	74768
321.319	65976
321.408	147104
321.497	74721
321.586	62963
321.675	123096
321.764	106788
321.852	67044
321.941	83981
322.030	55866
322.119	71415
322.207	156210
322.296	187320
322.385	90461
322.474	70134
322.562	160196
322.651	105969
322.740	73446
322.829	127952
322.917	193070
323.006	80051
323.095	55646
323.183	59030
323.272	78443
323.361	117584
323.449	382580
323.538	138741
323.626	298635
323.715	186063
323.804	79598
323.892	283877
323.981	151613
324.069	52635
324.158	165978
324.246	157290
324.335	39891
324.424	48640
324.512	19009
324.601	22620
324.689	27553
324.778	49704
324.866	130310
324.954	34481
325.043	28729
325.131	78258
325.220	156727
325.308	180106
325.397	115949
325.485	64464
325.574	18638
325.662	16539
325.750	17042
325.839	16624
325.927	15481
326.015	28101
326.104	63084
326.192	95269
326.280	19823
326.369	19792
326.457	21064
326.545	37265
326.634	17372
326.722	12367
326.810	13259
326.898	12344
326.987	17578
327.075	42894
327.163	67991
327.251	33037
327.340	16888
327.428	18831
327.516	14945
327.604	19000
327.692	25049
327.781	36424
327.869	73499
327.957	35113
328.045	22335
328.133	15136
328.221	34467
328.309	19442
328.397	13532
328.485	17754
328.574	23759
328.662	79035
328.750	75861
328.838	40172
328.926	20458
329.014	15065
329.102	24134
329.190	80267
329.278	43033
329.366	10960
329.454	13215
329.542	14142
329.630	11911
329.718	13379
329.806	16886
329.893	19084
329.981	19734
330.069	16019
330.157	43623
330.245	127307
330.333	65879
330.421	18239
330.509	25090
330.597	89841
330.684	73188
330.772	38559
330.860	73352
330.948	93990
331.036	34545
331.123	12645
331.211	16917
331.299	29620
331.387	69569
331.475	126593
331.562	40000
331.650	16984
331.738	27001
331.825	49359
331.913	17002
332.001	14753
332.089	30588
332.176	82351
332.264	184575
332.352	136076
332.439	34286
332.527	25726
332.614	24442
332.702	43111
332.790	26246
332.877	75122
332.965	170401
333.052	31405
333.140	29172
333.228	65251
333.315	20699
333.403	28900
333.490	114735
333.578	80115
333.665	35601
333.753	24053
333.840	17537
333.928	30658
334.015	119030
334.103	131299
334.190	351869
334.278	93036
334.365	50142
334.452	29637
334.540	20065
334.627	37737
334.715	57817
334.802	100534
334.889	502049
334.977	434633
335.064	58383
335.151	26260
335.239	30167
335.326	43610
335.413	150513
335.501	205952
335.588	31772
335.675	21970
335.762	35045
335.850	69931
335.937	40062
336.024	108920
336.111	474860
336.199	192138
336.286	37552
336.373	18698
336.460	13806
336.547	16013
336.635	24679
336.722	19405
336.809	21107
336.896	33256
336.983	103182
337.070	252601
337.157	332735
337.245	314771
337.332	220964
337.419	34347
337.506	21127
337.593	29631
337.680	90740
337.767	282829
337.854	79435
337.941	103445
338.028	149090
338.115	46212
338.202	54217
338.289	95082
338.376	327467
338.463	102975
338.550	163418
338.637	167799
338.724	81651
338.811	136843
338.898	26964
338.984	16982
339.071	27240
339.158	20539
339.245	52964
339.332	40086
339.419	92035
339.506	86625
339.593	12668
339.679	12562
339.766	10881
339.853	20409
339.940	34736
340.027	14809
340.113	13067
340.200	20470
340.287	18634
340.374	19340
340.460	29725
340.547	14674
340.634	23687
340.720	85683
340.807	48160
340.894	10615
340.980	15220
341.067	11797
341.154	13971
341.240	18590
341.327	40435
341.414	11393
341.500	8189
341.587	14197
341.674	12979
341.760	27807
341.847	32019
341.933	11460
342.020	6519
342.106	7288
342.193	11964
342.279	21935
342.366	15370
342.452	28230
342.539	17004
342.625	36314
342.712	89205
342.798	35988
342.885	17040
342.971	7521
343.058	6523
343.144	8104
343.230	7435
343.317	7338
343.403	6408
343.490	6708
343.576	8115
343.662	8484
343.749	10813
343.835	15303
343.921	31333
344.008	143643
344.094	332671
344.180	77104
344.267	34211
344.353	113284
344.439	156026
344.525	51698
344.612	15418
344.698	13832
344.784	11515
344.870	7706
344.957	9148
345.043	17482
345.129	12437
345.215	27141
345.301	14565
345.387	9741
345.474	8810
345.560	11632
345.646	23364
345.732	14824
345.818	11684
345.904	11242
345.990	16503
346.076	25877
346.162	63171
346.249	18067
346.335	9017
346.421	12829
346.507	40523
346.593	142428
346.679	36964
346.765	16564
346.851	11623
346.937	11693
347.023	9116
347.108	11781
347.194	10176
347.280	10166
347.366	14984
347.452	41337
347.538	170024
347.624	125422
347.710	133221
347.796	30292
347.882	14774
347.967	14019
348.053	30618
348.139	17408
348.225	10189
348.311	9732
348.397	7801
348.482	13187
348.568	16510
348.654	7903
348.740	11720
348.825	13693
348.911	21615
348.997	81796
349.083	174870
349.168	38068
349.254	10890
349.340	10023
349.425	8615
349.511	15336
349.597	20175
349.682	29766
349.768	95115
349.854	47150
349.939	16399
350.025	11566
350.110	7775
350.196	6896
350.282	5130
350.367	10892
350.453	41947
350.538	40760
350.624	18454
350.709	18645
350.795	10323
350.880	9492
350.966	13506
351.051	35913
351.137	30247
351.222	10967
351.308	28084
351.393	80942
351.479	18535
351.564	6301
351.649	10404
351.735	8637
351.820	6370
351.906	8499
351.991	19266
352.076	57877
352.162	78893
352.247	17365
352.332	11316
352.418	17902
352.503	25431
352.588	117096
352.673	93560
352.759	22254
352.844	12388
352.929	13234
353.014	18882
353.100	14907
353.185	31960
353.270	38483
353.355	32619
353.441	12513
353.526	23415
353.611	34604
353.696	34154
353.781	20353
353.866	10384
353.952	11019
354.037	28287
354.122	65195
354.207	59630
354.292	23065
354.377	10277
354.462	9318
354.547	14793
354.632	16225
354.717	32041
354.802	39644
354.887	15653
354.972	8589
355.057	6475
355.142	6775
355.227	10931
355.312	19495
355.397	42697
355.482	103219
355.567	50724
355.652	37964
355.737	38677
355.822	113861
355.907	88543
355.991	15477
356.076	8796
356.161	10346
356.246	8243
356.331	10320
356.416	26251
356.501	173950
356.585	179212
356.670	25959
356.755	18271
356.840	29236
356.924	131806
357.009	436448
357.094	157953
357.179	37966
357.263	26377
357.348	30540
357.433	31332
357.517	22497
357.602	18257
357.687	14647
357.771	20882
357.856	31728
357.941	25378
358.025	85595
358.110	384563
358.195	174484
358.279	29466
358.364	22967
358.448	78123
358.533	208004
358.617	148022
358.702	150800
358.787	54236
358.871	31629
358.956	25832
359.040	9440
359.125	7494
359.209	8887
359.294	15011
359.378	22470
359.462	24162
359.547	22605
359.631	23282
359.716	9461
359.800	14716
359.885	29993
359.969	16194
360.053	15540
360.138	13408
360.222	18524
360.306	32052
360.391	25212
360.475	30988
360.559	66155
360.644	84635
360.728	65801
360.812	96205
360.896	268142
360.981	135970
361.065	85385
361.149	23084
361.233	20406
361.318	16914
361.402	22370
361.486	15067
361.570	11419
361.654	15970
361.739	41455
361.823	168130
361.907	254256
361.991	45424
362.075	31312
362.159	64913
362.243	43936
362.327	42749
362.411	49941
362.495	37198
362.580	18567
362.664	12687
362.748	11997
362.832	15008
362.916	24842
363.000	72277
363.084	216132
363.168	311762
363.252	75618
363.336	34816
363.420	48367
363.503	209651
363.587	239828
363.671	40350
363.755	26138
363.839	36618
363.923	16940
364.007	37466
364.091	51884
364.175	86316
364.258	319504
364.342	187823
364.426	155836
364.510	89389
364.594	54517
364.677	57344
364.761	228571
364.845	155613
364.929	55642
365.013	44927
365.096	38905
365.180	49563
365.264	83229
365.347	327492
365.431	149354
365.515	44500
365.598	16945
365.682	15051
365.766	50474
365.849	61843
365.933	26114
366.017	39019
366.100	34360
366.184	15134
366.267	17000
366.351	9914
366.435	9304
366.518	8141
366.602	7790
366.685	10223
366.769	13556
366.852	37841
366.936	58700
367.019	26056
367.103	33736
367.186	70080
367.270	18121
367.353	7872
367.436	9671
367.520	8982
367.603	13328
367.687	20943
367.770	39927
367.853	21480
367.937	69293
368.020	115751
368.104	28459
368.187	28981
368.270	39984
368.353	37578
368.437	86418
368.520	264616
368.603	119537
368.687	88678
368.770	155583
368.853	40817
368.936	51381
369.020	61639
369.103	18565
369.186	13749
369.269	14347
369.352	28428
369.436	47542
369.519	28759
369.602	13463
369.685	15577
369.768	18168
369.851	16111
369.934	10971
370.018	17567
370.101	34993
370.184	30642
370.267	27429
370.350	40979
370.433	63233
370.516	130385
370.599	168911
370.682	57905
370.765	86257
370.848	100049
370.931	197048
371.014	97445
371.097	24990
371.180	11908
371.263	7261
371.346	6003
371.429	8071
371.511	10660
371.594	23579
371.677	46017
371.760	66456
371.843	32578
371.926	126476
372.009	302228
372.091	94468
372.174	80479
372.257	182743
372.340	70243
372.423	87982
372.505	115889
372.588	41538
372.671	55821
372.754	182499
372.836	89567
372.919	106047
373.002	216409
373.085	54766
373.167	31676
373.250	76119
373.332	169648
373.415	206336
373.498	429363
373.580	156050
373.663	217126
373.746	283879
373.828	66247
373.911	37350
373.993	46524
374.076	209555
374.159	206790
374.241	68841
374.324	162185
374.406	101237
374.489	121932
374.571	359976
374.654	143492
374.736	73740
374.819	233875
374.901	307105
374.983	313900
375.066	57474
375.148	30455
375.231	156026
375.313	307593
375.395	119836
375.478	25237
375.560	16608
375.643	21976
375.725	76018
375.807	304340
375.890	325634
375.972	220077
376.054	105545
376.136	226625
376.219	81783
376.301	82908
376.383	248417
376.465	90482
376.548	64112
376.630	71462
376.712	210605
376.794	92185
376.877	14051
376.959	10455
377.041	15470
377.123	56528
377.205	66577
377.287	12526
377.369	11677
377.452	17819
377.534	10955
377.616	10885
377.698	10462
377.780	6970
377.862	10739
377.944	10918
378.026	6970
378.108	7808
378.190	9394
378.272	8442
378.354	7054
378.436	7708
378.518	29237
378.600	111892
378.682	69115
378.764	108731
378.846	85771
378.928	37216
379.010	37666
379.091	19357
379.173	10111
379.255	8885
379.337	16049
379.419	50185
379.501	153177
379.583	63918
379.664	20230
379.746	40485
379.828	106102
379.910	139922
379.991	118412
380.073	23649
380.155	18152
380.237	11527
380.318	10051
380.400	11313
380.482	27193
380.564	42731
380.645	46929
380.727	41310
380.809	20979
380.890	15747
380.972	13879
381.053	11616
381.135	15266
381.217	36863
381.298	111694
381.380	56678
381.461	49657
381.543	206121
381.624	246538
381.706	46949
381.787	33381
381.869	30300
381.951	79728
382.032	322472
382.113	199148
382.195	53108
382.276	34512
382.358	71641
382.439	185720
382.521	191318
382.602	303740
382.684	131073
382.765	263711
382.846	226682
382.928	204469
383.009	108473
383.090	76018
383.172	290913
383.253	440692
383.334	193604
383.416	283684
383.497	129985
383.578	46566
383.659	83221
383.741	260873
383.822	678226
383.903	339376
383.984	169919
384.066	341462
384.147	208284
384.228	42388
384.309	33445
384.390	24003
384.471	18724
384.553	23361
384.634	38823
384.715	33836
384.796	17305
384.877	21186
384.958	92067
385.039	111247
385.120	37075
385.201	21113
385.282	40456
385.363	47578
385.444	28238
385.525	41658
385.606	148781
385.687	125177
385.768	44549
385.849	53434
385.930	146655
386.011	251827
386.092	68518
386.173	22033
386.254	24439
386.335	24080
386.416	23019
386.496	69280
386.577	115889
386.658	62827
386.739	40624
386.820	46778
386.901	41092
386.981	30270
387.062	17134
387.143	27233
387.224	105862
387.304	103890
387.385	45650
387.466	41031
387.547	54470
387.627	28033
387.708	41895
387.789	181406
387.869	221583
387.950	60130
388.031	17667
388.111	27568
388.192	90099
388.273	134981
388.353	66028
388.434	24226
388.514	36563
388.595	163713
388.676	211818
388.756	100370
388.837	100023
388.917	60203
388.998	17077
389.078	14926
389.159	12912
389.239	12543
389.320	22661
389.400	21991
389.480	52039
389.561	123670
389.641	54335
389.722	23941
389.802	38766
389.883	52273
389.963	140802
390.043	126016
390.124	58779
390.204	44189
390.284	121569
390.365	83889
390.445	155669
390.525	309343
390.605	212441
390.686	61583
390.766	25342
390.846	14899
390.927	11790
391.007	14228
391.087	20710
391.167	24395
391.247	22171
391.328	53773
391.408	74271
391.488	44636
391.568	13725
391.648	18394
391.728	23438
391.808	23500
391.888	26371
391.969	60217
392.049	100226
392.129	58634
392.209	57369
392.289	125378
392.369	80899
392.449	113486
392.529	62534
392.609	40400
392.689	44994
392.769	126252
392.849	108626
392.929	100721
393.009	228242
393.089	152873
393.169	136339
393.248	403921
393.328	1361009
393.408	1443819
393.488	437057
393.568	131891
393.648	65974
393.728	44017
393.807	35089
393.887	29369
393.967	27121
394.047	31070
394.127	37774
394.206	59459
394.286	188759
394.366	818725
394.446	883003
394.525	218902
394.605	60965
394.685	55577
394.764	145139
394.844	245935
394.924	154847
395.003	40259
395.083	27119
395.163	23262
395.242	22511
395.322	22772
395.402	18136
395.481	27418
395.561	90705
395.640	247793
395.720	163799
395.799	262117
395.879	197568
395.958	96398
396.038	286898
396.117	1064707
396.197	1177031
396.276	406957
396.356	154323
396.435	126816
396.515	71186
396.594	70314
396.673	120339
396.753	411696
396.832	1245995
396.912	934039
396.991	236945
397.070	70549
397.150	40193
397.229	29989
397.308	33426
397.388	52091
397.467	27902
397.546	16742
397.625	14366
397.705	19591
397.784	20758
397.863	13303
397.942	11770
398.022	16787
398.101	81275
398.180	245611
398.259	133886
398.338	33469
398.417	19696
398.497	18070
398.576	17970
398.655	11548
398.734	11126
398.813	18488
398.892	69277
398.971	249488
399.050	115662
399.129	15970
399.208	9942
399.287	10328
399.366	9278
399.445	10341
399.524	10319
399.603	9699
399.682	22268
399.761	65237
399.840	248961
399.919	189297
399.998	27632
400.077	8482
400.156	7892
400.235	15778
400.313	14172
400.392	19124
400.471	57071
400.550	90110
400.629	26542
400.708	17454
400.786	24781
400.865	75417
400.944	76301
401.023	26496
401.102	6515
401.180	9583
401.259	13734
401.338	19323
401.416	20696
401.495	18486
401.574	18659
401.652	15587
401.731	22260
401.810	22669
401.888	10750
401.967	7302
402.046	10047
402.124	19874
402.203	28692
402.281	14636
402.360	25971
402.438	90003
402.517	64840
402.596	23611
402.674	24950
402.753	14711
402.831	10959
402.910	13056
402.988	53125
403.066	181072
403.145	95620
403.223	51044
403.302	137499
403.380	99117
403.459	103263
403.537	44902
403.615	21062
403.694	6978
403.772	5973
403.850	5682
403.929	5779
404.007	9563
404.085	23290
404.164	28361
404.242	9607
404.320	9410
404.398	18150
404.477	49287
404.555	250765
404.633	211024
404.711	31575
404.789	12285
404.868	12647
404.946	9099
405.024	4490
405.102	5529
405.180	4724
405.258	4821
405.336	7664
405.415	10479
405.493	30884
405.571	25598
405.649	7308
405.727	8982
405.805	18177
405.883	15598
405.961	20721
406.039	31158
406.117	11216
406.195	13184
406.273	57924
406.351	226442
406.429	138779
406.507	38990
406.585	14820
406.663	10186
406.740	13254
406.818	13780
406.896	10056
406.974	9935
407.052	20874
407.130	128753
407.208	178874
407.285	33066
407.363	7636
407.441	9228
407.519	6196
407.596	9374
407.674	22592
407.752	62197
407.830	91761
407.907	51495
407.985	16529
408.063	7560
408.141	7212
408.218	25022
408.296	26911
408.373	14435
408.451	11017
408.529	9712
408.606	5339
408.684	4991
408.762	3529
408.839	3447
408.917	3436
408.994	5618
409.072	5682
409.149	4838
409.227	9669
409.304	12636
409.382	9061
409.459	9725
409.537	15080
409.614	13927
409.692	8519
409.769	9517
409.846	16478
409.924	24027
410.001	18250
410.079	11251
410.156	9542
410.233	14163
410.311	10315
410.388	5948
410.465	9292
410.543	11010
410.620	6188
410.697	8279
410.775	8652
410.852	4722
410.929	11050
411.006	14890
411.083	9756
411.161	25702
411.238	32187
411.315	20542
411.392	7017
411.469	11693
411.547	12878
411.624	8176
411.701	6316
411.778	8253
411.855	19782
411.932	11631
412.009	6937
412.086	6970
412.163	11868
412.240	17133
412.317	21707
412.394	19941
412.471	6743
412.548	5450
412.625	6306
412.702	13538
412.779	28329
412.856	19228
412.933	7272
413.010	5540
413.087	11466
413.164	53816
413.241	73325
413.318	18747
413.395	12362
413.471	19269
413.548	8227
413.625	7359
413.702	15229
413.779	11478
413.855	4186
413.932	3322
414.009	4738
414.086	4527
414.162	5313
414.239	15435
414.316	57156
414.393	112769
414.469	37628
414.546	6080
414.623	4073
414.699	4945
414.776	6893
414.853	5994
414.929	7518
415.006	9425
415.082	17757
415.159	11522
415.236	6011
415.312	5505
415.389	13175
415.465	18771
415.542	10238
415.618	5989
415.695	11251
415.771	9057
415.848	9900
415.924	10779
416.000	10712
416.077	6526
416.153	3052
416.230	2304
416.306	4223
416.383	9079
416.459	5826
416.535	3545
416.612	4890
416.688	4998
416.764	4014
416.841	4152
416.917	5639
416.993	6402
417.069	9372
417.146	13752
417.222	15488
417.298	9520
417.374	6495
417.451	8193
417.527	8040
417.603	10166
417.679	7844
417.755	7338
417.831	3392
417.908	3714
417.984	3794
418.060	4631
418.136	15035
418.212	20466
418.288	8030
418.364	5336
418.440	5764
418.516	12660
418.592	28746
418.668	35592
418.744	37319
418.820	26009
418.896	8717
418.972	3548
419.048	5428
419.124	16567
419.200	12541
419.276	4057
419.352	2600
419.428	2834
419.504	5189
419.579	8610
419.655	5967
419.731	5797
419.807	22134
419.883	42656
419.959	27802
420.034	10111
420.110	18019
420.186	67770
420.262	51071
420.337	12768
420.413	9824
420.489	4667
420.565	4448
420.640	3501
420.716	4628
420.792	2636
420.867	5508
420.943	4491
421.019	11326
421.094	9407
421.170	5443
421.245	3848
421.321	5006
421.397	4742
421.472	8413
421.548	24755
421.623	18390
421.699	8829
421.774	8242
421.850	7534
421.925	15411
422.001	13159
422.076	8521
422.152	10788
422.227	18461
422.302	19571
422.378	26902
422.453	51918
422.529	120874
422.604	387651
422.679	674019
422.755	430997
422.830	135079
422.905	49626
422.981	28150
423.056	18063
423.131	13596
423.207	11753
423.282	13015
423.357	24552
423.432	16320
423.508	18402
423.583	39103
423.658	26785
423.733	12784
423.808	17959
423.883	15011
423.959	11108
424.034	8909
424.109	6487
424.184	3464
424.259	4301
424.334	4678
424.409	3507
424.484	4615
424.559	6379
424.634	5558
424.709	10064
424.784	10097
424.859	8471
424.934	13791
425.009	48792
425.084	79050
425.159	29651
425.234	7136
425.309	2959
425.384	5379
425.459	6644
425.534	6425
425.609	11194
425.683	7445
425.758	4712
425.833	7679
425.908	10364
425.983	30394
426.058	85989
426.132	39045
426.207	14995
426.282	30436
426.357	28931
426.431	6897
426.506	8023
426.581	10076
426.655	8145
426.730	4806
426.805	5306
426.879	7459
426.954	7947
427.029	18081
427.103	76908
427.178	187197
427.253	80481
427.327	14662
427.402	22543
427.476	43980
427.551	16689
427.625	14471
427.700	14296
427.774	9496
427.849	14711
427.923	7818
427.998	7736
428.072	10543
428.147	23063
428.221	65738
428.296	176094
428.370	82652
428.444	20846
428.519	36635
428.593	77071
428.667	60208
428.742	77231
428.816	59711
428.890	148262
428.965	187451
429.039	80880
429.113	88736
429.188	29363
429.262	8257
429.336	15378
429.410	46000
429.485	34090
429.559	61969
429.633	45922
429.707	13423
429.781	36665
429.855	186391
429.930	241579
430.004	183668
430.078	304554
430.152	217094
430.226	219293
430.300	201095
430.374	34632
430.448	18743
430.522	86652
430.596	256225
430.670	125589
430.744	191065
430.818	267016
430.892	54522
430.966	13010
431.040	7728
431.114	4945
431.188	6390
431.262	9626
431.336	11216
431.410	32256
431.484	92008
431.557	45654
431.631	7422
431.705	8597
431.779	31380
431.853	143967
431.927	97402
432.000	13372
432.074	8343
432.148	17373
432.222	15048
432.295	5534
432.369	6170
432.443	15169
432.516	84248
432.590	192829
432.664	71573
432.737	11525
432.811	3057
432.885	2526
432.958	3070
433.032	3438
433.106	2465
433.179	2390
433.253	2487
433.326	3491
433.400	2125
433.473	3315
433.547	2272
433.620	3624
433.694	9513
433.767	13521
433.841	10157
433.914	3429
433.988	2252
434.061	3843
434.134	3945
434.208	2827
434.281	1859
434.355	3351
434.428	4651
434.501	3263
434.575	4436
434.648	6053
434.721	2474
434.795	1628
434.868	1930
434.941	2324
435.014	1564
435.088	2564
435.161	3698
435.234	8345
435.307	11599
435.381	6155
435.454	6168
435.527	7848
435.600	6798
435.673	6282
435.746	4521
435.819	4061
435.892	3319
435.966	2960
436.039	4867
436.112	5490
436.185	2222
436.258	2172
436.331	1478
436.404	1642
436.477	1078
436.550	1236
436.623	1667
436.696	1852
436.769	4169
436.842	4795
436.915	7924
436.987	11821
437.060	4938
437.133	2489
437.206	3552
437.279	5174
437.352	3012
437.425	3251
437.498	6650
437.570	10711
437.643	8351
437.716	3261
437.789	3099
437.861	11597
437.934	32025
438.007	14026
438.080	3617
438.152	4678
438.225	11752
438.298	89444
438.370	246040
438.443	97926
438.516	28691
438.588	6710
438.661	2988
438.734	3289
438.806	6870
438.879	7538
438.951	9208
439.024	16111
439.096	6095
439.169	2939
439.241	2343
439.314	5135
439.386	16661
439.459	27156
439.531	39447
439.604	12317
439.676	3837
439.749	2749
439.821	2307
439.893	3589
439.966	6585
440.038	9204
440.110	7852
440.183	4648
440.255	3701
440.327	9086
440.400	47865
440.472	175100
440.544	100222
440.617	15209
440.689	12938
440.761	17123
440.833	25741
440.905	16090
440.978	4147
441.050	2849
441.122	3385
441.194	2934
441.266	3056
441.338	3066
441.411	8083
441.483	49720
441.555	71107
441.627	19357
441.699	22382
441.771	25721
441.843	8712
441.915	3160
441.987	3584
442.059	3551
442.131	8723
442.203	16400
442.275	17549
442.347	14059
442.419	13125
442.491	58194
442.563	147539
442.635	73980
442.706	80560
442.778	53707
442.850	8624
442.922	4879
442.994	9300
443.066	16326
443.137	11150
443.209	7600
443.281	11893
443.353	27338
443.425	87530
443.496	268844
443.568	238402
443.640	83621
443.711	20732
443.783	9692
443.855	7529
443.926	4856
443.998	8548
444.070	15005
444.141	11363
444.213	12977
444.285	14051
444.356	22498
444.428	24083
444.499	7475
444.571	3034
444.642	4126
444.714	6008
444.785	11312
444.857	24132
444.928	69818
445.000	36731
445.071	46217
445.143	50925
445.214	21455
445.285	39917
445.357	114508
445.428	206727
445.500	437414
445.571	276385
445.642	125984
445.714	84390
445.785	100071
445.856	26467
445.928	15823
445.999	13671
446.070	11590
446.141	9337
446.213	13699
446.284	10278
446.355	15324
446.426	10701
446.497	9326
446.569	22428
446.640	26045
446.711	12796
446.782	6876
446.853	22667
446.924	17411
446.995	7915
447.066	11063
447.138	27756
447.209	12857
447.280	2439
447.351	2774
447.422	3810
447.493	10791
447.564	10281
447.635	11011
447.706	5223
447.777	2946
447.847	2039
447.918	4913
447.989	12763
448.060	17812
448.131	47809
448.202	32684
448.273	16419
448.344	9248
448.414	4387
448.485	3993
448.556	3744
448.627	2230
448.698	2472
448.768	2914
448.839	6427
448.910	24356
448.981	17818
449.051	5360
449.122	2930
449.193	2855
449.263	4317
449.334	3613
449.405	4813
449.475	15520
449.546	13488
449.616	27219
449.687	19295
449.758	6563
449.828	4262
449.899	2915
449.969	2000
450.040	4202
450.110	12045
450.181	15785
450.251	6200
450.322	4052
450.392	5172
450.463	4902
450.533	2939
450.604	4595
450.674	4501
450.744	4311
450.815	4784
450.885	4015
450.955	3429
451.026	3781
451.096	5590
451.166	9564
451.237	30104
451.307	71991
451.377	23290
451.447	6134
451.518	3376
451.588	5778
451.658	5517
451.728	15029
451.799	75597
451.869	75053
451.939	16410
452.009	4876
452.079	3616
452.149	6193
452.219	19384
452.289	85960
452.360	54914
452.430	9044
452.500	7969
452.570	9137
452.640	13612
452.710	50947
452.780	75992
452.850	34257
452.920	24455
452.990	10806
453.060	6748
453.129	11136
453.199	18908
453.269	78145
453.339	154732
453.409	231368
453.479	259476
453.549	370309
453.619	407116
453.688	143643
453.758	23981
453.828	8876
453.898	7440
453.968	6200
454.037	5640
454.087	5450
454.107	5304
454.168	4128
454.177	3890
454.247	3897
454.249	3995
454.316	5338
454.330	7060
454.386	12951
454.411	26364
454.456	44829
454.492	53343
454.525	60685
454.574	29624
454.595	16585
454.655	8513
454.665	7520
454.734	13160
454.736	13958
454.804	32077
454.817	44710
454.873	85728
454.898	89730
454.943	92147
454.979	64254
455.013	41006
455.060	23274
455.082	18499
455.141	26993
455.152	27045
455.221	67624
455.222	68900
455.291	97003
455.303	86085
455.360	42135
455.384	43180
455.430	53514
455.465	57051
455.499	54432
455.546	78219
455.569	83176
455.627	47216
455.638	42228
455.707	10613
455.708	10693
455.777	8734
455.789	8980
455.846	9593
455.869	9114
455.916	8511
455.950	10115
455.985	10734
456.031	10605
456.054	10249
456.112	7265
456.124	7175
456.193	9988
456.193	9887
456.262	16827
456.274	18821
456.332	24298
456.355	27052
456.401	26410
456.436	19720
456.470	14237
456.516	8413
456.540	6585
456.597	6224
456.609	6121
456.678	5776
456.678	5728
456.747	6003
456.759	5919
456.817	5359
456.840	5510
456.886	5893
456.920	6182
456.955	7288
457.001	9465
457.024	12487
457.082	20987
457.093	22327
457.162	35602
457.163	35876
457.232	41126
457.243	38736
457.301	19930
457.324	13379
457.370	8498
457.405	7812
457.439	7650
457.485	8057
457.508	8241
457.566	9394
457.577	9538
457.646	10466
457.647	10538
457.715	13051
457.727	13491
457.784	14205
457.808	16375
457.853	20935
457.889	24093
457.922	25846
457.969	20063
457.991	18699
458.050	21573
458.060	21527
458.129	29082
458.130	29302
458.198	34697
458.211	31910
458.267	20012
458.292	16494
458.336	12726
458.372	13060
458.405	14581
458.453	17332
458.474	19738
458.533	32090
458.543	33453
458.611	56930
458.614	57100
458.680	42618
458.694	36612
458.749	19891
458.775	16575
458.818	13857
458.855	13494
458.887	13568
458.936	14337
458.955	14622
459.016	16849
459.024	16891
459.093	16480
459.097	16498
459.162	16492
459.177	16714
459.230	17502
459.257	18269
459.299	19845
459.338	20785
459.368	21500
459.418	23738
459.437	22480
459.499	16421
459.505	16200
459.574	14297
459.579	14245
459.643	13622
459.659	13643
459.711	14750
459.740	15369
459.780	18371
459.820	21347
459.849	23229
459.900	27979
459.917	26853
459.981	22084
459.986	21755
460.054	15293
460.061	14758
460.123	14616
460.141	14911
460.191	17004
460.222	18338
460.260	18697
460.302	19924
460.328	19335
460.382	16164
460.397	16057
460.462	16309
460.465	16276
460.534	16420
460.543	16440
460.602	20453
460.623	22273
460.671	26240
460.703	31731
460.739	34127
460.783	32913
460.808	31701
460.864	22603
460.876	21589
460.944	22701
460.945	22636
461.013	19519
461.024	18860
461.081	18219
461.104	18408
461.150	18173
461.184	17717
461.218	17827
461.264	17910
461.286	18674
461.345	20951
461.355	21221
461.423	23567
461.425	23615
461.491	26596
461.505	27414
461.559	59751
461.585	75268
461.628	131504
461.665	184403
461.696	200650
461.745	238663
461.764	203720
461.825	54416
461.832	51687
461.901	29594
461.905	29055
461.969	28778
461.985	28683
462.037	26666
462.065	25767
462.105	33727
462.145	41572
462.173	67072
462.225	115876
462.241	129371
462.305	190177
462.310	183919
462.378	81619
462.385	68368
462.446	33860
462.465	25338
462.514	23848
462.545	24327
462.582	25143
462.625	26339
462.650	26418
462.705	26250
462.718	28590
462.785	40857
462.786	41451
462.854	76330
462.865	82302
462.922	103124
462.945	111399
462.990	71434
463.025	36818
463.058	31560
463.104	25895
463.126	25414
463.184	25245
463.194	25569
463.262	28067
463.264	28150
463.330	31363
463.344	31946
463.398	38713
463.424	42006
463.466	45911
463.504	49855
463.533	48461
463.583	45409
463.601	47549
463.663	54174
463.669	56001
463.737	78306
463.743	80260
463.805	135010
463.823	150896
463.873	251201
463.903	313571
463.940	330795
463.982	352876
464.008	272686
464.062	88285
464.076	78652
464.142	32235
464.144	32030
464.211	30186
464.221	30070
464.279	31697
464.301	32374
464.347	39925
464.381	45538
464.414	58587
464.461	76363
464.482	78329
464.540	84493
464.550	78940
464.617	36648
464.620	35132
464.685	34010
464.699	33971
464.753	34411
464.779	34544
464.820	38672
464.859	42620
464.888	51788
464.938	67328
464.956	69356
465.018	77086
465.023	74561
465.091	38827
465.098	35056
465.158	33710
465.177	33528
465.226	36028
465.257	37411
465.293	39139
465.336	41178
465.361	44407
465.416	51460
465.428	59426
465.495	102177
465.496	103085
465.563	219293
465.575	239374
465.631	284744
465.654	304171
465.698	174773
465.734	63210
465.765	50682
465.813	32994
465.833	32443
465.893	32636
465.900	32640
465.968	32598
465.972	32522
466.035	30763
466.052	30218
466.102	30568
466.131	30758
466.170	31291
466.210	31650
466.237	32239
466.290	33330
466.304	33993
466.369	36535
466.372	36752
466.439	41166
466.449	41723
466.506	47087
466.528	49034
466.573	78693
466.607	100762
466.641	171226
466.687	268981
466.708	300035
466.766	385428
466.775	352927
466.842	101928
466.845	89801
466.909	55058
466.925	47051
466.977	43596
467.004	41825
467.044	43049
467.083	44132
467.111	44914
467.163	46109
467.178	46915
467.242	49833
467.245	49977
467.312	50833
467.321	50843
467.379	63579
467.400	68016
467.446	85718
467.480	98225
467.559	76364
467.638	51378
467.717	55171
467.796	57956
467.875	62360
467.955	66174
468.034	113501
468.113	310206
468.192	459937
468.271	101543
468.350	45607
468.429	50104
468.508	46530
468.588	49175
468.667	57323
468.746	56927
468.825	57868
468.904	51012
468.983	76280
469.062	162517
469.141	204743
469.220	59876
469.299	55084
469.378	57793
469.456	44082
469.535	45067
469.614	53828
469.693	68268
469.772	111785
469.851	189261
469.930	107005
470.009	41393
470.088	37747
470.166	36032
470.245	39207
470.324	39419
470.403	37451
470.482	37410
470.560	38095
470.639	44062
470.718	48727
470.797	47902
470.875	69705
470.954	128545
471.033	152659
471.111	42881
471.190	35532
471.269	35836
471.347	38207
471.426	48933
471.505	60666
471.583	48514
471.662	39367
471.740	39355
471.819	39750
471.898	38766
471.976	39536
472.055	41905
472.133	59061
472.212	108314
472.290	127706
472.369	61252
472.447	41769
472.526	37274
472.604	36487
472.683	39645
472.761	41499
472.839	40077
472.918	41883
472.996	53112
473.075	78034
473.153	68418
473.231	48836
473.310	67190
473.388	62954
473.466	53042
473.545	43238
473.623	48226
473.701	49329
473.780	39694
473.858	38509
473.936	42631
474.014	41723
474.093	55198
474.171	124141
474.249	212179
474.327	116091
474.405	36727
474.484	35203
474.562	35821
474.640	40592
474.718	50668
474.796	47243
474.874	33826
474.952	31464
475.030	33127
475.108	34444
475.187	34839
475.265	37144
475.343	49853
475.421	56649
475.499	43767
475.577	52389
475.655	86433
475.733	234473
475.811	450408
475.889	399446
475.966	241841
476.044	52009
476.122	60031
476.200	67488
476.278	62143
476.356	56071
476.434	59870
476.512	66630
476.590	80817
476.667	72704
476.745	52189
476.823	52790
476.901	60740
476.979	71343
477.056	60338
477.134	59522
477.212	50690
477.290	50618
477.367	49891
477.445	51484
477.523	53386
477.601	52715
477.678	57343
477.756	88545
477.834	110042
477.911	55989
477.989	54833
478.066	59304
478.144	76245
478.222	63957
478.299	67859
478.377	65016
478.454	45984
478.532	47033
478.609	47425
478.687	49956
478.764	45553
478.842	47270
478.919	52160
478.997	53384
479.074	53792
479.152	84162
479.229	124525
479.307	68254
479.384	43458
479.461	44199
479.539	64072
479.616	85990
479.694	64331
479.771	77340
479.848	81331
479.926	137560
480.003	137496
480.080	50171
480.157	50278
480.235	50600
480.312	51528
480.389	76350
480.467	162911
480.544	212935
480.621	81889
480.698	71235
480.775	87127
480.853	98034
480.930	66546
481.007	68118
481.084	86497
481.161	89134
481.238	87157
481.315	60092
481.392	55871
481.470	57608
481.547	58788
481.624	60269
481.701	61277
481.778	68376
481.855	81583
481.932	137184
482.009	262052
482.086	166192
482.163	57876
482.240	60591
482.317	80168
482.393	73872
482.470	63159
482.547	71835
482.624	58862
482.701	65837
482.778	61938
482.855	46598
482.932	47090
483.009	49711
483.085	54614
483.162	62501
483.239	60015
483.316	49416
483.393	47978
483.469	52378
483.546	76901
483.623	89063
483.699	57549
483.776	60507
483.853	68523
483.930	98897
484.006	285839
484.083	493564
484.160	136035
484.236	80099
484.313	76939
484.389	77298
484.466	65186
484.543	60484
484.619	70466
484.696	78035
484.772	111625
484.849	137505
484.925	73347
485.002	65812
485.078	77738
485.155	84153
485.231	70988
485.308	71187
485.384	80054
485.461	121862
485.537	297235
485.614	377116
485.690	87455
485.766	65009
485.843	65237
485.919	81280
485.995	83128
486.072	60205
486.148	59490
486.224	58787
486.301	75569
486.377	108741
486.453	100156
486.530	74223
486.606	79163
486.682	99665
486.758	222140
486.835	297998
486.911	185299
486.987	367265
487.063	235818
487.139	159970
487.215	113495
487.292	63858
487.368	61134
487.444	74988
487.520	93658
487.596	66965
487.672	64354
487.748	110478
487.824	154431
487.900	85983
487.976	70727
488.052	98507
488.128	119606
488.204	96290
488.280	82795
488.356	105587
488.432	327828
488.508	553985
488.584	129831
488.660	58683
488.736	55855
488.812	57999
488.888	68907
488.964	80168
489.039	151997
489.115	234097
489.191	148423
489.267	77317
489.343	78537
489.418	54966
489.494	49813
489.570	52413
489.646	57030
489.722	62176
489.797	69798
489.873	147345
489.949	436751
490.024	352353
490.100	70195
490.176	56904
490.251	67979
490.327	74395
490.403	56927
490.478	46436
490.554	42653
490.629	42477
490.705	45807
490.781	52952
490.856	63872
490.932	63462
491.007	57263
491.083	63183
491.158	69567
491.234	107704
491.309	339841
491.385	350245
491.460	82798
491.536	80129
491.611	52436
491.686	55857
491.762	67243
491.837	118385
491.913	228079
491.988	331858
492.063	312062
492.139	225131
492.214	147903
492.289	46738
492.365	42700
492.440	58541
492.515	87296
492.590	81101
492.666	56038
492.741	102697
492.816	216148
492.891	89259
492.967	39287
493.042	37550
493.117	36093
493.192	35138
493.267	40168
493.342	59579
493.418	67861
493.493	41033
493.568	38897
493.643	42475
493.718	78322
493.793	154402
493.868	109916
493.943	46442
494.018	42284
494.093	55048
494.168	54997
494.243	35555
494.318	37546
494.393	36715
494.468	35686
494.543	33617
494.618	39835
494.693	42144
494.768	53009
494.842	49393
494.917	33551
494.992	33072
495.067	32284
495.142	31593
495.217	33813
495.292	38288
495.366	48392
495.441	69895
495.516	89490
495.591	94700
495.665	218257
495.740	477740
495.815	226374
495.890	88395
495.964	75915
496.039	71238
496.114	67668
496.188	67735
496.263	67857
496.338	74622
496.412	98113
496.487	111598
496.561	86920
496.636	84239
496.710	74894
496.785	97700
496.860	127414
496.934	76770
497.009	68390
497.083	66678
497.158	70095
497.232	100904
497.307	136249
497.381	87016
497.455	130765
497.530	209826
497.604	101822
497.679	104372
497.753	207536
497.827	253086
497.902	143382
497.976	155068
498.050	337269
498.125	1264621
498.199	1302399
498.273	211584
498.348	117923
498.422	92030
498.496	91604
498.570	89518
498.645	82819
498.719	96082
498.793	133692
498.867	266244
498.941	317596
499.016	563935
499.090	1473612
499.164	584047
499.238	92767
499.312	74807
499.386	83093
499.460	95922
499.534	95353
499.609	117936
499.683	227036
499.757	187709
499.831	283666
499.905	1063445
499.979	1050925
500.053	320525
500.127	279325
500.201	116345
500.275	90062
500.349	88386
500.422	101717
500.496	125969
500.570	209903
500.644	594261
500.718	1195553
500.792	317067
500.866	111425
500.940	175707
501.013	129763
501.087	112021
501.161	151961
501.235	244185
501.309	606333
501.382	1287814
501.456	1057999
501.530	304765
501.603	599841
501.677	222521
501.751	93425
501.825	106582
501.898	208466
501.972	659287
502.046	410823
502.119	120975
502.193	261812
502.266	709694
502.340	349821
502.413	336956
502.487	734517
502.561	503882
502.634	126041
502.708	73594
502.781	67349
502.855	57750
502.928	57735
503.002	61191
503.075	61849
503.149	73480
503.222	73476
503.295	89276
503.369	110635
503.442	147581
503.516	478222
503.589	1288272
503.662	843882
503.736	262261
503.809	633434
503.882	467461
503.956	571161
504.029	508572
504.102	145654
504.175	124215
504.249	77138
504.322	108769
504.395	102674
504.468	67005
504.542	82886
504.615	50620
504.688	43864
504.761	51225
504.834	64966
504.907	55987
504.980	77006
505.053	61051
505.127	60383
505.200	88969
505.273	153176
505.346	81881
505.419	63415
505.492	49655
505.565	41273
505.638	39532
505.711	45730
505.784	47800
505.857	45753
505.930	49765
506.003	49834
506.076	54549
506.149	95220
506.221	133506
506.294	83420
506.367	213289
506.440	715035
506.513	378253
506.586	140162
506.659	69269
506.731	48651
506.804	64635
506.877	83366
506.950	76272
507.022	47789
507.095	94659
507.168	110785
507.241	46317
507.313	34454
507.386	40879
507.459	47472
507.531	35749
507.604	36073
507.677	38020
507.749	28736
507.822	36776
507.894	51700
507.967	51803
508.040	36116
508.112	34553
508.185	39804
508.257	33730
508.330	47035
508.402	43725
508.475	53050
508.547	59489
508.620	61993
508.692	141845
508.765	61612
508.837	35112
508.909	32202
508.982	33122
509.054	36700
509.127	31667
509.199	32537
509.271	31922
509.344	28544
509.416	30827
509.488	33341
509.560	33869
509.633	31857
509.705	36739
509.777	39376
509.849	47080
509.922	34671
509.994	32425
510.066	32527
510.138	31578
510.210	37503
510.283	43511
510.355	39234
510.427	32621
510.499	31288
510.571	31486
510.643	33693
510.715	44847
510.787	41052
510.859	39788
510.931	61940
511.003	50516
511.076	48494
511.148	39413
511.219	42341
511.291	114142
511.363	151248
511.435	38775
511.507	29735
511.579	32631
511.651	31980
511.723	33753
511.795	33027
511.867	37626
511.939	65287
512.010	217416
512.082	143736
512.154	41072
512.226	36063
512.298	34191
512.369	47913
512.441	41429
512.513	40622
512.585	33980
512.656	40491
512.728	53031
512.800	33006
512.871	36006
512.943	35332
513.015	25486
513.086	29080
513.158	30469
513.230	35540
513.301	50950
513.373	50509
513.444	31240
513.516	28771
513.588	27147
513.659	30523
513.731	38389
513.802	35224
513.874	57971
513.945	99542
514.016	42780
514.088	31850
514.159	33635
514.231	42289
514.302	46253
514.374	40969
514.445	61403
514.516	207742
514.588	134276
514.659	67483
514.730	184751
514.802	90061
514.873	35632
514.944	35385
515.016	36018
515.087	43222
515.158	100848
515.229	168276
515.301	39774
515.372	36378
515.443	30560
515.514	26608
515.585	24320
515.656	25682
515.728	25581
515.799	23774
515.870	27573
515.941	31271
516.012	29676
516.083	30076
516.154	33393
516.225	43487
516.296	38825
516.367	32722
516.438	34567
516.509	40743
516.580	51897
516.651	106907
516.722	338755
516.793	210139
516.864	85344
516.935	94299
517.006	92680
517.077	105861
517.148	157826
517.219	250941
517.289	460155
517.360	703231
517.431	268793
517.502	70635
517.573	65142
517.643	60386
517.714	60522
517.785	59512
517.856	62501
517.926	65142
517.997	65232
518.068	66255
518.138	73479
518.209	77267
518.280	157598
518.350	492573
518.421	250953
518.492	74697
518.562	78909
518.633	98420
518.703	69107
518.774	84638
518.845	147588
518.915	153698
518.986	95274
519.056	91567
519.127	123699
519.197	207110
519.268	664401
519.338	473777
519.408	139191
519.479	88895
519.549	70400
519.620	56549
519.690	48397
519.760	52226
519.831	49227
519.901	54325
519.971	47888
520.042	64006
520.112	92570
520.182	64094
520.253	61118
520.323	54970
520.393	57128
520.463	59414
520.534	66728
520.604	116600
520.674	75805
520.744	86831
520.814	109080
520.885	100817
520.955	206513
521.025	798863
521.095	326751
521.165	76391
521.235	77012
521.305	60609
521.375	46416
521.445	48309
521.515	52838
521.585	58176
521.655	57201
521.725	54927
521.795	58902
521.865	54981
521.935	114244
522.005	104289
522.075	55988
522.145	61635
522.215	88399
522.285	139224
522.355	201298
522.424	442895
522.494	346652
522.564	97360
522.634	108678
522.704	218131
522.774	98609
522.843	54659
522.913	47673
522.983	51254
523.053	47967
523.122	50485
523.192	50884
523.262	124842
523.331	125520
523.401	47413
523.471	36435
523.540	40690
523.610	35151
523.680	39098
523.749	44106
523.819	76257
523.888	78623
523.958	40861
524.027	46808
524.097	56817
524.166	44903
524.236	43668
524.305	49233
524.375	44960
524.444	42946
524.514	49758
524.583	59992
524.653	88733
524.722	96830
524.791	57296
524.861	48455
524.930	43174
524.999	43471
525.069	61747
525.138	70204
525.207	103472
525.277	53400
525.346	49871
525.415	46623
525.484	46586
525.554	76795
525.623	67835
525.692	43722
525.761	49757
525.830	42464
525.900	46294
525.969	74518
526.038	76396
526.107	73964
526.176	161466
526.245	164084
526.314	108255
526.383	127948
526.452	138621
526.522	203283
526.591	353809
526.660	160542
526.729	78632
526.797	74531
526.867	121750
526.935	445453
527.004	533279
527.073	326748
527.142	69009
527.211	47790
527.280	43031
527.349	45959
527.418	33511
527.487	37425
527.555	35257
527.624	32670
527.693	33833
527.762	34650
527.831	34018
527.899	37816
527.968	39644
528.037	39056
528.106	42636
528.174	69889
528.243	83534
528.312	126772
528.380	131981
528.449	56057
528.518	37889
528.586	32210
528.655	33015
528.723	33387
528.792	33508
528.861	46292
528.929	42596
528.998	35094
529.066	31165
529.135	31857
529.203	30045
529.272	32325
529.340	31543
529.409	38051
529.477	37807
529.545	68418
529.614	67977
529.682	83801
529.751	101059
529.819	82706
529.887	56221
529.956	35819
530.024	39512
530.092	29853
530.161	30703
530.229	43414
530.297	31803
530.365	29061
530.434	26482
530.502	27090
530.570	26878
530.638	27531
530.707	28796
530.775	36792
530.843	30525
530.911	31090
530.979	28917
531.047	30175
531.115	32795
531.183	32278
531.252	33584
531.320	38075
531.388	32035
531.456	32032
531.524	28667
531.592	30374
531.660	33747
531.728	29938
531.796	29297
531.864	29336
531.932	32971
532.000	30189
532.067	31966
532.135	30947
532.203	34759
532.271	36304
532.339	47395
532.407	102702
532.475	66260
532.542	42260
532.610	42242
532.678	50783
532.746	135358
532.814	342298
532.881	103374
532.949	38320
533.017	34901
533.084	35239
533.152	32830
533.220	31879
533.287	32912
533.355	30207
533.423	31994
533.490	29240
533.558	30891
533.625	33258
533.693	39257
533.761	33800
533.828	38283
533.896	31235
533.963	45341
534.031	52675
534.098	69411
534.166	47215
534.233	31313
534.300	32020
534.368	33468
534.435	33162
534.503	30600
534.570	29441
534.637	29639
534.705	31304
534.772	32900
534.840	35219
534.907	77060
534.974	119040
535.041	51039
535.109	73960
535.176	37786
535.243	28691
535.310	29206
535.378	28870
535.445	27658
535.512	25814
535.579	29851
535.646	30452
535.714	28733
535.781	31933
535.848	31606
535.915	37561
535.982	32563
536.049	33271
536.116	35954
536.183	33118
536.250	33522
536.317	33890
536.384	36587
536.451	46506
536.518	47577
536.585	41644
536.652	51663
536.719	58504
536.786	51367
536.853	43172
536.920	67232
536.987	97848
537.053	65426
537.120	178424
537.187	157250
537.254	39806
537.321	36817
537.388	34460
537.454	32419
537.521	32381
537.588	29402
537.654	33519
537.721	34086
537.788	34666
537.855	29444
537.921	31576
537.988	31226
538.055	34393
538.121	35000
538.188	33249
538.254	43262
538.321	72355
538.388	50365
538.454	36609
538.521	32489
538.587	29418
538.654	31449
538.720	30408
538.787	31032
538.853	38504
538.920	55508
538.986	63980
539.053	46369
539.119	41406
539.185	35990
539.252	38570
539.318	47728
539.385	42088
539.451	38001
539.517	36065
539.583	42599
539.650	84073
539.716	177852
539.782	58101
539.849	34103
539.915	33769
539.981	34209
540.047	38337
540.114	39263
540.180	39957
540.246	34063
540.312	43221
540.378	77391
540.444	74250
540.510	65760
540.576	160638
540.643	68975
540.709	34803
540.775	35973
540.841	37364
540.907	61956
540.973	95231
541.039	49140
541.105	49278
541.171	35386
541.237	34814
541.303	35667
541.369	36641
541.435	40695
541.500	62412
541.566	46373
541.632	33326
541.698	31703
541.764	32324
541.830	33139
541.896	34315
541.961	34178
542.027	33297
542.093	30990
542.159	32855
542.224	37614
542.290	45693
542.356	63786
542.421	70982
542.487	39737
542.553	38454
542.618	52612
542.684	38822
542.750	37572
542.815	43693
542.881	74178
542.947	159073
543.012	106019
543.078	35249
543.143	32818
543.209	37061
543.274	35358
543.340	37950
543.405	61789
543.471	89330
543.536	37342
543.602	38231
543.667	39866
543.732	32841
543.798	34078
543.863	36382
543.928	30737
543.994	29598
544.059	31477
544.124	29485
544.190	29469
544.255	30319
544.320	30091
544.386	32007
544.451	40639
544.516	44751
544.581	44940
544.646	103400
544.712	141964
544.777	51774
544.842	59605
544.907	72142
544.972	52447
545.037	49612
545.102	57381
545.168	56177
545.233	58048
545.298	60326
545.363	74451
545.428	63916
545.493	77274
545.558	134588
545.623	79344
545.688	59420
545.753	52899
545.818	53548
545.883	54469
545.947	52952
546.012	67886
546.077	72445
546.142	54620
546.207	50838
546.272	57146
546.337	59484
546.401	53166
546.466	51715
546.531	52830
546.596	58286
546.661	54271
546.725	52201
546.790	49521
546.855	51920
546.919	50843
546.984	54381
547.049	62921
547.113	85396
547.178	64428
547.243	72674
547.307	74960
547.372	92181
547.436	115307
547.501	64590
547.565	64221
547.630	68640
547.695	77338
547.759	129420
547.823	93531
547.888	60063
547.952	58251
548.017	62908
548.081	80561
548.146	141029
548.210	105164
548.274	62097
548.339	55233
548.403	55474
548.468	52370
548.532	54787
548.596	55834
548.660	59477
548.725	63915
548.789	90507
548.853	95606
548.917	70070
548.982	130577
549.046	130507
549.110	64649
549.174	58167
549.238	55798
549.303	50681
549.367	55834
549.431	54769
549.495	52855
549.559	54796
549.623	55277
549.687	64738
549.751	78221
549.815	71782
549.879	67378
549.943	61998
550.007	70483
550.071	70191
550.135	72871
550.199	68981
550.263	66842
550.327	84115
550.391	138003
550.455	78357
550.519	67020
550.582	67818
550.646	77508
550.710	81550
550.774	70226
550.838	73231
550.901	77061
550.965	81864
551.029	88063
551.093	100337
551.156	139024
551.220	307565
551.284	320017
551.347	152985
551.411	396668
551.475	414271
551.538	92140
551.602	71276
551.666	65332
551.729	60446
551.793	61707
551.856	61937
551.920	59146
551.983	60551
552.047	61606
552.110	56846
552.174	57233
552.237	59247
552.301	57208
552.364	57056
552.428	58763
552.491	58126
552.554	55991
552.618	59600
552.681	60259
552.745	61995
552.808	66024
552.871	71738
552.934	60504
552.998	64422
553.061	75894
553.124	60906
553.187	56192
553.251	61007
553.314	63721
553.377	57450
553.440	60762
553.503	68578
553.567	80217
553.630	60229
553.693	59269
553.756	63021
553.819	55277
553.882	58426
553.945	56640
554.008	53451
554.071	53410
554.134	54578
554.197	54215
554.260	48593
554.323	55298
554.386	56654
554.449	55849
554.512	54796
554.575	53323
554.638	61129
554.701	56062
554.764	52602
554.827	53934
554.889	51023
554.952	47228
555.015	50627
555.078	49456
555.141	50338
555.203	47567
555.266	48443
555.329	52286
555.391	47284
555.454	48805
555.517	51288
555.580	48735
555.642	44849
555.705	45685
555.768	46559
555.830	47987
555.893	44818
555.955	45786
556.018	47118
556.080	48411
556.143	45649
556.206	48418
556.268	56155
556.330	52681
556.393	51771
556.455	57954
556.518	110416
556.580	106177
556.643	48449
556.705	45487
556.767	45239
556.830	47115
556.892	49370
556.955	60336
557.017	52344
557.079	47450
557.142	44644
557.204	48285
557.266	72941
557.328	68480
557.391	47327
557.453	43930
557.515	45931
557.577	51901
557.639	53320
557.701	43931
557.764	43869
557.826	47808
557.888	54849
557.950	49325
558.012	47775
558.074	50750
558.136	72908
558.198	146945
558.260	90239
558.322	57300
558.384	53889
558.446	56437
558.508	63082
558.570	77008
558.632	92887
558.694	120899
558.756	99534
558.818	214956
558.880	610397
558.942	249683
559.003	152264
559.065	102039
559.127	57058
559.189	57615
559.251	61308
559.312	67143
559.374	116839
559.436	371874
559.498	250609
559.559	66375
559.621	59793
559.683	68577
559.744	109154
559.806	221965
559.868	334964
559.929	112936
559.991	79300
560.052	85706
560.114	152966
560.176	125826
560.237	97134
560.299	158498
560.360	76976
560.422	62647
560.483	60679
560.545	57794
560.606	57875
560.667	57086
560.729	56434
560.790	54425
560.852	55848
560.913	56503
560.974	55871
561.036	53689
561.097	54479
561.158	54365
561.220	54581
561.281	54329
561.342	55133
561.403	58731
561.465	63820
561.526	100729
561.587	120248
561.648	62257
561.709	54582
561.771	54750
561.832	55851
561.893	52447
561.954	50598
562.015	51790
562.076	51770
562.137	52271
562.198	53502
562.259	52162
562.320	51820
562.381	54794
562.442	67258
562.503	60567
562.564	52712
562.625	50889
562.686	52488
562.747	58689
562.808	54223
562.869	58829
562.930	79783
562.991	73880
563.051	65379
563.112	60563
563.173	57084
563.234	54716
563.294	53512
563.355	53652
563.416	55147
563.477	54090
563.537	58406
563.598	64239
563.659	58825
563.720	58835
563.780	58772
563.841	59520
563.901	57278
563.962	57706
564.023	58497
564.083	59996
564.144	60362
564.204	62836
564.265	64600
564.325	82584
564.386	183284
564.446	152895
564.507	60160
564.567	54852
564.628	55249
564.688	53255
564.749	56457
564.809	73307
564.869	94700
564.930	58367
564.990	47775
565.050	48822
565.111	48597
565.171	48078
565.231	48745
565.292	46057
565.352	45971
565.412	51217
565.472	51842
565.532	51158
565.593	48604
565.653	47611
565.713	51350
565.773	53296
565.833	54396
565.893	61529
565.953	53292
566.013	52244
566.074	60033
566.134	86919
566.194	164991
566.254	145691
566.314	86778
566.374	56417
566.434	54302
566.494	52948
566.554	50641
566.614	49267
566.673	49341
566.733	54807
566.793	56515
566.853	57520
566.913	54445
566.973	55428
567.033	58780
567.092	59903
567.152	56961
567.212	58102
567.272	62062
567.331	68691
567.391	61494
567.451	67608
567.511	110713
567.570	108469
567.630	54891
567.690	52521
567.749	50631
567.809	49849
567.868	54254
567.928	60296
567.988	71981
568.047	61011
568.107	58114
568.166	62222
568.226	77088
568.285	98062
568.345	85080
568.404	69967
568.464	66077
568.523	62953
568.582	64127
568.642	67555
568.701	77268
568.761	96923
568.820	139350
568.879	146132
568.939	145933
568.998	94991
569.057	68702
569.116	61375
569.176	53981
569.235	52266
569.294	49654
569.353	47666
569.413	51808
569.472	54476
569.531	48603
569.590	47643
569.649	46378
569.708	44366
569.767	48247
569.827	59416
569.886	51118
569.945	44749
570.004	45731
570.063	46973
570.122	49413
570.181	55065
570.240	72840
570.299	68580
570.358	58964
570.417	49127
570.475	44214
570.534	45159
570.593	46853
570.652	48592
570.711	52406
570.770	50893
570.829	57863
570.887	46386
570.946	46832
571.005	44622
571.064	43954
571.122	49683
571.181	64718
571.240	49855
571.299	45945
571.357	56290
571.416	60798
571.475	72015
571.533	73703
571.592	52638
571.650	60343
571.709	45486
571.768	42494
571.826	41740
571.885	41580
571.943	42443
572.002	48189
572.060	51051
572.119	40943
572.177	40053
572.236	38321
572.294	37648
572.352	37762
572.411	39360
572.469	38774
572.528	37974
572.586	40548
572.644	45037
572.703	57305
572.761	46325
572.819	41693
572.877	39907
572.936	37420
572.994	38698
573.052	39424
573.110	40010
573.169	38334
573.227	35840
573.285	36575
573.343	38226
573.401	40480
573.459	38269
573.517	37526
573.576	36944
573.634	38211
573.692	42444
573.750	39382
573.808	40989
573.866	47018
573.924	70572
573.982	65799
574.040	43762
574.098	40462
574.155	37461
574.213	34223
574.271	35166
574.329	37911
574.387	34449
574.445	35238
574.503	33733
574.560	32249
574.618	31955
574.676	31634
574.734	32549
574.792	32936
574.849	31717
574.907	31238
574.965	31361
575.022	30696
575.080	31831
575.138	32838
575.195	34159
575.253	35560
575.311	36217
575.368	32166
575.426	31567
575.483	32499
575.541	32189
575.598	33132
575.656	38315
575.713	36666
575.771	33751
575.828	33356
575.886	34686
575.943	37925
576.001	39361
576.058	40347
576.115	45068
576.173	55753
576.230	63396
576.287	56491
576.345	47416
576.402	43133
576.459	42836
576.517	46067
576.574	55208
576.631	59139
576.688	47858
576.746	40486
576.803	40826
576.860	39693
576.917	38837
576.974	38675
577.031	38306
577.089	40441
577.146	40869
577.203	40928
577.260	45048
577.317	52231
577.374	62614
577.431	56538
577.488	41962
577.545	36563
577.602	37472
577.659	36947
577.716	34412
577.773	35155
577.830	34904
577.886	35511
577.943	36242
578.000	35328
578.057	41038
578.114	38661
578.171	34220
578.227	35117
578.284	36152
578.341	39522
578.398	39273
578.454	44360
578.511	56526
578.568	68172
578.625	53911
578.681	38278
578.738	35182
578.794	34119
578.851	34265
578.908	33863
578.964	35588
579.021	35161
579.077	33828
579.134	33739
579.190	31622
579.247	32396
579.303	33442
579.360	31071
579.416	31735
579.473	31621
579.529	31558
579.586	30902
579.642	33085
579.698	35054
579.755	35625
579.811	33207
579.867	31830
579.924	30826
579.980	31845
580.036	34112
580.093	33848
580.149	35813
580.205	36752
580.261	36134
580.317	39328
580.374	46805
580.430	59290
580.486	53060
580.542	40388
580.598	36235
580.619	36148
580.654	36041
580.692	35871
580.710	35860
580.765	33617
580.767	33587
580.823	35534
580.838	35485
580.879	35522
580.911	34338
580.935	33535
580.984	33600
580.991	33655
581.047	34162
581.057	34488
581.103	36144
581.130	36705
581.159	37383
581.203	38270
581.215	38555
581.270	40169
581.276	39840
581.326	37123
581.349	37261
581.382	37520
581.422	36966
581.438	36801
581.494	39482
581.494	39423
581.550	36535
581.567	36945
581.606	37955
581.640	37606
581.661	37432
581.713	37281
581.717	37304
581.773	36003
581.786	36228
581.829	37000
581.859	36430
581.885	36052
581.932	35992
581.940	36000
581.996	36504
582.004	36424
582.052	36142
582.077	34988
582.107	33649
582.150	34839
582.163	35246
582.219	36789
582.223	36745
582.274	36412
582.296	37945
582.330	40488
582.368	39945
582.386	39690
582.441	33785
582.441	33790
582.497	34141
582.514	33727
582.552	33013
582.587	33103
582.608	33163
582.659	33468
582.663	33495
582.719	33043
582.732	33195
582.774	33863
582.805	34338
582.830	34697
582.877	34318
582.885	34255
582.941	34085
582.950	33964
582.996	33340
583.023	33482
583.052	33922
583.095	34041
583.107	34048
583.162	35678
583.168	35784
583.218	36321
583.240	35465
583.273	34222
583.313	32675
583.328	32181
583.384	33447
583.385	33463
583.439	33943
583.458	33612
583.494	32810
583.531	32288
583.549	32109
583.603	32303
583.605	32299
583.660	31143
583.676	31476
583.715	32560
583.748	33828
583.770	34702
583.820	36431
583.825	36538
583.881	33107
583.893	33079
583.936	33222
583.965	33043
583.991	32874
584.038	32996
584.046	33065
584.101	35043
584.110	34858
584.156	33355
584.183	32852
584.211	32258
584.255	31333
584.266	31153
584.321	29940
584.328	30167
584.376	32182
584.400	31831
584.431	31252
584.472	31567
584.486	31527
584.541	30868
584.545	30841
584.596	30591
584.617	31290
584.651	33069
584.689	34712
584.706	34975
584.761	33965
584.762	33968
584.816	33405
584.834	33615
584.871	33874
584.906	34723
584.926	35264
584.978	33989
584.980	33946
585.035	35395
585.051	36010
585.090	37417
585.123	37729
585.145	37957
585.195	40104
585.200	40332
585.254	41004
585.267	41439
585.309	43249
585.340	46220
585.364	48235
585.412	49306
585.419	49490
585.473	51804
585.484	52865
585.528	61354
585.556	68040
585.583	86538
585.628	125070
585.637	141731
585.692	266216
585.700	289454
585.747	356150
585.772	325498
585.801	219434
585.845	84622
585.856	72416
585.910	50405
585.917	48147
585.965	45123
585.989	43705
586.019	42633
586.061	41916
586.074	41846
586.128	42322
586.133	42503
586.183	45574
586.205	46754
586.237	47907
586.277	48364
586.292	48301
586.346	47847
586.349	47837
586.401	47714
586.421	48724
586.455	52128
586.493	58345
586.509	64401
586.564	92879
586.565	94300
586.618	161865
586.637	159444
586.672	121429
586.709	75592
586.727	60236
586.781	50404
586.781	50377
586.835	45986
586.853	45278
586.889	44691
586.925	43610
586.944	43212
586.996	44151
586.998	44182
587.052	45268
587.068	45390
587.106	45703
587.140	46192
587.161	46413
587.212	47348
587.215	47432
587.269	49656
587.284	50061
587.323	50281
587.356	50307
587.377	50476
587.427	50820
587.431	50868
587.485	52027
587.499	52434
587.539	54150
587.571	55382
587.593	56386
587.643	58327
587.648	58530
587.702	61211
587.715	62217
587.755	65870
587.786	66946
587.810	67233
587.858	67663
587.864	68072
587.917	74002
587.930	75629
587.971	82846
588.001	87756
588.025	90327
588.073	91610
588.079	92291
588.133	99125
588.145	101146
588.187	109282
588.217	114908
588.241	122268
588.288	137364
588.295	139970
588.348	160342
588.360	164900
588.402	184775
588.431	198679
588.456	214748
588.503	245883
588.510	251936
588.564	301230
588.575	311511
588.617	366964
588.646	406044
588.671	466025
588.718	586498
588.725	624137
588.778	924935
588.789	990631
588.832	1486536
588.861	1840078
588.886	2152337
588.932	2733096
588.939	2736230
588.993	2543512
589.004	2504616
589.047	2259380
589.075	2021915
589.100	1651990
589.147	971831
589.154	934454
589.207	675874
589.218	625252
589.261	578645
589.290	550930
589.314	580220
589.361	644292
589.368	681247
589.421	992753
589.433	1062557
589.475	1619989
589.504	2027663
589.528	2224660
589.576	2520374
589.582	2479187
589.635	1980219
589.647	1851699
589.689	1189893
589.718	740043
589.742	608848
589.790	372173
589.795	363936
589.849	291831
589.861	277510
589.902	260071
589.932	236948
589.955	210116
590.004	151357
590.009	148874
590.062	129433
590.075	124494
590.115	116210
590.146	109810
590.168	106548
590.218	99432
590.222	99209
590.275	94940
590.289	93801
590.328	91432
590.360	88158
590.381	85338
590.431	79456
590.435	79386
590.488	76870
590.503	76217
590.541	75003
590.574	73545
590.594	71966
590.645	67949
590.647	67933
590.700	66265
590.716	65654
590.753	63759
590.787	61993
590.806	61804
590.859	61566
590.859	61570
590.912	59112
590.930	58326
590.965	58919
591.001	59437
591.018	58945
591.071	57364
591.072	57320
591.124	56554
591.143	56323
591.177	56688
591.214	56703
591.230	56891
591.283	58097
591.285	58114
591.336	58577
591.356	58679
591.389	58329
591.427	57699
591.442	56830
591.495	53721
591.498	53489
591.547	52764
591.569	52382
591.600	52164
591.640	51930
591.653	52177
591.706	53318
591.711	53461
591.759	57821
591.782	60300
591.811	63225
591.853	67079
591.864	65008
591.917	53426
591.924	51887
591.969	51630
591.995	51613
592.022	52506
592.066	54125
592.075	55885
592.127	66879
592.137	69067
592.180	76074
592.208	79908
592.233	71289
592.279	54608
592.285	54072
592.338	50439
592.350	49642
592.390	48836
592.421	48249
592.443	48650
592.491	49601
592.495	49625
592.548	50052
592.562	50186
592.600	49979
592.633	49783
592.653	49448
592.704	48333
592.705	48603
592.775	48332
592.846	49758
592.916	51663
592.987	54513
593.058	51491
593.128	49162
593.199	47724
593.270	47475
593.341	47616
593.411	49138
593.482	48811
593.553	47576
593.623	47860
593.694	50913
593.764	56266
593.835	49160
593.906	48614
593.976	50513
594.047	55509
594.117	68599
594.188	67370
594.258	48725
594.329	48039
594.399	48773
594.470	48306
594.540	48707
594.611	48810
594.681	49029
594.751	51068
594.822	55098
594.892	57209
594.963	56400
595.033	56745
595.103	58636
595.174	67053
595.244	105330
595.314	128805
595.384	64528
595.455	57396
595.525	58669
595.595	60106
595.665	61171
595.736	59646
595.806	58662
595.876	57521
595.946	58395
596.016	59364
596.087	61974
596.157	60830
596.227	60529
596.297	63750
596.367	67450
596.437	76827
596.507	106412
596.577	129544
596.647	76075
596.717	68526
596.787	70991
596.857	69954
596.927	70755
596.997	69991
597.067	69666
597.137	74097
597.207	73453
597.277	72708
597.347	72174
597.417	68903
597.487	69831
597.557	71509
597.626	74591
597.696	81854
597.766	99415
597.836	125197
597.906	77624
597.975	65515
598.045	66418
598.115	66705
598.185	70302
598.254	77287
598.324	82487
598.394	83012
598.464	82055
598.533	77879
598.603	73028
598.672	74223
598.742	76408
598.812	76087
598.881	75825
598.951	72703
599.020	73089
599.090	73916
599.159	76960
599.229	73534
599.299	70104
599.368	73423
599.437	72734
599.507	70269
599.576	71601
599.646	68056
599.715	68307
599.785	69036
599.854	74054
599.924	81617
599.993	71798
600.062	66443
600.132	67512
600.201	71155
600.270	81263
600.340	80378
600.409	76788
600.478	77548
600.547	79124
600.617	73692
600.686	64001
600.755	60438
600.824	60512
600.894	58038
600.963	56234
601.032	53848
601.101	54342
601.170	52643
601.239	54594
601.308	59296
601.378	56574
601.447	51619
601.516	51788
601.585	55542
601.654	62127
601.723	55390
601.792	55370
601.861	56303
601.930	60601
601.999	62220
602.068	59442
602.137	67223
602.206	64663
602.275	58935
602.343	66898
602.412	64934
602.481	57080
602.550	55725
602.619	56922
602.688	59902
602.756	58320
602.825	57205
602.894	57643
602.963	58990
603.032	60900
603.100	58785
603.169	60338
603.238	60027
603.307	59352
603.375	59795
603.444	61897
603.513	61885
603.581	62953
603.650	62795
603.719	62785
603.787	62970
603.856	66685
603.924	68338
603.993	69673
604.061	69550
604.130	72024
604.198	73365
604.267	73801
604.335	73822
604.404	73065
604.472	74945
604.541	75789
604.609	76807
604.678	75504
604.746	76140
604.815	79325
604.883	79448
604.951	80972
605.020	80226
605.088	83758
605.156	84213
605.225	85128
605.293	84766
605.361	86778
605.429	86592
605.498	88299
605.566	91098
605.634	94538
605.702	96179
605.771	98683
605.839	98563
605.907	96170
605.975	92951
606.043	91379
606.111	91753
606.180	90923
606.248	92202
606.316	93142
606.384	95945
606.452	109096
606.520	108406
606.588	98006
606.656	94914
606.724	93088
606.792	87465
606.860	79811
606.928	72413
606.996	72015
607.064	70471
607.132	72978
607.200	76985
607.267	79571
607.335	79102
607.403	80701
607.471	77805
607.539	77076
607.607	77706
607.674	70316
607.742	72948
607.810	74547
607.878	71343
607.946	71792
608.013	74947
608.081	78613
608.149	77733
608.216	77456
608.284	79070
608.352	80455
608.419	85186
608.487	107626
608.555	85039
608.622	77647
608.690	81645
608.757	89006
608.825	90479
608.893	92422
608.960	96811
609.028	105626
609.095	119592
609.163	90101
609.230	78547
609.298	72693
609.365	71462
609.432	76062
609.500	82333
609.567	93990
609.635	104888
609.702	109073
609.769	107720
609.837	97528
609.904	80149
609.971	81118
610.039	95353
610.106	141221
610.173	308264
610.241	743017
610.308	368515
610.375	118641
610.442	84228
610.509	77575
610.577	76709
610.644	77334
610.711	78588
610.778	81203
610.845	82962
610.912	87721
610.980	91897
611.047	96574
611.114	92111
611.181	87268
611.248	82949
611.315	91294
611.382	90761
611.449	94732
611.516	96642
611.583	96774
611.650	96523
611.717	100234
611.784	102869
611.851	113107
611.918	129850
611.984	162790
612.051	271963
612.118	647590
612.185	1695292
612.252	906600
612.319	185641
612.386	135603
612.452	122469
612.519	123510
612.586	146649
612.653	121353
612.719	112130
612.786	105453
612.853	97782
612.919	96749
612.986	96463
613.053	91301
613.120	85982
613.186	85984
613.253	87908
613.319	85146
613.386	86009
613.453	88201
613.519	92615
613.586	101392
613.652	117151
613.719	106689
613.785	100050
613.852	89531
613.918	86070
613.985	90335
614.051	103465
614.118	136898
614.184	124293
614.250	87838
614.317	87598
614.383	86777
614.449	86843
614.516	88467
614.582	91838
614.648	88325
614.715	84490
614.781	84640
614.847	89734
614.914	90293
614.980	86214
615.046	84321
615.112	84923
615.179	86898
615.245	88911
615.311	95882
615.377	118846
615.443	123347
615.509	100615
615.575	98732
615.642	96977
615.708	102251
615.774	109293
615.840	124718
615.906	151182
615.972	216915
616.038	403770
616.104	889804
616.170	2178030
616.236	1641932
616.302	309432
616.368	209115
616.434	144741
616.500	133091
616.565	149431
616.631	191244
616.697	147909
616.763	157727
616.829	261511
616.895	490312
616.961	442950
617.026	170430
617.092	108465
617.158	98352
617.224	93240
617.289	88127
617.355	86502
617.421	85454
617.487	84533
617.552	78484
617.618	77900
617.684	77406
617.749	78681
617.815	74167
617.880	70682
617.946	71731
618.012	75185
618.077	73333
618.143	71213
618.208	73230
618.274	77810
618.339	78669
618.405	66192
618.470	68233
618.536	71014
618.601	76104
618.667	68645
618.732	62586
618.798	60633
618.863	62514
618.928	60771
618.994	65774
619.059	71773
619.124	87037
619.190	69436
619.255	61969
619.320	63755
619.386	61926
619.451	59647
619.516	58409
619.581	59449
619.647	61425
619.712	60012
619.777	57534
619.842	59833
619.907	61513
619.972	62370
620.038	62820
620.103	58581
620.168	55970
620.233	57862
620.298	59195
620.363	58298
620.428	60771
620.493	61102
620.558	61770
620.623	60411
620.688	61614
620.753	60093
620.818	62576
620.883	60771
620.948	61702
621.013	61368
621.078	62414
621.143	63728
621.207	68699
621.272	65413
621.337	67697
621.402	73141
621.467	92367
621.532	94609
621.596	75000
621.661	66855
621.726	63858
621.791	65605
621.855	67623
621.920	71634
621.985	79238
622.049	89857
622.114	83774
622.179	73068
622.243	75091
622.308	72490
622.373	75965
622.437	72383
622.502	68259
622.566	68485
622.631	68739
622.695	69096
622.760	68841
622.824	67591
622.889	70884
622.953	74997
623.018	97923
623.082	90661
623.147	72407
623.211	70476
623.276	70822
623.340	65585
623.404	64023
623.469	63987
623.533	64864
623.597	62839
623.662	63694
623.726	60001
623.790	57649
623.854	57513
623.919	59653
623.983	58991
624.047	61436
624.111	59166
624.176	60538
624.240	66849
624.304	69776
624.368	58641
624.432	60392
624.496	63252
624.560	68236
624.625	71116
624.689	63971
624.753	63819
624.817	62063
624.881	60570
624.945	55355
625.009	56133
625.073	56527
625.137	63316
625.201	72610
625.265	69578
625.329	59392
625.393	63435
625.456	62085
625.520	66454
625.584	75035
625.648	93258
625.712	151196
625.776	337874
625.839	357361
625.903	126119
625.967	77875
626.031	133303
626.095	200591
626.158	75330
626.222	50367
626.286	46858
626.349	45102
626.413	44283
626.477	48639
626.540	43428
626.604	45049
626.668	43378
626.731	41762
626.795	46826
626.858	47081
626.922	43945
626.986	43346
627.049	41370
627.113	43942
627.176	41006
627.240	42187
627.303	41816
627.366	42387
627.430	43233
627.493	43868
627.557	43698
627.620	43590
627.684	43274
627.747	44770
627.810	40657
627.874	40371
627.937	38097
628.000	42534
628.064	40656
628.127	35844
628.190	36956
628.253	36937
628.317	34578
628.380	36468
628.443	35188
628.506	36193
628.569	34365
628.632	31323
628.696	32539
628.759	32667
628.822	31691
628.885	31064
628.948	31234
629.011	33341
629.074	31607
629.137	29664
629.200	30640
629.263	34025
629.326	28742
629.389	30431
629.452	31110
629.515	32375
629.578	31521
629.641	33947
629.704	32373
629.767	31970
629.830	29782
629.892	28783
629.955	28522
630.018	32249
630.081	34387
630.144	40442
630.207	32489
630.269	35991
630.332	38604
630.395	33344
630.458	27804
630.520	27852
630.583	28572
630.646	27904
630.708	27043
630.771	28013
630.834	28408
630.896	26789
630.959	26865
631.021	26455
631.084	29221
631.146	34051
631.209	39680
631.272	29290
631.334	27341
631.397	28189
631.459	27337
631.522	30240
631.584	30975
631.646	32610
631.709	35877
631.771	44273
631.834	35304
631.896	30304
631.958	26787
632.021	27936
632.083	26922
632.145	28157
632.208	26625
632.270	28266
632.332	25151
632.395	25235
632.457	26889
632.519	26368
632.581	25514
632.643	24135
632.706	25437
632.768	23873
632.830	24112
632.892	24647
632.954	25271
633.016	25839
633.078	23918
633.141	24408
633.203	24473
633.265	25545
633.327	24735
633.389	24334
633.451	29113
633.513	33364
633.575	35656
633.637	33818
633.698	30417
633.760	27062
633.822	26814
633.884	27743
633.946	27466
634.008	28354
634.070	28742
634.132	31741
634.193	33930
634.255	36798
634.317	37005
634.379	37289
634.441	33616
634.502	29865
634.564	27699
634.626	25827
634.687	25028
634.749	24867
634.811	24013
634.873	22731
634.934	22973
634.996	24867
635.057	22614
635.119	23064
635.181	25075
635.242	25344
635.304	21251
635.365	27116
635.427	24812
635.488	24949
635.550	23439
635.611	24484
635.673	23377
635.734	29009
635.796	29273
635.857	32426
635.918	30715
635.980	36577
636.041	36474
636.102	40272
636.164	40059
636.225	39467
636.286	33981
636.348	31420
636.409	27196
636.470	24921
636.531	26665
636.593	30530
636.654	27946
636.715	22343
636.776	20599
636.838	19814
636.899	21808
636.960	21382
637.021	19625
637.082	20454
637.143	20738
637.204	18907
637.265	18777
637.326	19496
637.387	19355
637.448	18855
637.509	18971
637.570	18729
637.631	19106
637.692	17683
637.753	16038
637.814	18096
637.875	16588
637.936	19190
637.997	18024
638.058	19688
638.119	22206
638.179	19164
638.240	16930
638.301	17441
638.362	17060
638.423	18952
638.483	19077
638.544	15924
638.605	17654
638.666	16298
638.726	17479
638.787	17316
638.848	16320
638.908	15934
638.969	16352
639.030	16894
639.090	15106
639.151	16948
639.211	19016
639.272	23176
639.332	34101
639.393	23246
639.453	18707
639.514	19620
639.574	16753
639.635	15749
639.695	16973
639.756	15428
639.816	17857
639.877	21584
639.937	33357
639.997	40841
640.058	17482
640.118	15316
640.178	15613
640.239	15369
640.299	14281
640.359	15780
640.420	15275
640.480	18502
640.540	19777
640.600	20054
640.661	18406
640.721	17958
640.781	23448
640.841	16385
640.901	16396
640.961	17116
641.021	18366
641.082	22679
641.142	27343
641.202	18683
641.262	12872
641.322	15170
641.382	12573
641.442	15699
641.502	14019
641.562	15969
641.622	14510
641.682	17079
641.742	18147
641.802	18645
641.861	17646
641.921	17221
641.981	18113
642.041	18359
642.101	21317
642.161	14121
642.221	13703
642.280	13752
642.340	13866
642.400	13029
642.460	14286
642.519	14753
642.579	14148
642.639	15279
642.698	11901
642.758	16385
642.818	14262
642.877	14326
642.937	15160
642.997	19022
643.056	23795
643.116	16147
643.175	15406
643.235	15636
643.294	15319
643.354	17727
643.414	19387
643.473	26342
643.532	28759
643.592	42279
643.651	71274
643.711	130442
643.770	276349
643.830	706747
643.889	1389870
643.948	259557
644.008	46191
644.067	30269
644.126	22354
644.186	20045
644.245	17450
644.304	14836
644.363	17368
644.423	14221
644.482	15971
644.541	16217
644.600	14553
644.659	20407
644.719	25474
644.778	39073
644.837	67503
644.896	143158
644.955	315957
645.014	87257
645.073	23895
645.132	19443
645.191	17323
645.250	15732
645.309	17839
645.368	17877
645.427	23696
645.486	37858
645.545	57608
645.604	19580
645.663	14472
645.722	15339
645.781	17012
645.840	20121
645.898	25565
645.957	39624
646.016	61388
646.075	120864
646.134	245765
646.192	716188
646.251	926367
646.310	108886
646.369	32798
646.427	27244
646.486	20343
646.545	16785
646.603	15645
646.662	15152
646.721	14343
646.779	13855
646.838	14506
646.896	19020
646.955	24145
647.014	39583
647.072	75949
647.131	201367
647.189	79033
647.248	15504
647.306	13420
647.365	14431
647.423	10764
647.481	12828
647.540	10390
647.598	11085
647.657	9865
647.715	11047
647.773	10490
647.832	11709
647.890	9496
647.948	10749
648.007	10625
648.065	9054
648.123	9749
648.181	12641
648.240	11317
648.298	9525
648.356	9422
648.414	11212
648.472	10659
648.531	10773
648.589	10540
648.647	10312
648.705	9965
648.763	11724
648.821	11476
648.879	11313
648.937	12876
648.995	16309
649.053	20680
649.111	31678
649.169	51844
649.227	96257
649.285	206603
649.343	584258
649.401	227975
649.459	58252
649.516	35076
649.574	22236
649.632	37130
649.690	40179
649.748	25881
649.806	32387
649.863	56285
649.921	140523
649.979	77677
650.037	15840
650.094	9827
650.152	11994
650.210	9771
650.268	11225
650.325	9822
650.383	10298
650.440	8244
650.498	9831
650.556	9440
650.613	8090
650.671	9225
650.728	10175
650.786	12003
650.843	12157
650.901	8199
650.958	8673
651.016	7534
651.073	8435
651.131	8985
651.188	8224
651.246	9425
651.303	8763
651.360	8321
651.418	8557
651.475	8470
651.532	8358
651.590	7893
651.647	7533
651.704	8588
651.762	9067
651.819	8447
651.876	7878
651.933	8501
651.990	8951
652.048	6972
652.105	8260
652.162	8735
652.219	7314
652.276	7508
652.333	8334
652.390	6131
652.448	8342
652.505	8275
652.562	7828
652.619	7388
652.676	9158
652.733	8962
652.790	7421
652.847	6375
652.904	7671
652.961	6081
653.017	7186
653.074	7451
653.131	8322
653.188	5827
653.245	7146
653.302	7241
653.359	6615
653.415	7269
653.472	8022
653.529	8361
653.586	6979
653.642	7774
653.699	6302
653.756	6684
653.813	7003
653.869	7113
653.926	6259
653.983	6685
654.039	7287
654.096	7118
654.152	8109
654.209	6635
654.266	8559
654.322	7195
654.379	10243
654.435	10952
654.492	12369
654.548	17066
654.605	27530
654.661	11612
654.717	9167
654.774	9863
654.830	9308
654.887	8801
654.943	8699
655.000	9248
655.056	8601
655.112	8714
655.168	8179
655.225	9907
655.281	12032
655.337	17292
655.394	30476
655.450	20107
655.506	17545
655.562	32599
655.618	21518
655.675	8114
655.731	9412
655.787	6888
655.843	8658
655.899	6986
655.955	8825
656.011	8754
656.067	6826
656.123	8059
656.179	8464
656.235	9083
656.291	7338
656.347	9094
656.403	9779
656.459	9421
656.515	12124
656.571	11494
656.627	9409
656.683	7982
656.739	8569
656.795	7724
656.850	9169
656.906	10868
656.962	9251
657.018	6657
657.074	8180
657.129	8883
657.185	11765
657.241	17139
657.297	11618
657.352	7237
657.408	7698
657.464	10398
657.519	8381
657.575	5557
657.630	7764
657.686	6846
657.742	6536
657.797	6724
657.853	7744
657.908	8665
657.964	6125
658.019	6406
658.075	8603
658.130	6822
658.186	6927
658.241	7395
658.297	6946
658.352	6767
658.407	7448
658.463	6720
658.518	7899
658.573	7453
658.629	6709
658.684	5877
658.739	6922
658.795	5320
658.850	7280
658.905	5288
658.960	7125
659.016	6083
659.071	6972
659.126	7158
659.181	9139
659.236	12387
659.291	13052
659.346	9064
659.401	9453
659.457	8125
659.512	8358
659.567	7693
659.622	7625
659.677	6937
659.732	7682
659.787	7786
659.842	10691
659.897	14053
659.952	8125
660.007	7062
660.061	7513
660.116	6859
660.171	5865
660.226	6240
660.281	7382
660.336	5842
660.391	7834
660.445	5998
660.500	7208
660.555	6756
660.610	7196
660.664	7318
660.719	6066
660.774	7367
660.828	7160
660.883	7340
660.938	7503
660.992	6728
661.047	7366
661.101	6296
661.156	6249
661.211	5848
661.265	5950
661.320	6977
661.374	6455
661.429	5980
661.483	6917
661.538	5646
661.592	7052
661.647	6673
661.701	7588
661.755	6593
661.810	7984
661.864	7095
661.919	6782
661.973	8202
662.027	6816
662.081	5819
662.136	7052
662.190	7385
662.244	9048
662.299	7036
662.353	7449
662.407	6715
662.461	7914
662.515	7825
662.569	8739
662.624	7655
662.678	7362
662.732	6614
662.786	7488
662.840	7835
662.894	7858
662.948	6614
663.002	6675
663.056	6500
663.110	7273
663.164	6165
663.218	7267
663.272	7832
663.326	7816
663.380	8110
663.434	8221
663.488	7257
663.542	8202
663.595	8048
663.649	7748
663.703	7669
663.757	8140
663.811	6598
663.864	7157
663.918	7252
663.972	7449
664.026	6882
664.079	7152
664.133	7609
664.187	7120
664.240	7343
664.294	6899
664.348	7467
664.401	8225
664.455	7076
664.508	7325
664.562	6858
664.615	7549
664.669	6006
664.722	7874
664.776	6560
664.829	7257
664.883	7644
664.936	7954
664.990	8255
665.043	9370
665.097	8453
665.150	10939
665.203	7784
665.257	9400
665.310	8149
665.363	9200
665.417	8318
665.470	8472
665.523	8376
665.576	9070
665.630	8152
665.683	8284
665.736	8650
665.789	8819
665.842	8228
665.895	8934
665.949	8098
666.002	7809
666.055	8337
666.108	9318
666.161	9185
666.214	9510
666.267	9872
666.320	10542
666.373	9491
666.426	10115
666.479	8925
666.532	11876
666.585	14277
666.638	15609
666.691	13741
666.744	14754
666.796	14471
666.849	12982
666.902	10099
666.955	8701
667.008	7639
667.060	7752
667.113	6936
667.166	8357
667.219	7866
667.271	8296
667.324	7801
667.377	9311
667.430	8187
667.482	9193
667.535	9234
667.587	9615
667.640	10190
667.693	12557
667.745	16805
667.798	15966
667.850	10424
667.903	10199
667.955	9463
668.008	9517
668.060	11708
668.113	11662
668.165	11096
668.218	10951
668.270	9792
668.322	10158
668.375	9641
668.427	10568
668.479	8989
668.532	10079
668.584	10506
668.636	9324
668.689	9754
668.741	10044
668.793	10200
668.845	10005
668.898	10701
668.950	9842
669.002	9500
669.054	9918
669.106	10302
669.158	11305
669.211	9652
669.263	10937
669.315	10438
669.367	11821
669.419	11817
669.471	13748
669.523	14995
669.575	18108
669.627	15818
669.679	12732
669.731	10281
669.783	11513
669.835	14674
669.886	12078
669.938	10557
669.990	9981
670.042	9402
670.094	9872
670.146	9950
670.197	10047
670.249	10379
670.301	10585
670.353	12879
670.404	15233
670.456	19010
670.508	26137
670.560	39085
670.611	63598
670.663	105257
670.715	261899
670.766	358439
670.818	79275
670.869	19580
670.921	14407
670.972	13183
671.024	12279
671.075	11521
671.127	10833
671.178	10139
671.230	10821
671.281	11684
671.333	11487
671.384	13726
671.436	13485
671.487	16405
671.538	18336
671.590	23314
671.641	34368
671.692	53861
671.744	90552
671.795	56845
671.846	23816
671.897	16416
671.949	14742
672.000	12796
672.051	13298
672.102	13213
672.153	12787
672.204	11135
672.256	11530
672.307	11891
672.358	12220
672.409	11444
672.460	11258
672.511	9468
672.562	11529
672.613	10813
672.664	10868
672.715	10044
672.766	11139
672.817	10064
672.868	10680
672.919	9436
672.970	10585
673.021	9381
673.071	10499
673.122	11241
673.173	11418
673.224	10412
673.275	10251
673.326	10060
673.376	9903
673.427	11033
673.478	10531
673.528	10041
673.579	9939
673.630	9251
673.680	10915
673.731	8542
673.782	9098
673.832	10216
673.883	10708
673.934	9377
673.984	9612
674.035	9488
674.085	10817
674.136	12274
674.186	12315
674.237	15797
674.287	24517
674.338	13956
674.388	11182
674.438	10579
674.489	11187
674.539	12673
674.589	11789
674.640	11433
674.690	10804
674.740	11329
674.791	12348
674.841	12216
674.891	11531
674.942	10648
674.992	11092
675.042	10322
675.092	10736
675.142	9919
675.193	10168
675.243	9261
675.293	10997
675.343	10743
675.393	10907
675.443	10818
675.493	9489
675.543	9377
675.593	10843
675.643	9296
675.693	10046
675.743	9797
675.793	9465
675.843	9703
675.893	10491
675.943	9153
675.993	9248
676.043	10143
676.093	10554
676.142	9402
676.192	9418
676.242	9464
676.292	8798
676.341	10648
676.391	10714
676.441	9556
676.491	8524
676.540	8684
676.590	8838
676.640	8655
676.689	9945
676.739	9304
676.789	8147
676.838	9109
676.888	9155
676.937	8992
676.987	9550
677.037	8521
677.086	7129
677.136	9105
677.185	8649
677.235	7207
677.284	7937
677.333	8255
677.383	9022
677.432	7831
677.482	8438
677.531	9029
677.580	9814
677.630	8619
677.679	7570
677.728	9540
677.778	8933
677.827	8189
677.876	8542
677.925	7071
677.975	8311
678.024	8880
678.073	9301
678.122	10133
678.171	11425
678.220	9762
678.269	10386
678.319	10897
678.368	10740
678.417	9915
678.466	9209
678.515	10365
678.564	11243
678.613	9754
678.662	9027
678.711	10006
678.760	10899
678.809	8613
678.857	9910
678.906	9932
678.955	10154
679.004	10769
679.053	9280
679.102	9331
679.151	9730
679.199	9137
679.248	8797
679.297	10014
679.346	10189
679.394	9119
679.443	9142
679.492	9224
679.540	8914
679.589	9524
679.638	9114
679.686	8312
679.735	8642
679.784	9282
679.832	11157
679.881	8219
679.929	8478
679.978	7966
680.026	8371
680.075	9464
680.123	8306
680.172	8228
680.220	8003
680.268	8612
680.317	8584
680.365	8387
680.414	8376
680.462	9027
680.510	8650
680.559	7610
680.607	8259
680.655	6859
680.703	8556
680.752	8235
680.800	8482
680.848	8163
680.896	7647
680.945	7936
680.993	8202
681.041	7716
681.089	8546
681.137	6673
681.185	7506
681.233	7374
681.258	7464
681.281	7516
681.329	7981
681.377	7572
681.380	7632
681.425	8076
681.473	9861
681.502	9354
681.521	8930
681.569	9615
681.617	8271
681.624	8440
681.665	9268
681.713	8450
681.745	8794
681.761	8908
681.809	8993
681.857	9157
681.867	8779
681.904	7320
681.952	9651
681.989	9230
682.000	9063
682.048	9881
682.096	8252
682.111	8697
682.143	9522
682.191	9272
682.233	10255
682.239	10365
682.286	9612
682.334	9534
682.354	9450
682.382	9266
682.430	10307
682.476	9249
682.477	9196
682.525	9904
682.572	9201
682.598	9153
682.620	9074
682.667	9747
682.715	10590
682.720	10564
682.763	9976
682.810	10520
682.841	9827
682.857	9415
682.905	10247
682.952	9392
682.963	9702
683.000	10673
683.047	9807
683.085	11000
683.095	11286
683.142	9448
683.190	10256
683.206	10183
683.237	10008
683.284	10393
683.328	10241
683.332	10194
683.379	10341
683.426	9356
683.449	9864
683.473	10393
683.521	10448
683.568	10775
683.571	10754
683.615	10057
683.662	10448
683.693	10427
683.709	10389
683.757	10163
683.804	10878
683.814	10828
683.851	10520
683.898	10156
683.936	11022
683.945	11216
683.992	10669
684.039	11787
684.057	11793
684.086	11698
684.133	11774
684.179	11054
684.180	11008
684.227	11765
684.274	11939
684.300	12298
684.321	12520
684.368	10958
684.415	11577
684.422	11497
684.462	10806
684.509	10779
684.543	10709
684.556	10724
684.603	11500
684.649	11299
684.665	11452
684.696	11713
684.743	11504
684.786	12383
684.790	12460
684.837	12577
684.883	13592
684.908	13892
684.930	13889
684.977	15061
685.023	13406
685.029	13349
685.070	12770
685.117	12618
685.150	13186
685.164	13502
685.210	14424
685.257	15562
685.272	15277
685.303	14380
685.350	13924
685.393	14084
685.396	14118
685.443	15027
685.490	16242
685.514	16008
685.536	15368
685.583	15180
685.629	14683
685.636	14573
685.675	14211
685.722	14251
685.757	14316
685.768	14334
685.815	15701
685.861	14981
685.878	15099
685.908	15459
685.954	15694
686.000	16982
686.000	17000
686.047	18243
686.093	21767
686.121	21521
686.139	20612
686.185	17257
686.232	15839
686.242	15839
686.278	16185
686.324	15178
686.363	14027
686.370	13897
686.416	13664
686.463	15528
686.484	15103
686.509	14497
686.555	14277
686.601	13942
686.606	14033
686.647	15110
686.693	14697
686.727	14868
686.739	14856
686.785	14155
686.831	14419
686.848	14135
686.877	13637
686.923	13884
686.969	13723
686.969	13721
687.015	14210
687.061	14699
687.090	15091
687.107	15211
687.153	14948
687.199	14934
687.211	14639
687.245	14158
687.291	15408
687.332	16652
687.336	16746
687.382	16431
687.428	15994
687.453	16016
687.474	15804
687.520	14420
687.565	14899
687.574	14602
687.611	13923
687.657	14734
687.695	14740
687.702	14768
687.748	15803
687.794	15784
687.816	15889
687.839	15623
687.885	14592
687.931	14179
687.937	14096
687.976	14324
688.022	15376
688.058	15539
688.067	15515
688.113	16023
688.158	15058
688.179	15278
688.204	15639
688.249	15639
688.295	16799
688.300	16779
688.340	16865
688.386	17507
688.421	16968
688.431	16694
688.477	16034
688.522	15929
688.542	16053
688.567	16339
688.613	16114
688.658	15760
688.663	15713
688.703	15657
688.749	15714
688.784	16600
688.794	16773
688.839	16507
688.884	15922
688.905	15701
688.930	15625
688.975	15707
689.020	16346
689.026	16444
689.065	17261
689.110	16170
689.146	16209
689.155	16170
689.201	16028
689.246	15808
689.267	15798
689.291	15925
689.336	16311
689.381	16580
689.388	16523
689.426	16245
689.471	16254
689.509	16078
689.516	16061
689.561	15722
689.606	15673
689.630	15735
689.651	15904
689.696	16050
689.741	16620
689.750	16580
689.785	16331
689.830	16248
689.871	15688
689.875	15631
689.920	15956
689.965	15954
689.992	15301
690.010	15161
690.054	15866
690.099	16419
690.112	16578
690.144	16477
690.189	15986
690.233	15222
690.233	15237
690.278	15930
690.323	15427
690.354	15369
690.367	15437
690.412	16124
690.457	16314
690.474	16534
690.501	16541
690.546	16215
690.590	15848
690.595	15718
690.635	15195
690.680	15522
690.716	15833
690.724	15915
690.769	16099
690.813	16524
690.836	15974
690.857	15659
690.902	16573
690.946	17398
690.957	17465
690.991	18463
691.035	19575
691.077	21246
691.080	21302
691.124	20989
691.168	21093
691.198	21131
691.213	21031
691.257	21008
691.301	19796
691.318	19617
691.346	18985
691.390	17740
691.434	16834
691.439	16703
691.478	17109
691.522	17445
691.559	17658
691.567	17723
691.611	17966
691.655	17870
691.680	18078
691.699	18192
691.743	18164
691.787	18512
691.800	18373
691.831	18259
691.875	18712
691.919	18961
691.921	18947
691.964	19427
692.008	19579
692.041	19644
692.052	19645
692.096	19755
692.139	19561
692.162	19425
692.183	19223
692.227	19086
692.271	18909
692.282	18748
692.315	18676
692.359	18744
692.402	19147
692.403	19182
692.447	19268
692.490	19476
692.523	19762
692.534	19866
692.578	20187
692.622	20212
692.643	20147
692.666	19805
692.709	18861
692.753	18594
692.763	18365
692.797	18246
692.840	18844
692.884	18820
692.884	18854
692.928	19312
692.971	19386
693.004	19948
693.015	19958
693.059	19330
693.102	18862
693.124	18522
693.146	18785
693.189	19723
693.233	20178
693.245	20396
693.276	20515
693.320	20223
693.363	19818
693.365	19777
693.407	20229
693.450	20717
693.485	20535
693.493	20486
693.537	21178
693.580	21196
693.605	21160
693.624	21317
693.667	21702
693.710	21892
693.725	22058
693.753	23950
693.797	26974
693.840	29603
693.845	29881
693.883	28608
693.926	26664
693.966	25116
693.970	24973
694.013	22967
694.056	21221
694.086	19739
694.099	19846
694.142	20554
694.185	20688
694.206	20960
694.229	21334
694.272	21619
694.315	22291
694.326	22250
694.358	21789
694.401	21568
694.444	21231
694.446	21174
694.487	21218
694.530	20997
694.566	21136
694.573	21047
694.616	19568
694.659	18722
694.686	17868
694.702	17880
694.745	18374
694.787	18328
694.806	18444
694.830	18630
694.873	18696
694.916	18706
694.926	18656
694.959	18435
695.002	18155
695.044	18017
695.046	17972
695.087	18782
695.130	19498
695.166	20154
695.172	20178
695.215	19976
695.258	19869
695.286	19615
695.301	19554
695.343	19497
695.386	19347
695.406	19250
695.428	19230
695.471	18847
695.514	18800
695.526	18717
695.556	18862
695.599	19152
695.641	19104
695.646	19077
695.684	18926
695.726	18499
695.766	18421
695.769	18497
695.811	18923
695.854	19296
695.886	19427
695.896	19278
695.938	18655
695.981	17920
696.005	17433
696.023	17783
696.065	18660
696.108	19714
696.125	19930
696.150	19888
696.192	20156
696.235	20159
696.245	20116
696.277	20051
696.319	19855
696.361	19929
696.365	19862
696.404	19607
696.446	19542
696.485	19371
696.488	19435
696.530	19666
696.572	19783
696.604	20048
696.614	19970
696.656	19253
696.698	18465
696.724	17995
696.740	18157
696.783	18551
696.825	18838
696.844	18936
696.867	18954
696.909	18936
696.951	18835
696.964	18779
696.992	18629
697.034	18341
697.076	18008
697.083	17926
697.118	18638
697.160	19321
697.202	20143
697.203	20117
697.244	19936
697.286	19706
697.323	19464
697.327	19494
697.369	19305
697.411	19094
697.442	18950
697.453	19195
697.494	19968
697.536	20867
697.562	21316
697.578	21250
697.620	20941
697.661	20570
697.682	20390
697.703	20771
697.744	21410
697.786	22073
697.801	22213
697.828	22109
697.869	21976
697.911	21768
697.921	21678
697.952	21389
697.994	20930
698.035	20497
698.040	20385
698.077	19749
698.118	19031
698.160	18261
698.160	18211
698.201	18967
698.243	19583
698.279	20197
698.284	20257
698.325	20272
698.367	20375
698.399	20319
698.408	20240
698.449	19702
698.491	19154
698.518	18741
698.532	18851
698.573	19036
698.614	19249
698.638	19306
698.656	19536
698.697	19968
698.738	20405
698.757	20560
698.779	20556
698.820	20449
698.862	20352
698.877	20264
698.903	20866
698.944	21742
698.985	22626
698.996	22816
699.026	22535
699.067	22067
699.116	21458
699.235	20477
699.354	19895
699.474	21761
699.593	25167
699.713	23141
699.832	22070
699.951	22923
700.070	20775
700.190	20142
700.309	21276
700.428	23349
700.547	19519
700.667	21033
700.786	22848
700.905	19575
701.024	22706
701.143	19953
701.262	18304
701.381	17650
701.500	19830
701.619	20800
701.738	18490
701.857	17500
701.976	17291
702.095	17746
702.214	20775
702.333	20123
702.452	17528
702.571	17451
702.690	17745
702.809	17705
702.928	17216
703.047	18037
703.165	17050
703.284	16954
703.403	18304
703.522	20773
703.640	19314
703.759	25966
703.878	33548
703.997	18401
704.115	17026
704.234	17889
704.353	16743
704.471	15355
704.590	14910
704.708	16141
704.827	15604
704.946	17207
705.064	18577
705.183	17115
705.301	23793
705.420	36378
705.538	29138
705.656	23945
705.775	22146
705.893	29215
706.012	29464
706.130	26340
706.249	25491
706.367	27229
706.485	26828
706.604	25822
706.722	25577
706.840	32112
706.958	28245
707.077	24874
707.195	23756
707.313	23091
707.431	21902
707.549	23382
707.668	23021
707.786	24596
707.904	22095
708.022	21832
708.140	21748
708.258	21011
708.376	22305
708.494	23188
708.612	26940
708.730	40063
708.848	35863
708.966	32110
709.084	29577
709.202	29552
709.320	31621
709.438	30351
709.556	30588
709.674	29200
709.791	29041
709.909	29843
710.027	29307
710.145	28029
710.263	28913
710.380	29175
710.498	28024
710.616	28640
710.733	29475
710.851	30579
710.969	29894
711.086	28833
711.204	28024
711.322	28301
711.439	29230
711.557	29691
711.674	27493
711.792	28150
711.909	25948
712.027	26431
712.144	25171
712.262	26764
712.379	32661
712.497	49034
712.614	44078
712.732	36749
712.849	34335
712.966	39371
713.084	45212
713.201	38560
713.318	37349
713.436	36178
713.553	36833
713.670	38315
713.787	42304
713.905	39462
714.022	35364
714.139	35066
714.256	39197
714.373	45723
714.490	63606
714.608	147347
714.725	563706
714.842	398921
714.959	47109
715.076	36286
715.193	34021
715.310	31833
715.427	30714
715.544	29102
715.661	30252
715.778	32364
715.895	35049
716.011	33035
716.128	30910
716.245	31045
716.362	33881
716.479	33838
716.596	29112
716.713	30031
716.829	27674
716.946	29128
717.063	27143
717.180	26889
717.296	25578
717.413	28672
717.530	26439
717.646	26337
717.763	25903
717.880	25453
717.996	24567
718.113	25602
718.229	25662
718.346	24043
718.462	26222
718.579	30202
718.695	43999
718.812	37361
718.928	38157
719.045	26419
719.161	23864
719.277	23725
719.394	23813
719.510	25139
719.626	26645
719.743	32748
719.859	33761
719.975	49980
720.092	167369
720.208	265664
720.324	40580
720.440	25351
720.557	29529
720.673	41460
720.789	63414
720.905	123345
721.021	36295
721.137	24645
721.253	24715
721.369	26218
721.486	30078
721.602	38913
721.718	21194
721.834	20245
721.950	21647
722.066	20374
722.181	20027
722.297	22508
722.413	19325
722.529	20934
722.645	19508
722.761	19476
722.877	19219
722.993	18445
723.108	20750
723.224	20047
723.340	19954
723.456	17983
723.571	19024
723.687	17254
723.803	19219
723.918	18232
724.034	19202
724.150	19125
724.265	23599
724.381	54256
724.497	50725
724.612	18591
724.728	16837
724.843	18936
724.959	23138
725.074	51400
725.190	43905
725.305	20520
725.421	16876
725.536	14812
725.651	15269
725.767	14765
725.882	14938
725.997	15742
726.113	14612
726.228	15473
726.343	14273
726.459	13729
726.574	16551
726.689	14051
726.804	15024
726.920	15095
727.035	15933
727.150	16151
727.265	14638
727.380	15846
727.495	13936
727.610	13646
727.725	14154
727.841	14007
727.956	16975
728.071	17948
728.186	13948
728.301	13000
728.416	13775
728.531	13692
728.645	12246
728.760	14324
728.875	14774
728.990	14892
729.105	14787
729.220	13733
729.335	13062
729.449	12627
729.564	11533
729.679	12350
729.794	11808
729.908	14392
730.023	12320
730.138	10635
730.253	12809
730.367	10324
730.482	10608
730.596	11159
730.711	12378
730.826	11400
730.940	10628
731.055	12385
731.169	11245
731.284	10986
731.398	11331
731.513	15437
731.627	12318
731.742	16870
731.856	15907
731.970	11681
732.085	13949
732.199	16889
732.313	23328
732.428	60160
732.542	162431
732.656	69648
732.771	17410
732.885	13691
732.999	13574
733.113	14173
733.227	11921
733.342	11361
733.456	12034
733.570	10266
733.684	11310
733.798	11827
733.912	10465
734.026	10163
734.140	10851
734.254	14194
734.368	28991
734.482	26490
734.596	10494
734.710	10255
734.824	10062
734.938	9862
735.052	10985
735.166	13111
735.280	12015
735.393	9835
735.507	10895
735.621	18830
735.735	31019
735.849	11806
735.962	9460
736.076	11264
736.190	11636
736.303	19660
736.417	20252
736.531	11110
736.644	10359
736.758	8852
736.872	9061
736.985	9144
737.099	8353
737.212	8559
737.326	9083
737.439	9119
737.553	9199
737.666	9308
737.780	7722
737.893	8597
738.007	8121
738.120	8222
738.233	7945
738.347	8200
738.460	7969
738.573	9230
738.687	8493
738.800	9447
738.913	11279
739.026	9475
739.140	8616
739.253	7291
739.366	7498
739.479	7476
739.592	6714
739.705	7525
739.818	8230
739.932	7049
740.045	8279
740.158	7610
740.271	7650
740.384	8109
740.497	8328
740.610	8933
740.723	8903
740.836	8920
740.949	8892
741.062	12088
741.174	10666
741.287	8417
741.400	7660
741.513	8077
741.626	9256
741.739	8377
741.851	7644
741.964	7091
742.077	6986
742.189	8332
742.302	9201
742.415	8810
742.527	8047
742.640	6907
742.753	7086
742.865	6275
742.978	5857
743.090	7104
743.203	6541
743.316	6291
743.428	6178
743.541	6506
743.653	5593
743.766	6562
743.878	6571
743.990	11638
744.103	8960
744.215	6864
744.327	5862
744.440	8798
744.552	13188
744.664	7277
744.777	5525
744.889	5067
745.001	5918
745.113	6441
745.226	5131
745.338	5217
745.450	6185
745.562	5465
745.674	5799
745.786	5403
745.898	5543
746.010	5038
746.122	4885
746.234	6139
746.347	4268
746.459	5872
746.570	5063
746.682	5542
746.794	5317
746.906	4791
747.018	5119
747.130	5694
747.242	5208
747.354	5490
747.466	6268
747.577	5189
747.689	4915
747.801	4502
747.913	4161
748.024	4921
748.136	4983
748.248	5029
748.359	4391
748.471	4810
748.583	4605
748.694	5931
748.806	6647
748.918	9016
749.029	5743
749.141	6229
749.252	6486
749.364	7539
749.475	15266
749.587	9914
749.698	4580
749.809	5246
749.921	4437
750.032	3804
750.144	3492
750.255	4191
750.366	3613
750.478	4265
750.589	4104
750.700	4933
750.811	5029
750.923	7658
751.034	16465
751.145	13703
751.256	4360
751.367	4574
751.479	4307
751.590	3887
751.701	4205
751.812	3571
751.923	4370
752.034	3773
752.145	3940
752.256	4095
752.367	4150
752.478	3693
752.589	4417
752.700	4435
752.811	4538
752.922	4544
753.032	5448
753.143	5397
753.254	3335
753.365	5139
753.476	4161
753.586	3935
753.697	3267
753.808	4822
753.919	2895
754.029	3206
754.140	4214
754.251	4129
754.361	2826
754.472	4271
754.582	4124
754.693	4530
754.804	4010
754.914	3842
755.025	2745
755.135	4242
755.246	4256
755.356	3246
755.466	3824
755.577	3196
755.687	3740
755.798	3620
755.908	3001
756.018	3745
756.129	3353
756.239	3452
756.349	4065
756.460	3746
756.570	3797
756.680	4209
756.790	4005
756.900	4492
757.011	3310
757.121	3339
757.231	3322
757.341	3045
757.451	4342
757.561	2711
757.671	3459
757.781	3216
757.891	3977
758.001	3977
758.111	4349
758.221	3973
758.331	4334
758.441	4836
758.551	7036
758.661	6126
758.771	4365
758.880	5404
758.990	4592
759.100	5437
759.210	4964
759.320	4858
759.429	4114
759.539	5071
759.649	4887
759.758	5916
759.868	5772
759.978	5926
760.087	5551
760.197	6397
760.307	5277
760.416	5083
760.526	4974
760.635	5981
760.745	4982
760.854	5752
760.964	6002
761.073	6369
761.182	5838
761.292	5701
761.401	7149
761.511	4995
761.620	4797
761.729	5727
761.839	6082
761.948	5624
762.057	4874
762.166	5339
762.276	3440
762.385	5776
762.494	5490
762.603	5212
762.712	6522
762.822	5223
762.931	4796
763.040	4003
763.149	4848
763.258	4987
763.367	5680
763.476	5680
763.585	5335
763.694	5098
763.803	6171
763.912	6294
764.021	5537
764.130	4615
764.238	5872
764.347	5658
764.456	6134
764.565	5344
764.674	5329
764.783	5425
764.891	5350
765.000	6145
765.109	6751
765.217	6918
765.326	9397
765.435	10184
765.543	10212
765.652	9546
765.761	11300
765.869	16819
765.978	26185
766.086	50141
766.195	103828
766.303	309230
766.412	806892
766.520	512035
766.629	107155
766.737	42742
766.846	25858
766.954	18887
767.062	17138
767.171	14050
767.279	11603
767.387	10077
767.496	10047
767.604	8361
767.712	8443
767.820	8022
767.928	8201
768.037	7204
768.145	8745
768.253	8762
768.361	7392
768.469	7508
768.577	6440
768.685	7624
768.793	7146
768.901	7358
769.009	8200
769.117	9031
769.225	10284
769.333	14269
769.441	21905
769.549	41145
769.657	105549
769.765	371854
769.873	594782
769.981	139687
770.088	33239
770.196	18068
770.304	14303
770.412	12934
770.519	11258
770.627	9606
770.735	7767
770.842	7108
770.950	7657
771.058	6937
771.165	7075
771.273	7347
771.380	7423
771.488	7774
771.595	6631
771.703	6724
771.810	7183
771.918	6990
772.025	7727
772.133	7816
772.240	6602
772.348	7389
772.455	7392
772.562	7815
772.670	5673
772.777	7272
772.884	6663
772.991	6102
773.099	7030
773.206	5643
773.313	6746
773.420	6681
773.528	4832
773.635	6083
773.742	6807
773.849	5946
773.956	5401
774.063	6116
774.170	6624
774.277	7388
774.384	6674
774.491	6530
774.598	6581
774.705	5943
774.812	7961
774.919	8376
775.026	8053
775.133	7229
775.239	6843
775.346	5706
775.453	6463
775.560	6365
775.667	6899
775.773	6390
775.880	6656
775.987	5652
776.093	6573
776.200	6297
776.307	5983
776.413	6566
776.520	5815
776.627	5484
776.733	6381
776.840	5293
776.946	6946
777.053	6924
777.159	6572
777.266	4838
777.372	5869
777.478	7537
777.585	6378
777.691	5564
777.798	6687
777.904	6469
778.010	8922
778.117	7438
778.223	5880
778.329	6466
778.435	5554
778.542	6432
778.648	5590
778.754	5408
778.860	6479
778.966	5770
779.072	5234
779.178	4813
779.284	5035
779.391	5072
779.497	3606
779.603	7057
779.708	4158
779.815	5708
779.920	6473
780.026	7226
780.132	5495
780.238	5140
780.344	5131
780.450	6092
780.556	4178
780.661	4897
780.767	5167
780.873	4167
780.979	5003
781.085	5021
781.190	4150
781.296	4517
781.402	4609
781.507	3951
781.613	4636
781.719	4885
781.824	4960
781.930	5449
782.035	5855
782.141	4663
782.246	4995
782.352	4131
782.457	4550
782.563	4258
782.668	4396
782.773	5262
782.879	5159
782.984	5249
783.090	6900
783.195	9900
783.300	6655
783.405	6131
783.511	4676
783.616	5389
783.721	5781
783.826	5080
783.932	6112
784.037	5857
784.142	5440
784.247	5000
784.352	4913
784.457	4700
784.562	4439
784.667	4821
784.772	4710
784.877	4754
784.982	4814
785.087	4205
785.192	5664
785.297	4904
785.402	3885
785.507	4114
785.611	4133
785.716	4614
785.821	4067
785.926	3723
786.031	4325
786.135	5365
786.240	4490
786.345	3567
786.450	4617
786.554	3629
786.659	3883
786.763	2687
786.868	4024
786.973	4803
787.077	3695
787.182	3996
787.286	4064
787.391	3358
787.495	3165
787.600	3433
787.704	2767
787.809	3057
787.913	2942
788.017	3322
788.122	3700
788.226	4079
788.330	3576
788.435	3395
788.539	2750
788.643	3385
788.747	3091
788.852	2630
788.956	2563
789.060	4503
789.164	4102
789.268	3167
789.372	3333
789.476	3567
789.580	2398
789.684	2642
789.788	3724
789.892	3436
789.996	4276
790.100	3475
790.204	3374
790.308	3246
790.412	3138
790.516	3306
790.620	2783
790.724	3908
790.828	3378
790.931	2564
791.035	4695
791.139	3335
791.242	2173
791.346	4649
791.450	2529
791.554	3491
791.657	1231
791.761	4438
791.864	2944
791.968	4304
792.072	4084
792.175	3237
792.279	3547
792.382	3000
792.486	3551
792.589	4771
792.693	3030
792.796	2509
792.899	3944
793.003	4021
793.106	1159
793.209	3576
793.313	4202
793.416	1660
793.519	4340
793.623	6361
793.726	7321
793.829	3339
793.932	2383
794.035	2570
794.138	3434
794.242	4028
794.345	4381
794.448	4726
794.551	6384
794.654	6721
794.757	4227
794.860	6009
794.963	4303
795.066	2389
795.169	3190
795.272	1582
795.375	2847
795.477	2911
795.580	2690
795.683	1534
795.786	2439
795.889	1674
795.991	3394
796.094	4710
796.197	1981
796.300	3662
796.402	2366
796.505	1288
796.608	2370
796.710	2913
796.813	2305
796.915	2323
797.018	1806
797.120	2252
797.223	231
797.326	3485
797.428	1516
797.530	2948
797.633	2403
797.735	5490
797.838	9157
797.940	5600
798.042	2065
798.145	1521
798.247	2529
798.349	1484
798.452	2518
798.554	2047
798.656	1161
798.758	3636
798.860	2167
798.962	2458
799.065	1810
799.167	1412
799.269	3310
799.371	3264
799.473	4329
799.575	5124
799.677	5039
799.779	5188
799.881	4567
799.983	4005
800.085	1738
800.187	2360
800.289	1024
800.390	2547
800.492	1644
800.594	2984
800.696	1670
800.798	2317
800.899	1546
801.001	2419
801.103	915
801.205	1974
801.306	1521
801.408	1110
801.509	1481
801.611	1419
801.713	2244
801.814	759
801.916	1966
802.017	1334
802.119	1290
802.220	2019
802.322	455
802.423	6152
802.525	2072
802.626	1862
802.727	1767
802.829	2565
802.930	-188
803.031	2558
803.133	1577
803.234	1762
803.335	921
803.436	1251
803.538	755
803.639	866
803.740	1360
803.841	999
803.942	1839
804.043	1651
804.144	520
804.245	1175
804.346	1328
804.447	1692
804.548	3328
804.649	3931
804.750	1306
804.851	1236
804.952	792
805.053	988
805.154	-67
805.255	2404
805.355	559
805.456	1373
805.557	822
805.658	681
805.758	1332
805.859	1106
805.960	612
806.061	-91
806.161	1494
806.262	1186
806.362	590
806.463	1469
806.564	2736
806.664	2377
806.765	3146
806.865	2970
806.966	899
807.066	937
807.166	1418
807.267	2077
807.367	268
807.468	807
807.568	32
807.668	1781
807.769	1467
807.869	485
807.969	1784
808.069	1625
808.170	1390
808.270	444
808.370	1553
808.470	3047
808.570	1482
808.670	1486
808.770	1411
808.870	688
808.970	1844
809.070	689
809.170	1009
809.271	1866
809.370	1029
809.470	1159
809.570	224
809.670	-112
809.770	696
809.870	2208
809.970	1567
810.070	530
810.169	1562
810.269	-113
810.369	2096
810.469	355
810.568	221
810.668	1008
810.768	-9
810.867	1094
810.967	-21
811.066	679
811.166	557
811.265	1307
811.365	340
811.464	887
811.564	735
811.663	1139
811.763	-615
811.862	310
811.962	1756
812.061	755
812.160	656
812.260	323
812.359	507
812.458	1133
812.557	1781
812.657	1560
812.756	1501
812.855	351
812.954	1115
813.053	1936
813.153	1232
813.252	317
813.351	364
813.450	1051
813.549	706
813.648	1671
813.747	-113
813.846	1036
813.945	361
814.044	434
814.143	878
814.242	1987
814.341	83
814.439	1884
814.538	1083
814.637	476
814.736	325
814.835	1960
814.933	1277
815.032	1687
815.131	1208
815.229	1932
815.328	2020
815.427	1047
815.525	1769
815.624	2382
815.722	292
815.821	1704
815.919	1659
816.018	1703
816.116	2879
816.215	1748
816.313	2559
816.412	1783
816.510	1814
816.609	3253
816.707	2259
816.805	2272
816.904	2196
817.002	3302
817.100	3624
817.198	3659
817.296	4365
817.395	4714
817.493	5340
817.591	5802
817.689	8998
817.787	11065
817.885	19372
817.983	35954
818.081	82160
818.179	207186
818.277	483722
818.375	321836
818.473	79195
818.571	31523
818.669	21191
818.767	19917
818.865	19523
818.963	24971
819.061	38726
819.158	71626
819.256	163339
819.354	410586
819.452	771786
819.549	410371
819.647	108464
819.745	43844
819.842	27709
819.940	19138
820.038	12699
820.135	11055
820.233	9126
820.330	6537
820.428	5099
820.525	6299
820.623	5220
820.720	4552
820.818	3962
820.915	3835
821.012	3657
821.110	1653
821.207	3754
821.304	2834
821.402	3025
821.499	3645
821.596	3205
821.693	2429
821.791	4477
821.888	4201
821.985	8721
822.082	4717
822.179	2970
822.276	2055
822.373	2077
822.470	1435
822.567	1557
822.664	1014
822.761	1936
822.858	1084
822.955	1198
823.052	1602
823.149	1676
823.246	2090
823.343	280
823.440	1560
823.536	1291
823.633	1412
823.730	1392
823.827	1565
823.923	1729
824.020	2265
824.117	1671
824.213	37
824.310	782
824.407	1109
824.503	991
824.600	1048
824.696	1161
824.793	2086
824.889	528
824.986	980
825.082	455
825.179	1543
825.275	1249
825.371	93
825.468	455
825.564	359
825.660	1584
825.757	1467
825.853	1133
825.949	619
826.045	1668
826.142	850
826.238	787
826.334	1385
826.430	392
826.526	1307
826.622	453
826.718	1775
826.814	869
826.910	1872
827.006	633
827.102	888
827.198	1072
827.294	492
827.390	1148
827.486	1101
827.582	-907
827.678	-5
827.774	1010
827.869	-389
827.965	1337
828.061	58
828.157	168
828.252	156
828.348	125
828.444	1298
828.539	301
828.635	785
828.731	1543
828.826	532
828.922	1905
829.017	864
829.113	901
829.208	322
829.304	815
829.399	2476
829.495	-165
829.590	1908
829.685	-122
829.781	878
829.876	1072
829.971	1045
830.066	265
830.162	275
830.257	768
830.352	516
830.447	900
830.543	1167
830.638	-226
830.733	1635
830.828	-28
830.923	1288
831.018	1237
831.113	1520
831.208	340
831.303	1002
831.398	138
831.493	-130
831.588	450
831.683	-418
831.778	211
831.873	820
831.967	901
832.062	-70
832.157	-958
832.252	1214
832.346	834
832.441	2052
832.536	2100
832.631	6304
832.725	3867
832.820	444
832.914	1004
833.009	43
833.104	2195
833.198	3433
833.293	-59
833.387	1310
833.482	1431
833.576	165
833.670	737
833.765	1047
833.859	1166
833.954	1425
834.048	358
834.142	1900
834.237	189
834.331	554
834.425	43
834.519	163
834.613	1121
834.708	-359
834.802	780
834.896	511
834.990	-161
835.084	465
835.178	376
835.272	1612
835.366	507
835.460	1008
835.554	69
835.648	135
835.742	716
835.836	407
835.930	-432
836.024	847
836.117	1068
836.211	1385
836.305	3261
836.399	4809
836.493	256
836.586	1095
836.680	-122
836.774	891
836.867	1190
836.961	81
837.055	-273
837.148	600
837.242	114
837.335	794
837.429	653
837.522	1063
837.616	2032
837.709	6151
837.803	2685
837.896	935
837.989	1406
838.083	3952
838.176	8142
838.269	4956
838.363	1171
838.456	1352
838.549	2262
838.642	3655
838.735	7206
838.829	2672
838.922	548
839.015	964
839.108	-1199
839.201	349
839.294	1104
839.387	1422
839.480	1334
839.573	3018
839.666	3257
839.759	527
839.852	-291
839.945	396
840.038	-1290
840.131	34
840.223	-66
840.316	1007
840.409	-166
840.502	-679
840.594	867
840.687	-409
840.780	137
840.873	377
840.965	1876
841.058	3177
841.150	7758
841.243	3630
841.336	-343
841.428	812
841.521	462
841.613	1397
841.706	2122
841.798	764
841.890	88
841.983	148
842.075	910
842.167	960
842.260	1621
842.352	3768
842.444	4215
842.537	10340
842.629	11617
842.721	2042
842.813	669
842.905	69
842.997	702
843.090	2665
843.182	5110
843.274	11091
843.366	25637
843.458	41149
843.550	20461
843.642	1801
843.734	749
843.826	2323
843.918	2282
844.009	1579
844.101	147
844.193	1089
844.285	548
844.377	219
844.469	886
844.560	1034
844.652	890
844.744	564
844.835	968
844.927	1587
845.019	2133
845.110	1667
845.202	44
845.293	618
845.385	-477
845.476	200
845.568	1097
845.659	1047
845.751	803
845.842	-603
845.934	0
846.025	237
846.116	265
846.208	314
846.299	454
846.390	1517
846.482	726
846.573	2533
846.664	1678
846.755	3811
846.846	2491
846.937	-580
847.029	462
847.120	-428
847.211	58
847.302	1306
847.393	-1315
847.484	231
847.575	-636
847.666	-345
847.757	-52
847.847	435
847.938	1128
848.029	461
848.120	-427
848.211	-5
848.302	214
848.392	125
848.483	291
848.574	-956
848.664	1098
848.755	1164
848.846	635
848.936	211
849.027	120
849.118	1206
849.208	207
849.299	2021
849.389	3420
849.480	8482
849.570	16423
849.661	32831
849.751	51840
849.841	16040
849.932	1428
850.022	486
850.112	551
850.203	656
850.293	556
850.383	273
850.474	-527
850.564	-715
850.654	432
850.744	138
850.834	-46
850.924	612
851.014	127
851.104	300
851.194	-55
851.284	1586
851.374	1517
851.464	928
851.554	661
851.644	1842
851.734	3235
851.824	1340
851.914	-54
852.004	429
852.094	-40
852.183	603
852.273	1183
852.363	541
852.452	106
852.542	-562
852.632	-46
852.721	1274
852.811	-938
852.901	641
852.990	-60
853.080	1063
853.169	1152
853.259	586
853.348	772
853.438	1878
853.527	4316
853.617	5488
853.706	11446
853.795	22670
853.885	52815
853.974	101077
854.063	190679
854.152	272608
854.242	88177
854.331	14196
854.420	6424
854.509	4088
854.598	4626
854.687	3541
854.777	2883
854.866	1552
854.955	379
855.044	166
855.133	922
855.222	1405
855.311	94
855.400	985
855.488	1331
855.577	253
855.666	175
855.755	1537
855.844	1316
855.933	608
856.021	-440
856.110	340
856.199	-83
856.288	306
856.376	641
856.465	948
856.554	305
856.642	-40
856.731	324
856.819	765
856.908	-155
856.996	-456
857.085	167
857.173	375
857.262	151
857.350	728
857.438	289
857.527	468
857.615	-409
857.703	-369
857.792	-200
857.880	736
857.968	-192
858.056	427
858.145	628
858.233	243
858.321	-282
858.409	888
858.497	-1276
858.585	-150
858.673	-83
858.761	-795
858.849	-726
858.937	127
859.025	597
859.113	375
859.201	-1190
859.289	230
859.377	-107
859.465	-124
859.552	480
859.640	203
859.728	103
859.816	268
859.903	450
859.991	-634
860.079	-303
860.166	-248
860.254	154
860.342	267
860.429	-488
860.517	-631
860.604	-438
860.692	790
860.779	-963
860.867	99
860.954	-593
861.042	356
861.129	194
861.216	162
861.304	219
861.391	-93
861.478	-173
861.565	375
861.653	754
861.740	-243
861.827	-862
861.914	-702
862.001	-702
862.089	-177
862.176	81
862.263	-357
862.350	-223
862.437	-386
862.524	242
862.611	-161
862.698	175
862.785	410
862.871	-32
862.958	-502
863.045	-524
863.132	394
863.219	-250
863.306	-338
863.392	-254
863.479	263
863.566	-110
863.652	-367
863.739	424
863.826	225
863.912	-350
863.999	-796
864.086	-662
864.172	130
864.259	-1131
864.345	-24
864.432	988
864.518	237
864.604	162
864.691	135
864.777	-792
864.863	1242
864.950	1313
865.036	793
865.122	1309
865.209	1565
865.295	609
865.381	2444
865.467	2733
865.553	3656
865.639	5566
865.726	11160
865.812	24532
865.898	48737
865.984	73698
866.070	142597
866.156	135824
866.242	29895
866.328	5805
866.414	2679
866.499	1955
866.585	1996
866.671	1616
866.757	1941
866.843	759
866.928	954
867.014	994
867.100	1609
867.186	1089
867.271	1810
867.357	2633
867.442	2640
867.528	1223
867.614	856
867.699	699
867.785	1560
867.870	827
867.956	994
868.041	1124
868.127	2190
868.212	2047
868.297	1442
868.383	1309
868.468	2492
868.553	3098
868.639	4713
868.724	7568
868.809	6353
868.894	1330
868.979	1367
869.065	826
869.150	133
869.235	445
869.320	-466
869.405	-66
869.490	652
869.575	-356
869.660	900
869.745	602
869.830	-444
869.915	-315
870.000	174
870.085	16
870.169	245
870.254	736
870.339	-314
870.424	-243
870.509	613
870.593	29
870.678	876
870.763	56
870.847	-138
870.932	-282
871.016	294
871.101	305
871.186	141
871.270	166
871.355	-178
871.439	273
871.523	89
871.608	-95
871.692	-721
871.777	78
871.861	479
871.945	-173
872.030	193
872.114	859
872.198	607
872.282	-681
872.367	-298
872.451	-558
872.535	176
872.619	-130
872.703	-152
872.787	-407
872.871	-143
872.955	558
873.039	690
873.123	-1
873.207	1040
873.291	847
873.375	434
873.459	-328
873.543	-7
873.627	288
873.711	369
873.794	89
873.878	386
873.962	-107
874.045	67
874.129	-139
874.137	-156
874.213	-331
874.245	-206
874.296	-3
874.352	-645
874.380	-961
874.460	-71
874.464	-35
874.547	-319
874.568	-120
874.631	453
874.676	240
874.714	82
874.784	300
874.798	333
874.881	1188
874.892	1117
874.965	678
874.999	764
875.048	859
875.107	225
875.131	-13
875.215	598
875.215	598
875.298	488
875.323	448
875.381	386
875.430	319
875.465	266
875.538	587
875.548	626
875.631	344
875.646	280
875.714	-30
875.753	-279
875.798	-503
875.861	-267
875.881	-229
875.964	488
875.968	485
876.047	623
876.076	477
876.130	58
876.183	22
876.213	58
876.291	1094
876.296	1155
876.379	25
876.398	171
876.462	799
876.506	698
876.545	507
876.613	13
876.628	-82
876.711	71
876.721	122
876.794	552
876.828	495
876.877	403
876.935	172
876.960	87
877.043	1042
877.043	1043
877.125	1069
877.150	1063
877.208	979
877.258	1206
877.291	1460
877.365	1415
877.374	1367
877.456	1860
877.472	1643
877.539	1169
877.579	1466
877.622	1482
877.687	1121
877.704	1070
877.787	441
877.794	421
877.869	129
877.901	381
877.952	999
878.008	837
878.034	670
878.115	812
878.117	817
878.199	695
878.222	728
878.282	708
878.329	923
878.364	1191
878.437	751
878.447	641
878.529	-97
878.544	-103
878.611	256
878.651	384
878.694	338
878.758	67
878.776	18
878.858	473
878.865	469
878.941	460
878.972	213
879.023	-295
879.078	-185
879.105	43
879.185	770
879.187	773
879.269	381
879.292	157
879.351	-172
879.399	-235
879.433	-279
879.506	-51
879.516	-53
879.598	102
879.613	-14
879.680	-201
879.720	44
879.762	150
879.827	-332
879.844	-388
879.926	396
879.933	390
880.007	273
880.040	422
880.089	555
880.147	587
880.171	680
880.253	1458
880.254	1465
880.335	2297
880.360	2424
880.417	3299
880.467	5408
880.499	6482
880.574	6196
880.580	6113
880.662	1863
880.680	1394
880.744	188
880.787	346
880.825	472
880.893	-343
880.907	-465
880.989	711
881.000	647
881.070	129
881.106	213
881.152	276
881.213	67
881.233	-23
881.315	120
881.319	109
881.396	591
881.426	725
881.478	337
881.532	-286
881.559	-291
881.639	877
881.641	891
881.722	319
881.745	301
881.803	685
881.852	500
881.885	199
881.958	644
881.966	723
882.047	1315
882.064	1293
882.129	886
882.171	889
882.210	1417
882.277	2545
882.291	2554
882.372	819
882.383	737
882.454	564
882.489	453
882.535	141
882.596	35
882.616	165
882.697	-100
882.702	-80
882.778	-39
882.808	-20
882.859	155
882.914	198
882.940	123
883.020	-370
883.021	-365
883.102	787
883.127	673
883.183	-389
883.233	-567
883.264	-378
883.339	-252
883.345	-240
883.426	-243
883.445	-180
883.507	434
883.551	796
883.587	503
883.657	-36
883.668	53
883.749	762
883.763	835
883.830	471
883.869	230
883.910	-54
883.975	-263
883.991	-186
884.072	261
884.081	248
884.152	439
884.187	634
884.233	362
884.292	271
884.314	363
884.394	254
884.398	247
884.475	12
884.504	83
884.555	258
884.610	73
884.636	-33
884.716	-73
884.716	-68
884.797	215
884.821	297
884.877	117
884.927	-86
884.958	31
885.033	546
885.038	525
885.118	-372
885.139	-479
885.199	-76
885.244	143
885.279	245
885.350	517
885.359	494
885.439	64
885.456	-73
885.520	-363
885.561	-314
885.600	-1
885.667	484
885.680	447
885.760	203
885.773	120
885.840	510
885.878	811
885.920	569
885.984	127
886.000	151
886.080	470
886.089	492
886.160	401
886.195	200
886.240	35
886.300	191
886.320	244
886.400	220
886.406	222
886.480	1121
886.511	1537
886.560	1507
886.616	1078
886.640	935
886.720	810
886.722	802
886.800	71
886.827	-242
886.879	-29
886.932	302
886.959	452
887.038	766
887.039	770
887.119	583
887.143	575
887.198	534
887.248	547
887.278	773
887.354	1005
887.358	980
887.437	611
887.459	481
887.517	1200
887.564	1744
887.596	1548
887.669	1002
887.676	976
887.755	784
887.774	682
887.835	705
887.880	873
887.914	932
887.985	709
887.994	633
888.073	88
888.090	-32
888.153	200
888.195	370
888.232	523
888.300	730
888.311	792
888.391	1217
888.405	1296
888.470	787
888.510	452
888.549	417
888.615	304
888.628	246
888.708	-54
888.720	-124
888.787	658
888.825	1165
888.866	914
888.930	477
888.945	567
889.024	1034
889.035	1092
889.103	742
889.140	567
889.182	792
889.245	1057
889.261	1037
889.340	941
889.349	929
889.419	623
889.454	463
889.498	416
889.559	354
889.577	410
889.656	647
889.664	671
889.735	715
889.768	730
889.814	671
889.873	592
889.978	687
890.083	1308
890.187	294
890.292	1459
890.397	12
890.501	884
890.606	274
890.710	615
890.815	1201
890.919	1470
891.024	12
891.128	1261
891.233	18
891.337	800
891.442	558
891.546	1260
891.650	31
891.755	1328
891.859	1473
891.963	1596
892.068	814
892.172	1113
892.276	345
892.380	819
892.484	246
892.589	168
892.693	686
892.797	876
892.901	813
893.005	571
893.109	259
893.213	1116
893.317	1193
893.421	682
893.525	-8
893.629	892
893.733	-299
893.837	714
893.941	-39
894.045	898
894.148	475
894.252	905
894.356	758
894.460	1352
894.564	593
894.667	991
894.771	635
894.875	1103
894.978	383
895.082	982
895.186	411
895.289	1027
895.393	487
895.496	1107
895.600	-148
895.703	475
895.807	-30
895.910	1341
896.014	209
896.117	812
896.221	645
896.324	757
896.427	71
896.531	-40
896.634	-336
896.737	649
896.840	-2
896.944	685
897.047	473
897.150	382
897.253	70
897.356	285
897.460	-34
897.563	534
897.666	839
897.769	656
897.872	663
897.975	830
898.078	197
898.181	561
898.284	206
898.387	1196
898.490	912
898.593	1446
898.695	203
898.798	1031
898.901	2315
899.004	822
899.107	862
899.209	287
899.312	76
899.415	590
899.518	153
899.620	-476
899.723	826
899.826	1106
899.928	1694
900.031	364
900.133	-149
900.236	485
900.338	-355
900.441	978
900.543	-188
900.646	831
900.748	-195
900.851	584
900.953	481
901.055	887
901.158	-111
901.260	773
901.362	255
901.465	588
901.567	206
901.669	1018
901.771	916
901.873	1126
901.976	-298
902.078	351
902.180	222
902.282	144
902.384	679
902.486	859
902.588	1273
902.690	4079
902.792	515
902.894	1354
902.996	149
903.098	940
903.200	-114
903.302	328
903.404	-85
903.505	-300
903.607	628
903.709	351
903.811	-341
903.913	191
904.014	-212
904.116	732
904.218	686
904.319	1711
904.421	-252
904.523	1090
904.624	546
904.726	-281
904.827	-301
904.929	-234
905.030	134
905.132	295
905.233	-72
905.335	1229
905.436	-276
905.537	615
905.639	729
905.740	658
905.841	84
905.943	310
906.044	55
906.145	371
906.247	-543
906.348	705
906.449	679
906.550	489
906.651	394
906.752	762
906.854	21
906.955	-755
907.056	81
907.157	152
907.258	-311
907.359	524
907.460	-12
907.561	133
907.662	103
907.762	-713
907.863	-150
907.964	366
908.065	513
908.166	673
908.267	-377
908.367	279
908.468	-451
908.569	908
908.670	940
908.770	1614
908.871	927
908.971	2759
909.072	4510
909.173	73
909.273	-327
909.374	-155
909.474	-216
909.575	1007
909.675	-920
909.776	312
909.876	-707
909.977	-89
910.077	761
910.177	523
910.278	-308
910.378	177
910.478	513
910.579	-208
910.679	274
910.779	-41
910.879	269
910.980	533
911.080	191
911.180	141
911.280	-402
911.380	180
911.480	-128
911.580	321
911.680	-111
911.780	0
911.880	761
911.980	98
912.080	-40
912.180	551
912.280	811
912.380	1092
912.480	185
912.580	552
912.679	-138
912.779	492
912.879	-283
912.979	404
913.078	-495
913.178	1043
913.278	-188
913.377	214
913.477	-181
913.577	253
913.676	607
913.776	1067
913.875	259
913.975	664
914.074	34
914.174	77
914.273	-662
914.373	892
914.472	59
914.572	858
914.671	190
914.770	819
914.870	306
914.969	-11
915.068	1
915.167	18
915.267	181
915.366	-76
915.465	-70
915.564	1067
915.663	206
915.763	-681
915.862	141
915.961	244
916.060	-214
916.159	351
916.258	-609
916.357	370
916.456	672
916.555	28
916.654	116
916.752	1622
916.851	-270
916.950	248
917.049	228
917.148	1341
917.247	-58
917.345	-550
917.444	-290
917.543	201
917.642	-678
917.740	-96
917.839	-578
917.937	307
918.036	-378
918.135	448
918.233	-27
918.332	-730
918.430	-763
918.529	240
918.627	-1345
918.726	199
918.824	346
918.923	-618
919.021	6
919.119	640
919.218	-474
919.316	897
919.414	268
919.512	-252
919.611	729
919.709	367
919.807	-220
919.905	874
920.003	173
920.102	151
920.200	-848
920.298	686
920.396	-862
920.494	196
920.592	-807
920.690	-213
920.788	715
920.886	496
920.984	-244
921.082	-57
921.180	-495
921.277	734
921.375	-244
921.473	-219
921.571	120
921.669	740
921.766	236
921.864	473
921.962	382
922.060	-91
922.157	-564
922.255	801
922.352	-390
922.450	57
922.548	-541
922.645	686
922.743	291
922.840	303
922.938	-3
923.035	749
923.133	-147
923.230	266
923.327	735
923.425	-108
923.522	593
923.619	172
923.717	126
923.814	862
923.911	291
924.008	1341
924.106	112
924.203	361
924.300	473
924.397	241
924.494	385
924.591	2341
924.688	684
924.786	488
924.883	-10
924.979	712
925.077	-595
925.173	242
925.270	-312
925.367	85
925.464	-332
925.561	621
925.658	1153
925.755	991
925.852	1086
925.948	105
926.045	55
926.142	423
926.239	-18
926.335	642
926.432	114
926.529	465
926.625	180
926.722	574
926.818	-99
926.915	567
927.011	-53
927.108	-482
927.204	173
927.301	556
927.397	-6
927.494	938
927.590	24
927.687	253
927.783	266
927.879	155
927.976	651
928.072	376
928.168	426
928.264	-393
928.361	45
928.457	913
928.553	-173
928.649	633
928.745	-238
928.841	-300
928.937	114
929.033	249
929.129	-573
929.225	405
929.321	-252
929.417	-707
929.513	-640
929.609	481
929.705	-72
929.801	211
929.897	-322
929.993	699
930.089	498
930.184	466
930.280	-457
930.376	524
930.471	251
930.567	693
930.663	-480
930.758	356
930.854	261
930.950	493
931.045	-153
931.141	-435
931.236	417
931.332	783
931.427	-175
931.523	-220
931.618	753
931.714	57
931.809	-101
931.905	69
932.000	-739
932.095	-493
932.191	-129
932.286	-48
932.381	-528
932.476	132
932.572	-355
932.667	-242
932.762	-358
932.857	559
932.952	194
933.047	119
933.142	-143
933.237	-246
933.332	-528
933.427	388
933.522	-690
933.617	-409
933.712	434
933.807	216
933.902	-995
933.997	742
934.092	-440
934.187	786
934.282	-372
934.376	-491
934.471	-639
934.566	-185
934.661	-215
934.755	-460
934.850	-312
934.945	280
935.039	360
935.134	211
935.228	-152
935.323	24
935.417	135
935.512	-415
935.606	-878
935.701	-311
935.795	-1066
935.890	-256
935.984	-546
936.079	-404
936.173	-330
936.267	-395
936.362	-740
936.456	367
936.550	-905
936.644	279
936.738	-182
936.833	945
936.927	123
937.021	-779
937.115	452
937.209	-1655
937.303	232
937.397	-332
937.491	-376
937.585	-797
937.679	-70
937.773	674
937.867	-271
937.961	-634
938.055	-445
938.149	540
938.243	-744
938.337	-753
938.430	-660
938.524	247
938.618	-392
938.712	-91
938.805	-837
938.899	-204
938.993	82
939.086	195
939.180	-1647
939.274	-104
939.367	-1209
939.461	418
939.554	-589
939.648	157
939.741	492
939.835	352
939.928	-92
940.022	-168
940.115	-355
940.208	999
940.302	-336
940.395	482
940.488	-516
940.582	305
940.675	-1487
940.768	-643
940.861	-876
940.954	726
941.048	-397
941.141	-304
941.234	-693
941.327	216
941.420	-348
941.513	303
941.606	-1137
941.699	638
941.792	-758
941.885	-675
941.978	-641
942.071	-376
942.164	-839
942.257	25
942.349	-542
942.442	-265
942.535	-313
942.628	-255
942.721	-577
942.813	-429
942.906	395
942.999	145
943.091	-560
943.184	326
943.277	-815
943.369	133
943.462	-1410
943.554	-114
943.647	-855
943.739	630
943.832	-841
943.924	-506
944.017	263
944.109	-530
944.201	-880
944.294	176
944.386	-666
944.478	0
944.571	-396
944.663	-25
944.755	-1468
944.847	-230
944.940	-836
945.032	-874
945.124	-973
945.216	849
945.308	-146
945.400	-165
945.492	-930
945.584	-609
945.676	-828
945.768	12
945.860	-609
945.952	-383
946.044	-215
946.136	-769
946.228	-518
946.320	-7
946.412	-342
946.503	-400
946.595	-358
946.687	-507
946.779	-1328
946.870	-854
946.962	-1281
947.054	-644
947.145	373
947.237	-383
947.329	-218
947.420	-982
947.512	-361
947.603	9
947.695	-931
947.786	-408
947.878	-516
947.969	117
948.061	-1001
948.152	-1122
948.243	-273
948.335	166
948.426	-43
948.517	-264
948.609	-691
948.700	-153
948.791	-1040
948.882	122
948.973	-1246
949.065	-1764
949.156	-287
949.247	-370
949.338	308
949.429	-399
949.520	-1372
949.611	-809
949.702	-963
949.793	-487
949.884	-517
949.975	-1000
950.066	-899
950.157	-1120
950.247	-926
950.338	7
950.429	-787
950.520	1051
950.611	997
950.701	360
950.792	922
950.883	643
950.973	-297
951.064	1432
951.155	567
951.245	852
951.336	-1060
951.427	-870
951.517	474
951.608	641
951.698	-666
951.788	-449
951.879	-750
951.969	-939
952.060	-950
952.150	-145
952.240	-250
952.331	-1232
952.421	-345
952.511	-747
952.602	-226
952.692	-481
952.782	-623
952.872	-666
952.962	-749
953.052	-222
953.143	-922
953.233	633
953.323	-382
953.413	-527
953.503	-654
953.593	-471
953.683	-394
953.773	-855
953.863	-1071
953.953	-521
954.042	-751
954.132	-273
954.222	-537
954.312	-594
954.402	670
954.492	2557
954.581	8574
954.671	3336
954.761	-1114
954.850	144
954.940	-802
955.030	-303
955.119	-610
955.209	-158
955.298	-1230
955.388	-165
955.477	-657
955.567	-33
955.656	-767
955.746	-91
955.835	-164
955.925	175
956.014	98
956.103	-868
956.193	-104
956.282	-997
956.371	25
956.461	-450
956.550	-1270
956.639	12
956.728	-1687
956.817	32
956.906	-1052
956.995	187
957.085	-1374
957.174	-382
957.263	-1067
957.352	59
957.441	-1393
957.530	-397
957.619	-2
957.708	-1202
957.796	-983
957.885	-322
957.974	-1175
958.063	-686
958.152	-1405
958.241	-857
958.329	-675
958.418	188
958.507	-1141
958.596	819
958.684	-1177
958.773	572
958.861	-574
958.950	674
959.039	-220
959.127	-606
959.216	-776
959.304	-125
959.393	-725
959.481	-746
959.570	-521
959.658	419
959.746	736
959.835	3838
959.923	11851
960.011	5129
960.100	-391
960.188	18
960.276	-493
960.365	-157
960.453	-718
960.541	-724
960.629	-61
960.717	-591
960.805	-1625
960.893	-665
960.981	-1614
961.069	212
961.158	-1634
961.245	-95
961.333	-879
961.421	-282
961.509	-378
961.597	-624
961.685	-782
961.773	-699
961.861	-1394
961.949	-179
962.036	-1425
962.124	-9
962.212	-1146
962.299	-810
962.387	-1168
962.475	-99
962.562	-1886
962.650	141
962.738	-1133
962.825	-400
962.913	-319
963.000	-81
963.088	-1121
963.175	-329
963.263	261
963.350	1326
963.438	1011
963.525	2811
963.612	6852
963.700	17231
963.787	50462
963.874	22641
963.962	892
964.049	257
964.136	-1071
964.223	-301
964.310	-499
964.398	101
964.485	580
964.572	1555
964.659	6948
964.746	8654
964.833	304
964.920	-1232
965.007	-981
965.094	428
965.181	-572
965.268	-269
965.355	-1360
965.441	-328
965.528	-2026
965.615	316
965.702	-1425
965.789	-693
965.875	-1249
965.962	-807
966.049	-1116
966.136	977
966.222	-1276
966.309	-32
966.395	-1195
966.482	-970
966.569	-1561
966.655	-778
966.742	-1215
966.828	-56
966.915	-829
967.001	-272
967.087	-226
967.174	166
967.260	1356
967.347	4914
967.433	14297
967.519	36118
967.605	10639
967.692	-235
967.778	-427
967.864	-904
967.950	-659
968.036	-1102
968.123	-905
968.209	-128
968.295	-1938
968.381	474
968.467	-431
968.553	-933
968.639	-625
968.725	1299
968.811	4831
968.897	4855
968.983	-482
969.069	-939
969.154	-1096
969.240	-264
969.326	-2089
969.412	-1312
969.497	-1145
969.583	-1200
969.669	-687
969.755	-91
969.840	-710
969.926	77
970.012	-1237
970.097	-335
970.183	432
970.268	965
970.354	3619
970.439	8153
970.525	24141
970.610	6772
970.696	222
970.781	-320
970.866	-1845
970.952	-346
971.037	-1579
971.122	-554
971.208	-914
971.293	-1296
971.378	-1939
971.463	151
971.549	-177
971.634	334
971.719	-132
971.804	2614
971.889	3176
971.974	-737
972.059	-1159
972.144	300
972.229	-1174
972.314	-865
972.399	-624
972.484	-563
972.569	673
972.654	1945
972.739	9017
972.824	14684
972.908	1845
972.993	-283
973.078	-1362
973.163	-985
973.247	-963
973.332	-1827
973.417	-949
973.501	-1367
973.586	-1377
973.671	-315
973.755	-770
973.840	-253
973.924	-193
974.009	-456
974.093	311
974.178	1986
974.262	7842
974.346	10371
974.431	470
974.515	-191
974.600	-1572
974.684	-343
974.768	-1546
974.852	-116
974.937	-2130
975.021	-70
975.105	-1712
975.189	-479
975.273	-1012
975.358	-1714
975.442	-1514
975.526	-262
975.610	-2065
975.694	-1994
975.778	-786
975.862	-816
975.946	-3276
976.030	55
976.114	-1790
976.198	-770
976.281	-1372
976.365	-713
976.449	-1461
976.533	101
976.617	-1155
976.700	-24
976.784	-61
976.868	1210
976.951	4584
977.035	2711
977.119	-730
977.202	-616
977.286	-543
977.369	-1062
977.453	-959
977.536	-950
977.620	-1392
977.703	521
977.787	-1716
977.870	-41
977.953	464
978.037	-590
978.120	1935
978.203	4799
978.287	13573
978.370	5543
978.453	-730
978.536	957
978.620	2920
978.703	7825
978.786	2420
978.869	-1282
978.952	-3030
979.035	368
979.118	-852
979.201	-1834
979.284	-1445
979.367	-1417
979.450	-1448
979.533	-862
979.616	-1080
979.699	-1351
979.782	-1639
979.865	-52
979.948	-1168
980.030	-411
980.113	-1501
980.196	-1832
980.279	-805
980.361	-988
980.444	-917
980.526	-687
980.609	-1703
980.692	-1050
980.774	-1461
980.857	-1716
980.939	-610
981.022	-1578
981.104	-1155
981.187	-677
981.269	-908
981.352	-701
981.434	-2289
981.516	-841
981.599	-849
981.681	-704
981.763	-1245
981.846	-368
981.928	-1531
982.010	-2088
982.092	-1692
982.174	-533
982.256	-2373
982.339	-1040
982.421	-1261
982.503	-899
982.585	-1672
982.667	-597
982.749	-1262
982.831	-721
982.913	-2015
982.995	897
983.077	-1070
983.158	1384
983.240	-1048
983.322	-361
983.404	-596
983.486	-1421
983.568	-1298
983.649	-979
983.731	-921
983.813	-1489
983.894	-806
983.976	-1556
984.058	-1533
984.139	440
984.221	-1426
984.302	-562
984.384	-1646
984.465	-2060
984.547	-1367
984.628	-1723
984.710	-1422
984.791	-911
984.872	-2425
984.954	-413
985.035	-259
985.116	-1733
985.198	-1828
985.279	-503
985.360	-1613
985.441	-911
985.522	-1064
985.604	-387
985.685	-2639
985.766	391
985.847	520
985.928	-1800
986.009	-1388
986.090	-169
986.171	-544
986.252	-1810
986.333	-1521
986.414	-755
986.495	-778
986.576	-356
986.656	-1658
986.737	-655
986.818	-742
986.899	-1018
986.980	-961
987.060	486
987.141	-1064
987.222	-1259
987.302	-1109
987.383	-604
987.464	-1710
987.544	-251
987.625	-1209
987.705	-311
987.786	-1647
987.866	-1327
987.947	-1206
988.027	-1332
988.108	-1782
988.188	135
988.268	-1162
988.349	-1377
988.429	-1553
988.509	-51
988.589	-672
988.670	-1900
988.750	-74
988.830	-1266
988.910	-1458
988.990	-612
989.070	-801
989.151	-1212
989.231	-1567
989.311	-666
989.391	-1003
989.471	-531
989.551	-1486
989.631	-1856
989.711	-1027
989.791	-1275
989.870	-2001
989.950	-147
990.030	-2202
990.110	-1285
990.190	-1858
990.269	-1139
990.349	-1385
990.429	-1057
990.509	-1009
990.588	-1424
990.668	-1092
990.747	-1026
990.827	-1389
990.907	-692
990.986	-1413
991.066	-329
991.145	-1973
991.225	-482
991.304	-1282
991.383	-31
991.463	-1180
991.542	-479
991.622	-1559
991.701	-1262
991.780	-985
991.859	-776
991.939	-1315
992.018	-687
992.097	-1246
992.176	-1179
992.256	-1496
992.335	-1229
992.414	-767
992.493	-1275
992.572	-1123
992.651	1422
992.730	-873
992.809	-772
992.888	-2227
992.967	-783
993.046	-615
993.125	-2018
993.203	-1656
993.282	-599
993.361	-1594
993.440	-860
993.519	-2006
993.597	-49
993.676	-1975
993.755	-270
993.834	-1464
993.912	-2096
993.991	-337
994.069	-1403
994.148	-1288
994.226	-2185
994.305	-968
994.384	-1687
994.462	-984
994.540	-1467
994.619	-2079
994.697	256
994.776	-1451
994.854	189
994.932	-1879
995.011	-646
995.089	-1794
995.167	-1454
995.245	-1749
995.324	-1411
995.402	-995
995.480	-1870
995.558	-1347
995.636	-2257
995.714	-2107
995.792	161
995.870	-1440
995.948	-1244
996.026	-1885
996.104	-2567
996.182	-797
996.260	-1221
996.338	-1206
996.416	-1384
996.494	-1520
996.572	-594
996.649	-1475
996.727	-2485
996.805	-1211
996.883	-633
996.960	-1517
997.038	-1317
997.116	-1213
997.193	-1715
997.271	-1312
997.348	-1784
997.426	-1951
997.504	-1178
997.581	-823
997.658	-523
997.736	-1740
997.813	-2039
997.891	-555
997.968	-782
998.046	-1049
998.123	-643
998.200	-839
998.277	-1348
998.355	-881
998.432	-2079
998.509	-581
998.586	-820
998.663	-1186
998.741	-1452
998.818	-1304
998.895	-1142
998.972	-697
999.049	-915
999.126	-1836
999.203	-1150
999.280	-1619
999.357	-1672
999.434	-2354
999.511	-548
999.587	-1068
999.664	-1210
999.741	-612
999.818	-1270
999.895	-437
999.971	-1203
1000.048	-2642
1000.125	126
1000.202	-927
1000.278	-513
1000.355	-1765
1000.431	-1655
1000.508	-2316
1000.584	-1006
1000.661	-1113
1000.738	-1463
1000.814	-2246
1000.890	-1139
1000.967	-1648
1001.043	-1078
1001.120	-1798
1001.196	-539
1001.272	-1794
1001.349	-902
1001.425	-700
1001.501	-1012
1001.577	-2271
1001.654	-1033
1001.730	-2006
1001.806	-579
1001.882	-2032
1001.958	-1087
1002.034	-1697
1002.110	-1710
1002.186	-1949
1002.262	-1371
1002.338	-2266
1002.414	-259
1002.490	-894
1002.566	-1738
1002.642	-2083
1002.718	-60
1002.794	-823
1002.870	-1411
1002.945	-2572
1003.021	-1102
1003.097	-1813
1003.173	-392
1003.248	-2567
1003.324	-979
1003.400	-976
1003.475	-1928
1003.551	-2227
1003.626	-1295
1003.702	-1968
1003.777	-1732
1003.853	-1628
1003.928	-2008
1004.004	-2256
1004.079	-1836
1004.155	-1871
1004.230	-2632
1004.305	-974
1004.381	-2136
1004.456	-2005
1004.531	-2036
1004.607	-2088
1004.682	-1595
1004.757	-1538
1004.832	-1308
1004.907	-1493
1004.982	-440
1005.057	-1538
1005.133	-1753
1005.208	-1938
1005.283	-1651
1005.358	-1618
1005.433	-2001
1005.508	-1165
1005.583	-972
1005.657	-780
1005.732	130
1005.807	-1777
1005.882	-420
1005.957	-1598
1006.032	-885
1006.106	-2371
1006.181	-2322
1006.256	-1474
1006.331	-2106
1006.405	-2020
1006.480	-2066
1006.554	-1948
1006.629	-1112
1006.704	-1984
1006.778	-1974
1006.853	-1792
1006.927	-1667
1007.002	-2491
1007.076	-689
1007.150	-1158
1007.225	-1536
1007.299	-957
1007.373	-1701
1007.448	-2335
1007.522	-1314
1007.596	-1364
1007.671	-1160
1007.745	-1511
1007.819	-2288
1007.893	-2079
1007.967	-1017
1008.041	-2564
1008.115	-568
1008.190	-1916
1008.264	-1808
1008.338	-3542
1008.412	-1448
1008.486	-1930
1008.560	-1201
1008.633	-1969
1008.707	-2019
1008.781	-1803
1008.855	-1915
1008.929	-2098
1009.003	-2561
1009.076	-2131
1009.150	-1537
1009.224	-2377
1009.298	-1301
1009.371	-3061
1009.445	-1152
1009.519	-2155
1009.592	-1836
1009.666	-2176
1009.739	-1103
1009.813	-2147
1009.886	-1150
1009.960	-3310
1010.033	-1162
1010.107	-1854
1010.180	-1629
1010.253	-1591
1010.327	-2161
1010.400	-2300
1010.473	-1858
1010.547	-1375
1010.620	-1830
1010.693	-1534
1010.766	-1489
1010.840	-1624
1010.913	-1422
1010.986	-3152
1011.059	-1909
1011.132	-2094
1011.205	-1843
1011.278	-2198
1011.351	-2462
1011.424	-2095
1011.497	-1772
1011.570	-1949
1011.643	-1505
1011.716	-2496
1011.789	-1801
1011.862	-2173
1011.934	-1237
1012.007	-3259
1012.080	-1493
1012.153	-2230
1012.225	-1132
1012.298	-2860
1012.371	-2602
1012.443	-1386
1012.516	-2586
1012.588	-1685
1012.661	-2065
1012.733	-2296
1012.806	-1153
1012.879	-2589
1012.951	-1712
1013.023	-1940
1013.096	-1382
1013.168	-3325
1013.241	-494
1013.313	-2656
1013.385	-1920
1013.458	-2408
1013.530	-1073
1013.602	-2072
1013.674	-1306
1013.746	-2907
1013.819	-1815
1013.891	-2207
1013.963	-2294
1014.035	-2524
1014.107	-2186
1014.179	-2529
1014.251	-2059
1014.323	-1448
1014.395	-678
1014.467	-2172
1014.539	-2008
1014.611	-2469
1014.683	-2129
1014.754	-2331
1014.826	-2098
1014.898	-1878
1014.970	-2543
1015.042	-1466
1015.113	-1727
1015.185	-1374
1015.257	-2760
1015.328	-1862
1015.400	-2373
1015.471	-1839
1015.543	-3129
1015.615	-2707
1015.686	-1817
1015.757	-1913
1015.829	-1327
1015.901	-2234
1015.972	-1879
1016.043	-2427
1016.115	-2188
1016.186	-1853
1016.257	-2521
1016.328	-3117
1016.400	-1193
1016.471	-2765
1016.542	-1882
1016.613	-2430
1016.685	-1335
1016.756	-1609
1016.827	-1938
1016.898	-2239
1016.969	-1263
1017.040	-2407
1017.111	-2243
1017.182	-2876
1017.253	-1288
1017.324	-2288
1017.395	-2316
1017.466	-1583
1017.537	-2364
1017.608	-2488
1017.678	-1126
1017.749	-2428
1017.820	-1974
1017.891	-1785
1017.961	-1772
1018.032	-2268
1018.103	-1893
1018.173	-2343
1018.244	-2232
1018.315	-1181
1018.385	-1758
1018.456	-2454
1018.526	-2150
1018.597	-2721
1018.667	-1622
1018.738	-2067
1018.808	-2371
1018.878	-2021
1018.949	-2118
1019.019	-2803
1019.089	-1798
1019.160	-2406
1019.230	-2177
1019.300	-2078
1019.371	-2578
1019.441	-2321
1019.511	-1438
1019.581	-1980
1019.651	-1458
1019.721	-2451
1019.791	-1514
1019.861	-1864
1019.931	-1835
1020.001	-2108
1020.071	-2163
1020.141	-2839
1020.211	-1866
1020.281	-2047
1020.351	-1790
1020.421	-1337
1020.491	-1541
1020.560	-2244
1020.630	-2097
1020.700	-2230
1020.770	-1962
1020.839	-2656
1020.909	-2278
1020.979	-3238
1021.048	-2192
1021.118	-3176
1021.187	-2013
1021.257	-2321
1021.326	-1432
1021.396	-2578
1021.465	-1702
1021.535	-1890
1021.604	-2197
1021.674	-2486
1021.743	-1758
1021.812	-1968
1021.882	-2301
1021.951	-2943
1022.020	-1850
1022.089	-1786
1022.159	-1760
1022.228	-2091
1022.297	-1648
1022.366	-2519
1022.435	-1748
1022.504	-2082
1022.573	-2248
1022.642	-2226
1022.711	-2209
1022.781	-1899
1022.849	-2520
1022.918	-1879
1022.987	-2233
1023.056	-2600
1023.125	-1807
1023.194	-2200
1023.263	-1924
1023.331	-2727
1023.400	-2195
1023.469	-2739
1023.538	-1842
1023.606	-2681
1023.675	-2323
1023.744	-2599
1023.812	-2640
1023.881	-2099
1023.949	-1575
1024.018	-2946
1024.086	-2083
1024.155	-2596
1024.223	-2131
1024.292	-2247
1024.360	-2034
1024.429	-2460
1024.497	-1896
1024.565	-1302
1024.634	-1978
1024.702	-1713
1024.770	-2314
1024.838	-2134
1024.907	-1469
1024.975	-3093
1025.043	-1017
1025.111	-2990
1025.179	-1750
1025.247	-1881
1025.315	-2221
1025.383	-2434
1025.451	-1872
1025.519	-2728
1025.587	-2192
1025.655	-2545
1025.723	-1771
1025.791	-2258
1025.859	-1858
1025.927	-2245
1025.995	-2581
1026.062	-2568
1026.130	-1646
1026.198	-2175
1026.266	-1916
1026.333	-1890
1026.401	-1886
1026.469	-2505
1026.536	-2265
1026.604	-2563
1026.671	-1831
1026.739	-2512
1026.806	-2091
1026.874	-2872
1026.941	-2361
1027.009	-2335
1027.076	-2464
1027.144	-1241
1027.211	-2201
1027.278	-2834
1027.345	-2019
1027.413	-2260
1027.480	-2209
1027.547	-3046
1027.614	-1849
1027.682	-1840
1027.749	-2378
1027.816	-2286
1027.883	-1777
1027.950	-1971
1028.017	-2355
1028.084	-2711
1028.151	-2354
1028.218	-2201
1028.285	-2382
1028.352	-1595
1028.419	-3141
1028.486	-2542
1028.553	-1138
1028.619	-2694
1028.686	-1638
1028.753	-2808
1028.820	-2124
1028.886	-1737
1028.953	-1039
1029.020	-2185
1029.086	-2781
1029.153	-2017
1029.220	-1432
1029.286	-2973
1029.353	-1713
1029.419	-2449
1029.486	-1611
1029.552	-2770
1029.619	-1655
1029.685	-2280
1029.751	-2215
1029.818	-1383
1029.884	-2694
1029.951	-530
1030.017	-1813
1030.083	-2301
1030.149	-1994
1030.216	-2290
1030.282	-1318
1030.348	-1635
1030.414	-2433
1030.480	-2227
1030.546	-1650
1030.612	-2228
1030.678	-2423
1030.744	-2178
1030.810	-1514
1030.876	-1487
1030.942	-1476
1031.008	-2501
1031.074	-1858
1031.140	-3267
1031.206	-1881
1031.272	-2634
1031.337	-914
1031.403	-2017
1031.469	-2188
1031.534	-2865
1031.600	-1248
1031.666	-2763
1031.731	-2035
1031.797	-2221
1031.863	-1843
1031.928	-2079
1031.994	-2161
1032.059	-3125
1032.125	-2034
1032.190	-1814
1032.256	-2512
1032.321	-2458
1032.386	-1504
1032.452	-1843
1032.517	-1725
1032.582	-2939
1032.647	-2276
1032.713	-2826
1032.778	-2031
1032.843	-2338
1032.908	-2032
1032.974	-2683
1033.039	-1739
1033.104	-2253
1033.169	-2262
1033.234	-2285
1033.299	-2468
1033.364	-2482
1033.429	-1650
1033.494	-2398
1033.559	-1943
1033.624	-2649
1033.688	-1277
1033.753	-2344
1033.818	-2122
1033.883	-2125
1033.948	-1445
1034.013	-2845
1034.077	-1537
1034.142	-2593
1034.207	-2072
1034.271	-1552
1034.336	-966
1034.400	-1626
1034.465	-1715
1034.530	-1791
1034.594	-1631
1034.658	-2340
1034.723	-2255
1034.787	-1658
1034.852	-1419
1034.916	-2042
1034.981	-1725
1035.045	-2091
1035.109	-2373
1035.173	-1983
1035.238	-2015
1035.302	-1872
1035.366	-2035
1035.430	-2211
1035.495	-2610
1035.559	-2644
1035.623	-1849
1035.687	-1907
1035.751	-2269
1035.815	-3122
1035.879	-1627
1035.943	-1961
1036.007	-1747
1036.071	-1471
1036.135	-2356
1036.198	-1883
1036.262	-1787
1036.326	-1715
1036.390	-1831
1036.454	-2408
1036.517	-2675
1036.581	-2238
1036.645	-1418
1036.709	-2409
1036.772	-2096
1036.836	-1866
1036.900	-2204
1036.963	-2851
1037.026	-1454
1037.090	-2511
1037.154	-1711
1037.217	-3079
1037.280	-1788
1037.344	-1788
1037.407	-2175
1037.471	-1904
1037.534	-2081
1037.597	-2260
1037.661	-2324
1037.724	-2265
1037.787	-2352
1037.850	-2115
1037.913	-2010
1037.977	-1279
1038.040	-2312
1038.103	-2784
1038.166	-2206
1038.229	-2780
1038.292	-2189
1038.355	-1903
1038.418	-1478
1038.481	-2065
1038.544	-1454
1038.607	-1775
1038.670	-2259
1038.732	-2275
1038.795	-2746
1038.858	-2726
1038.921	-2217
1038.984	-1719
1039.046	-1624
1039.109	-1660
1039.172	-2162
1039.234	-2599
1039.297	-1691
1039.360	-1819
1039.422	-1799
1039.485	-2188
1039.547	-2643
1039.610	-1626
1039.672	-1701
1039.734	-1803
1039.797	-2066
1039.859	-3220
1039.922	-1963
1039.984	-2739
1040.046	-1770
1040.109	-2899
1040.171	-2225
1040.233	-2699
1040.295	-2138
1040.358	-2529
1040.420	-1810
1040.482	-2139
1040.544	-2535
1040.606	-1741
1040.668	-2691
1040.730	-3041
1040.792	-1618
1040.854	-2419
1040.916	-1876
1040.978	-2801
1041.040	-1025
1041.102	-2588
1041.164	-2148
1041.225	-2295
1041.287	-1556
1041.349	-2373
1041.411	-2348
1041.472	-2052
1041.534	-2360
1041.596	-2727
1041.657	-2011
1041.719	-2718
1041.781	-1807
1041.842	-2801
1041.904	-1902
1041.965	-2095
1042.027	-778
1042.088	-1670
1042.150	-1611
1042.211	-2796
1042.272	-2263
1042.334	-2373
1042.395	-2354
1042.456	-2526
1042.518	-1145
1042.579	-2004
1042.640	-2194
1042.701	-2363
1042.763	-2069
1042.824	-2952
1042.885	-1945
1042.946	-2053
1043.007	-2141
1043.068	-2606
1043.129	-2310
1043.190	-2180
1043.251	-1360
1043.312	-2496
1043.373	-1765
1043.434	-2072
1043.495	-1890
1043.556	-2370
1043.616	-1943
1043.677	-2662
1043.738	-1382
1043.799	-2139
1043.859	-1622
1043.920	-2796
1043.981	-1882
1044.041	-2206
1044.102	-2069
1044.162	-2158
1044.223	-2330
1044.284	-2470
1044.344	-1909
1044.405	-2407
1044.465	-1861
1044.525	-2649
1044.586	-2172
1044.646	-1988
1044.707	-1133
1044.767	-2626
1044.827	-1498
1044.887	-2073
1044.948	-1279
1045.008	-1444
1045.068	-2264
1045.128	-1438
1045.188	-1776
1045.249	-1534
1045.309	-2155
1045.369	-1814
1045.429	-1647
1045.489	-1952
1045.549	-1556
1045.609	-2503
1045.669	-2257
1045.729	-1577
1045.789	-1619
1045.848	-2346
1045.908	-447
1045.968	-1767
1046.028	-2130
1046.088	-1604
1046.147	-1358
1046.207	-1758
1046.267	-1609
1046.326	-1726
1046.386	-1713
1046.446	-2247
1046.505	-442
1046.565	-2172
1046.624	-843
1046.684	-1650
1046.743	-931
1046.803	-395
1046.862	-904
1046.922	0
