'Start Wavelength	183.907
'End Wavelength	1046.922
'Gate Delay	5.000
'Gate Width (ms)	1.050
'Laser Output Level	0.000
'X Position	0.000
'Y Position	0.000
'Z Position	0.000
'Grid Point Number	1.000
'Shot Number	100.000
183.907	-57.000
183.977	610.000
184.047	-356
184.116	622
184.186	411
184.256	288
184.325	-384
184.395	-907
184.465	925
184.534	587
184.604	-607
184.674	95
184.743	29
184.813	164
184.883	-13
184.952	939
185.022	45
185.092	589
185.161	320
185.231	616
185.301	441
185.370	629
185.440	-184
185.509	616
185.579	-343
185.649	-45
185.718	-215
185.788	1062
185.857	-258
185.927	138
185.996	-245
186.066	361
186.136	-322
186.205	468
186.275	204
186.344	301
186.414	-192
186.483	-182
186.553	1089
186.622	2356
186.692	457
186.761	359
186.831	204
186.900	-13
186.970	400
187.039	439
187.109	258
187.178	807
187.248	-449
187.317	891
187.387	155
187.456	447
187.526	873
187.595	1043
187.664	350
187.734	531
187.803	271
187.873	1127
187.942	730
188.012	960
188.081	-96
188.150	658
188.220	2019
188.289	2252
188.358	486
188.428	1074
188.497	191
188.567	1247
188.636	153
188.705	653
188.775	554
188.844	501
188.913	790
188.983	542
189.052	418
189.121	438
189.191	73
189.260	2386
189.329	1000
189.399	1259
189.468	-101
189.537	407
189.606	643
189.676	278
189.745	365
189.814	1218
189.883	1030
189.953	289
190.022	697
190.091	4905
190.161	7631
190.230	2326
190.299	1003
190.368	1244
190.437	719
190.507	840
190.576	-89
190.645	406
190.714	-3
190.783	650
190.853	400
190.922	522
190.991	219
191.060	669
191.129	-412
191.198	1217
191.268	642
191.337	1043
191.406	574
191.475	422
191.544	207
191.613	1215
191.682	592
191.752	535
191.821	-274
191.890	879
191.959	507
192.028	899
192.097	-329
192.166	47
192.235	-125
192.304	1873
192.373	-152
192.442	461
192.511	223
192.580	725
192.650	524
192.719	606
192.788	505
192.857	557
192.926	-319
192.995	808
193.064	1326
193.133	2547
193.202	2158
193.271	2214
193.340	659
193.409	1245
193.478	1732
193.547	2677
193.615	3082
193.684	3852
193.753	1394
193.822	1412
193.891	219
193.960	1038
194.029	702
194.098	1573
194.167	-223
194.236	1207
194.305	68
194.374	383
194.443	801
194.512	1451
194.580	593
194.649	1312
194.718	794
194.787	738
194.856	-324
194.925	1731
194.994	392
195.062	840
195.131	1225
195.200	2546
195.269	2197
195.338	1240
195.407	373
195.475	1336
195.544	842
195.613	1156
195.682	909
195.751	1823
195.819	695
195.888	1980
195.957	1894
196.026	2111
196.094	2070
196.163	1851
196.232	1403
196.301	1695
196.369	728
196.438	1689
196.507	1082
196.576	1252
196.644	632
196.713	1524
196.782	1395
196.850	1779
196.919	879
196.988	1397
197.056	-422
197.125	1085
197.194	395
197.262	535
197.331	293
197.400	1465
197.468	997
197.537	526
197.606	844
197.674	2935
197.743	7022
197.812	3409
197.880	7027
197.949	5584
198.017	5929
198.086	4314
198.155	1735
198.223	2594
198.292	7375
198.360	3731
198.429	775
198.497	2078
198.566	3723
198.635	8056
198.703	2118
198.772	3063
198.840	7960
198.909	10450
198.977	1290
199.046	1973
199.114	1329
199.183	2006
199.251	348
199.320	763
199.388	1550
199.457	1480
199.525	1100
199.594	495
199.662	769
199.731	1127
199.799	765
199.867	1606
199.936	833
200.004	1239
200.073	1872
200.141	1059
200.210	86
200.278	858
200.346	832
200.415	2086
200.483	1671
200.552	1155
200.620	455
200.688	1546
200.757	683
200.825	1092
200.893	550
200.962	1374
201.030	687
201.098	1009
201.167	539
201.235	1011
201.303	1154
201.372	2127
201.440	884
201.508	2928
201.577	1862
201.645	1802
201.713	355
201.781	1542
201.850	3017
201.918	2176
201.986	577
202.055	1431
202.123	669
202.191	1201
202.259	510
202.327	1503
202.396	936
202.464	1935
202.532	3139
202.600	14173
202.669	7567
202.737	3250
202.805	1737
202.873	1504
202.941	1603
203.009	2002
203.078	1081
203.146	1042
203.214	389
203.282	1020
203.350	1325
203.418	1639
203.487	1795
203.555	1628
203.623	523
203.691	1552
203.759	625
203.827	1096
203.895	223
203.963	1325
204.031	530
204.099	2107
204.168	904
204.236	2123
204.304	1342
204.372	1501
204.440	547
204.508	1243
204.576	11
204.644	1179
204.712	871
204.780	2081
204.848	1149
204.916	1730
204.984	913
205.052	1637
205.120	588
205.188	959
205.256	675
205.324	943
205.392	439
205.460	2334
205.528	1548
205.596	3648
205.664	437
205.732	979
205.799	7223
205.867	15995
205.935	2604
206.003	2221
206.071	748
206.139	2922
206.207	3788
206.275	2492
206.343	760
206.411	2155
206.478	1606
206.546	1640
206.614	1386
206.682	1202
206.750	420
206.818	3497
206.885	2928
206.953	49
207.021	1619
207.089	1483
207.157	243
207.225	1361
207.292	705
207.360	1194
207.428	1281
207.496	820
207.563	453
207.631	1476
207.699	873
207.767	1208
207.834	1200
207.902	2609
207.970	870
208.038	1362
208.105	1055
208.173	2750
208.241	2028
208.309	3099
208.376	2210
208.444	5943
208.512	2154
208.579	1245
208.647	2270
208.715	3650
208.782	1778
208.850	1639
208.918	1318
208.985	1841
209.053	1077
209.120	1577
209.188	737
209.256	1225
209.323	504
209.391	3292
209.459	2594
209.526	1558
209.594	678
209.661	1288
209.729	1394
209.796	2366
209.864	1882
209.932	1007
209.999	3133
210.067	2513
210.134	1843
210.202	2852
210.269	3561
210.337	3941
210.404	1908
210.472	2417
210.539	1204
210.607	1717
210.674	2398
210.742	1502
210.809	1235
210.877	2915
210.944	3237
211.012	2464
211.079	3526
211.146	2624
211.214	1832
211.281	3888
211.349	4160
211.416	2989
211.484	2111
211.551	1927
211.618	2440
211.686	2397
211.753	952
211.821	2388
211.888	1932
211.955	2344
212.023	1249
212.090	3117
212.157	2291
212.225	3190
212.292	7594
212.359	16183
212.427	52127
212.494	22801
212.561	6781
212.629	4221
212.696	3476
212.763	3976
212.831	820
212.898	3301
212.965	1901
213.032	2205
213.100	1731
213.167	2654
213.234	3689
213.301	2324
213.369	2033
213.436	2386
213.503	1581
213.570	3283
213.638	1917
213.705	2471
213.772	1263
213.839	5220
213.906	7325
213.973	3709
214.041	1502
214.108	3236
214.175	2165
214.242	1819
214.309	2019
214.376	1415
214.444	1747
214.511	3053
214.578	1952
214.645	3083
214.712	2876
214.779	3557
214.846	1913
214.913	3137
214.980	2663
215.048	3838
215.115	3405
215.182	4262
215.249	2532
215.316	2251
215.383	2092
215.450	2146
215.517	1664
215.584	1751
215.651	1876
215.718	2255
215.785	2687
215.852	3336
215.919	3378
215.986	3594
216.053	1619
216.120	2218
216.187	3097
216.254	3727
216.321	2378
216.388	2443
216.455	2714
216.522	2911
216.589	3066
216.656	8517
216.722	8832
216.789	4682
216.856	3114
216.923	4738
216.990	3327
217.057	3415
217.124	3504
217.191	3977
217.258	3910
217.324	5310
217.391	6245
217.458	4881
217.525	3787
217.592	3054
217.659	1657
217.725	4424
217.792	6238
217.859	7500
217.926	2463
217.993	2663
218.059	1987
218.126	2093
218.193	1025
218.260	1906
218.327	1055
218.393	2340
218.460	1483
218.527	1879
218.594	2748
218.660	7458
218.727	7451
218.794	3408
218.860	2338
218.927	1497
218.994	1369
219.061	1673
219.127	4156
219.194	6971
219.261	2862
219.327	1745
219.394	1735
219.461	563
219.527	1305
219.594	5710
219.661	3476
219.727	1909
219.794	2734
219.860	2241
219.927	1899
219.994	4120
220.060	8552
220.127	5573
220.193	3102
220.260	2716
220.326	4100
220.393	6370
220.460	9279
220.526	6511
220.593	3263
220.659	5278
220.726	5043
220.792	20607
220.859	14784
220.925	12553
220.992	16900
221.058	23995
221.125	30509
221.191	23888
221.258	7122
221.324	4673
221.391	3690
221.457	2784
221.524	3235
221.590	5042
221.657	28002
221.723	20860
221.789	15845
221.856	15882
221.922	6793
221.989	4763
222.055	3091
222.121	2933
222.188	3628
222.254	3530
222.321	2104
222.387	2258
222.453	1973
222.520	1963
222.586	708
222.652	2752
222.719	573
222.785	2134
222.851	578
222.918	1698
222.984	1292
223.050	1164
223.116	186
223.183	2587
223.249	923
223.315	1418
223.382	1489
223.448	1814
223.514	767
223.580	936
223.647	789
223.713	1785
223.779	579
223.845	742
223.911	717
223.978	1273
224.044	1384
224.110	979
224.176	1828
224.242	1384
224.309	98
224.375	1999
224.441	1460
224.507	1266
224.573	1028
224.639	2439
224.705	217
224.772	1988
224.838	792
224.904	3357
224.970	1553
225.036	2385
225.102	1895
225.168	2936
225.234	1887
225.300	2533
225.366	1816
225.432	2390
225.499	1736
225.565	3206
225.631	2675
225.697	1884
225.763	2215
225.829	3189
225.895	3148
225.961	7928
226.027	6543
226.093	4465
226.159	4049
226.225	6208
226.291	14911
226.357	27394
226.423	13321
226.489	8387
226.554	4562
226.620	4777
226.686	6138
226.752	10162
226.818	14082
226.884	37177
226.950	35629
227.016	12088
227.082	6259
227.148	5654
227.214	5327
227.279	4406
227.345	2044
227.411	3281
227.477	2888
227.543	9199
227.609	9097
227.674	4987
227.740	3272
227.806	3781
227.872	2223
227.938	3278
228.003	5276
228.069	2928
228.135	1603
228.201	2182
228.267	1669
228.332	2631
228.398	4751
228.464	4156
228.530	1476
228.595	2079
228.661	1557
228.727	5949
228.792	5304
228.858	2826
228.924	1884
228.990	5741
229.055	2980
229.121	4745
229.187	1673
229.252	3542
229.318	1860
229.384	2920
229.449	3803
229.515	619
229.581	871
229.646	3918
229.712	2741
229.777	10568
229.843	10925
229.909	6631
229.974	5141
230.040	5892
230.105	3351
230.171	5169
230.236	5193
230.302	10543
230.368	8249
230.433	4333
230.499	3642
230.564	3511
230.630	1942
230.695	2766
230.761	2263
230.826	1437
230.892	5311
230.957	2923
231.023	1813
231.088	4755
231.154	3956
231.219	5607
231.284	5279
231.350	7366
231.415	3213
231.481	3411
231.546	1768
231.612	2950
231.677	2139
231.742	2304
231.808	2906
231.873	2090
231.939	1315
232.004	9246
232.069	8131
232.135	4726
232.200	3304
232.265	3187
232.331	1359
232.396	1938
232.461	1002
232.527	2674
232.592	3235
232.657	3304
232.723	12082
232.788	8932
232.853	3868
232.918	2554
232.984	2618
233.049	2919
233.114	10430
233.179	10150
233.245	15234
233.310	24701
233.375	5187
233.440	4848
233.506	3137
233.571	3719
233.636	2788
233.701	4076
233.766	11961
233.832	20134
233.897	5327
233.962	4599
234.027	4933
234.092	4756
234.157	3446
234.222	4223
234.288	8832
234.353	46098
234.418	40652
234.483	19599
234.548	10544
234.613	6892
234.678	6407
234.743	7905
234.808	44329
234.873	30050
234.938	8358
235.004	4988
235.069	4396
235.134	5461
235.199	4148
235.264	3868
235.329	1865
235.394	4106
235.459	7559
235.524	7801
235.589	4371
235.654	3222
235.719	1428
235.784	4040
235.849	6089
235.913	22733
235.978	25498
236.043	32260
236.108	8844
236.173	9193
236.238	9639
236.303	4901
236.368	4587
236.433	12017
236.498	28422
236.563	12001
236.627	14504
236.692	54286
236.757	44068
236.822	21054
236.887	19885
236.952	12050
237.017	8675
237.081	11087
237.146	9825
237.211	19343
237.276	51551
237.341	110177
237.405	55842
237.470	20327
237.535	18935
237.600	10667
237.664	7229
237.729	5635
237.794	5790
237.859	13552
237.923	18137
237.988	11390
238.053	17699
238.118	20922
238.182	55399
238.247	58462
238.312	25491
238.376	17346
238.441	11753
238.506	11714
238.570	4233
238.635	5778
238.700	4584
238.764	5356
238.829	22399
238.893	35304
238.958	10982
239.023	8495
239.087	4772
239.152	7166
239.216	3895
239.281	4403
239.346	4372
239.410	4330
239.475	7593
239.539	55345
239.604	52211
239.668	12001
239.733	6377
239.797	9363
239.862	18927
239.926	46709
239.991	19039
240.055	8789
240.120	4876
240.184	5419
240.249	4805
240.313	4936
240.378	6630
240.442	31170
240.507	60978
240.571	17670
240.635	24956
240.700	36533
240.764	10208
240.829	6275
240.893	4274
240.957	6399
241.022	29261
241.086	62350
241.151	29276
241.215	8154
241.279	12420
241.344	31858
241.408	11590
241.472	5496
241.537	4819
241.601	5664
241.665	2806
241.730	3626
241.794	5913
241.858	4411
241.922	4750
241.987	4126
242.051	3616
242.115	3279
242.179	2916
242.244	3129
242.308	4933
242.372	6219
242.436	9488
242.501	6132
242.565	3097
242.629	3799
242.693	3878
242.757	3612
242.822	4752
242.886	6548
242.950	5615
243.014	7646
243.078	5974
243.142	6859
243.206	6473
243.271	7913
243.335	6502
243.399	10957
243.463	43483
243.527	135271
243.591	41944
243.655	15465
243.719	8752
243.783	9173
243.847	12779
243.911	19869
243.975	22250
244.040	15711
244.104	7726
244.168	6005
244.232	9227
244.296	14644
244.360	15241
244.424	10854
244.488	11010
244.552	9038
244.615	5997
244.679	6419
244.743	6699
244.807	7354
244.871	4486
244.935	5027
244.999	3241
245.063	5848
245.127	5695
245.191	11379
245.255	10914
245.319	8297
245.383	6079
245.446	7492
245.510	4261
245.574	5489
245.638	5564
245.702	5688
245.766	17548
245.829	11121
245.893	10112
245.957	6205
246.021	6247
246.085	7691
246.149	11409
246.212	25395
246.276	40689
246.340	17900
246.404	10669
246.467	11242
246.531	18000
246.595	12004
246.659	11658
246.722	9616
246.786	10414
246.850	11310
246.913	15656
246.977	7118
247.041	7280
247.104	9195
247.168	8091
247.232	20949
247.295	53854
247.359	26077
247.423	9512
247.486	20529
247.550	11902
247.614	8736
247.677	10922
247.741	8619
247.804	6962
247.868	11137
247.932	18650
247.995	50959
248.059	18470
248.122	8556
248.186	11824
248.249	19900
248.313	79874
248.376	84312
248.440	54592
248.503	18087
248.567	13889
248.630	20229
248.694	24951
248.757	32344
248.821	88489
248.884	47177
248.948	42915
249.011	66844
249.075	104713
249.138	91121
249.202	31106
249.265	21959
249.328	42139
249.392	23155
249.455	13761
249.519	10482
249.582	12461
249.645	21352
249.709	15806
249.772	12516
249.835	12472
249.899	19131
249.962	12003
250.025	10221
250.089	28832
250.152	43343
250.215	18382
250.279	15404
250.342	15597
250.405	16177
250.468	11960
250.532	15658
250.595	26684
250.658	113850
250.721	213192
250.785	64639
250.848	31138
250.911	19429
250.974	17502
251.038	22705
251.101	53390
251.164	30961
251.227	26498
251.290	22301
251.354	33583
251.417	163553
251.480	171807
251.543	94582
251.606	317861
251.669	240530
251.732	75948
251.795	72645
251.859	78082
251.922	200933
251.985	113753
252.048	36062
252.111	26978
252.174	24679
252.237	40158
252.300	105335
252.363	107765
252.426	263351
252.489	106175
252.552	53727
252.615	37175
252.678	35415
252.741	77848
252.804	105689
252.867	265712
252.930	147025
252.993	74152
253.056	39607
253.119	28194
253.182	22308
253.245	38880
253.308	30593
253.371	33406
253.434	30208
253.497	25027
253.559	47046
253.622	33558
253.685	43501
253.748	40602
253.811	21455
253.874	35114
253.937	35298
254.000	18060
254.062	31908
254.125	54037
254.188	38196
254.251	36143
254.314	19425
254.376	32859
254.439	36113
254.502	29415
254.565	33152
254.628	58909
254.690	35167
254.753	19086
254.816	16086
254.878	19996
254.941	40402
255.004	44074
255.067	19618
255.129	16724
255.192	9677
255.255	7431
255.317	9952
255.380	7629
255.443	6346
255.505	6705
255.568	7240
255.631	6037
255.693	8054
255.756	5829
255.819	7450
255.881	5052
255.944	5931
256.006	6874
256.069	7090
256.132	5258
256.194	12155
256.257	52269
256.319	38706
256.382	33718
256.444	13100
256.507	8286
256.569	7041
256.632	7695
256.694	19946
256.757	26936
256.819	76091
256.882	32073
256.944	13379
257.007	10551
257.069	15197
257.132	10411
257.194	7619
257.257	6618
257.319	7624
257.381	7612
257.444	23068
257.506	92355
257.569	106057
257.631	77793
257.693	36386
257.756	19131
257.818	23679
257.880	10418
257.943	9379
258.005	7179
258.067	6370
258.130	6437
258.192	10048
258.254	28295
258.317	19787
258.379	9222
258.441	25714
258.503	28014
258.566	54064
258.628	82329
258.690	18299
258.753	11923
258.815	20454
258.877	11611
258.939	8261
259.001	6835
259.064	7295
259.126	13240
259.188	24736
259.250	11166
259.312	15840
259.375	45118
259.437	28738
259.499	8828
259.561	9149
259.623	8409
259.685	6874
259.747	10606
259.809	49053
259.872	111615
259.934	144506
259.996	120415
260.058	26233
260.120	13989
260.182	11649
260.244	9090
260.306	7658
260.368	7607
260.430	7138
260.492	10337
260.554	30511
260.616	34929
260.678	58010
260.740	109412
260.802	25946
260.864	14934
260.926	12001
260.988	11675
261.050	10974
261.112	17297
261.174	80052
261.236	89575
261.298	21156
261.359	43762
261.421	73172
261.483	17689
261.545	12364
261.607	6961
261.669	9635
261.731	25516
261.793	70830
261.854	23295
261.916	13390
261.978	8209
262.040	12471
262.102	12295
262.164	27693
262.225	22248
262.287	9029
262.349	20421
262.411	18630
262.472	10070
262.534	28347
262.596	77487
262.658	22071
262.719	11234
262.781	17895
262.843	69727
262.904	30908
262.966	17341
263.028	22594
263.090	100298
263.151	264747
263.213	77054
263.275	29102
263.336	16647
263.398	12112
263.459	8409
263.521	9746
263.583	18509
263.644	14270
263.706	6838
263.767	6272
263.829	5579
263.891	4514
263.952	3951
264.014	3961
264.075	4451
264.137	8110
264.198	7594
264.260	4034
264.321	3328
264.383	10049
264.444	15496
264.506	5476
264.567	4678
264.629	5814
264.690	6244
264.752	6390
264.813	4747
264.875	4157
264.936	4159
264.998	4049
265.059	3408
265.120	5379
265.182	6595
265.243	29172
265.305	32261
265.366	9678
265.427	7155
265.489	4829
265.550	2885
265.611	6005
265.673	5120
265.734	3951
265.795	3500
265.857	4352
265.918	4371
265.979	10754
266.040	54744
266.102	48636
266.163	13527
266.224	10909
266.286	7941
266.347	6908
266.408	7185
266.469	10626
266.530	7358
266.592	6686
266.653	14440
266.714	22239
266.775	7417
266.836	5592
266.898	6097
266.959	7008
267.020	4705
267.081	6472
267.142	4485
267.203	7718
267.264	5772
267.326	8970
267.387	5008
267.448	4603
267.509	4449
267.570	5123
267.631	4075
267.692	8023
267.753	17750
267.814	6597
267.875	11518
267.936	26859
267.997	8510
268.058	6695
268.119	4921
268.180	6256
268.241	3666
268.302	3647
268.363	3529
268.424	5361
268.485	6751
268.546	5135
268.607	2796
268.668	3601
268.729	4544
268.790	4737
268.851	4591
268.912	13453
268.972	18196
269.033	9598
269.094	5389
269.155	5352
269.216	3723
269.277	7523
269.338	5843
269.398	3745
269.459	4782
269.520	7542
269.581	9255
269.642	12824
269.702	7547
269.763	7213
269.824	5468
269.885	10038
269.945	11317
270.006	6142
270.067	3095
270.128	4721
270.188	4358
270.249	5271
270.310	2529
270.370	4891
270.431	6964
270.492	4360
270.553	4599
270.613	12476
270.674	23379
270.734	12140
270.795	5665
270.856	9253
270.916	8398
270.977	6798
271.038	6181
271.098	6508
271.159	10970
271.219	14607
271.280	6562
271.340	6026
271.401	9995
271.462	38324
271.522	16424
271.583	7706
271.643	8904
271.704	7611
271.764	7279
271.825	17839
271.885	63778
271.946	103214
272.006	29675
272.066	40813
272.127	79537
272.187	23338
272.248	13094
272.308	14475
272.369	52070
272.429	33164
272.489	20338
272.550	21136
272.610	18668
272.671	18134
272.731	22002
272.791	47154
272.852	18062
272.912	13455
272.972	9396
273.033	9387
273.093	19603
273.153	14949
273.214	10239
273.274	12359
273.334	31682
273.394	77115
273.455	30135
273.515	27833
273.575	60935
273.635	30202
273.696	46760
273.756	90154
273.816	34711
273.876	23204
273.936	63204
273.997	129130
274.057	31308
274.117	19270
274.177	22446
274.237	84999
274.297	90952
274.358	88307
274.418	65074
274.478	44853
274.538	20134
274.598	22506
274.658	101311
274.718	140048
274.778	49326
274.838	25175
274.898	56744
274.958	197137
275.018	111589
275.078	63289
275.138	27587
275.198	18654
275.258	13046
275.318	18849
275.378	26692
275.438	23156
275.498	19636
275.558	71271
275.618	152672
275.678	65387
275.738	31533
275.798	24999
275.858	12089
275.918	9802
275.978	10634
276.038	10766
276.098	9102
276.157	16342
276.217	45914
276.277	28571
276.337	17938
276.397	10555
276.457	12652
276.517	9597
276.576	7965
276.636	11418
276.696	21496
276.756	33596
276.815	27137
276.875	14457
276.935	16278
276.995	15159
277.055	10312
277.114	9351
277.174	12312
277.234	35249
277.293	18733
277.353	12349
277.413	8920
277.472	10896
277.532	11504
277.592	16611
277.651	56974
277.711	124213
277.771	41395
277.830	116749
277.890	108588
277.950	79428
278.009	232159
278.069	95449
278.128	80977
278.188	124209
278.248	52566
278.307	129850
278.367	90179
278.426	31061
278.486	19429
278.545	17029
278.605	14912
278.664	14051
278.724	15477
278.783	33467
278.843	86527
278.902	32545
278.962	22168
279.021	29733
279.081	87606
279.140	90505
279.199	36613
279.259	34261
279.318	37468
279.378	52685
279.437	98565
279.496	279854
279.556	849409
279.615	798309
279.675	264574
279.734	142981
279.793	197417
279.853	263992
279.912	89159
279.971	55406
280.031	47190
280.090	61735
280.149	102754
280.208	148916
280.268	576321
280.327	672182
280.386	196477
280.445	102063
280.505	77380
280.564	47075
280.623	34409
280.682	35642
280.742	45096
280.801	22094
280.860	16716
280.919	15078
280.978	14082
281.037	15572
281.097	13780
281.156	14568
281.215	13644
281.274	15439
281.333	47812
281.392	45042
281.451	14054
281.510	12478
281.569	10740
281.628	11692
281.688	9727
281.747	11620
281.806	9786
281.865	8774
281.924	7748
281.983	7870
282.042	6497
282.101	7215
282.160	6628
282.219	7986
282.278	9570
282.337	24112
282.396	19086
282.454	10000
282.513	10886
282.572	32565
282.631	21036
282.690	9438
282.749	7879
282.808	10046
282.867	8740
282.926	10110
282.985	7129
283.043	8282
283.102	8386
283.161	10707
283.220	19436
283.279	44860
283.338	16701
283.396	10723
283.455	10066
283.514	11633
283.573	31191
283.631	24748
283.690	10602
283.749	10136
283.808	16346
283.866	21029
283.925	9310
283.984	10794
284.043	13116
284.101	15132
284.160	10726
284.219	13931
284.277	14079
284.336	30314
284.395	57294
284.453	51808
284.512	21614
284.570	24948
284.629	23524
284.688	26081
284.746	29312
284.805	35060
284.863	44860
284.922	55790
284.981	66447
285.039	93267
285.098	149370
285.156	333529
285.215	686792
285.273	672214
285.332	385433
285.390	204212
285.449	127160
285.507	88917
285.566	66883
285.624	53158
285.683	38153
285.741	31529
285.799	25052
285.858	24480
285.916	23326
285.975	17353
286.033	14038
286.091	14982
286.150	13437
286.208	13250
286.267	15435
286.325	15357
286.383	15848
286.442	14244
286.500	12337
286.558	15450
286.616	10022
286.675	14504
286.733	14358
286.791	13700
286.850	11437
286.908	13804
286.966	18808
287.024	11796
287.083	9306
287.141	8009
287.199	7873
287.257	12499
287.315	9190
287.374	11032
287.432	19892
287.490	14576
287.548	10431
287.606	10366
287.664	10584
287.723	10903
287.781	13824
287.839	9890
287.897	11806
287.955	15585
288.013	25270
288.071	59120
288.129	213437
288.187	649724
288.245	299494
288.303	89011
288.361	50096
288.419	37467
288.477	25285
288.535	19893
288.593	13981
288.651	10827
288.709	9177
288.767	8470
288.825	7281
288.883	6618
288.941	7800
288.999	8538
289.057	6040
289.115	5750
289.173	5697
289.231	6475
289.289	6510
289.346	7856
289.404	7152
289.462	11988
289.520	12444
289.578	7492
289.636	3952
289.694	4877
289.751	4146
289.809	4027
289.867	4616
289.925	6430
289.983	7214
290.040	4091
290.098	4072
290.156	4215
290.214	5598
290.271	4803
290.329	2780
290.387	3246
290.444	2025
290.502	2813
290.560	2666
290.617	2957
290.675	3579
290.733	4354
290.790	4354
290.848	3794
290.906	5932
290.963	5437
291.021	3828
291.078	4893
291.136	5971
291.194	12010
291.251	27927
291.309	10323
291.366	4330
291.424	3989
291.481	5317
291.539	7031
291.596	9231
291.654	3938
291.711	2742
291.769	5261
291.826	12986
291.884	9060
291.941	4374
291.999	4420
292.056	5103
292.114	5443
292.171	4256
292.228	4773
292.286	6118
292.343	12849
292.401	15346
292.458	11160
292.515	6040
292.573	8440
292.630	8618
292.687	12098
292.745	7468
292.802	8911
292.859	24136
292.917	53395
292.974	31389
293.031	9982
293.089	6890
293.146	5476
293.203	5113
293.260	5248
293.318	8849
293.375	8435
293.432	3814
293.489	5576
293.546	6409
293.604	15073
293.661	54661
293.718	104586
293.775	43219
293.832	21578
293.889	19992
293.947	22808
294.004	15948
294.061	11769
294.118	16734
294.175	31565
294.232	24908
294.289	14728
294.346	8435
294.403	8719
294.460	11359
294.517	7770
294.574	5391
294.631	5368
294.688	7122
294.745	21463
294.802	74768
294.859	59249
294.916	29507
294.973	24971
295.030	15296
295.087	13047
295.144	8098
295.201	7761
295.258	6478
295.315	11437
295.372	30230
295.429	69583
295.486	28221
295.542	12076
295.599	11408
295.656	18903
295.713	23835
295.770	52515
295.827	21698
295.883	9065
295.940	8682
295.997	14178
296.054	14922
296.111	8059
296.167	5370
296.224	3949
296.281	2843
296.338	4080
296.394	4281
296.451	8063
296.508	21231
296.564	43635
296.621	29759
296.678	62213
296.734	101250
296.791	36190
296.848	16441
296.904	17634
296.961	34029
297.018	62061
297.074	51321
297.131	21354
297.187	15935
297.244	22558
297.301	66669
297.357	137101
297.414	49642
297.470	18803
297.527	11962
297.583	11676
297.640	9620
297.696	7444
297.753	5007
297.809	4286
297.866	3558
297.922	5256
297.979	5621
298.035	7413
298.092	12570
298.148	35582
298.204	37731
298.261	19270
298.317	27113
298.374	83071
298.430	55894
298.486	31255
298.543	26615
298.599	26406
298.656	29498
298.712	34252
298.768	62091
298.824	55406
298.881	20825
298.937	12928
298.993	8799
299.050	10712
299.106	9982
299.162	7999
299.218	9999
299.275	8085
299.331	9576
299.387	20103
299.443	71392
299.500	82464
299.556	31865
299.612	15932
299.668	15924
299.724	16174
299.780	16374
299.837	12258
299.893	18269
299.949	55345
300.005	74813
300.061	57256
300.117	103279
300.173	55887
300.229	26139
300.285	31547
300.341	30924
300.397	19962
300.453	11337
300.510	11583
300.566	11909
300.622	13110
300.678	27111
300.734	56042
300.790	57380
300.845	78118
300.901	46794
300.957	55061
301.013	46402
301.069	19878
301.125	13575
301.181	15681
301.237	14563
301.293	9685
301.349	8666
301.405	11608
301.461	13879
301.516	26732
301.572	19707
301.628	18965
301.684	17260
301.740	28309
301.796	51771
301.851	35049
301.907	44130
301.963	52209
302.019	77292
302.074	219095
302.130	229276
302.186	118153
302.242	45572
302.297	27464
302.353	24722
302.409	43441
302.464	46201
302.520	34766
302.576	70155
302.631	88059
302.687	46514
302.743	19786
302.798	11359
302.854	9036
302.910	9542
302.965	12254
303.021	23742
303.076	24973
303.132	25101
303.187	30800
303.243	16541
303.299	9589
303.354	6425
303.410	7343
303.465	6085
303.521	6514
303.576	6657
303.632	10505
303.687	21005
303.743	67564
303.798	63220
303.853	26230
303.909	11542
303.964	10765
304.020	13532
304.075	23464
304.130	22302
304.186	33805
304.241	34954
304.297	27467
304.352	14257
304.358	13627
304.407	8521
304.449	8069
304.463	7926
304.518	8660
304.539	8347
304.573	7855
304.629	10306
304.630	10444
304.684	17286
304.720	35929
304.739	45251
304.794	81813
304.811	69362
304.850	39738
304.902	17587
304.905	16168
304.960	10888
304.992	10138
305.015	9646
305.071	12201
305.083	12091
305.126	11511
305.173	7686
305.181	7070
305.236	5263
305.264	5532
305.292	5897
305.347	7977
305.354	8456
305.402	11341
305.445	11490
305.457	11512
305.512	11278
305.535	11546
305.567	11988
305.622	12078
305.626	12562
305.678	22840
305.716	48547
305.733	58281
305.788	78875
305.807	68034
305.843	49432
305.897	60803
305.898	60878
305.953	66830
305.988	43639
306.008	30947
306.063	16445
306.078	14623
306.118	10641
306.168	8602
306.173	8416
306.228	6103
306.259	5708
306.283	5398
306.338	4199
306.349	4366
306.393	5241
306.440	6502
306.448	6711
306.503	7143
306.530	7329
306.558	8189
306.613	15256
306.620	16688
306.668	27436
306.711	45035
306.723	48323
306.778	46247
306.801	35388
306.833	22051
306.888	10427
306.892	10116
306.943	7383
306.982	5979
306.997	5476
307.052	5551
307.072	5335
307.107	5180
307.162	5702
307.163	5728
307.217	8172
307.253	9757
307.272	10138
307.327	11208
307.343	10675
307.381	9775
307.434	10085
307.436	10290
307.491	17921
307.524	27183
307.546	30883
307.600	39926
307.614	35922
307.655	22516
307.704	12413
307.710	11667
307.765	9890
307.795	11515
307.819	13385
307.874	19517
307.885	19612
307.929	16930
307.975	13293
307.984	13326
308.038	19488
308.065	24875
308.093	44095
308.148	98089
308.156	112902
308.202	189184
308.246	241860
308.257	240877
308.312	121820
308.336	83284
308.366	59355
308.421	40524
308.426	38743
308.475	24657
308.517	17708
308.530	16148
308.585	14249
308.607	13402
308.639	12575
308.694	13568
308.697	13693
308.748	18929
308.787	25772
308.803	26232
308.857	22192
308.877	19868
308.912	17742
308.967	18034
308.967	18128
309.021	28344
309.058	38127
309.076	46265
309.130	81317
309.148	95031
309.185	175349
309.238	315760
309.239	316439
309.293	380578
309.328	343269
309.348	297693
309.402	140699
309.418	105255
309.457	71612
309.508	47565
309.511	46772
309.566	49101
309.598	54277
309.620	65657
309.674	107418
309.688	118827
309.729	116982
309.778	90090
309.783	87589
309.837	56045
309.868	42535
309.892	40427
309.946	43834
309.959	47164
310.001	56839
310.049	64430
310.055	62958
310.109	42261
310.139	29586
310.163	23331
310.218	15409
310.229	14176
310.272	10159
310.319	7454
310.326	7153
310.381	5857
310.409	5481
310.435	5280
310.489	4781
310.499	4808
310.543	4522
310.589	4102
310.598	3937
310.652	3626
310.679	3097
310.706	2854
310.760	2844
310.769	2865
310.814	2673
310.859	2660
310.868	2711
310.923	2981
310.948	3159
310.977	3451
311.031	4032
311.038	4156
311.085	3882
311.128	3230
311.139	3102
311.193	2801
311.218	2631
311.247	2537
311.301	2430
311.308	2425
311.356	2090
311.398	1967
311.410	1986
311.464	1894
311.488	1962
311.518	2074
311.572	2216
311.578	2257
311.626	3078
311.668	3829
311.680	3707
311.734	3054
311.758	2796
311.788	3230
311.842	4098
311.847	4203
311.896	4287
311.937	4389
311.950	4542
312.004	5266
312.027	5619
312.058	4838
312.112	3423
312.117	3301
312.165	2880
312.207	2562
312.297	2131
312.386	2243
312.476	5521
312.566	7284
312.656	2291
312.745	1429
312.835	2331
312.925	2339
313.015	2395
313.104	4049
313.194	3974
313.284	3052
313.374	4315
313.463	2935
313.553	2704
313.643	2422
313.732	1405
313.822	744
313.912	1759
314.001	2439
314.091	1919
314.180	2781
314.270	3946
314.360	4188
314.449	4072
314.539	1394
314.628	1805
314.718	2259
314.808	2388
314.897	1497
314.987	2727
315.076	3801
315.166	5064
315.255	3314
315.345	4209
315.434	3908
315.524	4679
315.613	5092
315.703	10151
315.792	26351
315.881	105916
315.971	30201
316.060	10842
316.150	9921
316.239	9588
316.328	3964
316.418	3192
316.507	3191
316.597	4180
316.686	3242
316.775	4567
316.865	10235
316.954	2781
317.043	2342
317.133	2756
317.222	2884
317.311	2971
317.400	2651
317.490	6048
317.579	7428
317.668	7576
317.757	15753
317.847	48681
317.936	183701
318.025	49958
318.114	31666
318.203	12750
318.293	6177
318.382	9248
318.471	7708
318.560	8665
318.649	11469
318.738	3421
318.828	5186
318.917	4062
319.006	4138
319.095	10868
319.184	16422
319.273	14708
319.362	11170
319.451	3921
319.540	3706
319.629	9594
319.718	15112
319.807	4422
319.896	7498
319.985	22648
320.074	11148
320.163	3828
320.252	5982
320.341	3555
320.430	3025
320.519	6947
320.608	3764
320.697	2774
320.786	3428
320.875	5594
320.964	8232
321.053	10921
321.142	16619
321.230	16109
321.319	11721
321.408	24472
321.497	9705
321.586	11177
321.675	10824
321.764	9867
321.852	6543
321.941	15369
322.030	9665
322.119	9789
322.207	28039
322.296	14438
322.385	7296
322.474	11924
322.562	35280
322.651	16428
322.740	14280
322.829	16393
322.917	12989
323.006	9006
323.095	7808
323.183	5070
323.272	9515
323.361	16332
323.449	46603
323.538	15509
323.626	28717
323.715	17259
323.804	7313
323.892	26114
323.981	14741
324.069	4937
324.158	12903
324.246	11950
324.335	5254
324.424	9176
324.512	4083
324.601	3947
324.689	3687
324.778	5800
324.866	9874
324.954	2771
325.043	3918
325.131	6118
325.220	9952
325.308	11549
325.397	9092
325.485	5165
325.574	1636
325.662	2189
325.750	2449
325.839	2426
325.927	2683
326.015	2887
326.104	3994
326.192	6394
326.280	2286
326.369	2252
326.457	3224
326.545	7292
326.634	3532
326.722	1136
326.810	2518
326.898	1887
326.987	2865
327.075	6845
327.163	6900
327.251	3024
327.340	1671
327.428	1680
327.516	1568
327.604	2114
327.692	3231
327.781	2985
327.869	3527
327.957	2857
328.045	2763
328.133	1856
328.221	2398
328.309	1557
328.397	1843
328.485	3631
328.574	5789
328.662	19169
328.750	8219
328.838	2886
328.926	1364
329.014	1272
329.102	2710
329.190	5768
329.278	4289
329.366	1387
329.454	1495
329.542	332
329.630	952
329.718	1930
329.806	2324
329.893	1797
329.981	593
330.069	1846
330.157	4598
330.245	13381
330.333	5918
330.421	2704
330.509	5453
330.597	21901
330.684	12427
330.772	2694
330.860	2212
330.948	2478
331.036	2113
331.123	1001
331.211	1002
331.299	1752
331.387	2356
331.475	5362
331.562	2746
331.650	1372
331.738	1537
331.825	2230
331.913	1510
332.001	1501
332.089	1968
332.176	3775
332.264	12181
332.352	8181
332.439	2203
332.527	2060
332.614	2108
332.702	2196
332.790	2726
332.877	7206
332.965	14756
333.052	6872
333.140	9139
333.228	22408
333.315	4810
333.403	3707
333.490	7673
333.578	12515
333.665	33498
333.753	12503
333.840	2065
333.928	3499
334.015	7723
334.103	9908
334.190	28931
334.278	7760
334.365	5195
334.452	4142
334.540	2876
334.627	1930
334.715	4307
334.802	11081
334.889	53545
334.977	53659
335.064	8586
335.151	2263
335.239	2575
335.326	3619
335.413	9756
335.501	13054
335.588	2942
335.675	1529
335.762	2423
335.850	3652
335.937	5253
336.024	14010
336.111	53711
336.199	24422
336.286	5288
336.373	2484
336.460	1533
336.547	2252
336.635	2828
336.722	2944
336.809	3214
336.896	4317
336.983	8924
337.070	15685
337.157	22941
337.245	29688
337.332	20920
337.419	1898
337.506	1556
337.593	1218
337.680	3136
337.767	9853
337.854	4665
337.941	5510
338.028	11240
338.115	3248
338.202	3399
338.289	8100
338.376	30058
338.463	7805
338.550	5361
338.637	6104
338.724	4435
338.811	8208
338.898	2605
338.984	1406
339.071	1669
339.158	3457
339.245	10708
339.332	6738
339.419	5527
339.506	5237
339.593	1163
339.679	1664
339.766	1508
339.853	2797
339.940	7310
340.027	2196
340.113	1976
340.200	3379
340.287	2465
340.374	3417
340.460	5972
340.547	2341
340.634	5887
340.720	22776
340.807	11318
340.894	2478
340.980	2528
341.067	2205
341.154	2879
341.240	4378
341.327	10427
341.414	6196
341.500	8666
341.587	2610
341.674	2932
341.760	6995
341.847	7281
341.933	3305
342.020	430
342.106	1556
342.193	2760
342.279	6038
342.366	4822
342.452	6319
342.539	4029
342.625	9937
342.712	23948
342.798	8958
342.885	3237
342.971	380
343.058	660
343.144	1093
343.230	2153
343.317	3494
343.403	2839
343.490	1812
343.576	1037
343.662	2650
343.749	3006
343.835	4256
343.921	13516
344.008	84356
344.094	170096
344.180	32129
344.267	10427
344.353	32660
344.439	29034
344.525	10776
344.612	6878
344.698	3702
344.784	1971
344.870	1551
344.957	1953
345.043	4693
345.129	3302
345.215	6587
345.301	3585
345.387	2090
345.474	520
345.560	1782
345.646	731
345.732	1704
345.818	4513
345.904	4037
345.990	2693
346.076	3470
346.162	7384
346.249	3427
346.335	1412
346.421	3578
346.507	15809
346.593	51631
346.679	9410
346.765	2984
346.851	2400
346.937	1301
347.023	2786
347.108	2469
347.194	2631
347.280	2405
347.366	3670
347.452	17698
347.538	67716
347.624	41327
347.710	26590
347.796	2843
347.882	818
347.967	1094
348.053	402
348.139	1753
348.225	1579
348.311	1381
348.397	1503
348.482	2280
348.568	2231
348.654	968
348.740	2212
348.825	2172
348.911	7681
348.997	33384
349.083	59763
349.168	7696
349.254	4624
349.340	5024
349.425	1928
349.511	2594
349.597	2253
349.682	7898
349.768	28296
349.854	11423
349.939	1946
350.025	1376
350.110	1774
350.196	1390
350.282	699
350.367	88
350.453	2297
350.538	3042
350.624	2367
350.709	2258
350.795	278
350.880	2133
350.966	3218
351.051	4276
351.137	2569
351.222	1962
351.308	8831
351.393	22215
351.479	8080
351.564	2937
351.649	1779
351.735	525
351.820	941
351.906	1785
351.991	1842
352.076	14923
352.162	21116
352.247	4295
352.332	2986
352.418	10446
352.503	12898
352.588	31948
352.673	23239
352.759	5997
352.844	1995
352.929	2661
353.014	3665
353.100	1661
353.185	4576
353.270	8597
353.355	7497
353.441	1211
353.526	2593
353.611	7244
353.696	8837
353.781	4983
353.866	808
353.952	3753
354.037	6980
354.122	17304
354.207	14254
354.292	4035
354.377	2068
354.462	1903
354.547	2788
354.632	2444
354.717	2634
354.802	4303
354.887	2117
354.972	1921
355.057	704
355.142	-125
355.227	3179
355.312	4696
355.397	10699
355.482	26748
355.567	11639
355.652	9259
355.737	11131
355.822	36795
355.907	26074
355.991	4577
356.076	1220
356.161	1932
356.246	1873
356.331	2526
356.416	11132
356.501	81301
356.585	75400
356.670	10372
356.755	6866
356.840	9962
356.924	58826
357.009	200895
357.094	62533
357.179	10969
357.263	6851
357.348	6974
357.433	6656
357.517	6045
357.602	5480
357.687	5535
357.771	19704
357.856	88071
357.941	41768
358.025	53209
358.110	219395
358.195	83275
358.279	10079
358.364	6187
358.448	25323
358.533	60775
358.617	41160
358.702	42691
358.787	13571
358.871	7560
358.956	6402
359.040	2250
359.125	2327
359.209	6274
359.294	43630
359.378	68713
359.462	13083
359.547	3876
359.631	2012
359.716	1552
359.800	1650
359.885	3782
359.969	2043
360.053	2144
360.138	2045
360.222	3821
360.306	8443
360.391	9173
360.475	38022
360.559	71301
360.644	29295
360.728	17115
360.812	44716
360.896	117018
360.981	34736
361.065	11995
361.149	4017
361.233	3747
361.318	2886
361.402	4123
361.486	3576
361.570	2438
361.654	5177
361.739	15299
361.823	81550
361.907	118777
361.991	19082
362.075	8391
362.159	15980
362.243	10415
362.327	8612
362.411	14067
362.495	6545
362.580	3384
362.664	2020
362.748	1220
362.832	2576
362.916	4548
363.000	24844
363.084	95088
363.168	137114
363.252	24499
363.336	5952
363.420	7751
363.503	15289
363.587	14192
363.671	5175
363.755	3459
363.839	7308
363.923	2160
364.007	8190
364.091	7962
364.175	6988
364.258	26182
364.342	24433
364.426	45955
364.510	23634
364.594	10872
364.677	21077
364.761	106495
364.845	64835
364.929	14977
365.013	10815
365.096	9794
365.180	9563
365.264	7208
365.347	23645
365.431	8245
365.515	1785
365.598	2225
365.682	2671
365.766	1536
365.849	1776
365.933	2485
366.017	2907
366.100	79
366.184	216
366.267	2090
366.351	1951
366.435	832
366.518	649
366.602	1148
366.685	1804
366.769	2781
366.852	1813
366.936	6454
367.019	4667
367.103	400
367.186	2636
367.270	745
367.353	70
367.436	1815
367.520	1099
367.603	2414
367.687	3952
367.770	9039
367.853	6444
367.937	23424
368.020	35688
368.104	7088
368.187	6725
368.270	9249
368.353	6656
368.437	9472
368.520	19505
368.603	12865
368.687	25800
368.770	44095
368.853	9099
368.936	7032
369.020	5125
369.103	2317
369.186	243
369.269	1686
369.352	6687
369.436	7671
369.519	4752
369.602	241
369.685	2579
369.768	1637
369.851	2232
369.934	105
370.018	2412
370.101	6384
370.184	6287
370.267	2790
370.350	5593
370.433	12236
370.516	51345
370.599	78669
370.682	22223
370.765	22375
370.848	30783
370.931	61301
371.014	19300
371.097	3170
371.180	2853
371.263	2131
371.346	-37
371.429	2361
371.511	1923
371.594	5244
371.677	6582
371.760	5527
371.843	10606
371.926	79991
372.009	172427
372.091	41991
372.174	26926
372.257	64114
372.340	21420
372.423	8297
372.505	8314
372.588	4769
372.671	19817
372.754	60797
372.836	24864
372.919	8442
373.002	11839
373.085	6254
373.167	9270
373.250	25485
373.332	63393
373.415	109666
373.498	231364
373.580	75301
373.663	149287
373.746	171470
373.828	27475
373.911	8258
373.993	6466
374.076	12386
374.159	11188
374.241	15050
374.324	47821
374.406	32644
374.489	66107
374.571	172706
374.654	55296
374.736	31400
374.819	106091
374.901	160553
374.983	156551
375.066	21203
375.148	5532
375.231	10409
375.313	18036
375.395	6909
375.478	3646
375.560	3515
375.643	6525
375.725	31778
375.807	138957
375.890	83346
375.972	19173
376.054	12161
376.136	15222
376.219	7923
376.301	36834
376.383	106544
376.465	33095
376.548	17370
376.630	25866
376.712	81406
376.794	32214
376.877	3781
376.959	1196
377.041	2549
377.123	2026
377.205	2106
377.287	928
377.369	1316
377.452	1439
377.534	1865
377.616	1433
377.698	2142
377.780	160
377.862	1369
377.944	2303
378.026	-187
378.108	1458
378.190	1117
378.272	2081
378.354	957
378.436	255
378.518	1048
378.600	6257
378.682	10360
378.764	30989
378.846	21114
378.928	4634
379.010	6189
379.091	3366
379.173	2099
379.255	1558
379.337	4026
379.419	16716
379.501	46700
379.583	15808
379.664	3061
379.746	10434
379.828	30158
379.910	39952
379.991	34819
380.073	4889
380.155	3398
380.237	2613
380.318	1514
380.400	2263
380.482	8076
380.564	9970
380.645	9510
380.727	8493
380.809	5323
380.890	2929
380.972	1892
381.053	2478
381.135	3999
381.217	10674
381.298	31567
381.380	13271
381.461	17030
381.543	90169
381.624	98275
381.706	15552
381.787	7264
381.869	10562
381.951	50077
382.032	187039
382.113	94024
382.195	13866
382.276	10950
382.358	27663
382.439	77940
382.521	98448
382.602	157814
382.684	62316
382.765	108188
382.846	145576
382.928	278131
383.009	135289
383.090	97880
383.172	404131
383.253	571217
383.334	162451
383.416	132113
383.497	62869
383.578	34342
383.659	76084
383.741	337558
383.822	859042
383.903	379767
383.984	103700
384.066	135486
384.147	72302
384.228	17729
384.309	12557
384.390	9706
384.471	5841
384.553	6859
384.634	8945
384.715	10038
384.796	6394
384.877	8313
384.958	31447
385.039	32745
385.120	10464
385.201	6525
385.282	5421
385.363	6212
385.444	7494
385.525	15264
385.606	57645
385.687	46190
385.768	9435
385.849	13279
385.930	82176
386.011	137048
386.092	28330
386.173	5195
386.254	2771
386.335	3085
386.416	4120
386.496	18146
386.577	27052
386.658	7553
386.739	4034
386.820	3004
386.901	1422
386.981	3069
387.062	2689
387.143	7153
387.224	30886
387.304	24550
387.385	7384
387.466	2893
387.547	4396
387.627	3609
387.708	12957
387.789	60328
387.869	71376
387.950	17034
388.031	2438
388.111	116
388.192	3514
388.273	5334
388.353	4106
388.434	4360
388.514	14393
388.595	77857
388.676	82040
388.756	28442
388.837	25818
388.917	13920
388.998	1438
389.078	3112
389.159	3022
389.239	1676
389.320	6101
389.400	3532
389.480	12023
389.561	32343
389.641	14180
389.722	4592
389.802	6909
389.883	15517
389.963	43271
390.043	19933
390.124	4029
390.204	10737
390.284	34308
390.365	18486
390.445	19471
390.525	79350
390.605	67910
390.686	15257
390.766	6443
390.846	4489
390.927	1741
391.007	1387
391.087	2860
391.167	2687
391.247	1552
391.328	3731
391.408	4399
391.488	2836
391.568	1479
391.648	3444
391.728	6404
391.808	6183
391.888	7627
391.969	19043
392.049	27466
392.129	9888
392.209	15371
392.289	40839
392.369	17441
392.449	7781
392.529	6888
392.609	9278
392.689	15325
392.769	44503
392.849	35596
392.929	25785
393.009	59222
393.089	53390
393.169	68767
393.248	272221
393.328	1053587
393.408	1015780
393.488	230689
393.568	59729
393.648	27676
393.728	17848
393.807	11984
393.887	11698
393.967	8439
394.047	9514
394.127	9690
394.206	15825
394.286	67136
394.366	332212
394.446	310131
394.525	47226
394.605	10177
394.685	7787
394.764	10952
394.844	14563
394.924	11311
395.003	6262
395.083	6426
395.163	4540
395.242	5251
395.322	5491
395.402	3207
395.481	6038
395.561	8252
395.640	20611
395.720	20270
395.799	17035
395.879	13583
395.958	17445
396.038	91759
396.117	443159
396.197	417987
396.276	73043
396.356	20088
396.435	15881
396.515	16061
396.594	24205
396.673	62033
396.753	297261
396.832	930754
396.912	569422
396.991	105978
397.070	28956
397.150	13386
397.229	11832
397.308	12182
397.388	16505
397.467	8685
397.546	6164
397.625	3469
397.705	7182
397.784	5655
397.863	2871
397.942	2019
398.022	2873
398.101	4000
398.180	11083
398.259	4871
398.338	3734
398.417	3277
398.497	1893
398.576	2568
398.655	1394
398.734	916
398.813	1587
398.892	3877
398.971	11985
399.050	5389
399.129	1540
399.208	1204
399.287	575
399.366	191
399.445	1370
399.524	1164
399.603	-605
399.682	3544
399.761	7263
399.840	15372
399.919	9185
399.998	1381
400.077	-829
400.156	-155
400.235	2493
400.313	-447
400.392	926
400.471	15038
400.550	22956
400.629	3700
400.708	2036
400.786	135
400.865	872
400.944	1260
401.023	3001
401.102	-542
401.180	277
401.259	324
401.338	67
401.416	2373
401.495	912
401.574	730
401.652	-602
401.731	2023
401.810	704
401.888	-201
401.967	-387
402.046	1207
402.124	2724
402.203	914
402.281	1784
402.360	515
402.438	3323
402.517	-84
402.596	1201
402.674	-355
402.753	141
402.831	555
402.910	1600
402.988	8082
403.066	27840
403.145	13925
403.223	9361
403.302	20114
403.380	14904
403.459	13526
403.537	4179
403.615	430
403.694	-301
403.772	1460
403.850	-332
403.929	-262
404.007	226
404.085	3122
404.164	2388
404.242	495
404.320	1363
404.398	5767
404.477	23362
404.555	114447
404.633	86220
404.711	10032
404.789	2340
404.868	912
404.946	330
405.024	663
405.102	392
405.180	464
405.258	-624
405.336	405
405.415	-26
405.493	1406
405.571	2313
405.649	-120
405.727	-789
405.805	1803
405.883	1487
405.961	944
406.039	554
406.117	-374
406.195	3674
406.273	23235
406.351	83064
406.429	40205
406.507	3142
406.585	11
406.663	1461
406.740	2828
406.818	1429
406.896	-19
406.974	1474
407.052	5266
407.130	47189
407.208	58699
407.285	8599
407.363	317
407.441	856
407.519	69
407.596	1434
407.674	4190
407.752	10648
407.830	8310
407.907	2531
407.985	120
408.063	-255
408.141	-742
408.218	1066
408.296	-166
408.373	1241
408.451	1487
408.529	1235
408.606	373
408.684	-143
408.762	-618
408.839	-821
408.917	396
408.994	108
409.072	-1411
409.149	-134
409.227	1419
409.304	1980
409.382	327
409.459	1706
409.537	3499
409.614	2124
409.692	869
409.769	1268
409.846	3868
409.924	4299
410.001	1032
410.079	1090
410.156	1136
410.233	902
410.311	179
410.388	-279
410.465	400
410.543	-399
410.620	604
410.697	967
410.775	699
410.852	-595
410.929	1662
411.006	2350
411.083	226
411.161	804
411.238	1420
411.315	-98
411.392	-876
411.469	1156
411.547	677
411.624	-1807
411.701	-869
411.778	1185
411.855	3866
411.932	953
412.009	-42
412.086	324
412.163	173
412.240	291
412.317	862
412.394	-594
412.471	-201
412.548	234
412.625	372
412.702	374
412.779	1206
412.856	599
412.933	-557
413.010	253
413.087	1601
413.164	12387
413.241	17942
413.318	2946
413.395	2744
413.471	2863
413.548	394
413.625	393
413.702	-204
413.779	73
413.855	-401
413.932	-648
414.009	-1313
414.086	-464
414.162	113
414.239	1133
414.316	13903
414.393	30370
414.469	7873
414.546	338
414.623	-360
414.699	270
414.776	-157
414.853	-591
414.929	188
415.006	-292
415.082	-24
415.159	-328
415.236	457
415.312	598
415.389	2190
415.465	2574
415.542	1157
415.618	-439
415.695	2551
415.771	362
415.848	342
415.924	209
416.000	-512
416.077	482
416.153	-1241
416.230	-652
416.306	-1167
416.383	86
416.459	-920
416.535	-344
416.612	-717
416.688	-192
416.764	992
416.841	-709
416.917	-8
416.993	625
417.069	845
417.146	68
417.222	118
417.298	634
417.374	22
417.451	1184
417.527	1024
417.603	667
417.679	503
417.755	145
417.831	-387
417.908	545
417.984	-376
418.060	-1224
418.136	2847
418.212	3302
418.288	1038
418.364	-135
418.440	-565
418.516	1507
418.592	477
418.668	4556
418.744	7715
418.820	4237
418.896	-152
418.972	-904
419.048	-147
419.124	4179
419.200	1197
419.276	384
419.352	-820
419.428	-360
419.504	-123
419.579	1263
419.655	50
419.731	1136
419.807	5745
419.883	10493
419.959	6657
420.034	1011
420.110	4140
420.186	18548
420.262	13079
420.337	1770
420.413	637
420.489	-175
420.565	137
420.640	-962
420.716	651
420.792	-584
420.867	588
420.943	232
421.019	1206
421.094	882
421.170	672
421.245	-998
421.321	-101
421.397	-402
421.472	2043
421.548	5090
421.623	3562
421.699	963
421.774	2296
421.850	1110
421.925	3585
422.001	2167
422.076	1774
422.152	2399
422.227	4286
422.302	5536
422.378	8921
422.453	17432
422.529	54807
422.604	232926
422.679	445039
422.755	205229
422.830	46127
422.905	16933
422.981	7874
423.056	4701
423.131	3684
423.207	2618
423.282	2855
423.357	5513
423.432	3665
423.508	3611
423.583	8463
423.658	5756
423.733	1073
423.808	1283
423.883	1784
423.959	897
424.034	1741
424.109	1227
424.184	-248
424.259	-932
424.334	182
424.409	-1571
424.484	-388
424.559	-417
424.634	-44
424.709	2429
424.784	2386
424.859	829
424.934	1735
425.009	13034
425.084	21820
425.159	6155
425.234	1593
425.309	3198
425.384	26689
425.459	43913
425.534	8617
425.609	-157
425.683	-297
425.758	-688
425.833	160
425.908	1338
425.983	7190
426.058	23094
426.132	8043
426.207	-228
426.282	644
426.357	-1242
426.431	388
426.506	-192
426.581	59
426.655	53
426.730	172
426.805	-541
426.879	1210
426.954	1045
427.029	3407
427.103	26963
427.178	66694
427.253	24855
427.327	2919
427.402	10110
427.476	37866
427.551	17550
427.625	1375
427.700	35
427.774	-1064
427.849	-33
427.923	-869
427.998	-778
428.072	27
428.147	2781
428.221	19858
428.296	59760
428.370	28051
428.444	2279
428.519	996
428.593	1222
428.667	715
428.742	1532
428.816	6002
428.890	36693
428.965	74685
429.039	25063
429.113	2314
429.188	400
429.262	102
429.336	1760
429.410	9101
429.485	4783
429.559	1529
429.633	1675
429.707	-141
429.781	4329
429.855	30077
429.930	46292
430.004	14725
430.078	9962
430.152	23913
430.226	96090
430.300	90611
430.374	11383
430.448	2447
430.522	3617
430.596	9350
430.670	14564
430.744	73448
430.818	101298
430.892	18886
430.966	1717
431.040	22
431.114	-1144
431.188	-1036
431.262	-589
431.336	-599
431.410	1045
431.484	2563
431.557	3268
431.631	-971
431.705	1152
431.779	10790
431.853	54342
431.927	34326
432.000	3875
432.074	330
432.148	-463
432.222	-788
432.295	-378
432.369	-504
432.443	1983
432.516	27239
432.590	68546
432.664	22961
432.737	2201
432.811	118
432.885	-106
432.958	-616
433.032	-1690
433.106	-2019
433.179	-1398
433.253	-1125
433.326	-662
433.400	-917
433.473	-694
433.547	-1617
433.620	-840
433.694	389
433.767	1894
433.841	-432
433.914	-387
433.988	606
434.061	-522
434.134	-1410
434.208	-1329
434.281	-921
434.355	-723
434.428	859
434.501	230
434.575	-1042
434.648	-835
434.721	-720
434.795	-1057
434.868	-1566
434.941	-1018
435.014	-1158
435.088	442
435.161	4858
435.234	6272
435.307	4100
435.381	1310
435.454	1075
435.527	2527
435.600	1155
435.673	1497
435.746	-42
435.819	-704
435.892	-148
435.966	-178
436.039	-1479
436.112	-436
436.185	-766
436.258	-1581
436.331	-2263
436.404	-1400
436.477	-1268
436.550	-1239
436.623	-576
436.696	-841
436.769	-667
436.842	-639
436.915	-479
436.987	265
437.060	-790
437.133	-812
437.206	-1572
437.279	-835
437.352	-1098
437.425	-662
437.498	-712
437.570	963
437.643	1138
437.716	-739
437.789	-963
437.861	-559
437.934	1642
438.007	413
438.080	-680
438.152	-217
438.225	5037
438.298	45460
438.370	118705
438.443	43316
438.516	4863
438.588	327
438.661	-942
438.734	-1918
438.806	-546
438.879	0
438.951	-611
439.024	9
439.096	-940
439.169	-654
439.241	-1395
439.314	-1186
439.386	-795
439.459	-6
439.531	974
439.604	-981
439.676	-1052
439.749	-972
439.821	-1083
439.893	-1287
439.966	-1249
440.038	-622
440.110	-432
440.183	-113
440.255	-737
440.327	-124
440.400	13290
440.472	60459
440.544	41316
440.617	4030
440.689	1685
440.761	1464
440.833	1649
440.905	983
440.978	-758
441.050	-566
441.122	-37
441.194	-1211
441.266	-839
441.338	-1233
441.411	1217
441.483	14452
441.555	24710
441.627	5746
441.699	416
441.771	-603
441.843	-788
441.915	-1531
441.987	-370
442.059	-401
442.131	-161
442.203	-219
442.275	823
442.347	1039
442.419	3172
442.491	21315
442.563	58689
442.635	26524
442.706	5979
442.778	4262
442.850	272
442.922	-353
442.994	-601
443.066	844
443.137	1158
443.209	-112
443.281	1143
443.353	5202
443.425	29275
443.496	117762
443.568	117008
443.640	41460
443.711	6849
443.783	1336
443.855	147
443.926	-575
443.998	-884
444.070	-161
444.141	-721
444.213	1245
444.285	2095
444.356	1594
444.428	369
444.499	-1455
444.571	-912
444.642	77
444.714	-506
444.785	1668
444.857	682
444.928	1221
445.000	498
445.071	744
445.143	1933
445.214	2598
445.285	3900
445.357	14869
445.428	77218
445.500	193595
445.571	118991
445.642	57305
445.714	16765
445.785	6530
445.856	2091
445.928	3342
445.999	1789
446.070	979
446.141	1285
446.213	2071
446.284	24
446.355	-677
446.426	-546
446.497	-350
446.569	169
446.640	1677
446.711	2287
446.782	119
446.853	15
446.924	423
446.995	349
447.066	-136
447.138	-325
447.209	-558
447.280	-1115
447.351	-1402
447.422	-1285
447.493	-156
447.564	216
447.635	2033
447.706	192
447.777	-1345
447.847	-966
447.918	-1795
447.989	-1178
448.060	227
448.131	1179
448.202	1264
448.273	1628
448.344	565
448.414	-325
448.485	-213
448.556	-415
448.627	-890
448.698	-37
448.768	-1616
448.839	-974
448.910	-964
448.981	104
449.051	-512
449.122	-369
449.193	-1031
449.263	-1001
449.334	-1846
449.405	404
449.475	2514
449.546	1534
449.616	-390
449.687	1033
449.758	131
449.828	-1256
449.899	-813
449.969	-824
450.040	-1194
450.110	-571
450.181	-470
450.251	-1751
450.322	-622
450.392	-35
450.463	-578
450.533	-1311
450.604	-1285
450.674	-1004
450.744	-742
450.815	-1650
450.885	-1068
450.955	-1102
451.026	-994
451.096	-1539
451.166	-1195
451.237	48
451.307	1288
451.377	237
451.447	-1589
451.518	-764
451.588	-703
451.658	-1481
451.728	-953
451.799	64
451.869	1414
451.939	-922
452.009	-814
452.079	-1012
452.149	-605
452.219	-647
452.289	1474
452.360	1182
452.430	-555
452.500	-301
452.570	475
452.640	2716
452.710	6240
452.780	8085
452.850	7158
452.920	8811
452.990	2562
453.060	-35
453.129	409
453.199	729
453.269	2376
453.339	6780
453.409	11230
453.479	9306
453.549	13997
453.619	13689
453.688	5210
453.758	-68
453.828	-1515
453.898	-580
453.968	-763
454.037	-772
454.087	-390
454.107	-245
454.168	-1274
454.177	-1443
454.247	-988
454.249	-978
454.316	-1000
454.330	-1024
454.386	-1222
454.411	-698
454.456	30
454.492	832
454.525	1517
454.574	1221
454.595	1084
454.655	-599
454.665	-885
454.734	-433
454.736	-388
454.804	3
454.817	357
454.873	1456
454.898	1468
454.943	1311
454.979	1197
455.013	1135
455.060	553
455.082	336
455.141	109
455.152	97
455.221	2454
455.222	2538
455.291	7101
455.303	8483
455.360	12617
455.384	18511
455.430	26356
455.465	19841
455.499	14287
455.546	6698
455.569	3349
455.627	2619
455.638	2466
455.707	87
455.708	103
455.777	188
455.789	280
455.846	469
455.869	133
455.916	-429
455.950	-429
455.985	-523
456.031	-382
456.054	-295
456.112	-253
456.124	-247
456.193	-61
456.193	-76
456.262	-365
456.274	-88
456.332	992
456.355	874
456.401	512
456.436	120
456.470	-403
456.516	-336
456.540	-224
456.597	-474
456.609	-564
456.678	-648
456.678	-665
456.747	4
456.759	-35
456.817	-288
456.840	-454
456.886	-680
456.920	-306
456.955	12
457.001	514
457.024	911
457.082	1415
457.093	1429
457.162	2461
457.163	2484
457.232	2032
457.243	1875
457.301	853
457.324	419
457.370	111
457.405	618
457.439	965
457.485	449
457.508	287
457.566	898
457.577	979
457.646	1705
457.647	1718
457.715	4272
457.727	5087
457.784	10047
457.808	13021
457.853	16307
457.889	18930
457.922	17689
457.969	12263
457.991	13564
458.050	17455
458.060	18151
458.129	29277
458.130	29661
458.198	26790
458.211	24250
458.267	14137
458.292	9306
458.336	6055
458.372	5538
458.405	8011
458.453	12835
458.474	17105
458.533	31915
458.543	32829
458.611	48575
458.614	48937
458.680	28876
458.694	22336
458.749	10532
458.775	7000
458.818	3718
458.855	2575
458.887	1897
458.936	1556
458.955	1558
459.016	1540
459.024	1500
459.093	2282
459.097	2265
459.162	2862
459.177	3285
459.230	3796
459.257	3838
459.299	3348
459.338	3164
459.368	3227
459.418	2713
459.437	2583
459.499	2713
459.505	2695
459.574	2197
459.579	2183
459.643	2180
459.659	2116
459.711	1809
459.740	1953
459.780	2366
459.820	2415
459.849	2143
459.900	2116
459.917	2478
459.981	3358
459.986	3349
460.054	4617
460.061	4657
460.123	4547
460.141	4418
460.191	4946
460.222	5302
460.260	5661
460.302	6641
460.328	5779
460.382	3543
460.397	3412
460.462	2236
460.465	2220
460.534	3292
460.543	3282
460.602	6339
460.623	7910
460.671	12111
460.703	15471
460.739	14492
460.783	12414
460.808	10386
460.864	2908
460.876	2492
460.944	2585
460.945	2587
461.013	3491
461.024	3555
461.081	4618
461.104	5457
461.150	4960
461.184	4158
461.218	3895
461.264	3517
461.286	3634
461.345	4129
461.355	4039
461.423	3368
461.425	3354
461.491	3553
461.505	3646
461.559	5734
461.585	6683
461.628	7269
461.665	7989
461.696	8114
461.745	7962
461.764	7193
461.825	4369
461.832	4466
461.901	4948
461.905	5059
461.969	3459
461.985	2946
462.037	2933
462.065	2866
462.105	2775
462.145	2820
462.173	3534
462.225	4914
462.241	5037
462.305	5738
462.310	5677
462.378	4548
462.385	4353
462.446	4342
462.465	4448
462.514	5165
462.545	5733
462.582	5573
462.625	5580
462.650	5006
462.705	3157
462.718	3070
462.785	2277
462.786	2278
462.854	2791
462.865	2889
462.922	4086
462.945	4553
462.990	4313
463.025	4038
463.058	3284
463.104	2092
463.126	2258
463.184	3149
463.194	3265
463.262	3345
463.264	3374
463.330	3535
463.344	3470
463.398	3500
463.424	3413
463.466	3247
463.504	3374
463.533	3475
463.583	3408
463.601	3864
463.663	5299
463.669	5407
463.737	6870
463.743	7008
463.805	8286
463.823	8613
463.873	8576
463.903	8476
463.940	8598
463.982	8956
464.008	7630
464.062	4466
464.076	4442
464.142	4162
464.144	4147
464.211	3381
464.221	3305
464.279	4948
464.301	5555
464.347	5904
464.381	6217
464.414	6841
464.461	7661
464.482	9258
464.540	13232
464.550	13880
464.617	19036
464.620	19187
464.685	13139
464.699	11591
464.753	10972
464.779	10721
464.820	9421
464.859	8137
464.888	7542
464.938	6634
464.956	6913
465.018	7867
465.023	8079
465.091	10820
465.098	11062
465.158	11830
465.177	12156
465.226	11303
465.257	10606
465.293	9310
465.336	7471
465.361	9064
465.416	12999
465.428	12745
465.495	11278
465.496	11290
465.563	9949
465.575	9714
465.631	10524
465.654	10980
465.698	8615
465.734	6399
465.765	5677
465.813	4541
465.833	4646
465.893	5117
465.900	5058
465.968	4489
465.972	4423
466.035	5084
466.052	5297
466.102	5599
466.131	5772
466.170	6301
466.210	6776
466.237	6619
466.290	6289
466.304	6632
466.369	8144
466.372	8142
466.439	7432
466.449	7345
466.506	8764
466.528	9222
466.573	10348
466.607	11218
466.641	15307
466.687	20928
466.708	22530
466.766	26843
466.775	25538
466.842	15344
466.845	14826
466.909	10240
466.925	9130
466.977	7993
467.004	7379
467.044	7612
467.083	7827
467.111	8593
467.163	9975
467.178	10390
467.242	12027
467.245	12050
467.312	11987
467.321	11954
467.379	9846
467.400	9047
467.446	9563
467.480	9905
467.559	8782
467.638	9219
467.717	9615
467.796	14249
467.875	17511
467.955	12067
468.034	10917
468.113	15828
468.192	21250
468.271	11228
468.350	10614
468.429	14475
468.508	15984
468.588	11635
468.667	8496
468.746	8604
468.825	8591
468.904	9638
468.983	9499
469.062	11528
469.141	13876
469.220	8755
469.299	7638
469.378	8760
469.456	10650
469.535	10956
469.614	9914
469.693	11035
469.772	12878
469.851	16428
469.930	14321
470.009	17496
470.088	21878
470.166	38408
470.245	82284
470.324	111654
470.403	60223
470.482	29525
470.560	19034
470.639	18347
470.718	21829
470.797	16614
470.875	14414
470.954	15845
471.033	13956
471.111	8647
471.190	7309
471.269	7845
471.347	7158
471.426	9372
471.505	7746
471.583	9345
471.662	8070
471.740	8727
471.819	9450
471.898	8196
471.976	7474
472.055	7129
472.133	7437
472.212	10682
472.290	7718
472.369	7733
472.447	7666
472.526	6871
472.604	9009
472.683	11105
472.761	12810
472.839	10912
472.918	9418
472.996	9300
473.075	9665
473.153	9066
473.231	6195
473.310	9440
473.388	9730
473.466	8464
473.545	12711
473.623	24497
473.701	23907
473.780	10580
473.858	6899
473.936	10591
474.014	8069
474.093	9915
474.171	10094
474.249	10948
474.327	8788
474.405	8602
474.484	8291
474.562	9210
474.640	7967
474.718	7941
474.796	7999
474.874	8285
474.952	6745
475.030	7590
475.108	6714
475.187	8924
475.265	12169
475.343	23552
475.421	28009
475.499	9748
475.577	9868
475.655	10407
475.733	10859
475.811	14827
475.889	13353
475.966	11376
476.044	10103
476.122	16577
476.200	26033
476.278	17315
476.356	7495
476.434	9409
476.512	14207
476.590	24301
476.667	16228
476.745	7806
476.823	9031
476.901	6956
476.979	5359
477.056	6847
477.134	6627
477.212	8504
477.290	8062
477.367	5227
477.445	5025
477.523	5802
477.601	5016
477.678	5062
477.756	5192
477.834	6563
477.911	6193
477.989	6833
478.066	5384
478.144	8351
478.222	15066
478.299	33625
478.377	27767
478.454	7044
478.532	6028
478.609	9339
478.687	9601
478.764	6719
478.842	8755
478.919	14388
478.997	9469
479.074	5873
479.152	5187
479.229	7057
479.307	5543
479.384	4804
479.461	3596
479.539	4620
479.616	5929
479.694	4784
479.771	5781
479.848	6221
479.926	5405
480.003	9796
480.080	7360
480.157	5951
480.235	5119
480.312	6861
480.389	5797
480.467	7564
480.544	7766
480.621	6046
480.698	5104
480.775	7003
480.853	5425
480.930	5777
481.007	7748
481.084	7238
481.161	5051
481.238	5198
481.315	4829
481.392	4767
481.470	4167
481.547	4707
481.624	4423
481.701	5538
481.778	4255
481.855	5361
481.932	6417
482.009	10256
482.086	7684
482.163	9182
482.240	19749
482.317	45262
482.393	30200
482.470	6056
482.547	5733
482.624	6128
482.701	6571
482.778	5172
482.855	5622
482.932	7565
483.009	4837
483.085	6615
483.162	7165
483.239	8189
483.316	6360
483.393	7384
483.469	6050
483.546	6879
483.623	6403
483.699	5964
483.776	5081
483.853	7250
483.930	7747
484.006	13143
484.083	17826
484.160	16632
484.236	26247
484.313	21297
484.389	15561
484.466	15302
484.543	12750
484.619	15201
484.696	15723
484.772	15214
484.849	13340
484.925	13021
485.002	12361
485.078	13210
485.155	12097
485.231	11088
485.308	11011
485.384	12639
485.461	13988
485.537	18532
485.614	20319
485.690	13735
485.766	13746
485.843	17840
485.919	37918
485.995	40958
486.072	13587
486.148	12840
486.224	11623
486.301	12477
486.377	13653
486.453	13047
486.530	13591
486.606	17357
486.682	18205
486.758	19037
486.835	20728
486.911	19528
486.987	33429
487.063	77663
487.139	130900
487.215	80262
487.292	23772
487.368	16172
487.444	17630
487.520	22970
487.596	24711
487.672	43465
487.748	132503
487.824	203991
487.900	57981
487.976	21293
488.052	16233
488.128	18979
488.204	15984
488.280	13545
488.356	12894
488.432	19757
488.508	28929
488.584	20748
488.660	20030
488.736	19528
488.812	21000
488.888	29010
488.964	43277
489.039	129361
489.115	209620
489.191	109947
489.267	16217
489.343	11722
489.418	9413
489.494	10267
489.570	9332
489.646	11307
489.722	9504
489.797	10633
489.873	11677
489.949	18505
490.024	18155
490.100	10896
490.176	10422
490.251	21367
490.327	33923
490.403	14860
490.478	8652
490.554	9079
490.629	8749
490.705	10024
490.781	10728
490.856	11273
490.932	14404
491.007	18619
491.083	13692
491.158	10615
491.234	10506
491.309	15183
491.385	14327
491.460	10628
491.536	12652
491.611	13920
491.686	18386
491.762	31538
491.837	82023
491.913	132669
491.988	192149
492.063	261645
492.139	39101
492.214	20579
492.289	12759
492.365	13707
492.440	15109
492.515	11247
492.590	8540
492.666	9000
492.741	11481
492.816	12490
492.891	8567
492.967	11108
493.042	10984
493.117	10695
493.192	11521
493.267	23572
493.342	73704
493.418	105773
493.493	19867
493.568	9540
493.643	10255
493.718	12063
493.793	19402
493.868	32479
493.943	21242
494.018	10235
494.093	6590
494.168	8771
494.243	8835
494.318	8114
494.393	6466
494.468	7355
494.543	9141
494.618	13524
494.693	8376
494.768	7569
494.842	8075
494.917	8589
494.992	10209
495.067	8989
495.142	8619
495.217	11819
495.292	12494
495.366	15655
495.441	20220
495.516	28095
495.591	40471
495.665	182820
495.740	474611
495.815	168510
495.890	16354
495.964	8451
496.039	11097
496.114	8909
496.188	8851
496.263	10803
496.338	7489
496.412	8571
496.487	11383
496.561	19566
496.636	19738
496.710	11029
496.785	10812
496.860	11157
496.934	8347
497.009	13293
497.083	9031
497.158	8878
497.232	9666
497.307	15175
497.381	9318
497.455	9600
497.530	9630
497.604	9129
497.679	8195
497.753	12982
497.827	17830
497.902	15445
497.976	15988
498.050	31039
498.125	109432
498.199	128346
498.273	50559
498.348	41529
498.422	27672
498.496	29442
498.570	26124
498.645	12148
498.719	8094
498.793	11608
498.867	15961
498.941	18627
499.016	40436
499.090	111421
499.164	43935
499.238	10418
499.312	9257
499.386	16863
499.460	11921
499.534	9725
499.609	11868
499.683	12612
499.757	9889
499.831	17151
499.905	65422
499.979	66014
500.053	15090
500.127	30528
500.201	37409
500.275	17513
500.349	11944
500.422	15089
500.496	29431
500.570	76126
500.644	77784
500.718	78877
500.792	23644
500.866	9111
500.940	8264
501.013	7951
501.087	9887
501.161	27273
501.235	25683
501.309	24752
501.382	53480
501.456	62348
501.530	22126
501.603	17698
501.677	10409
501.751	9089
501.825	13465
501.898	11556
501.972	21098
502.046	15555
502.119	8264
502.193	20129
502.266	27479
502.340	13831
502.413	11176
502.487	20022
502.561	12353
502.634	9766
502.708	15436
502.781	12032
502.855	8662
502.928	5804
503.002	5123
503.075	5040
503.149	4474
503.222	4667
503.295	4377
503.369	4898
503.442	5353
503.516	16532
503.589	38379
503.662	27051
503.736	10072
503.809	21536
503.882	20410
503.956	29150
504.029	38221
504.102	77164
504.175	107570
504.249	30931
504.322	10916
504.395	9154
504.468	5968
504.542	5003
504.615	4173
504.688	6307
504.761	4028
504.834	10489
504.907	16367
504.980	32479
505.053	10162
505.127	14622
505.200	14491
505.273	5385
505.346	3862
505.419	3408
505.492	4627
505.565	3129
505.638	4497
505.711	3409
505.784	2520
505.857	3739
505.930	4670
506.003	2229
506.076	4969
506.149	5036
506.221	3909
506.294	6384
506.367	9517
506.440	33149
506.513	27032
506.586	8290
506.659	5509
506.731	7494
506.804	9586
506.877	19322
506.950	6750
507.022	5788
507.095	4384
507.168	9550
507.241	9621
507.313	7475
507.386	9577
507.459	21843
507.531	9379
507.604	7094
507.677	5878
507.749	4519
507.822	10764
507.894	22596
507.967	20175
508.040	9747
508.112	8396
508.185	6656
508.257	6104
508.330	16219
508.402	6472
508.475	4152
508.547	5198
508.620	4901
508.692	6472
508.765	5483
508.837	3493
508.909	4754
508.982	5585
509.054	11009
509.127	6180
509.199	4346
509.271	3697
509.344	4609
509.416	4854
509.488	5695
509.560	5168
509.633	9122
509.705	12922
509.777	9512
509.849	17865
509.922	9692
509.994	3830
510.066	5051
510.138	3411
510.210	10918
510.283	8450
510.355	8734
510.427	7504
510.499	6905
510.571	6420
510.643	6805
510.715	19548
510.787	15984
510.859	7318
510.931	9202
511.003	15624
511.076	14765
511.148	5133
511.219	5083
511.291	6011
511.363	7779
511.435	4963
511.507	4487
511.579	5972
511.651	5863
511.723	4955
511.795	5263
511.867	4145
511.939	6440
512.010	7904
512.082	9808
512.154	7014
512.226	7678
512.298	11237
512.369	17975
512.441	15245
512.513	20043
512.585	10538
512.656	11390
512.728	11169
512.800	8288
512.871	7910
512.943	8835
513.015	6268
513.086	10317
513.158	10747
513.230	12751
513.301	26784
513.373	35944
513.444	13128
513.516	9790
513.588	8833
513.659	14138
513.731	20350
513.802	15585
513.874	41757
513.945	86744
514.016	20213
514.088	9223
514.159	10937
514.231	19450
514.302	19682
514.374	11079
514.445	7242
514.516	12975
514.588	8494
514.659	9140
514.730	11328
514.802	17608
514.873	10597
514.944	10708
515.016	9673
515.087	14125
515.158	11093
515.229	12831
515.301	6626
515.372	9851
515.443	7225
515.514	8477
515.585	6740
515.656	9903
515.728	9633
515.799	9524
515.870	11765
515.941	13279
516.012	12614
516.083	19120
516.154	24765
516.225	43841
516.296	41945
516.367	42927
516.438	56085
516.509	78151
516.580	112007
516.651	387459
516.722	1524511
516.793	567371
516.864	105181
516.935	97613
517.006	118604
517.077	160642
517.148	355491
517.219	1647503
517.289	2579184
517.360	344105
517.431	74946
517.502	38265
517.573	32930
517.643	29064
517.714	31672
517.785	38756
517.856	45183
517.926	64689
517.997	88444
518.068	125717
518.138	174814
518.209	262507
518.280	988850
518.350	3718033
518.421	1443118
518.492	158801
518.562	64415
518.633	45924
518.703	36864
518.774	52680
518.845	119602
518.915	119315
518.986	38483
519.056	31876
519.127	62829
519.197	79071
519.268	75627
519.338	30671
519.408	17371
519.479	36112
519.549	26828
519.620	16667
519.690	8809
519.760	10544
519.831	12227
519.901	12406
519.971	9013
520.042	10778
520.112	10632
520.182	20493
520.253	26259
520.323	20890
520.393	57944
520.463	119192
520.534	69745
520.604	187837
520.674	51372
520.744	40733
520.814	198691
520.885	147901
520.955	19756
521.025	35058
521.095	15611
521.165	7923
521.235	6257
521.305	6291
521.375	7738
521.445	11470
521.515	19067
521.585	20832
521.655	17610
521.725	15917
521.795	9801
521.865	3797
521.935	8367
522.005	5912
522.075	4471
522.145	7720
522.215	5616
522.285	9717
522.355	10086
522.424	17542
522.494	17321
522.564	18034
522.634	52298
522.704	180836
522.774	56635
522.843	13599
522.913	11975
522.983	20340
523.053	12232
523.122	12645
523.192	20834
523.262	108197
523.331	96661
523.401	13788
523.471	6966
523.540	10298
523.610	5052
523.680	5644
523.749	4016
523.819	6195
523.888	4460
523.958	5389
524.027	4700
524.097	5257
524.166	4810
524.236	9800
524.305	8485
524.375	6464
524.444	3167
524.514	6812
524.583	4005
524.653	4927
524.722	7854
524.791	5706
524.861	5426
524.930	4459
524.999	5687
525.069	12698
525.138	5202
525.207	5909
525.277	5172
525.346	7604
525.415	6376
525.484	7568
525.554	6885
525.623	6954
525.692	6905
525.761	8485
525.830	11090
525.900	14993
525.969	21185
526.038	36042
526.107	71501
526.176	224511
526.245	184758
526.314	64128
526.383	124397
526.452	161036
526.522	270299
526.591	281891
526.660	110031
526.729	55165
526.797	52246
526.867	104483
526.935	479043
527.004	732075
527.073	375613
527.142	35119
527.211	15185
527.280	18099
527.349	18492
527.418	7981
527.487	10094
527.555	8759
527.624	7384
527.693	3773
527.762	5604
527.831	3956
527.899	4864
527.968	5615
528.037	4649
528.106	10941
528.174	25899
528.243	13795
528.312	21565
528.380	36775
528.449	7412
528.518	5188
528.586	2374
528.655	5291
528.723	2548
528.792	3201
528.861	3429
528.929	1883
528.998	3267
529.066	3898
529.135	3029
529.203	3892
529.272	3135
529.340	5821
529.409	6729
529.477	5068
529.545	4199
529.614	9836
529.682	12942
529.751	12919
529.819	22388
529.887	11687
529.956	5641
530.024	7660
530.092	5985
530.161	10546
530.229	21194
530.297	9068
530.365	6014
530.434	5680
530.502	4552
530.570	5776
530.638	2472
530.707	6538
530.775	6835
530.843	4743
530.911	4973
530.979	4836
531.047	4202
531.115	5090
531.183	4082
531.252	4633
531.320	4258
531.388	3996
531.456	5010
531.524	4077
531.592	6236
531.660	8374
531.728	5188
531.796	4530
531.864	5570
531.932	6289
532.000	5848
532.067	7947
532.135	9386
532.203	12631
532.271	11265
532.339	26046
532.407	86407
532.475	43820
532.542	17633
532.610	19242
532.678	25018
532.746	115636
532.814	306214
532.881	70977
532.949	14277
533.017	10888
533.084	7534
533.152	7197
533.220	7395
533.287	9359
533.355	5834
533.423	6654
533.490	4570
533.558	6684
533.625	6019
533.693	6294
533.761	6208
533.828	7597
533.896	7164
533.963	22892
534.031	26227
534.098	38470
534.166	12594
534.233	6398
534.300	7914
534.368	7778
534.435	7173
534.503	10373
534.570	22863
534.637	14433
534.705	10937
534.772	16000
534.840	26525
534.907	100480
534.974	130667
535.041	16711
535.109	7635
535.176	6127
535.243	6056
535.310	7687
535.378	6566
535.445	5435
535.512	4826
535.579	5835
535.646	3878
535.714	5210
535.781	5724
535.848	6135
535.915	5695
535.982	5982
536.049	5379
536.116	7833
536.183	5798
536.250	7698
536.317	7462
536.384	11232
536.451	23561
536.518	24965
536.585	12919
536.652	18609
536.719	33859
536.786	25551
536.853	15303
536.920	24776
536.987	46043
537.053	38902
537.120	142905
537.187	115269
537.254	11347
537.321	7858
537.388	8985
537.454	5755
537.521	4268
537.588	4899
537.654	6846
537.721	7888
537.788	8847
537.855	5891
537.921	7083
537.988	7014
538.055	7525
538.121	8735
538.188	9330
538.254	21549
538.321	55356
538.388	28778
538.454	7586
538.521	6966
538.587	4837
538.654	5699
538.720	4537
538.787	6368
538.853	5646
538.920	10159
538.986	7914
539.053	6569
539.119	7295
539.185	8211
539.252	12006
539.318	24592
539.385	12335
539.451	9086
539.517	10202
539.583	12441
539.650	32050
539.716	96631
539.782	23187
539.849	9029
539.915	8581
539.981	11071
540.047	15435
540.114	11840
540.180	10451
540.246	11818
540.312	19625
540.378	50481
540.444	48052
540.510	39648
540.576	117344
540.643	31076
540.709	7919
540.775	8686
540.841	7928
540.907	14605
540.973	37648
541.039	29245
541.105	27720
541.171	10720
541.237	7516
541.303	9608
541.369	13260
541.435	20519
541.500	45082
541.566	24264
541.632	7640
541.698	5902
541.764	6623
541.830	6007
541.896	4270
541.961	7498
542.027	6823
542.093	7815
542.159	9071
542.224	9977
542.290	18984
542.356	42195
542.421	51850
542.487	17508
542.553	8533
542.618	7899
542.684	7545
542.750	9013
542.815	10640
542.881	19460
542.947	96090
543.012	65225
543.078	8941
543.143	7429
543.209	7841
543.274	8650
543.340	10150
543.405	31972
543.471	53172
543.536	10572
543.602	6005
543.667	4609
543.732	5879
543.798	4763
543.863	4995
543.928	4001
543.994	2994
544.059	6006
544.124	5263
544.190	6051
544.255	7469
544.320	8008
544.386	8285
544.451	16648
544.516	21219
544.581	17036
544.646	55966
544.712	90108
544.777	12397
544.842	7356
544.907	4920
544.972	6187
545.037	5761
545.102	7240
545.168	7013
545.233	8627
545.298	9122
545.363	10525
545.428	13407
545.493	32324
545.558	80922
545.623	25162
545.688	7265
545.753	6890
545.818	5622
545.883	7946
545.947	5149
546.012	8036
546.077	6864
546.142	9618
546.207	8825
546.272	19053
546.337	19534
546.401	12243
546.466	8425
546.531	7881
546.596	9082
546.661	12211
546.725	9816
546.790	8887
546.855	9968
546.919	9595
546.984	11153
547.049	12954
547.113	13255
547.178	13755
547.243	16986
547.307	20586
547.372	24005
547.436	22793
547.501	21996
547.565	26410
547.630	31387
547.695	29958
547.759	21558
547.823	21629
547.888	21700
547.952	21668
548.017	22801
548.081	26229
548.146	25557
548.210	25420
548.274	24753
548.339	25264
548.403	22692
548.468	21405
548.532	20366
548.596	21423
548.660	21388
548.725	25790
548.789	28792
548.853	26296
548.917	22800
548.982	24028
549.046	21802
549.110	18223
549.174	18734
549.238	21931
549.303	24054
549.367	27109
549.431	22554
549.495	22756
549.559	22735
549.623	27500
549.687	30580
549.751	38248
549.815	34540
549.879	34187
549.943	30370
550.007	34478
550.071	34485
550.135	36975
550.199	30073
550.263	28597
550.327	28134
550.391	27343
550.455	29886
550.519	32560
550.582	35152
550.646	47330
550.710	45545
550.774	38436
550.838	37759
550.901	38847
550.965	42006
551.029	43355
551.093	45764
551.156	52192
551.220	64664
551.284	85650
551.347	57700
551.411	47651
551.475	46254
551.538	41138
551.602	37213
551.666	35219
551.729	31629
551.793	32135
551.856	31771
551.920	31735
551.983	31465
552.047	30767
552.110	31037
552.174	30321
552.237	32683
552.301	30715
552.364	29266
552.428	30111
552.491	32193
552.554	35945
552.618	36015
552.681	42163
552.745	50232
552.808	109002
552.871	160504
552.934	71141
552.998	40684
553.061	33930
553.124	29881
553.187	29935
553.251	28448
553.314	29577
553.377	28440
553.440	33341
553.503	43068
553.567	56037
553.630	32476
553.693	28315
553.756	28345
553.819	29089
553.882	25678
553.945	27716
554.008	26040
554.071	26171
554.134	27109
554.197	25240
554.260	24901
554.323	28912
554.386	26972
554.449	27067
554.512	26618
554.575	25276
554.638	25346
554.701	26363
554.764	24483
554.827	24216
554.889	22321
554.952	22124
555.015	21041
555.078	21350
555.141	21816
555.203	22018
555.266	21333
555.329	21968
555.391	20619
555.454	23712
555.517	21845
555.580	19643
555.642	18128
555.705	18042
555.768	18838
555.830	18523
555.893	16504
555.955	16689
556.018	16179
556.080	15788
556.143	16653
556.206	17597
556.268	18304
556.330	17978
556.393	17303
556.455	17068
556.518	18018
556.580	19984
556.643	15667
556.705	14905
556.767	14533
556.830	15444
556.892	18509
556.955	32665
557.017	21492
557.079	15446
557.142	14603
557.204	19474
557.266	44142
557.328	31830
557.391	12320
557.453	11101
557.515	12078
557.577	18617
557.639	17962
557.701	12004
557.764	10618
557.826	13543
557.888	14780
557.950	15514
558.012	16927
558.074	22296
558.136	55869
558.198	149594
558.260	50124
558.322	20193
558.384	22658
558.446	27132
558.508	33602
558.570	43645
558.632	74142
558.694	105716
558.756	100060
558.818	313816
558.880	831198
558.942	235700
559.003	162839
559.065	77611
559.127	32591
559.189	32882
559.251	37144
559.312	51187
559.374	129728
559.436	497277
559.498	229887
559.559	36680
559.621	30246
559.683	34863
559.744	56824
559.806	209041
559.868	324785
559.929	54992
559.991	29580
560.052	46111
560.114	143589
560.176	86137
560.237	78802
560.299	138783
560.360	27015
560.422	10154
560.483	7471
560.545	7686
560.606	5835
560.667	6065
560.729	4468
560.790	5974
560.852	4552
560.913	5989
560.974	5579
561.036	6081
561.097	5796
561.158	7212
561.220	7180
561.281	7189
561.342	6939
561.403	10817
561.465	16963
561.526	56768
561.587	72799
561.648	12817
561.709	6662
561.771	6229
561.832	5234
561.893	5612
561.954	5073
562.015	4869
562.076	4520
562.137	4176
562.198	4673
562.259	5684
562.320	5065
562.381	8152
562.442	14923
562.503	9828
562.564	5585
562.625	5738
562.686	4583
562.747	4884
562.808	4146
562.869	4574
562.930	4212
562.991	4557
563.051	3310
563.112	3931
563.173	3397
563.234	4221
563.294	4250
563.355	5384
563.416	5118
563.477	5036
563.537	3808
563.598	4943
563.659	4365
563.720	5130
563.780	6273
563.841	6448
563.901	3495
563.962	4220
564.023	4495
564.083	3836
564.144	4356
564.204	4538
564.265	3862
564.325	5054
564.386	5772
564.446	6506
564.507	3530
564.567	4812
564.628	3649
564.688	3946
564.749	3079
564.809	4677
564.869	4562
564.930	3844
564.990	4503
565.050	4105
565.111	4730
565.171	4342
565.231	3995
565.292	5588
565.352	3617
565.412	5074
565.472	5564
565.532	6880
565.593	4896
565.653	3901
565.713	4238
565.773	6795
565.833	9892
565.893	15005
565.953	5003
566.013	4209
566.074	3783
566.134	5885
566.194	6998
566.254	11512
566.314	6100
566.374	3548
566.434	3306
566.494	4474
566.554	2936
566.614	4473
566.673	3819
566.733	5356
566.793	3524
566.853	4274
566.913	3860
566.973	4596
567.033	3900
567.092	4844
567.152	3665
567.212	5870
567.272	3232
567.331	4922
567.391	3550
567.451	4669
567.511	4539
567.570	5542
567.630	4569
567.690	3813
567.749	4578
567.809	6277
567.868	5130
567.928	5584
567.988	4341
568.047	5905
568.107	6195
568.166	7322
568.226	11408
568.285	16987
568.345	11800
568.404	10963
568.464	9153
568.523	8277
568.582	8266
568.642	11016
568.701	10888
568.761	15260
568.820	25321
568.879	23213
568.939	14490
568.998	10677
569.057	8954
569.116	7265
569.176	5603
569.235	5121
569.294	4864
569.353	4814
569.413	3857
569.472	5466
569.531	3389
569.590	3245
569.649	3522
569.708	3794
569.767	4244
569.827	5102
569.886	3909
569.945	3866
570.004	4065
570.063	4573
570.122	5457
570.181	6124
570.240	3880
570.299	5401
570.358	5507
570.417	4432
570.475	3502
570.534	6390
570.593	6127
570.652	5938
570.711	4940
570.770	5687
570.829	6541
570.887	9003
570.946	9464
571.005	5298
571.064	5611
571.122	10843
571.181	7027
571.240	4687
571.299	3111
571.357	3981
571.416	3269
571.475	4542
571.533	3309
571.592	3401
571.650	2781
571.709	4269
571.768	5047
571.826	4714
571.885	3311
571.943	3297
572.002	2938
572.060	3153
572.119	2765
572.177	2892
572.236	1827
572.294	3204
572.352	3576
572.411	2756
572.469	2857
572.528	3293
572.586	2832
572.644	3483
572.703	3888
572.761	4050
572.819	1988
572.877	2769
572.936	1857
572.994	3537
573.052	834
573.110	4156
573.169	3810
573.227	3881
573.285	2868
573.343	2151
573.401	3054
573.459	3395
573.517	2258
573.576	4290
573.634	3032
573.692	3346
573.750	2973
573.808	2762
573.866	2448
573.924	3545
573.982	3249
574.040	3231
574.098	2511
574.155	2656
574.213	3177
574.271	2734
574.329	2969
574.387	3002
574.445	1715
574.503	2176
574.560	208
574.618	2682
574.676	2065
574.734	3594
574.792	2309
574.849	1965
574.907	1533
574.965	2715
575.022	1553
575.080	2693
575.138	2652
575.195	3821
575.253	2933
575.311	5748
575.368	2684
575.426	2436
575.483	2624
575.541	2410
575.598	2273
575.656	2938
575.713	1907
575.771	2444
575.828	1626
575.886	3014
575.943	2543
576.001	2103
576.058	1615
576.115	2769
576.173	2635
576.230	4717
576.287	8322
576.345	5427
576.402	2439
576.459	3103
576.517	1372
576.574	2373
576.631	2481
576.688	2450
576.746	1936
576.803	2251
576.860	1217
576.917	1817
576.974	1853
577.031	2706
577.089	2704
577.146	2066
577.203	1903
577.260	2950
577.317	1951
577.374	2871
577.431	2432
577.488	3941
577.545	1217
577.602	2659
577.659	1952
577.716	2200
577.773	1913
577.830	1691
577.886	2156
577.943	1663
578.000	1461
578.057	2339
578.114	2817
578.171	2484
578.227	2420
578.284	3218
578.341	2263
578.398	3580
578.454	3063
578.511	3573
578.568	3391
578.625	2687
578.681	1872
578.738	1969
578.794	1946
578.851	2536
578.908	1767
578.964	2598
579.021	2832
579.077	3114
579.134	1826
579.190	2197
579.247	2202
579.303	2462
579.360	1758
579.416	2708
579.473	1151
579.529	2168
579.586	1435
579.642	1757
579.698	1755
579.755	2843
579.811	2371
579.867	3053
579.924	1553
579.980	1861
580.036	2483
580.093	3497
580.149	2780
580.205	2349
580.261	2946
580.317	2762
580.374	2548
580.430	3386
580.486	3136
580.542	1777
580.598	1645
580.619	2121
580.654	2949
580.692	2171
580.710	1792
580.765	2490
580.767	2513
580.823	2205
580.838	2145
580.879	1977
580.911	1587
580.935	1312
580.984	2071
580.991	2181
581.047	2144
581.057	2285
581.103	2855
581.130	2119
581.159	1376
581.203	2174
581.215	2385
581.270	1904
581.276	1929
581.326	2228
581.349	2000
581.382	1593
581.422	2776
581.438	3285
581.494	2254
581.494	2258
581.550	3161
581.567	3159
581.606	3119
581.640	3171
581.661	3206
581.713	3239
581.717	3248
581.773	3413
581.786	2857
581.829	860
581.859	1157
581.885	1533
581.932	1900
581.940	1940
581.996	2937
582.004	2852
582.052	2511
582.077	2560
582.107	2500
582.150	1741
582.163	1559
582.219	2331
582.223	2304
582.274	1940
582.296	2035
582.330	2216
582.368	2690
582.386	2935
582.441	2781
582.441	2781
582.497	2034
582.514	2621
582.552	4034
582.587	3390
582.608	3003
582.659	2109
582.663	2025
582.719	2441
582.732	2472
582.774	2764
582.805	2573
582.830	2376
582.877	2912
582.885	2984
582.941	2554
582.950	2666
582.996	3320
583.023	3108
583.052	3036
583.095	3834
583.107	3951
583.162	3115
583.168	3135
583.218	3510
583.240	3205
583.273	2670
583.313	2870
583.328	2996
583.384	2748
583.385	2766
583.439	3110
583.458	2835
583.494	2307
583.531	2160
583.549	2187
583.603	2564
583.605	2566
583.660	2811
583.676	2616
583.715	2205
583.748	2872
583.770	3403
583.820	2282
583.825	2132
583.881	3300
583.893	3012
583.936	2358
583.965	2700
583.991	2958
584.038	2502
584.046	2403
584.101	2509
584.110	2488
584.156	2299
584.183	2414
584.211	2589
584.255	2296
584.266	2287
584.321	3191
584.328	3164
584.376	2718
584.400	3190
584.431	3702
584.472	2963
584.486	2751
584.541	3209
584.545	3219
584.596	3352
584.617	3381
584.651	3643
584.689	3519
584.706	3297
584.761	3968
584.762	3956
584.816	2684
584.834	3230
584.871	4280
584.906	3824
584.926	3620
584.978	3870
584.980	3872
585.035	3703
585.051	4025
585.090	5129
585.123	5573
585.145	5638
585.195	5782
585.200	5865
585.254	7008
585.267	7822
585.309	10225
585.340	11303
585.364	11982
585.412	12103
585.419	12127
585.473	12357
585.484	13121
585.528	16818
585.556	20710
585.583	26449
585.628	44274
585.637	49432
585.692	110136
585.700	121805
585.747	171050
585.772	127572
585.801	68287
585.845	23682
585.856	16167
585.910	9719
585.917	9285
585.965	7670
585.989	6788
586.019	6015
586.061	5637
586.074	5454
586.128	5107
586.133	5170
586.183	5909
586.205	5661
586.237	5238
586.277	4957
586.292	4898
586.346	4100
586.349	4119
586.401	4495
586.421	4422
586.455	4005
586.493	4578
586.509	5009
586.564	4518
586.565	4562
586.618	6511
586.637	6492
586.672	6129
586.709	6115
586.727	5976
586.781	5438
586.781	5432
586.835	4993
586.853	4876
586.889	4421
586.925	4390
586.944	4399
586.996	4081
586.998	4080
587.052	4439
587.068	4452
587.106	4416
587.140	4820
587.161	4925
587.212	4269
587.215	4255
587.269	5568
587.284	5432
587.323	4724
587.356	4720
587.377	4914
587.427	5131
587.431	5118
587.485	5396
587.499	5318
587.539	5439
587.571	5864
587.593	6145
587.643	6447
587.648	6462
587.702	6350
587.715	6496
587.755	7069
587.786	7347
587.810	7570
587.858	7744
587.864	7732
587.917	8257
587.930	8274
587.971	8634
588.001	9351
588.025	10184
588.073	11352
588.079	11484
588.133	13355
588.145	13688
588.187	14991
588.217	16200
588.241	17510
588.288	20307
588.295	20631
588.348	24278
588.360	24941
588.402	28424
588.431	31634
588.456	34443
588.503	40200
588.510	41041
588.564	49595
588.575	51425
588.617	59223
588.646	65555
588.671	71907
588.718	86431
588.725	90464
588.778	130451
588.789	141854
588.832	241852
588.861	327814
588.886	480034
588.932	827595
588.939	855784
588.993	1025743
589.004	1008702
589.047	566289
589.075	297187
589.100	202353
589.147	101295
589.154	96420
589.207	76584
589.218	73709
589.261	72207
589.290	73168
589.314	77241
589.361	89089
589.368	94543
589.421	149433
589.433	164954
589.475	318223
589.504	448215
589.528	592554
589.576	892996
589.582	867702
589.635	441022
589.647	352175
589.689	161203
589.718	65629
589.742	51206
589.790	31026
589.795	29840
589.849	22219
589.861	20885
589.902	17430
589.932	15250
589.955	14310
590.004	12221
590.009	12085
590.062	11573
590.075	11348
590.115	10226
590.146	9602
590.168	9355
590.218	8922
590.222	8876
590.275	8409
590.289	8306
590.328	8025
590.360	7743
590.381	7807
590.431	7689
590.435	7639
590.488	7370
590.503	7219
590.541	7190
590.574	7261
590.594	7082
590.645	6558
590.647	6561
590.700	7040
590.716	7056
590.753	6643
590.787	6496
590.806	6525
590.859	6390
590.859	6382
590.912	6376
590.930	6317
590.965	6474
591.001	6833
591.018	6616
591.071	5790
591.072	5792
591.124	6285
591.143	6368
591.177	5986
591.214	5820
591.230	5998
591.283	6620
591.285	6650
591.336	6247
591.356	6137
591.389	6637
591.427	7156
591.442	7034
591.495	6411
591.498	6393
591.547	6678
591.569	6745
591.600	6336
591.640	5945
591.653	6105
591.706	6563
591.711	6639
591.759	6297
591.782	6063
591.811	6356
591.853	6945
591.864	6885
591.917	6404
591.924	6361
591.969	6513
591.995	6555
592.022	6201
592.066	5718
592.075	5819
592.127	6450
592.137	6580
592.180	6185
592.208	5934
592.233	6102
592.279	6486
592.285	6466
592.338	6348
592.350	6346
592.390	6393
592.421	6410
592.443	6418
592.491	6533
592.495	6506
592.548	6315
592.562	6289
592.600	6050
592.633	5863
592.653	6064
592.704	6613
592.705	6654
592.775	6835
592.846	6667
592.916	7071
592.987	7782
593.058	7082
593.128	6236
593.199	6834
593.270	7407
593.341	6278
593.411	7060
593.482	6935
593.553	8449
593.623	6555
593.694	7443
593.764	7634
593.835	7184
593.906	7001
593.976	8104
594.047	7299
594.117	8651
594.188	7507
594.258	7898
594.329	7892
594.399	8700
594.470	8464
594.540	9818
594.611	8488
594.681	8714
594.751	8273
594.822	9844
594.892	9727
594.963	9527
595.033	9905
595.103	9804
595.174	9774
595.244	10421
595.314	10976
595.384	10388
595.455	9825
595.525	11495
595.595	11502
595.665	11731
595.736	11118
595.806	12550
595.876	11332
595.946	12594
596.016	11939
596.087	12821
596.157	12377
596.227	12155
596.297	13498
596.367	14785
596.437	14300
596.507	15425
596.577	14914
596.647	15350
596.717	15892
596.787	16691
596.857	16095
596.927	17277
596.997	16551
597.067	16854
597.137	17589
597.207	17049
597.277	17108
597.347	16359
597.417	15952
597.487	16633
597.557	16066
597.626	16686
597.696	16774
597.766	18007
597.836	16516
597.906	15175
597.975	15074
598.045	15328
598.115	16446
598.185	17057
598.254	18708
598.324	21578
598.394	21790
598.464	20772
598.533	20065
598.603	19392
598.672	18143
598.742	18321
598.812	19241
598.881	18983
598.951	18004
599.020	19598
599.090	20436
599.159	20911
599.229	19794
599.299	19224
599.368	19159
599.437	18836
599.507	18124
599.576	17413
599.646	17434
599.715	18332
599.785	16093
599.854	16719
599.924	16364
599.993	15825
600.062	16304
600.132	18177
600.201	18654
600.270	21113
600.340	22776
600.409	22565
600.478	21060
600.547	21804
600.617	20098
600.686	16626
600.755	15325
600.824	14037
600.894	14473
600.963	15163
601.032	13987
601.101	14647
601.170	13075
601.239	13403
601.308	13537
601.378	13748
601.447	13055
601.516	14119
601.585	14552
601.654	14052
601.723	14336
601.792	14218
601.861	15826
601.930	16750
601.999	16718
602.068	16735
602.137	16088
602.206	17299
602.275	16718
602.343	18114
602.412	16792
602.481	16829
602.550	16669
602.619	17717
602.688	18449
602.756	17301
602.825	17697
602.894	18962
602.963	18523
603.032	19683
603.100	19293
603.169	19012
603.238	18908
603.307	19073
603.375	18213
603.444	20733
603.513	18661
603.581	20436
603.650	20571
603.719	18756
603.787	18772
603.856	19541
603.924	19954
603.993	20336
604.061	21780
604.130	22988
604.198	23603
604.267	23219
604.335	22983
604.404	24520
604.472	24423
604.541	25027
604.609	24774
604.678	25764
604.746	25156
604.815	26747
604.883	26490
604.951	26582
605.020	27285
605.088	27580
605.156	27025
605.225	27294
605.293	27693
605.361	27945
605.429	27833
605.498	28637
605.566	30562
605.634	31257
605.702	30722
605.771	31646
605.839	31012
605.907	31110
605.975	31171
606.043	30281
606.111	29715
606.180	30464
606.248	28416
606.316	30056
606.384	28583
606.452	29813
606.520	29183
606.588	28619
606.656	28372
606.724	27808
606.792	26442
606.860	23557
606.928	20868
606.996	20925
607.064	20438
607.132	21337
607.200	22082
607.267	23033
607.335	22810
607.403	24575
607.471	22362
607.539	22478
607.607	21888
607.674	20086
607.742	19536
607.810	19434
607.878	19996
607.946	20286
608.013	20956
608.081	21293
608.149	21084
608.216	22042
608.284	24102
608.352	22556
608.419	20507
608.487	24116
608.555	21324
608.622	23786
608.690	24824
608.757	27360
608.825	27482
608.893	27642
608.960	24216
609.028	23027
609.095	24302
609.163	23205
609.230	19627
609.298	20145
609.365	19651
609.432	23287
609.500	24825
609.567	28394
609.635	32805
609.702	33983
609.769	32148
609.837	23901
609.904	21192
609.971	21473
610.039	26695
610.106	34230
610.173	63485
610.241	141181
610.308	65497
610.375	27067
610.442	21045
610.509	21546
610.577	21913
610.644	22174
610.711	22313
610.778	23754
610.845	23619
610.912	25941
610.980	26799
611.047	27592
611.114	26375
611.181	25865
611.248	24127
611.315	28385
611.382	26742
611.449	29430
611.516	30197
611.583	29597
611.650	29399
611.717	30317
611.784	30316
611.851	33565
611.918	36129
611.984	44160
612.051	66605
612.118	136416
612.185	333120
612.252	162188
612.319	43830
612.386	39655
612.452	35366
612.519	33940
612.586	33127
612.653	34781
612.719	36046
612.786	33171
612.853	30280
612.919	30022
612.986	30569
613.053	28160
613.120	27008
613.186	24773
613.253	27762
613.319	25695
613.386	26347
613.453	27251
613.519	28231
613.586	26628
613.652	30379
613.719	27936
613.785	27421
613.852	27440
613.918	26713
613.985	29621
614.051	31059
614.118	37382
614.184	33849
614.250	27583
614.317	27084
614.383	26983
614.449	27075
614.516	28177
614.582	27191
614.648	27261
614.715	25801
614.781	26184
614.847	25879
614.914	26158
614.980	24741
615.046	25324
615.112	25391
615.179	25748
615.245	26168
615.311	26076
615.377	27290
615.443	26833
615.509	27522
615.575	28618
615.642	27917
615.708	29123
615.774	30793
615.840	34641
615.906	39447
615.972	50130
616.038	79499
616.104	174167
616.170	436851
616.236	289564
616.302	59587
616.368	45756
616.434	33230
616.500	33838
616.565	36194
616.631	42902
616.697	35657
616.763	38002
616.829	57039
616.895	96646
616.961	77787
617.026	35101
617.092	26749
617.158	28260
617.224	26202
617.289	24705
617.355	22955
617.421	22144
617.487	23413
617.552	21685
617.618	20960
617.684	20854
617.749	23469
617.815	21522
617.880	19167
617.946	20584
618.012	21167
618.077	20873
618.143	19810
618.208	20207
618.274	22498
618.339	22132
618.405	16910
618.470	19537
618.536	17460
618.601	17948
618.667	15520
618.732	16675
618.798	14750
618.863	14907
618.928	14439
618.994	16131
619.059	15891
619.124	17946
619.190	15149
619.255	14709
619.320	15068
619.386	14642
619.451	14354
619.516	14459
619.581	14243
619.647	14915
619.712	14194
619.777	14633
619.842	14576
619.907	15442
619.972	15337
620.038	15807
620.103	14132
620.168	13884
620.233	15685
620.298	13708
620.363	14457
620.428	15382
620.493	15445
620.558	16816
620.623	16079
620.688	15797
620.753	15921
620.818	16230
620.883	16396
620.948	15678
621.013	15428
621.078	15330
621.143	14840
621.207	17609
621.272	15446
621.337	15103
621.402	15597
621.467	15350
621.532	14919
621.596	16444
621.661	15015
621.726	13751
621.791	14798
621.855	15408
621.920	15190
621.985	14412
622.049	15486
622.114	14493
622.179	15548
622.243	15686
622.308	15720
622.373	18188
622.437	17327
622.502	15585
622.566	15297
622.631	13614
622.695	15795
622.760	16026
622.824	16057
622.889	16035
622.953	16301
623.018	20624
623.082	18884
623.147	17159
623.211	16165
623.276	17428
623.340	14956
623.404	15303
623.469	15017
623.533	15000
623.597	14217
623.662	14613
623.726	11882
623.790	12491
623.854	11894
623.919	13300
623.983	12098
624.047	12850
624.111	12639
624.176	13472
624.240	13400
624.304	14845
624.368	12584
624.432	12646
624.496	13976
624.560	15951
624.625	15094
624.689	16005
624.753	14970
624.817	15293
624.881	13812
624.945	12095
625.009	11941
625.073	13745
625.137	12077
625.201	14467
625.265	13644
625.329	13819
625.393	13134
625.456	14089
625.520	12648
625.584	14593
625.648	15271
625.712	15877
625.776	17353
625.839	16645
625.903	11120
625.967	10324
626.031	13665
626.095	14884
626.158	12508
626.222	9204
626.286	9720
626.349	8590
626.413	6827
626.477	8322
626.540	7817
626.604	7393
626.668	8750
626.731	7971
626.795	7432
626.858	7674
626.922	6248
626.986	9056
627.049	5381
627.113	8982
627.176	7809
627.240	7103
627.303	7862
627.366	7220
627.430	7485
627.493	7843
627.557	6733
627.620	9688
627.684	7225
627.747	8057
627.810	5604
627.874	6241
627.937	5438
628.000	7777
628.064	5895
628.127	4665
628.190	5942
628.253	5897
628.317	4608
628.380	5199
628.443	3762
628.506	4905
628.569	3506
628.632	3771
628.696	3999
628.759	3820
628.822	3655
628.885	3388
628.948	3986
629.011	4516
629.074	3707
629.137	2805
629.200	2257
629.263	5183
629.326	2810
629.389	2880
629.452	3063
629.515	3108
629.578	2122
629.641	3701
629.704	2618
629.767	3586
629.830	2874
629.892	3786
629.955	2444
630.018	4494
630.081	2841
630.144	4423
630.207	2661
630.269	4278
630.332	1683
630.395	2830
630.458	3346
630.520	2324
630.583	3824
630.646	4133
630.708	2380
630.771	2264
630.834	3709
630.896	2339
630.959	2593
631.021	2959
631.084	2079
631.146	3259
631.209	3656
631.272	2731
631.334	2613
631.397	3013
631.459	2886
631.522	4352
631.584	2836
631.646	4012
631.709	3437
631.771	3830
631.834	3077
631.896	4382
631.958	2377
632.021	3484
632.083	1707
632.145	3825
632.208	2397
632.270	3396
632.332	2316
632.395	1505
632.457	2947
632.519	2697
632.581	4272
632.643	2247
632.706	2855
632.768	1716
632.830	2714
632.892	3286
632.954	1726
633.016	3625
633.078	1692
633.141	2599
633.203	2712
633.265	3108
633.327	3288
633.389	2406
633.451	3932
633.513	2667
633.575	2780
633.637	3136
633.698	3040
633.760	3631
633.822	3706
633.884	3106
633.946	2910
634.008	3425
634.070	3727
634.132	3453
634.193	3386
634.255	4806
634.317	3095
634.379	4352
634.441	3273
634.502	2898
634.564	4494
634.626	3113
634.687	3082
634.749	2621
634.811	2329
634.873	2586
634.934	2313
634.996	3281
635.057	2372
635.119	1438
635.181	2779
635.242	3813
635.304	418
635.365	5116
635.427	2020
635.488	2810
635.550	1202
635.611	3142
635.673	257
635.734	3061
635.796	2162
635.857	4590
635.918	2147
635.980	5047
636.041	3261
636.102	5396
636.164	3723
636.225	5193
636.286	1305
636.348	4609
636.409	2329
636.470	2228
636.531	2893
636.593	1524
636.654	2323
636.715	2458
636.776	1946
636.838	1867
636.899	2907
636.960	1575
637.021	1034
637.082	2030
637.143	1961
637.204	1266
637.265	1307
637.326	2350
637.387	2494
637.448	1082
637.509	2301
637.570	1739
637.631	2144
637.692	1141
637.753	165
637.814	1434
637.875	1495
637.936	3364
637.997	632
638.058	1488
638.119	1799
638.179	1519
638.240	960
638.301	1562
638.362	262
638.423	1638
638.483	2333
638.544	445
638.605	856
638.666	1188
638.726	1455
638.787	1840
638.848	250
638.908	1530
638.969	1409
639.030	1653
639.090	-257
639.151	443
639.211	2257
639.272	2368
639.332	2355
639.393	2072
639.453	1580
639.514	2086
639.574	1813
639.635	608
639.695	1350
639.756	581
639.816	1910
639.877	2158
639.937	4001
639.997	3878
640.058	511
640.118	1033
640.178	1169
640.239	1260
640.299	904
640.359	1426
640.420	1204
640.480	2475
640.540	1835
640.600	1682
640.661	1427
640.721	100
640.781	2491
640.841	-198
640.901	1950
640.961	1837
641.021	1611
641.082	1683
641.142	1777
641.202	3001
641.262	-569
641.322	2247
641.382	240
641.442	2317
641.502	10
641.562	1552
641.622	578
641.682	1630
641.742	959
641.802	1768
641.861	1054
641.921	1499
641.981	2171
642.041	1232
642.101	1416
642.161	-118
642.221	135
642.280	1003
642.340	670
642.400	344
642.460	2809
642.519	239
642.579	959
642.639	1833
642.698	-1888
642.758	3361
642.818	908
642.877	687
642.937	1242
642.997	2357
643.056	1034
643.116	-239
643.175	2739
643.235	925
643.294	1344
643.354	2105
643.414	2508
643.473	4358
643.532	3764
643.592	7320
643.651	14385
643.711	27520
643.770	53123
643.830	130772
643.889	260836
643.948	50623
644.008	6976
644.067	4045
644.126	1556
644.186	2268
644.245	1838
644.304	980
644.363	3020
644.423	614
644.482	1057
644.541	2302
644.600	-860
644.659	2655
644.719	2340
644.778	5315
644.837	8776
644.896	22067
644.955	47652
645.014	13547
645.073	1880
645.132	1260
645.191	1437
645.250	787
645.309	2455
645.368	1960
645.427	2504
645.486	3075
645.545	8018
645.604	1551
645.663	1213
645.722	1091
645.781	1462
645.840	2657
645.898	4705
645.957	8165
646.016	10581
646.075	22588
646.134	44840
646.192	124748
646.251	166450
646.310	19310
646.369	4524
646.427	3483
646.486	1215
646.545	1362
646.603	482
646.662	1812
646.721	718
646.779	675
646.838	-413
646.896	2370
646.955	1993
647.014	5160
647.072	9866
647.131	30731
647.189	12125
647.248	988
647.306	1333
647.365	620
647.423	-1704
647.481	1944
647.540	-1665
647.598	-375
647.657	-283
647.715	1352
647.773	-92
647.832	849
647.890	-1206
647.948	-102
648.007	1035
648.065	-64
648.123	-442
648.181	593
648.240	837
648.298	-1232
648.356	-41
648.414	253
648.472	-742
648.531	707
648.589	-791
648.647	-496
648.705	-589
648.763	-66
648.821	-178
648.879	258
648.937	602
648.995	1274
649.053	2272
649.111	4989
649.169	7091
649.227	15521
649.285	32575
649.343	95229
649.401	40157
649.459	6839
649.516	4168
649.574	787
649.632	5521
649.690	6841
649.748	2285
649.806	1929
649.863	7181
649.921	21685
649.979	10421
650.037	986
650.094	-1469
650.152	1310
650.210	-867
650.268	793
650.325	-367
650.383	-528
650.440	-1372
650.498	356
650.556	41
650.613	-825
650.671	-789
650.728	283
650.786	-208
650.843	671
650.901	-1657
650.958	138
651.016	-885
651.073	-197
651.131	-871
651.188	-695
651.246	-849
651.303	-1312
651.360	-611
651.418	-1380
651.475	-1564
651.532	-245
651.590	-754
651.647	-818
651.704	-1338
651.762	-1464
651.819	-436
651.876	-452
651.933	-918
651.990	-415
652.048	-1678
652.105	-575
652.162	-495
652.219	-583
652.276	-547
652.333	-405
652.390	-1758
652.448	-961
652.505	-569
652.562	-350
652.619	-1195
652.676	-288
652.733	325
652.790	-383
652.847	-1473
652.904	23
652.961	-2556
653.017	-1875
653.074	-529
653.131	-719
653.188	-2215
653.245	-496
653.302	-1475
653.359	-202
653.415	-127
653.472	-940
653.529	-537
653.586	-1065
653.642	-1660
653.699	-1
653.756	-1569
653.813	-1175
653.869	-381
653.926	-1328
653.983	-1262
654.039	-117
654.096	-1398
654.152	-31
654.209	-2310
654.266	-1109
654.322	-2221
654.379	-232
654.435	-599
654.492	-626
654.548	-1101
654.605	-876
654.661	-392
654.717	-438
654.774	-746
654.830	-744
654.887	-747
654.943	-677
655.000	-1401
655.056	-474
655.112	-727
655.168	-2160
655.225	-1392
655.281	113
655.337	-1159
655.394	-1266
655.450	-746
655.506	-1086
655.562	-867
655.618	331
655.675	-2369
655.731	-102
655.787	-1872
655.843	-476
655.899	-1461
655.955	436
656.011	-339
656.067	-1246
656.123	-844
656.179	-1244
656.235	-237
656.291	-1740
656.347	-637
656.403	-904
656.459	-1495
656.515	-1411
656.571	-916
656.627	-611
656.683	-1372
656.739	-506
656.795	-642
656.850	-1072
656.906	-1218
656.962	348
657.018	-1390
657.074	-336
657.129	-450
657.185	-115
657.241	1072
657.297	-586
657.352	-371
657.408	-1592
657.464	-628
657.519	-931
657.575	-1838
657.630	-1310
657.686	-1896
657.742	-1399
657.797	-1603
657.853	-1823
657.908	-486
657.964	-1661
658.019	-1518
658.075	-591
658.130	-331
658.186	-1101
658.241	-1275
658.297	-1619
658.352	-1429
658.407	-762
658.463	-1623
658.518	-1
658.573	-1235
658.629	-1929
658.684	-1037
658.739	-539
658.795	-2235
658.850	-495
658.905	-1604
658.960	-976
659.016	-2136
659.071	-1308
659.126	-1484
659.181	-1025
659.236	210
659.291	902
659.346	-1045
659.401	-1054
659.457	-1401
659.512	-1133
659.567	-337
659.622	-722
659.677	-2007
659.732	-1271
659.787	-1894
659.842	-1761
659.897	-421
659.952	-1193
660.007	-907
660.061	-955
660.116	-2028
660.171	-1202
660.226	-1784
660.281	-81
660.336	-2117
660.391	-260
660.445	-1845
660.500	-617
660.555	-2343
660.610	-1685
660.664	-1084
660.719	-1827
660.774	-1488
660.828	-958
660.883	-1651
660.938	-487
660.992	-2327
661.047	-1657
661.101	-1899
661.156	-1426
661.211	-1781
661.265	-775
661.320	-1530
661.374	-1020
661.429	-1822
661.483	-558
661.538	-2794
661.592	-1743
661.647	-1421
661.701	-641
661.755	-1174
661.810	-821
661.864	-1784
661.919	-1517
661.973	-786
662.027	-1453
662.081	-1221
662.136	-1574
662.190	-1000
662.244	-1433
662.299	-2101
662.353	-1036
662.407	-1579
662.461	-1585
662.515	-151
662.569	-1436
662.624	-1348
662.678	-1743
662.732	-1843
662.786	-1162
662.840	-1028
662.894	-1028
662.948	-1700
663.002	-1321
663.056	-1874
663.110	-1128
663.164	-1682
663.218	-1094
663.272	-1173
663.326	-1005
663.380	-2224
663.434	-1267
663.488	-1678
663.542	-1079
663.595	-879
663.649	-1609
663.703	-1328
663.757	-1116
663.811	-1966
663.864	-1399
663.918	-1800
663.972	-1403
664.026	-1392
664.079	-1824
664.133	-1515
664.187	-1432
664.240	-1209
664.294	-843
664.348	-1510
664.401	-1017
664.455	-1624
664.508	-1744
664.562	-1689
664.615	-1275
664.669	-1968
664.722	-1554
664.776	-1965
664.829	-1076
664.883	-1556
664.936	-1114
664.990	-2362
665.043	-860
665.097	-1543
665.150	-330
665.203	-2126
665.257	-1531
665.310	-1261
665.363	-1115
665.417	-1554
665.470	-1573
665.523	-2023
665.576	-1793
665.630	-1634
665.683	-1227
665.736	-857
665.789	-2094
665.842	-1969
665.895	-1358
665.949	-1455
666.002	-491
666.055	-2425
666.108	-72
666.161	-1211
666.214	-971
666.267	-1646
666.320	-147
666.373	-1679
666.426	-929
666.479	-2280
666.532	-1600
666.585	-1660
666.638	-975
666.691	-1941
666.744	-1170
666.796	-2156
666.849	-961
666.902	-1231
666.955	-1199
667.008	-1939
667.060	-2074
667.113	-2190
667.166	-1671
667.219	-1450
667.271	-1014
667.324	-1133
667.377	-1143
667.430	-1195
667.482	-969
667.535	-1191
667.587	-1126
667.640	-1826
667.693	-1228
667.745	-618
667.798	180
667.850	-1534
667.903	-891
667.955	-974
668.008	-1437
668.060	-2394
668.113	-802
668.165	-979
668.218	-1618
668.270	-1340
668.322	-1055
668.375	-1337
668.427	-801
668.479	-1757
668.532	-578
668.584	-1814
668.636	-407
668.689	-1779
668.741	-1040
668.793	-1432
668.845	-1584
668.898	-1265
668.950	-1255
669.002	-1907
669.054	-1358
669.106	-1523
669.158	-1020
669.211	-1180
669.263	-1133
669.315	-1555
669.367	-1227
669.419	-1443
669.471	-1061
669.523	-1370
669.575	-390
669.627	-2063
669.679	-1848
669.731	-1264
669.783	-619
669.835	-1360
669.886	-963
669.938	-1350
669.990	-1128
670.042	-1034
670.094	-570
670.146	-2188
670.197	-764
670.249	-885
670.301	-634
670.353	-135
670.404	157
670.456	300
670.508	2024
670.560	3941
670.611	7119
670.663	13764
670.715	39870
670.766	62575
670.818	15695
670.869	399
670.921	-591
670.972	-763
671.024	-318
671.075	-1608
671.127	-111
671.178	-710
671.230	-975
671.281	-1441
671.333	-1107
671.384	-1236
671.436	-1175
671.487	-466
671.538	417
671.590	839
671.641	3462
671.692	6879
671.744	15894
671.795	7527
671.846	1162
671.897	-949
671.949	-768
672.000	-1418
672.051	-341
672.102	-1137
672.153	-1292
672.204	-2022
672.256	-1761
672.307	-1813
672.358	-812
672.409	-897
672.460	-328
672.511	-1700
672.562	-1285
672.613	-1614
672.664	-1748
672.715	-1469
672.766	-597
672.817	-1551
672.868	-1722
672.919	-2404
672.970	-840
673.021	-1972
673.071	-1934
673.122	-1833
673.173	-1081
673.224	-1302
673.275	-1581
673.326	-1696
673.376	-1149
673.427	-1962
673.478	-995
673.528	-995
673.579	-1146
673.630	-1949
673.680	-3
673.731	-1107
673.782	-1947
673.832	-1637
673.883	-1038
673.934	-2628
673.984	-1984
674.035	-2176
674.085	-2158
674.136	-827
674.186	-1685
674.237	-1560
674.287	-1818
674.338	-1263
674.388	-1151
674.438	-1946
674.489	-452
674.539	-1122
674.589	-1230
674.640	-1479
674.690	-1055
674.740	-2733
674.791	-1407
674.841	-1802
674.891	-1175
674.942	-1467
674.992	-1204
675.042	-1330
675.092	-1690
675.142	-1811
675.193	-1329
675.243	-2356
675.293	-1192
675.343	-1979
675.393	-1766
675.443	-1347
675.493	-1210
675.543	-1553
675.593	-1466
675.643	-1928
675.693	-897
675.743	-1714
675.793	-1126
675.843	-2354
675.893	-1071
675.943	-1452
675.993	-1561
676.043	-1287
676.093	-537
676.142	-1350
676.192	-1404
676.242	-1680
676.292	-1304
676.341	-2409
676.391	-1012
676.441	-1977
676.491	-1031
676.540	-1462
676.590	-1122
676.640	-1434
676.689	-1000
676.739	-2625
676.789	-1115
676.838	-2261
676.888	-1373
676.937	-1592
676.987	-1278
677.037	-1319
677.086	-2290
677.136	-1445
677.185	-1736
677.235	-2230
677.284	-1242
677.333	-2196
677.383	-2187
677.432	-2178
677.482	-1073
677.531	-1634
677.580	-747
677.630	-2019
677.679	-2354
677.728	-1554
677.778	-2161
677.827	-1644
677.876	-1744
677.925	-908
677.975	-1435
678.024	-1774
678.073	-1362
678.122	-2123
678.171	-1805
678.220	-1476
678.269	-1510
678.319	-1211
678.368	-1936
678.417	-1529
678.466	-1328
678.515	-1213
678.564	-1308
678.613	-2134
678.662	-1612
678.711	-1575
678.760	-1373
678.809	-1976
678.857	-1755
678.906	-1861
678.955	-1151
679.004	-1348
679.053	-1036
679.102	-2597
679.151	-1561
679.199	-2115
679.248	-1760
679.297	-1935
679.346	-1562
679.394	-2083
679.443	-2309
679.492	-1902
679.540	-1814
679.589	-1818
679.638	-1774
679.686	-1029
679.735	-1310
679.784	-1550
679.832	-1378
679.881	-2485
679.929	-1327
679.978	-1619
680.026	-1186
680.075	-1838
680.123	-1802
680.172	-2353
680.220	-1798
680.268	-1242
680.317	-1818
680.365	-1137
680.414	-1384
680.462	-1304
680.510	-2041
680.559	-1717
680.607	-2168
680.655	-2152
680.703	-1465
680.752	-2904
680.800	-1569
680.848	-2077
680.896	-1454
680.945	-1832
680.993	-1782
681.041	-1800
681.089	-1246
681.137	-2336
681.185	-1366
681.233	-2556
681.258	-2091
681.281	-1659
681.329	-2049
681.377	-1316
681.380	-1314
681.425	-1407
681.473	-1268
681.502	-1908
681.521	-2377
681.569	-802
681.617	-1519
681.624	-1509
681.665	-1493
681.713	-1940
681.745	-1104
681.761	-711
681.809	-1522
681.857	-925
681.867	-1060
681.904	-1566
681.952	-1205
681.989	-1580
682.000	-1700
682.048	-1255
682.096	-1915
682.111	-1601
682.143	-962
682.191	-1398
682.233	-181
682.239	-5
682.286	-2036
682.334	-1120
682.354	-1382
682.382	-1760
682.430	-952
682.476	-1721
682.477	-1745
682.525	-1399
682.572	-1163
682.598	-980
682.620	-829
682.667	-1473
682.715	-826
682.720	-930
682.763	-1967
682.810	-1264
682.841	-1171
682.857	-1141
682.905	-1091
682.952	-1408
682.963	-1287
683.000	-906
683.047	-1216
683.085	-297
683.095	-47
683.142	-1164
683.190	-324
683.206	-824
683.237	-1753
683.284	-275
683.328	-1185
683.332	-1272
683.379	-1003
683.426	-1339
683.449	-1172
683.473	-976
683.521	-1150
683.568	-871
683.571	-865
683.615	-899
683.662	-1025
683.693	-976
683.709	-946
683.757	-927
683.804	-693
683.814	-800
683.851	-1199
683.898	-520
683.936	-440
683.945	-425
683.992	-1106
684.039	-249
684.057	-219
684.086	-209
684.133	-438
684.179	-853
684.180	-874
684.227	-971
684.274	-246
684.300	-423
684.321	-542
684.368	-838
684.415	-306
684.422	-369
684.462	-765
684.509	-347
684.543	-808
684.556	-1000
684.603	199
684.649	-415
684.665	-431
684.696	-362
684.743	-581
684.786	-522
684.790	-534
684.837	-1084
684.883	168
684.908	-238
684.930	-606
684.977	-728
685.023	-164
685.029	-149
685.070	-87
685.117	-617
685.150	-837
685.164	-916
685.210	-529
685.257	161
685.272	178
685.303	205
685.350	-238
685.393	-520
685.396	-548
685.443	-290
685.490	-197
685.514	-260
685.536	-332
685.583	-381
685.629	126
685.636	74
685.675	-228
685.722	53
685.757	151
685.768	171
685.815	39
685.861	92
685.878	162
685.908	340
685.954	-241
686.000	-222
686.000	-225
686.047	7
686.093	-337
686.121	-250
686.139	-199
686.185	67
686.232	-636
686.242	-458
686.278	77
686.324	-92
686.363	-593
686.370	-649
686.416	-200
686.463	730
686.484	226
686.509	-427
686.555	443
686.601	-555
686.606	-443
686.647	657
686.693	342
686.727	36
686.739	-92
686.785	459
686.831	567
686.848	461
686.877	246
686.923	483
686.969	3
686.969	-0
687.015	-257
687.061	-456
687.090	19
687.107	318
687.153	449
687.199	434
687.211	234
687.245	-296
687.291	23
687.332	400
687.336	447
687.382	452
687.428	-15
687.453	499
687.474	806
687.520	542
687.565	452
687.574	328
687.611	33
687.657	217
687.695	325
687.702	342
687.748	865
687.794	1374
687.816	1167
687.839	861
687.885	89
687.931	180
687.937	229
687.976	661
688.022	359
688.058	662
688.067	712
688.113	962
688.158	581
688.179	621
688.204	752
688.249	936
688.295	880
688.300	866
688.340	545
688.386	695
688.421	600
688.431	603
688.477	941
688.522	528
688.542	646
688.567	908
688.613	634
688.658	921
688.663	915
688.703	706
688.749	577
688.784	858
688.794	912
688.839	717
688.884	517
688.905	440
688.930	544
688.975	216
689.020	924
689.026	920
689.065	748
689.110	1024
689.146	788
689.155	705
689.201	904
689.246	567
689.267	509
689.291	560
689.336	425
689.381	1130
689.388	1026
689.426	441
689.471	889
689.509	679
689.516	659
689.561	875
689.606	757
689.630	837
689.651	878
689.696	559
689.741	963
689.750	1003
689.785	1198
689.830	1044
689.871	1218
689.875	1219
689.920	1316
689.965	960
689.992	584
690.010	476
690.054	724
690.099	961
690.112	1062
690.144	1202
690.189	1133
690.233	1205
690.233	1210
690.278	1132
690.323	793
690.354	1079
690.367	1271
690.412	1233
690.457	1451
690.474	1636
690.501	1602
690.546	1142
690.590	394
690.595	338
690.635	374
690.680	352
690.716	731
690.724	794
690.769	804
690.813	1388
690.836	1131
690.857	1141
690.902	1639
690.946	2061
690.957	2174
690.991	2546
691.035	2800
691.077	3394
691.080	3396
691.124	2888
691.168	2764
691.198	2320
691.213	2073
691.257	2399
691.301	1445
691.318	1278
691.346	1352
691.390	1311
691.434	1655
691.439	1639
691.478	1464
691.522	1539
691.559	1171
691.567	1136
691.611	1861
691.655	1808
691.680	1859
691.699	1835
691.743	1429
691.787	2087
691.800	1889
691.831	1403
691.875	1561
691.919	1229
691.921	1226
691.964	1480
692.008	1365
692.041	1358
692.052	1451
692.096	2201
692.139	2591
692.162	2585
692.183	2264
692.227	2239
692.271	2271
692.282	2177
692.315	2146
692.359	1990
692.402	2415
692.403	2426
692.447	2164
692.490	2610
692.523	2243
692.534	2091
692.578	2386
692.622	1984
692.643	2228
692.666	2392
692.709	1501
692.753	1521
692.763	1405
692.797	1319
692.840	1688
692.884	1586
692.884	1593
692.928	1738
692.971	1580
693.004	1730
693.015	1709
693.059	1689
693.102	1624
693.124	1451
693.146	1558
693.189	1842
693.233	1898
693.245	2069
693.276	2159
693.320	1979
693.363	1805
693.365	1777
693.407	1657
693.450	1899
693.485	2248
693.493	2328
693.537	2442
693.580	2466
693.605	2528
693.624	2738
693.667	2936
693.710	3867
693.725	3965
693.753	4763
693.797	6222
693.840	7585
693.845	7739
693.883	6909
693.926	5765
693.966	4966
693.970	4899
694.013	3551
694.056	3147
694.086	2146
694.099	1998
694.142	2097
694.185	2087
694.206	2006
694.229	2075
694.272	2535
694.315	2600
694.326	2647
694.358	2826
694.401	3195
694.444	3508
694.446	3496
694.487	3429
694.530	3380
694.566	3741
694.573	3746
694.616	3158
694.659	3013
694.686	2661
694.702	2564
694.745	2715
694.787	2508
694.806	2452
694.830	2454
694.873	2228
694.916	2311
694.926	2299
694.959	2334
695.002	2336
695.044	2247
695.046	2240
695.087	2380
695.130	2344
695.166	2513
695.172	2550
695.215	2417
695.258	2553
695.286	2292
695.301	2185
695.343	2612
695.386	2376
695.406	2449
695.428	2604
695.471	2816
695.514	3013
695.526	2983
695.556	2887
695.599	2951
695.641	3006
695.646	3000
695.684	3060
695.726	3188
695.766	3084
695.769	3078
695.811	2902
695.854	2843
695.886	2611
695.896	2672
695.938	3086
695.981	3289
696.005	3523
696.023	3528
696.065	3378
696.108	3245
696.125	3189
696.150	3298
696.192	3341
696.235	3545
696.245	3561
696.277	3506
696.319	3429
696.361	3405
696.365	3378
696.404	3265
696.446	3270
696.485	3161
696.488	3187
696.530	3386
696.572	3637
696.604	3792
696.614	3802
696.656	3686
696.698	3735
696.724	3632
696.740	3556
696.783	3425
696.825	3310
696.844	3301
696.867	3516
696.909	3653
696.951	3866
696.964	3934
696.992	3760
697.034	3454
697.076	3067
697.083	3004
697.118	3287
697.160	3547
697.202	4010
697.203	4002
697.244	3827
697.286	3740
697.323	3590
697.327	3633
697.369	4018
697.411	4206
697.442	4381
697.453	4320
697.494	4043
697.536	3759
697.562	3567
697.578	3717
697.620	4069
697.661	4346
697.682	4544
697.703	4840
697.744	5252
697.786	5807
697.801	5952
697.828	5860
697.869	5707
697.911	5506
697.921	5454
697.952	5033
697.994	4372
698.035	3784
698.040	3693
698.077	3792
698.118	3902
698.160	4025
698.160	4010
698.201	4114
698.243	4155
698.279	4288
698.284	4341
698.325	4606
698.367	4890
698.399	5074
698.408	5019
698.449	4708
698.491	4386
698.518	4154
698.532	4187
698.573	4255
698.614	4309
698.638	4324
698.656	4354
698.697	4379
698.738	4408
698.757	4415
698.779	4441
698.820	4438
698.862	4447
698.877	4433
698.903	4645
698.944	4961
698.985	5273
698.996	5345
699.026	5146
699.067	4842
699.116	4465
699.235	4230
699.354	5181
699.474	4358
699.593	3956
699.713	5584
699.832	5376
699.951	5248
700.070	4755
700.190	3951
700.309	3922
700.428	4138
700.547	3961
700.667	4253
700.786	4301
700.905	3580
701.024	3704
701.143	3440
701.262	3689
701.381	3635
701.500	4558
701.619	4349
701.738	3962
701.857	4579
701.976	3899
702.095	3477
702.214	4504
702.333	4743
702.452	4194
702.571	4112
702.690	3817
702.809	3499
702.928	3906
703.047	4279
703.165	3848
703.284	3291
703.403	4221
703.522	3575
703.640	3881
703.759	4077
703.878	4077
703.997	3443
704.115	2924
704.234	3688
704.353	3659
704.471	3593
704.590	3184
704.708	3387
704.827	3201
704.946	3346
705.064	3227
705.183	4276
705.301	2740
705.420	3915
705.538	3524
705.656	3646
705.775	3587
705.893	5177
706.012	5496
706.130	3317
706.249	3176
706.367	3222
706.485	3452
706.604	3474
706.722	4385
706.840	4143
706.958	4238
707.077	4387
707.195	2958
707.313	4000
707.431	3300
707.549	3056
707.668	2888
707.786	3379
707.904	3680
708.022	3302
708.140	2674
708.258	3460
708.376	3178
708.494	2799
708.612	3366
708.730	3736
708.848	3887
708.966	3742
709.084	3865
709.202	3350
709.320	2531
709.438	2833
709.556	3842
709.674	2590
709.791	2999
709.909	3292
710.027	3581
710.145	3330
710.263	3284
710.380	3009
710.498	3350
710.616	2960
710.733	2557
710.851	3216
710.969	3278
711.086	2109
711.204	2792
711.322	2708
711.439	2256
711.557	2348
711.674	2149
711.792	2827
711.909	2225
712.027	3122
712.144	2354
712.262	2315
712.379	2410
712.497	4008
712.614	3109
712.732	3127
712.849	2874
712.966	3680
713.084	5600
713.201	3254
713.318	3748
713.436	2436
713.553	2580
713.670	3308
713.787	3506
713.905	3666
714.022	3623
714.139	3440
714.256	5017
714.373	8865
714.490	19403
714.608	61905
714.725	282215
714.842	208748
714.959	12224
715.076	4166
715.193	4018
715.310	4739
715.427	3492
715.544	3049
715.661	2705
715.778	2296
715.895	3664
716.011	3616
716.128	2666
716.245	3820
716.362	4720
716.479	3680
716.596	3123
716.713	2254
716.829	2469
716.946	2712
717.063	2393
717.180	2192
717.296	2348
717.413	1855
717.530	2133
717.646	2567
717.763	2408
717.880	2195
717.996	2768
718.113	2275
718.229	2528
718.346	2244
718.462	1993
718.579	3743
718.695	7452
718.812	4004
718.928	2966
719.045	2438
719.161	1959
719.277	2298
719.394	2687
719.510	2819
719.626	3129
719.743	4367
719.859	6088
719.975	15782
720.092	73533
720.208	140399
720.324	10963
720.440	3258
720.557	3437
720.673	6231
720.789	4665
720.905	6102
721.021	2400
721.137	1569
721.253	1818
721.369	1261
721.486	2013
721.602	3144
721.718	2141
721.834	2018
721.950	2191
722.066	2024
722.181	1593
722.297	2298
722.413	2957
722.529	2271
722.645	2134
722.761	2497
722.877	1127
722.993	2193
723.108	2164
723.224	1690
723.340	1945
723.456	1965
723.571	2331
723.687	1542
723.803	1636
723.918	1815
724.034	1238
724.150	1722
724.265	1662
724.381	2669
724.497	2555
724.612	1837
724.728	2319
724.843	899
724.959	2027
725.074	3180
725.190	2664
725.305	1584
725.421	1368
725.536	1623
725.651	2219
725.767	693
725.882	1196
725.997	1189
726.113	1345
726.228	1283
726.343	1181
726.459	1786
726.574	1188
726.689	1874
726.804	1469
726.920	1833
727.035	1373
727.150	1539
727.265	1108
727.380	1426
727.495	2012
727.610	1793
727.725	1437
727.841	1733
727.956	3806
728.071	2427
728.186	985
728.301	779
728.416	1699
728.531	1610
728.645	1804
728.760	2525
728.875	1756
728.990	937
729.105	1085
729.220	1735
729.335	1889
729.449	1491
729.564	845
729.679	874
729.794	843
729.908	689
730.023	1291
730.138	1573
730.253	1895
730.367	1373
730.482	1767
730.596	1408
730.711	1370
730.826	1991
730.940	1650
731.055	2173
731.169	1211
731.284	1642
731.398	1492
731.513	1673
731.627	1322
731.742	2455
731.856	1142
731.970	1970
732.085	2916
732.199	4607
732.313	8398
732.428	24906
732.542	83883
732.656	37366
732.771	5156
732.885	3314
732.999	2350
733.113	2869
733.227	2269
733.342	2204
733.456	1754
733.570	2099
733.684	1756
733.798	2424
733.912	2371
734.026	1394
734.140	2166
734.254	2467
734.368	2087
734.482	2748
734.596	2163
734.710	2507
734.824	2268
734.938	2524
735.052	1598
735.166	2520
735.280	2334
735.393	2049
735.507	2734
735.621	2483
735.735	2501
735.849	2076
735.962	1627
736.076	2160
736.190	2358
736.303	2604
736.417	1888
736.531	1692
736.644	1534
736.758	1812
736.872	1097
736.985	1744
737.099	1542
737.212	1354
737.326	1916
737.439	1251
737.553	1661
737.666	2054
737.780	1616
737.893	1245
738.007	790
738.120	1295
738.233	1728
738.347	1716
738.460	1624
738.573	2313
738.687	1174
738.800	1899
738.913	2034
739.026	1748
739.140	1876
739.253	1416
739.366	1535
739.479	980
739.592	1310
739.705	1025
739.818	2166
739.932	2609
740.045	2619
740.158	2170
740.271	1553
740.384	1030
740.497	2308
740.610	1265
740.723	1379
740.836	1852
740.949	2615
741.062	2329
741.174	1916
741.287	1093
741.400	1157
741.513	1744
741.626	2155
741.739	2210
741.851	1785
741.964	1916
742.077	1430
742.189	1630
742.302	2234
742.415	2339
742.527	1210
742.640	2094
742.753	1012
742.865	953
742.978	1096
743.090	1490
743.203	1343
743.316	1432
743.428	1610
743.541	1982
743.653	1104
743.766	948
743.878	1290
743.990	1042
744.103	2104
744.215	1591
744.327	2105
744.440	2829
744.552	2650
744.664	1841
744.777	1396
744.889	1401
745.001	1902
745.113	732
745.226	927
745.338	2065
745.450	522
745.562	1064
745.674	908
745.786	1132
745.898	1248
746.010	1097
746.122	2182
746.234	2426
746.347	2102
746.459	2054
746.570	1206
746.682	1271
746.794	1939
746.906	961
747.018	1753
747.130	1258
747.242	1237
747.354	191
747.466	757
747.577	444
747.689	1446
747.801	1201
747.913	660
748.024	1239
748.136	461
748.248	-22
748.359	580
748.471	1387
748.583	1180
748.694	728
748.806	341
748.918	700
749.029	252
749.141	1491
749.252	1781
749.364	1779
749.475	3290
749.587	853
749.698	844
749.809	1856
749.921	1081
750.032	575
750.144	1077
750.255	238
750.366	330
750.478	743
750.589	1142
750.700	754
750.811	1751
750.923	1510
751.034	3888
751.145	3286
751.256	320
751.367	748
751.479	504
751.590	766
751.701	-191
751.812	265
751.923	993
752.034	1246
752.145	751
752.256	-208
752.367	68
752.478	443
752.589	821
752.700	353
752.811	159
752.922	1804
753.032	968
753.143	1782
753.254	700
753.365	1082
753.476	740
753.586	1335
753.697	304
753.808	602
753.919	1538
754.029	92
754.140	1049
754.251	1
754.361	387
754.472	433
754.582	830
754.693	1089
754.804	1392
754.914	374
755.025	537
755.135	1125
755.246	1332
755.356	7
755.466	1065
755.577	969
755.687	1142
755.798	226
755.908	526
756.018	137
756.129	248
756.239	614
756.349	1145
756.460	904
756.570	1361
756.680	983
756.790	411
756.900	1508
757.011	1447
757.121	412
757.231	-537
757.341	1090
757.451	584
757.561	219
757.671	924
757.781	-250
757.891	1388
758.001	235
758.111	945
758.221	899
758.331	1955
758.441	1705
758.551	806
758.661	1352
758.771	1692
758.880	896
758.990	1225
759.100	816
759.210	1425
759.320	1311
759.429	932
759.539	815
759.649	267
759.758	887
759.868	1464
759.978	1062
760.087	1636
760.197	1826
760.307	1265
760.416	1465
760.526	1005
760.635	1285
760.745	1374
760.854	1078
760.964	2117
761.073	1853
761.182	1643
761.292	1286
761.401	1895
761.511	1352
761.620	1449
761.729	568
761.839	292
761.948	978
762.057	1058
762.166	1101
762.276	483
762.385	1645
762.494	961
762.603	564
762.712	941
762.822	869
762.931	1107
763.040	-72
763.149	411
763.258	803
763.367	1214
763.476	853
763.585	1331
763.694	1173
763.803	464
763.912	939
764.021	845
764.130	1107
764.238	572
764.347	881
764.456	1272
764.565	1895
764.674	1849
764.783	1265
764.891	860
765.000	1669
765.109	1276
765.217	2118
765.326	2577
765.435	2687
765.543	3532
765.652	3478
765.761	4490
765.869	7692
765.978	13186
766.086	25225
766.195	54505
766.303	169252
766.412	510554
766.520	305821
766.629	53345
766.737	19780
766.846	10701
766.954	9053
767.062	6962
767.171	5287
767.279	3873
767.387	2036
767.496	2359
767.604	2578
767.712	1232
767.820	1757
767.928	1834
768.037	1147
768.145	2383
768.253	2118
768.361	842
768.469	1865
768.577	1225
768.685	2278
768.793	1919
768.901	1330
769.009	2307
769.117	2520
769.225	3794
769.333	5882
769.441	10066
769.549	21246
769.657	56166
769.765	218232
769.873	378066
769.981	76545
770.088	15690
770.196	7940
770.304	5748
770.412	3663
770.519	2818
770.627	2682
770.735	1155
770.842	2046
770.950	1339
771.058	1484
771.165	1594
771.273	1419
771.380	2109
771.488	2195
771.595	1016
771.703	2285
771.810	1394
771.918	1278
772.025	2092
772.133	2148
772.240	1530
772.348	1719
772.455	950
772.562	1050
772.670	559
772.777	1389
772.884	820
772.991	1162
773.099	1334
773.206	516
773.313	1215
773.420	1521
773.528	750
773.635	1138
773.742	1581
773.849	2205
773.956	1311
774.063	254
774.170	673
774.277	1152
774.384	1559
774.491	1222
774.598	1156
774.705	1429
774.812	1084
774.919	1322
775.026	1554
775.133	865
775.239	1196
775.346	1213
775.453	465
775.560	804
775.667	1091
775.773	423
775.880	1732
775.987	803
776.093	1274
776.200	1229
776.307	615
776.413	1447
776.520	684
776.627	1379
776.733	647
776.840	111
776.946	2102
777.053	1782
777.159	2274
777.266	350
777.372	3423
777.478	2461
777.585	2238
777.691	1119
777.798	1288
777.904	1796
778.010	1862
778.117	1270
778.223	492
778.329	628
778.435	1123
778.542	1233
778.648	938
778.754	629
778.860	739
778.966	2028
779.072	424
779.178	633
779.284	819
779.391	475
779.497	-89
779.603	2702
779.708	-41
779.815	2187
779.920	2506
780.026	3122
780.132	765
780.238	264
780.344	475
780.450	1138
780.556	516
780.661	1044
780.767	1317
780.873	515
780.979	68
781.085	656
781.190	686
781.296	750
781.402	621
781.507	-180
781.613	595
781.719	-139
781.824	1204
781.930	955
782.035	432
782.141	770
782.246	436
782.352	387
782.457	718
782.563	620
782.668	263
782.773	31
782.879	166
782.984	183
783.090	1713
783.195	1589
783.300	-88
783.405	605
783.511	51
783.616	1104
783.721	923
783.826	-400
783.932	1111
784.037	582
784.142	302
784.247	316
784.352	327
784.457	238
784.562	1053
784.667	787
784.772	780
784.877	54
784.982	754
785.087	-317
785.192	768
785.297	404
785.402	38
785.507	643
785.611	527
785.716	652
785.821	-80
785.926	-314
786.031	214
786.135	293
786.240	331
786.345	227
786.450	1240
786.554	-293
786.659	-467
786.763	-146
786.868	1125
786.973	1180
787.077	678
787.182	-337
787.286	425
787.391	-411
787.495	-888
787.600	208
787.704	-153
787.809	143
787.913	-219
788.017	614
788.122	313
788.226	51
788.330	-482
788.435	281
788.539	-245
788.643	-243
788.747	-39
788.852	90
788.956	-1004
789.060	590
789.164	102
789.268	-93
789.372	226
789.476	-526
789.580	29
789.684	-1063
789.788	679
789.892	-375
789.996	284
790.100	5
790.204	-619
790.308	563
790.412	40
790.516	-4
790.620	16
790.724	1030
790.828	-300
790.931	-607
791.035	1220
791.139	-253
791.242	-563
791.346	543
791.450	-872
791.554	1
791.657	-808
791.761	1032
791.864	1090
791.968	575
792.072	469
792.175	-14
792.279	327
792.382	184
792.486	136
792.589	73
792.693	515
792.796	-627
792.899	885
793.003	530
793.106	-750
793.209	413
793.313	638
793.416	-643
793.519	1608
793.623	1167
793.726	1303
793.829	-330
793.932	615
794.035	-106
794.138	333
794.242	149
794.345	79
794.448	4
794.551	568
794.654	2035
794.757	2072
794.860	2
794.963	-547
795.066	-165
795.169	486
795.272	-473
795.375	377
795.477	-590
795.580	208
795.683	-865
795.786	5
795.889	-691
795.991	1088
796.094	188
796.197	-1568
796.300	1089
796.402	-297
796.505	-572
796.608	-37
796.710	679
796.813	-205
796.915	-992
797.018	260
797.120	-208
797.223	-526
797.326	323
797.428	-796
797.530	144
797.633	-408
797.735	404
797.838	-1149
797.940	76
798.042	-1307
798.145	401
798.247	697
798.349	-717
798.452	403
798.554	-697
798.656	-1287
798.758	906
798.860	-660
798.962	-60
799.065	-957
799.167	-819
799.269	1195
799.371	741
799.473	446
799.575	-651
799.677	-384
799.779	1422
799.881	-1103
799.983	98
800.085	291
800.187	534
800.289	-1531
800.390	-606
800.492	145
800.594	320
800.696	-496
800.798	-824
800.899	-732
801.001	-707
801.103	-865
801.205	-65
801.306	-177
801.408	-931
801.509	-475
801.611	308
801.713	-641
801.814	-1344
801.916	-245
802.017	-258
802.119	-1050
802.220	14
802.322	-1597
802.423	1563
802.525	-1349
802.626	137
802.727	-139
802.829	191
802.930	-1730
803.031	1637
803.133	70
803.234	-295
803.335	-479
803.436	-843
803.538	328
803.639	-1236
803.740	896
803.841	-277
803.942	-190
804.043	-9
804.144	-1133
804.245	-57
804.346	-1134
804.447	-197
804.548	11
804.649	1111
804.750	-1095
804.851	-326
804.952	-370
805.053	-568
805.154	-793
805.255	254
805.355	-347
805.456	-581
805.557	-432
805.658	-653
805.758	569
805.859	-289
805.960	-843
806.061	-743
806.161	-504
806.262	-777
806.362	-382
806.463	-875
806.564	-597
806.664	-476
806.765	-308
806.865	-351
806.966	100
807.066	-1099
807.166	367
807.267	-585
807.367	-425
807.468	564
807.568	-1573
807.668	566
807.769	-118
807.869	-906
807.969	-310
808.069	-13
808.170	-534
808.270	-288
808.370	127
808.470	-372
808.570	-1139
808.670	-95
808.770	86
808.870	78
808.970	917
809.070	-634
809.170	-1362
809.271	-219
809.370	-412
809.470	809
809.570	-594
809.670	-225
809.770	-914
809.870	-573
809.970	-1244
810.070	-279
810.169	-926
810.269	-1343
810.369	688
810.469	-126
810.568	-660
810.668	-528
810.768	-409
810.867	198
810.967	-848
811.066	-423
811.166	-218
811.265	398
811.365	-1494
811.464	-914
811.564	252
811.663	135
811.763	-1621
811.862	-89
811.962	493
812.061	-489
812.160	-699
812.260	-625
812.359	-531
812.458	-733
812.557	-9
812.657	-1194
812.756	-503
812.855	-570
812.954	-1327
813.053	-476
813.153	-350
813.252	-1256
813.351	-266
813.450	-640
813.549	-453
813.648	-60
813.747	-750
813.846	393
813.945	-953
814.044	125
814.143	-650
814.242	302
814.341	120
814.439	266
814.538	0
814.637	-754
814.736	-308
814.835	-569
814.933	-358
815.032	-645
815.131	107
815.229	-517
815.328	792
815.427	113
815.525	-54
815.624	-600
815.722	-1159
815.821	294
815.919	-158
816.018	-512
816.116	355
816.215	165
816.313	-191
816.412	611
816.510	-527
816.609	1542
816.707	424
816.805	666
816.904	-56
817.002	171
817.100	732
817.198	1455
817.296	-500
817.395	581
817.493	1255
817.591	116
817.689	471
817.787	808
817.885	1212
817.983	2736
818.081	8462
818.179	24271
818.277	66565
818.375	39263
818.473	6633
818.571	2192
818.669	2120
818.767	2133
818.865	2001
818.963	2499
819.061	4186
819.158	7513
819.256	21516
819.354	55217
819.452	127525
819.549	52623
819.647	8972
819.745	2742
819.842	2952
819.940	1777
820.038	1532
820.135	531
820.233	1520
820.330	319
820.428	-355
820.525	73
820.623	452
820.720	547
820.818	713
820.915	278
821.012	879
821.110	-477
821.207	287
821.304	-390
821.402	-19
821.499	499
821.596	1226
821.693	493
821.791	371
821.888	869
821.985	2137
822.082	-11
822.179	-100
822.276	79
822.373	181
822.470	-41
822.567	198
822.664	-865
822.761	1047
822.858	-354
822.955	526
823.052	-466
823.149	-452
823.246	56
823.343	-13
823.440	189
823.536	-308
823.633	-476
823.730	-318
823.827	538
823.923	-186
824.020	339
824.117	-760
824.213	-1352
824.310	-381
824.407	-194
824.503	78
824.600	17
824.696	-73
824.793	576
824.889	-948
824.986	-448
825.082	-405
825.179	659
825.275	164
825.371	-932
825.468	593
825.564	-843
825.660	30
825.757	-63
825.853	-203
825.949	-296
826.045	-450
826.142	-875
826.238	-4
826.334	528
826.430	-396
826.526	558
826.622	-1416
826.718	352
826.814	169
826.910	446
827.006	-293
827.102	-695
827.198	995
827.294	-319
827.390	366
827.486	99
827.582	-2154
827.678	-1251
827.774	396
827.869	-1012
827.965	662
828.061	-1110
828.157	-627
828.252	-220
828.348	-1076
828.444	282
828.539	-1333
828.635	286
828.731	802
828.826	-990
828.922	223
829.017	-1320
829.113	-97
829.208	-588
829.304	-1275
829.399	492
829.495	-1153
829.590	118
829.685	-717
829.781	-1293
829.876	-457
829.971	-1166
830.066	-737
830.162	-504
830.257	-389
830.352	-604
830.447	542
830.543	-59
830.638	-849
830.733	214
830.828	-34
830.923	45
831.018	367
831.113	-726
831.208	-1611
831.303	-119
831.398	-517
831.493	-307
831.588	287
831.683	-457
831.778	-223
831.873	-428
831.967	599
832.062	-1209
832.157	-1374
832.252	589
832.346	-607
832.441	-271
832.536	-608
832.631	1404
832.725	675
832.820	-1036
832.914	-979
833.009	-268
833.104	-667
833.198	-172
833.293	-1324
833.387	-502
833.482	-113
833.576	-1018
833.670	136
833.765	-366
833.859	-606
833.954	-279
834.048	-290
834.142	-464
834.237	-368
834.331	-980
834.425	-614
834.519	-1769
834.613	777
834.708	-935
834.802	-434
834.896	-896
834.990	-349
835.084	-5
835.178	-523
835.272	-579
835.366	-346
835.460	-203
835.554	-535
835.648	-246
835.742	-290
835.836	-689
835.930	-1272
836.024	-559
836.117	-234
836.211	-684
836.305	423
836.399	262
836.493	-1256
836.586	-75
836.680	-347
836.774	-1397
836.867	257
836.961	-967
837.055	-676
837.148	-939
837.242	41
837.335	-652
837.429	-915
837.522	-468
837.616	-688
837.709	-278
837.803	-851
837.896	326
837.989	-1100
838.083	-549
838.176	-535
838.269	-1214
838.363	-518
838.456	-864
838.549	500
838.642	782
838.735	2235
838.829	437
838.922	-1128
839.015	-1226
839.108	-1637
839.201	-480
839.294	-734
839.387	-204
839.480	-1350
839.573	-609
839.666	-1262
839.759	-1141
839.852	-1183
839.945	-958
840.038	-918
840.131	44
840.223	-385
840.316	-156
840.409	-1155
840.502	-1505
840.594	-442
840.687	-1060
840.780	-637
840.873	-745
840.965	-978
841.058	-871
841.150	-362
841.243	-1472
841.336	-152
841.428	-1051
841.521	-1146
841.613	-633
841.706	-240
841.798	-931
841.890	-1378
841.983	-2048
842.075	421
842.167	-1047
842.260	-5
842.352	-846
842.444	-599
842.537	640
842.629	372
842.721	-1195
842.813	-716
842.905	-2295
842.997	-416
843.090	-1166
843.182	-641
843.274	-1450
843.366	1285
843.458	1673
843.550	526
843.642	-999
843.734	-883
843.826	-761
843.918	-249
844.009	-228
844.101	-1012
844.193	113
844.285	-493
844.377	289
844.469	-672
844.560	-433
844.652	-396
844.744	-1088
844.835	-264
844.927	-533
845.019	-501
845.110	-704
845.202	218
845.293	-1354
845.385	-975
845.476	-1700
845.568	-12
845.659	-900
845.751	-444
845.842	-831
845.934	-1586
846.025	-1369
846.116	-113
846.208	-1212
846.299	-821
846.390	-479
846.482	-1147
846.573	-212
846.664	-683
846.755	-440
846.846	491
846.937	-1497
847.029	-997
847.120	-1030
847.211	-1889
847.302	737
847.393	-1591
847.484	-260
847.575	-634
847.666	-823
847.757	-1248
847.847	-645
847.938	-134
848.029	-1597
848.120	-692
848.211	-120
848.302	-454
848.392	-554
848.483	-419
848.574	-1015
848.664	-510
848.755	-397
848.846	-831
848.936	-1156
849.027	-571
849.118	-43
849.208	-756
849.299	378
849.389	1291
849.480	5375
849.570	10899
849.661	22856
849.751	34002
849.841	8121
849.932	-229
850.022	-959
850.112	-39
850.203	-950
850.293	-503
850.383	-814
850.474	-1169
850.564	-1025
850.654	-522
850.744	-578
850.834	-328
850.924	-998
851.014	-1086
851.104	-1570
851.194	-396
851.284	-279
851.374	-120
851.464	-679
851.554	-1343
851.644	-773
851.734	-299
851.824	-1278
851.914	-767
852.004	-665
852.094	-1378
852.183	-435
852.273	-706
852.363	-779
852.452	-751
852.542	-886
852.632	-1344
852.721	-903
852.811	-847
852.901	-214
852.990	-772
853.080	-98
853.169	-1112
853.259	-741
853.348	-418
853.438	695
853.527	1962
853.617	2271
853.706	6888
853.795	14321
853.885	36602
853.974	67900
854.063	133954
854.152	178314
854.242	49589
854.331	6743
854.420	2336
854.509	1644
854.598	671
854.687	-110
854.777	785
854.866	-282
854.955	159
855.044	-1215
855.133	-374
855.222	-1285
855.311	-934
855.400	-989
855.488	-657
855.577	-1051
855.666	-145
855.755	-161
855.844	-135
855.933	-754
856.021	-595
856.110	-1044
856.199	-1495
856.288	-729
856.376	-1180
856.465	-823
856.554	-736
856.642	-1062
856.731	-409
856.819	-737
856.908	-903
856.996	-76
857.085	-1098
857.173	-634
857.262	-261
857.350	-503
857.438	-894
857.527	-441
857.615	-480
857.703	-1120
857.792	-690
857.880	-1123
857.968	-1274
858.056	-393
858.145	-481
858.233	-1722
858.321	-430
858.409	-454
858.497	-2037
858.585	-1322
858.673	-1418
858.761	-1003
858.849	-1369
858.937	-1581
859.025	-1109
859.113	-1425
859.201	-611
859.289	77
859.377	-700
859.465	-210
859.552	-1733
859.640	-788
859.728	-483
859.816	-493
859.903	-132
859.991	-1745
860.079	-792
860.166	-438
860.254	-825
860.342	-669
860.429	-655
860.517	-844
860.604	162
860.692	-694
860.779	-719
860.867	-1059
860.954	-968
861.042	-792
861.129	-984
861.216	-312
861.304	-1241
861.391	-205
861.478	-928
861.565	-1056
861.653	-615
861.740	-1594
861.827	-922
861.914	-612
862.001	-525
862.089	-890
862.176	-428
862.263	-1293
862.350	-55
862.437	-1029
862.524	-1307
862.611	-1447
862.698	-1135
862.785	-549
862.871	-470
862.958	-1463
863.045	-1135
863.132	-660
863.219	-871
863.306	-1569
863.392	-344
863.479	-913
863.566	-862
863.652	-120
863.739	-888
863.826	-887
863.912	-979
863.999	-784
864.086	-844
864.172	-708
864.259	-1393
864.345	-1185
864.432	-1144
864.518	-1216
864.604	-726
864.691	-1334
864.777	-559
864.863	516
864.950	-18
865.036	-610
865.122	384
865.209	1174
865.295	422
865.381	372
865.467	483
865.553	2378
865.639	2889
865.726	8187
865.812	16751
865.898	33294
865.984	49827
866.070	100595
866.156	87899
866.242	17449
866.328	3308
866.414	371
866.499	959
866.585	370
866.671	323
866.757	1088
866.843	44
866.928	-361
867.014	-162
867.100	-50
867.186	-702
867.271	-900
867.357	127
867.442	-488
867.528	-413
867.614	-62
867.699	-241
867.785	-251
867.870	442
867.956	236
868.041	311
868.127	794
868.212	-471
868.297	-14
868.383	-1122
868.468	176
868.553	1034
868.639	1723
868.724	2004
868.809	1404
868.894	-12
868.979	-562
869.065	-231
869.150	-980
869.235	-649
869.320	-588
869.405	43
869.490	-637
869.575	1
869.660	-126
869.745	-410
869.830	-87
869.915	-670
870.000	-354
870.085	-1167
870.169	-65
870.254	218
870.339	1
870.424	-1210
870.509	-577
870.593	-720
870.678	-998
870.763	-87
870.847	-852
870.932	-623
871.016	-270
871.101	-815
871.186	-1069
871.270	-313
871.355	-426
871.439	-281
871.523	-565
871.608	-739
871.692	-514
871.777	-466
871.861	-772
871.945	-822
872.030	-503
872.114	62
872.198	-678
872.282	-1455
872.367	-1131
872.451	-527
872.535	-1030
872.619	-574
872.703	-616
872.787	-957
872.871	-87
872.955	-569
873.039	-648
873.123	-545
873.207	-1087
873.291	-738
873.375	-1400
873.459	-333
873.543	-735
873.627	-973
873.711	-333
873.794	-790
873.878	-1339
873.962	-1664
874.045	-824
874.129	-736
874.137	-694
874.213	-282
874.245	-422
874.296	-640
874.352	-1116
874.380	-1361
874.460	-974
874.464	-957
874.547	-531
874.568	-524
874.631	-533
874.676	-465
874.714	-397
874.784	-518
874.798	-547
874.881	326
874.892	141
874.965	-1122
874.999	-863
875.048	-525
875.107	-1103
875.131	-1330
875.215	-54
875.215	-54
875.298	-1078
875.323	-986
875.381	-700
875.430	-601
875.465	-537
875.538	-1020
875.548	-1095
875.631	-275
875.646	-392
875.714	-985
875.753	-828
875.798	-534
875.861	-548
875.881	-616
875.964	-1105
875.968	-1099
876.047	-795
876.076	-639
876.130	-372
876.183	-134
876.213	-12
876.291	385
876.296	403
876.379	-425
876.398	-595
876.462	-1069
876.506	-937
876.545	-829
876.613	-765
876.628	-732
876.711	-34
876.721	-52
876.794	-153
876.828	-332
876.877	-701
876.935	-274
876.960	-51
877.043	-320
877.043	-320
877.125	-150
877.150	-134
877.208	-134
877.258	-269
877.291	-292
877.365	-514
877.374	-548
877.456	-315
877.472	-280
877.539	-206
877.579	-261
877.622	-261
877.687	-337
877.704	-348
877.787	37
877.794	25
877.869	-132
877.901	-15
877.952	69
878.008	-570
878.034	-850
878.115	-897
878.117	-893
878.199	-317
878.222	-294
878.282	-280
878.329	-265
878.364	-189
878.437	-94
878.447	-143
878.529	-856
878.544	-890
878.611	-659
878.651	-511
878.694	-315
878.758	-346
878.776	-413
878.858	-414
878.865	-425
878.941	-414
878.972	-390
879.023	-270
879.078	169
879.105	243
879.185	-505
879.187	-511
879.269	-269
879.292	-220
879.351	-234
879.399	-498
879.433	-606
879.506	166
879.516	272
879.598	235
879.613	182
879.680	-347
879.720	-481
879.762	-421
879.827	-110
879.844	-26
879.926	375
879.933	377
880.007	363
880.040	531
880.089	780
880.147	1230
880.171	1528
880.253	3135
880.254	3144
880.335	5531
880.360	6162
880.417	9789
880.467	15703
880.499	20125
880.574	24521
880.580	23688
880.662	7677
880.680	5120
880.744	1813
880.787	608
880.825	555
880.893	106
880.907	70
880.989	251
881.000	301
881.070	549
881.106	525
881.152	385
881.213	-217
881.233	-305
881.315	-33
881.319	-16
881.396	292
881.426	378
881.478	370
881.532	116
881.559	-35
881.639	-171
881.641	-173
881.722	-240
881.745	-407
881.803	-405
881.852	-312
881.885	-332
881.958	-85
881.966	-101
882.047	-20
882.064	-170
882.129	-282
882.171	143
882.210	922
882.277	1689
882.291	1621
882.372	481
882.383	478
882.454	339
882.489	18
882.535	90
882.596	190
882.616	107
882.697	-174
882.702	-171
882.778	117
882.808	100
882.859	259
882.914	249
882.940	154
883.020	323
883.021	331
883.102	291
883.127	437
883.183	204
883.233	-186
883.264	-123
883.339	-285
883.345	-315
883.426	-316
883.445	-277
883.507	204
883.551	238
883.587	77
883.657	272
883.668	365
883.749	804
883.763	836
883.830	450
883.869	250
883.910	215
883.975	102
883.991	38
884.072	-244
884.081	-257
884.152	349
884.187	342
884.233	31
884.292	413
884.314	493
884.394	100
884.398	76
884.475	39
884.504	127
884.555	385
884.610	542
884.636	414
884.716	107
884.716	112
884.797	35
884.821	146
884.877	281
884.927	49
884.958	-2
885.033	139
885.038	128
885.118	-206
885.139	-214
885.199	-269
885.244	-486
885.279	-329
885.350	120
885.359	153
885.439	184
885.456	219
885.520	262
885.561	160
885.600	227
885.667	915
885.680	963
885.760	408
885.773	348
885.840	285
885.878	356
885.920	504
885.984	607
886.000	555
886.080	291
886.089	246
886.160	249
886.195	294
886.240	463
886.300	670
886.320	644
886.400	560
886.406	549
886.480	1062
886.511	1199
886.560	1162
886.616	1085
886.640	961
886.720	738
886.722	723
886.800	116
886.827	-40
886.879	379
886.932	610
886.959	582
887.038	533
887.039	539
887.119	478
887.143	493
887.198	657
887.248	734
887.278	605
887.354	252
887.358	275
887.437	578
887.459	695
887.517	770
887.564	670
887.596	509
887.669	275
887.676	299
887.755	567
887.774	611
887.835	812
887.880	956
887.914	650
887.985	-134
887.994	-99
888.073	294
888.090	406
888.153	439
888.195	313
888.232	135
888.300	-96
888.311	-36
888.391	397
888.405	446
888.470	360
888.510	331
888.549	481
888.615	824
888.628	847
888.708	839
888.720	829
888.787	986
888.825	1092
888.866	956
888.930	715
888.945	697
889.024	588
889.035	567
889.103	863
889.140	1001
889.182	1126
889.245	1352
889.261	1272
889.340	788
889.349	732
889.419	624
889.454	555
889.498	680
889.559	850
889.577	882
889.656	1002
889.664	1010
889.735	829
889.768	738
889.814	889
889.873	1084
889.978	544
890.083	989
890.187	544
890.292	673
890.397	957
890.501	917
890.606	-429
890.710	1338
890.815	967
890.919	964
891.024	1438
891.128	1830
891.233	1192
891.337	583
891.442	341
891.546	746
891.650	524
891.755	320
891.859	2326
891.963	1057
892.068	978
892.172	1205
892.276	739
892.380	716
892.484	1178
892.589	1396
892.693	1496
892.797	1494
892.901	-220
893.005	564
893.109	350
893.213	1298
893.317	616
893.421	666
893.525	476
893.629	96
893.733	-119
893.837	377
893.941	-217
894.045	1324
894.148	32
894.252	1126
894.356	508
894.460	1306
894.564	948
894.667	1377
894.771	357
894.875	818
894.978	956
895.082	87
895.186	342
895.289	377
895.393	620
895.496	621
895.600	-10
895.703	241
895.807	-16
895.910	307
896.014	227
896.117	1256
896.221	239
896.324	190
896.427	437
896.531	998
896.634	476
896.737	713
896.840	234
896.944	478
897.047	-215
897.150	317
897.253	-15
897.356	391
897.460	648
897.563	30
897.666	725
897.769	708
897.872	835
897.975	682
898.078	157
898.181	-214
898.284	130
898.387	387
898.490	56
898.593	646
898.695	395
898.798	-136
898.901	474
899.004	351
899.107	146
899.209	919
899.312	330
899.415	1272
899.518	-405
899.620	235
899.723	-41
899.826	1086
899.928	1756
900.031	693
900.133	137
900.236	628
900.338	901
900.441	424
900.543	50
900.646	809
900.748	84
900.851	269
900.953	972
901.055	379
901.158	472
901.260	379
901.362	402
901.465	-428
901.567	85
901.669	1483
901.771	772
901.873	828
901.976	381
902.078	742
902.180	-327
902.282	-239
902.384	-119
902.486	1293
902.588	986
902.690	340
902.792	-122
902.894	1509
902.996	198
903.098	76
903.200	-359
903.302	-86
903.404	525
903.505	406
903.607	453
903.709	1281
903.811	926
903.913	356
904.014	274
904.116	446
904.218	-388
904.319	727
904.421	1205
904.523	1729
904.624	709
904.726	59
904.827	427
904.929	1046
905.030	483
905.132	1056
905.233	422
905.335	89
905.436	-296
905.537	857
905.639	257
905.740	1076
905.841	337
905.943	825
906.044	116
906.145	708
906.247	769
906.348	-233
906.449	422
906.550	-36
906.651	-45
906.752	930
906.854	-280
906.955	643
907.056	488
907.157	1112
907.258	432
907.359	-470
907.460	224
907.561	-235
907.662	630
907.762	436
907.863	176
907.964	549
908.065	176
908.166	157
908.267	436
908.367	514
908.468	134
908.569	222
908.670	556
908.770	1462
908.871	596
908.971	1057
909.072	320
909.173	-127
909.273	-164
909.374	649
909.474	555
909.575	991
909.675	142
909.776	672
909.876	536
909.977	519
910.077	449
910.177	736
910.278	-454
910.378	168
910.478	-87
910.579	517
910.679	663
910.779	771
910.879	978
910.980	751
911.080	12
911.180	300
911.280	754
911.380	842
911.480	-163
911.580	424
911.680	588
911.780	1002
911.880	1113
911.980	16
912.080	463
912.180	1212
912.280	-581
912.380	197
912.480	29
912.580	718
912.679	495
912.779	702
912.879	199
912.979	-27
913.078	205
913.178	693
913.278	423
913.377	559
913.477	83
913.577	131
913.676	1241
913.776	311
913.875	-714
913.975	-184
914.074	-413
914.174	87
914.273	-591
914.373	744
914.472	613
914.572	95
914.671	237
914.770	-336
914.870	148
914.969	-480
915.068	63
915.167	403
915.267	133
915.366	451
915.465	344
915.564	677
915.663	316
915.763	47
915.862	110
915.961	871
916.060	-313
916.159	540
916.258	512
916.357	518
916.456	469
916.555	730
916.654	310
916.752	541
916.851	-73
916.950	-32
917.049	-155
917.148	228
917.247	357
917.345	402
917.444	705
917.543	-381
917.642	243
917.740	209
917.839	377
917.937	494
918.036	-145
918.135	816
918.233	-78
918.332	493
918.430	475
918.529	358
918.627	3
918.726	629
918.824	376
918.923	-209
919.021	675
919.119	723
919.218	-196
919.316	-428
919.414	11
919.512	106
919.611	301
919.709	691
919.807	541
919.905	65
920.003	-430
920.102	504
920.200	-308
920.298	-62
920.396	-82
920.494	1029
920.592	-453
920.690	419
920.788	508
920.886	529
920.984	670
921.082	5
921.180	550
921.277	550
921.375	749
921.473	1216
921.571	230
921.669	1125
921.766	757
921.864	727
921.962	1175
922.060	421
922.157	913
922.255	712
922.352	775
922.450	1213
922.548	384
922.645	1064
922.743	1785
922.840	2166
922.938	1659
923.035	2341
923.133	929
923.230	1734
923.327	2223
923.425	2467
923.522	2386
923.619	1567
923.717	1010
923.814	1237
923.911	2173
924.008	1898
924.106	1740
924.203	1221
924.300	1624
924.397	1312
924.494	1646
924.591	1367
924.688	1474
924.786	1384
924.883	1618
924.979	971
925.077	1561
925.173	1439
925.270	2073
925.367	1454
925.464	2962
925.561	2871
925.658	2188
925.755	3107
925.852	2283
925.948	2498
926.045	2198
926.142	2849
926.239	3615
926.335	2553
926.432	3392
926.529	2789
926.625	3565
926.722	1432
926.818	1668
926.915	1905
927.011	1491
927.108	1572
927.204	1669
927.301	1454
927.397	1574
927.494	1956
927.590	1307
927.687	1211
927.783	898
927.879	1778
927.976	782
928.072	2273
928.168	859
928.264	1931
928.361	1895
928.457	2330
928.553	1419
928.649	1755
928.745	1076
928.841	179
928.937	875
929.033	1975
929.129	1243
929.225	1149
929.321	938
929.417	850
929.513	2346
929.609	1758
929.705	759
929.801	1374
929.897	164
929.993	1824
930.089	1201
930.184	1062
930.280	463
930.376	2144
930.471	468
930.567	840
930.663	1244
930.758	1707
930.854	786
930.950	819
931.045	1288
931.141	1528
931.236	1846
931.332	1657
931.427	971
931.523	1704
931.618	1415
931.714	305
931.809	1745
931.905	1267
932.000	1510
932.095	338
932.191	1937
932.286	1483
932.381	841
932.476	1152
932.572	492
932.667	898
932.762	1200
932.857	1134
932.952	1082
933.047	1368
933.142	903
933.237	597
933.332	675
933.427	1950
933.522	615
933.617	1707
933.712	2002
933.807	1707
933.902	825
933.997	1449
934.092	817
934.187	858
934.282	1136
934.376	976
934.471	831
934.566	858
934.661	397
934.755	994
934.850	1566
934.945	1987
935.039	624
935.134	603
935.228	1041
935.323	1200
935.417	41
935.512	1190
935.606	874
935.701	459
935.795	470
935.890	1305
935.984	532
936.079	926
936.173	936
936.267	1188
936.362	921
936.456	676
936.550	1147
936.644	1365
936.738	1167
936.833	606
936.927	252
937.021	1001
937.115	582
937.209	-440
937.303	1632
937.397	83
937.491	140
937.585	774
937.679	-2
937.773	1795
937.867	-142
937.961	1138
938.055	891
938.149	1213
938.243	1187
938.337	1123
938.430	575
938.524	881
938.618	1347
938.712	2347
938.805	561
938.899	2006
938.993	605
939.086	1247
939.180	1672
939.274	3873
939.367	1613
939.461	1632
939.554	92
939.648	1231
939.741	469
939.835	746
939.928	1442
940.022	1485
940.115	206
940.208	634
940.302	883
940.395	1981
940.488	178
940.582	995
940.675	224
940.768	1439
940.861	608
940.954	1282
941.048	1132
941.141	793
941.234	1456
941.327	2961
941.420	3428
941.513	1897
941.606	919
941.699	1917
941.792	927
941.885	837
941.978	1091
942.071	853
942.164	68
942.257	1791
942.349	538
942.442	890
942.535	626
942.628	1531
942.721	581
942.813	322
942.906	771
942.999	699
943.091	479
943.184	786
943.277	-292
943.369	1174
943.462	-195
943.554	266
943.647	312
943.739	666
943.832	1202
943.924	501
944.017	980
944.109	-647
944.201	131
944.294	799
944.386	-1
944.478	607
944.571	131
944.663	1102
944.755	329
944.847	803
944.940	928
945.032	-157
945.124	513
945.216	1204
945.308	1125
945.400	564
945.492	719
945.584	565
945.676	882
945.768	638
945.860	1032
945.952	224
946.044	854
946.136	614
946.228	884
946.320	-14
946.412	812
946.503	393
946.595	340
946.687	-196
946.779	-1160
946.870	489
946.962	462
947.054	357
947.145	600
947.237	707
947.329	634
947.420	-278
947.512	137
947.603	-375
947.695	-36
947.786	50
947.878	-463
947.969	931
948.061	-2
948.152	-117
948.243	850
948.335	1235
948.426	714
948.517	-108
948.609	736
948.700	821
948.791	-821
948.882	668
948.973	-656
949.065	-156
949.156	199
949.247	328
949.338	-125
949.429	-211
949.520	100
949.611	-616
949.702	764
949.793	982
949.884	586
949.975	112
950.066	-352
950.157	543
950.247	251
950.338	182
950.429	-211
950.520	967
950.611	151
950.701	444
950.792	-51
950.883	653
950.973	263
951.064	842
951.155	-13
951.245	953
951.336	147
951.427	-559
951.517	1170
951.608	1010
951.698	271
951.788	149
951.879	158
951.969	341
952.060	-526
952.150	536
952.240	877
952.331	-1255
952.421	1038
952.511	63
952.602	485
952.692	260
952.782	-250
952.872	237
952.962	-247
953.052	978
953.143	-440
953.233	875
953.323	95
953.413	-231
953.503	975
953.593	-66
953.683	-184
953.773	-488
953.863	-624
953.953	585
954.042	497
954.132	39
954.222	172
954.312	512
954.402	12
954.492	-63
954.581	6
954.671	-51
954.761	-577
954.850	737
954.940	213
955.030	733
955.119	-303
955.209	777
955.298	-575
955.388	414
955.477	638
955.567	-974
955.656	1385
955.746	694
955.835	86
955.925	-244
956.014	-595
956.103	184
956.193	547
956.282	292
956.371	-475
956.461	620
956.550	-454
956.639	178
956.728	-342
956.817	198
956.906	746
956.995	317
957.085	-466
957.174	153
957.263	-584
957.352	-96
957.441	-595
957.530	786
957.619	-359
957.708	321
957.796	-182
957.885	44
957.974	139
958.063	269
958.152	-1521
958.241	614
958.329	-195
958.418	-414
958.507	-1100
958.596	202
958.684	-312
958.773	831
958.861	256
958.950	1020
959.039	-198
959.127	-672
959.216	441
959.304	397
959.393	112
959.481	-83
959.570	151
959.658	-899
959.746	-610
959.835	-408
959.923	374
960.011	746
960.100	209
960.188	304
960.276	-460
960.365	-90
960.453	-178
960.541	78
960.629	352
960.717	-70
960.805	-830
960.893	-409
960.981	-385
961.069	1185
961.158	411
961.245	1742
961.333	456
961.421	-765
961.509	180
961.597	166
961.685	77
961.773	-2
961.861	99
961.949	193
962.036	-881
962.124	11
962.212	474
962.299	516
962.387	-824
962.475	385
962.562	-254
962.650	237
962.738	-220
962.825	-112
962.913	479
963.000	-32
963.088	52
963.175	-1052
963.263	-539
963.350	-247
963.438	-150
963.525	-465
963.612	298
963.700	-81
963.787	731
963.874	-649
963.962	241
964.049	687
964.136	-101
964.223	-686
964.310	-7
964.398	308
964.485	-166
964.572	430
964.659	95
964.746	-677
964.833	-102
964.920	-245
965.007	-498
965.094	356
965.181	-875
965.268	202
965.355	-588
965.441	-339
965.528	-1639
965.615	778
965.702	482
965.789	122
965.875	-862
965.962	-507
966.049	-1152
966.136	-320
966.222	108
966.309	-128
966.395	-356
966.482	490
966.569	-589
966.655	138
966.742	-788
966.828	689
966.915	-657
967.001	-407
967.087	-858
967.174	563
967.260	-138
967.347	357
967.433	-739
967.519	1123
967.605	-513
967.692	-488
967.778	-198
967.864	-374
967.950	-892
968.036	-151
968.123	-137
968.209	821
968.295	-754
968.381	1471
968.467	-559
968.553	-967
968.639	272
968.725	-63
968.811	71
968.897	410
968.983	-291
969.069	-553
969.154	-55
969.240	562
969.326	-578
969.412	-338
969.497	-882
969.583	-474
969.669	507
969.755	298
969.840	-1582
969.926	114
970.012	371
970.097	1474
970.183	423
970.268	-525
970.354	-332
970.439	-120
970.525	387
970.610	-851
970.696	-24
970.781	-381
970.866	-964
970.952	-75
971.037	-511
971.122	-592
971.208	-569
971.293	-638
971.378	-938
971.463	-49
971.549	-403
971.634	277
971.719	92
971.804	-358
971.889	-55
971.974	-623
972.059	-105
972.144	-395
972.229	-420
972.314	-780
972.399	394
972.484	-746
972.569	124
972.654	-509
972.739	397
972.824	-1006
972.908	-270
972.993	-67
973.078	-386
973.163	-124
973.247	652
973.332	-1009
973.417	863
973.501	-1062
973.586	155
973.671	294
973.755	98
973.840	858
973.924	897
974.009	463
974.093	-163
974.178	74
974.262	-499
974.346	-559
974.431	-4
974.515	54
974.600	-879
974.684	619
974.768	-239
974.852	185
974.937	-940
975.021	-123
975.105	-683
975.189	14
975.273	-377
975.358	-1425
975.442	-1084
975.526	618
975.610	-808
975.694	-358
975.778	509
975.862	-912
975.946	-2117
976.030	1684
976.114	-248
976.198	-279
976.281	-376
976.365	1070
976.449	-782
976.533	474
976.617	-371
976.700	-517
976.784	-817
976.868	-683
976.951	-806
977.035	-435
977.119	-382
977.202	-565
977.286	-286
977.369	204
977.453	661
977.536	-439
977.620	33
977.703	241
977.787	-387
977.870	726
977.953	684
978.037	-995
978.120	240
978.203	205
978.287	-161
978.370	-615
978.453	-843
978.536	276
978.620	757
978.703	-827
978.786	-479
978.869	-629
978.952	-699
979.035	618
979.118	275
979.201	-867
979.284	-1052
979.367	-256
979.450	19
979.533	-257
979.616	68
979.699	-576
979.782	-105
979.865	-443
979.948	-552
980.030	-444
980.113	350
980.196	-1038
980.279	330
980.361	118
980.444	-886
980.526	61
980.609	-321
980.692	325
980.774	-244
980.857	-1166
980.939	14
981.022	169
981.104	-872
981.187	12
981.269	-394
981.352	54
981.434	-954
981.516	-624
981.599	340
981.681	468
981.763	-294
981.846	-964
981.928	31
982.010	-397
982.092	-970
982.174	363
982.256	-880
982.339	382
982.421	-227
982.503	46
982.585	-1093
982.667	-10
982.749	-69
982.831	-62
982.913	-1026
982.995	751
983.077	-1065
983.158	445
983.240	-1888
983.322	-119
983.404	126
983.486	-347
983.568	-208
983.649	-187
983.731	-215
983.813	-360
983.894	260
983.976	-195
984.058	-351
984.139	897
984.221	-1124
984.302	661
984.384	-715
984.465	-574
984.547	25
984.628	-474
984.710	1296
984.791	431
984.872	-609
984.954	308
985.035	-441
985.116	-1189
985.198	-835
985.279	1638
985.360	-605
985.441	-970
985.522	1048
985.604	-399
985.685	-1591
985.766	193
985.847	559
985.928	-1120
986.009	-501
986.090	-1259
986.171	-178
986.252	-391
986.333	650
986.414	140
986.495	-164
986.576	-71
986.656	-643
986.737	939
986.818	294
986.899	-501
986.980	-541
987.060	334
987.141	-82
987.222	108
987.302	-484
987.383	319
987.464	-545
987.544	-162
987.625	-182
987.705	944
987.786	-208
987.866	287
987.947	-640
988.027	341
988.108	-1193
988.188	149
988.268	-361
988.349	598
988.429	-825
988.509	250
988.589	-175
988.670	-1295
988.750	250
988.830	445
988.910	109
988.990	-236
989.070	-298
989.151	-572
989.231	-487
989.311	355
989.391	-457
989.471	-156
989.551	-686
989.631	-174
989.711	24
989.791	-962
989.870	-362
989.950	246
990.030	-904
990.110	246
990.190	-876
990.269	-46
990.349	-349
990.429	-381
990.509	-770
990.588	-1375
990.668	-558
990.747	363
990.827	175
990.907	418
990.986	-773
991.066	-96
991.145	-405
991.225	-532
991.304	-643
991.383	124
991.463	-696
991.542	299
991.622	-342
991.701	-901
991.780	-466
991.859	-601
991.939	-1030
992.018	-769
992.097	-481
992.176	208
992.256	-892
992.335	-603
992.414	121
992.493	-86
992.572	-462
992.651	295
992.730	-982
992.809	-158
992.888	-281
992.967	-458
993.046	-1041
993.125	-710
993.203	-58
993.282	229
993.361	-666
993.440	34
993.519	-1923
993.597	-576
993.676	-1319
993.755	-204
993.834	-1224
993.912	-1111
993.991	-83
994.069	-1481
994.148	-39
994.226	-427
994.305	-817
994.384	-1371
994.462	-174
994.540	-875
994.619	-792
994.697	-185
994.776	-1355
994.854	484
994.932	-592
995.011	-567
995.089	-1102
995.167	-75
995.245	-1260
995.324	-533
995.402	-297
995.480	-612
995.558	-230
995.636	-1343
995.714	-661
995.792	632
995.870	-1002
995.948	-599
996.026	-504
996.104	-1279
996.182	-1075
996.260	-913
996.338	-667
996.416	-1364
996.494	-1418
996.572	-145
996.649	-1091
996.727	-1377
996.805	-1296
996.883	-888
996.960	-1833
997.038	-156
997.116	-224
997.193	-1187
997.271	-647
997.348	-807
997.426	-1741
997.504	-1317
997.581	-543
997.658	219
997.736	-1338
997.813	-1550
997.891	104
997.968	-960
998.046	-882
998.123	-636
998.200	-761
998.277	-1347
998.355	-955
998.432	-828
998.509	-1303
998.586	-14
998.663	-800
998.741	-1149
998.818	-1068
998.895	-863
998.972	-515
999.049	-276
999.126	-1308
999.203	177
999.280	-804
999.357	-47
999.434	-899
999.511	-804
999.587	-867
999.664	-991
999.741	-146
999.818	-381
999.895	-1969
999.971	-762
1000.048	-1073
1000.125	188
1000.202	-928
1000.278	-926
1000.355	62
1000.431	-525
1000.508	-1824
1000.584	-210
1000.661	-274
1000.738	-911
1000.814	-477
1000.890	-623
1000.967	-1500
1001.043	-10
1001.120	-904
1001.196	-409
1001.272	-1514
1001.349	-473
1001.425	102
1001.501	-289
1001.577	-1350
1001.654	-415
1001.730	-670
1001.806	-178
1001.882	-1556
1001.958	6
1002.034	-210
1002.110	-118
1002.186	-616
1002.262	-527
1002.338	-1163
1002.414	-356
1002.490	-525
1002.566	-760
1002.642	-795
1002.718	658
1002.794	-849
1002.870	-1280
1002.945	-984
1003.021	-992
1003.097	-1811
1003.173	-226
1003.248	-1653
1003.324	-596
1003.400	-469
1003.475	-645
1003.551	-849
1003.626	-535
1003.702	-328
1003.777	-399
1003.853	-1296
1003.928	-978
1004.004	-1487
1004.079	-229
1004.155	-1094
1004.230	-1708
1004.305	-733
1004.381	-440
1004.456	-1163
1004.531	-526
1004.607	-760
1004.682	-732
1004.757	-605
1004.832	-707
1004.907	-1083
1004.982	-362
1005.057	-727
1005.133	-137
1005.208	-221
1005.283	-423
1005.358	-359
1005.433	-789
1005.508	-935
1005.583	-1089
1005.657	-972
1005.732	-1780
1005.807	-516
1005.882	-1742
1005.957	-250
1006.032	-209
1006.106	-1245
1006.181	-666
1006.256	-674
1006.331	-1052
1006.405	-597
1006.480	-822
1006.554	-1281
1006.629	-538
1006.704	-1002
1006.778	-387
1006.853	-189
1006.927	-703
1007.002	-1740
1007.076	-667
1007.150	-1236
1007.225	-615
1007.299	-1349
1007.373	-2228
1007.448	-1455
1007.522	245
1007.596	-1466
1007.671	-948
1007.745	-277
1007.819	-1105
1007.893	-1193
1007.967	-432
1008.041	-1897
1008.115	-709
1008.190	-1237
1008.264	138
1008.338	-1882
1008.412	-1111
1008.486	-631
1008.560	-874
1008.633	-1827
1008.707	-1119
1008.781	-475
1008.855	-362
1008.929	-1428
1009.003	-763
1009.076	-838
1009.150	-811
1009.224	-1320
1009.298	-512
1009.371	-1496
1009.445	-228
1009.519	-457
1009.592	-964
1009.666	-528
1009.739	-87
1009.813	-1145
1009.886	-476
1009.960	-1239
1010.033	451
1010.107	-587
1010.180	-1501
1010.253	-878
1010.327	-1237
1010.400	-791
1010.473	-1178
1010.547	117
1010.620	-69
1010.693	-424
1010.766	-930
1010.840	-703
1010.913	-827
1010.986	-1349
1011.059	-343
1011.132	-825
1011.205	329
1011.278	-612
1011.351	-601
1011.424	-491
1011.497	-925
1011.570	-414
1011.643	-643
1011.716	-563
1011.789	-851
1011.862	-1505
1011.934	-701
1012.007	-1734
1012.080	-881
1012.153	-686
1012.225	1
1012.298	-1394
1012.371	-1850
1012.443	-224
1012.516	-1522
1012.588	-847
1012.661	-1211
1012.733	-1108
1012.806	-87
1012.879	-1497
1012.951	-445
1013.023	-928
1013.096	-302
1013.168	-1377
1013.241	-211
1013.313	-924
1013.385	-1248
1013.458	-954
1013.530	249
1013.602	-1111
1013.674	-797
1013.746	-869
1013.819	-1234
1013.891	-1513
1013.963	-583
1014.035	-513
1014.107	-801
1014.179	-917
1014.251	-1682
1014.323	-350
1014.395	-1051
1014.467	-976
1014.539	-708
1014.611	-1367
1014.683	-622
1014.754	-1202
1014.826	-746
1014.898	-1644
1014.970	-648
1015.042	-1281
1015.113	-436
1015.185	-1233
1015.257	-560
1015.328	-762
1015.400	-786
1015.471	-1424
1015.543	-2043
1015.615	-645
1015.686	-481
1015.757	-1112
1015.829	-432
1015.901	-607
1015.972	-505
1016.043	-1702
1016.115	-945
1016.186	-1194
1016.257	-883
1016.328	-1126
1016.400	226
1016.471	-1784
1016.542	-811
1016.613	-727
1016.685	-363
1016.756	-1337
1016.827	-400
1016.898	-1068
1016.969	-942
1017.040	-1678
1017.111	-248
1017.182	-793
1017.253	-496
1017.324	-859
1017.395	-1504
1017.466	-1150
1017.537	-2250
1017.608	-432
1017.678	-799
1017.749	-2011
1017.820	-1242
1017.891	-1329
1017.961	-635
1018.032	-1319
1018.103	-592
1018.173	-1709
1018.244	-1118
1018.315	-798
1018.385	-226
1018.456	-1611
1018.526	-946
1018.597	-2196
1018.667	-1225
1018.738	-1485
1018.808	-2151
1018.878	-815
1018.949	-736
1019.019	-1300
1019.089	-1024
1019.160	-1362
1019.230	-1760
1019.300	-899
1019.371	-1313
1019.441	-1364
1019.511	-735
1019.581	-1259
1019.651	-1024
1019.721	-1822
1019.791	-1814
1019.861	-1272
1019.931	-610
1020.001	-1443
1020.071	-1159
1020.141	-1050
1020.211	-1711
1020.281	-1799
1020.351	-1818
1020.421	-2148
1020.491	-1356
1020.560	-879
1020.630	-490
1020.700	-1702
1020.770	-1939
1020.839	-1239
1020.909	-1572
1020.979	-912
1021.048	-1113
1021.118	-1432
1021.187	-1275
1021.257	-1263
1021.326	-846
1021.396	-1362
1021.465	-509
1021.535	-899
1021.604	-1670
1021.674	-680
1021.743	-1155
1021.812	-1990
1021.882	-1583
1021.951	-1761
1022.020	-594
1022.089	-1293
1022.159	-949
1022.228	-1982
1022.297	-943
1022.366	-1379
1022.435	-1131
1022.504	-1033
1022.573	-1243
1022.642	-1874
1022.711	-1112
1022.781	-1016
1022.849	-817
1022.918	-1841
1022.987	-1181
1023.056	-1881
1023.125	-1673
1023.194	-1495
1023.263	-1279
1023.331	-1230
1023.400	-1754
1023.469	-2368
1023.538	-1311
1023.606	-1498
1023.675	-1233
1023.744	-1744
1023.812	-769
1023.881	-1542
1023.949	-820
1024.018	-1684
1024.086	-1025
1024.155	-1617
1024.223	-2090
1024.292	-1217
1024.360	-1326
1024.429	-1439
1024.497	-1854
1024.565	-2106
1024.634	-1201
1024.702	-1772
1024.770	-2011
1024.838	-1953
1024.907	74
1024.975	-1987
1025.043	-870
1025.111	-1968
1025.179	-1374
1025.247	-1353
1025.315	-1180
1025.383	-2157
1025.451	-2203
1025.519	-2549
1025.587	-2068
1025.655	-1521
1025.723	-1465
1025.791	-1854
1025.859	-1506
1025.927	-1109
1025.995	-1600
1026.062	-1846
1026.130	-1243
1026.198	-2188
1026.266	-1526
1026.333	-1240
1026.401	-633
1026.469	-1204
1026.536	-872
1026.604	-2682
1026.671	-1276
1026.739	-2063
1026.806	-1995
1026.874	-2229
1026.941	-2053
1027.009	-1891
1027.076	-2884
1027.144	-1220
1027.211	-1567
1027.278	-2084
1027.345	-1670
1027.413	-2284
1027.480	-1549
1027.547	-1790
1027.614	-1351
1027.682	-2128
1027.749	-2201
1027.816	-2093
1027.883	-1006
1027.950	-1724
1028.017	-1427
1028.084	-1589
1028.151	-2441
1028.218	-1751
1028.285	-1292
1028.352	-2421
1028.419	-2175
1028.486	-1708
1028.553	-1882
1028.619	-2065
1028.686	-2041
1028.753	-2312
1028.820	-1285
1028.886	-2027
1028.953	-1654
1029.020	-2066
1029.086	-1722
1029.153	-1655
1029.220	-1250
1029.286	-1722
1029.353	-1667
1029.419	-2497
1029.486	-1755
1029.552	-1937
1029.619	-2068
1029.685	-2124
1029.751	-2220
1029.818	-1918
1029.884	-2543
1029.951	-1522
1030.017	-2046
1030.083	-2028
1030.149	-1844
1030.216	-2062
1030.282	-1449
1030.348	-2050
1030.414	-1947
1030.480	-1701
1030.546	-1486
1030.612	-1145
1030.678	-1877
1030.744	-1444
1030.810	-2009
1030.876	-1581
1030.942	-2166
1031.008	-2342
1031.074	-1464
1031.140	-1857
1031.206	-1528
1031.272	-2672
1031.337	-1348
1031.403	-1512
1031.469	-1955
1031.534	-2043
1031.600	-2201
1031.666	-1730
1031.731	-2074
1031.797	-1844
1031.863	-2516
1031.928	-2088
1031.994	-2437
1032.059	-1890
1032.125	-1857
1032.190	-2606
1032.256	-2723
1032.321	-2774
1032.386	-1855
1032.452	-1437
1032.517	-2348
1032.582	-1719
1032.647	-2229
1032.713	-2038
1032.778	-1420
1032.843	-1290
1032.908	-1818
1032.974	-2091
1033.039	-2078
1033.104	-1491
1033.169	-1716
1033.234	-1969
1033.299	-1113
1033.364	-1034
1033.429	-608
1033.494	-1614
1033.559	-1612
1033.624	-1531
1033.688	-1026
1033.753	-2891
1033.818	-2092
1033.883	-1608
1033.948	-1425
1034.013	-1734
1034.077	-2327
1034.142	-1360
1034.207	-1084
1034.271	7
1034.336	347
1034.400	-923
1034.465	133
1034.530	-995
1034.594	-1432
1034.658	-2003
1034.723	-1833
1034.787	-1802
1034.852	-1870
1034.916	-2063
1034.981	-1535
1035.045	-2029
1035.109	-1521
1035.173	-1313
1035.238	-2230
1035.302	-1966
1035.366	-1819
1035.430	-2696
1035.495	-2322
1035.559	-1979
1035.623	-1255
1035.687	-2082
1035.751	-2238
1035.815	-2377
1035.879	-983
1035.943	-2276
1036.007	-2264
1036.071	-2522
1036.135	-2247
1036.198	-1522
1036.262	-2122
1036.326	-1616
1036.390	-846
1036.454	-1265
1036.517	-863
1036.581	-354
1036.645	252
1036.709	7
1036.772	-1417
1036.836	-1784
1036.900	-2237
1036.963	-2610
1037.026	-2144
1037.090	-2098
1037.154	-1860
1037.217	-3014
1037.280	-2220
1037.344	-2458
1037.407	-1716
1037.471	-1925
1037.534	-1722
1037.597	-2104
1037.661	-2179
1037.724	-2471
1037.787	-2107
1037.850	-2279
1037.913	-1706
1037.977	-1500
1038.040	-1422
1038.103	-1938
1038.166	-2416
1038.229	-1944
1038.292	-2261
1038.355	-1775
1038.418	-1565
1038.481	-1941
1038.544	-1911
1038.607	-1806
1038.670	-1747
1038.732	-1934
1038.795	-1903
1038.858	-2067
1038.921	-1407
1038.984	-1722
1039.046	-853
1039.109	-1667
1039.172	-2486
1039.234	-3010
1039.297	-1776
1039.360	-1821
1039.422	-1680
1039.485	-2214
1039.547	-2043
1039.610	-1838
1039.672	-2480
1039.734	-2195
1039.797	-2330
1039.859	-2366
1039.922	-875
1039.984	-2517
1040.046	-1097
1040.109	-2365
1040.171	-2080
1040.233	-1974
1040.295	-2124
1040.358	-2351
1040.420	-2359
1040.482	-2192
1040.544	-1189
1040.606	-2303
1040.668	-2372
1040.730	-2299
1040.792	-2457
1040.854	-2342
1040.916	-1619
1040.978	-2124
1041.040	-2091
1041.102	-1914
1041.164	-1697
1041.225	-2416
1041.287	-2235
1041.349	-1967
1041.411	-1854
1041.472	-2780
1041.534	-1738
1041.596	-2537
1041.657	-1484
1041.719	-1755
1041.781	-1838
1041.842	-1908
1041.904	-2215
1041.965	-2570
1042.027	-2039
1042.088	-1862
1042.150	-1657
1042.211	-2110
1042.272	-2009
1042.334	-2067
1042.395	-2530
1042.456	-1863
1042.518	-1540
1042.579	-1803
1042.640	-1366
1042.701	-2172
1042.763	-2183
1042.824	-2527
1042.885	-2396
1042.946	-2145
1043.007	-2177
1043.068	-1609
1043.129	-2198
1043.190	-2340
1043.251	-2447
1043.312	-1738
1043.373	-2234
1043.434	-2065
1043.495	-1674
1043.556	-1567
1043.616	-888
1043.677	-2228
1043.738	-1939
1043.799	-2074
1043.859	-2312
1043.920	-2377
1043.981	-2094
1044.041	-1660
1044.102	-2015
1044.162	-1453
1044.223	-1167
1044.284	-2402
1044.344	-595
1044.405	-2393
1044.465	-2158
1044.525	-2165
1044.586	-1151
1044.646	-1992
1044.707	-2057
1044.767	-1762
1044.827	-2235
1044.887	-1647
1044.948	-1322
1045.008	-1984
1045.068	-2009
1045.128	-2104
1045.188	-1747
1045.249	-1356
1045.309	-1713
1045.369	-658
1045.429	-915
1045.489	-1521
1045.549	-1446
1045.609	-2421
1045.669	-2131
1045.729	-1388
1045.789	-1271
1045.848	-2358
1045.908	-1943
1045.968	-1578
1046.028	-2113
1046.088	-1707
1046.147	-988
1046.207	-1420
1046.267	-1189
1046.326	-1827
1046.386	-1777
1046.446	-1526
1046.505	-1050
1046.565	-1155
1046.624	-814
1046.684	-1513
1046.743	-762
1046.803	-1402
1046.862	169
1046.922	0
