'Start Wavelength	183.907
'End Wavelength	1046.922
'Gate Delay	5.000
'Gate Width (ms)	1.050
'Laser Output Level	0.000
'X Position	0.000
'Y Position	0.000
'Z Position	0.000
'Grid Point Number	1.000
'Shot Number	100.000
183.907	204.000
183.977	-141.000
184.047	458
184.116	1313
184.186	720
184.256	518
184.325	-235
184.395	-1353
184.465	1112
184.534	215
184.604	-903
184.674	565
184.743	-533
184.813	418
184.883	-10
184.952	223
185.022	234
185.092	129
185.161	-493
185.231	262
185.301	498
185.370	923
185.440	-103
185.509	53
185.579	603
185.649	3
185.718	165
185.788	602
185.857	128
185.927	-881
185.996	-116
186.066	10
186.136	50
186.205	-31
186.275	880
186.344	743
186.414	37
186.483	-164
186.553	988
186.622	1247
186.692	-152
186.761	70
186.831	-23
186.900	-422
186.970	731
187.039	33
187.109	770
187.178	116
187.248	1148
187.317	611
187.387	-85
187.456	-76
187.526	344
187.595	370
187.664	-579
187.734	561
187.803	322
187.873	843
187.942	1162
188.012	-184
188.081	513
188.150	1170
188.220	128
188.289	532
188.358	468
188.428	416
188.497	-511
188.567	526
188.636	176
188.705	499
188.775	169
188.844	-141
188.913	1141
188.983	110
189.052	363
189.121	711
189.191	167
189.260	183
189.329	640
189.399	384
189.468	485
189.537	748
189.606	236
189.676	1080
189.745	556
189.814	927
189.883	-458
189.953	1172
190.022	819
190.091	1990
190.161	3022
190.230	892
190.299	403
190.368	633
190.437	114
190.507	343
190.576	868
190.645	734
190.714	889
190.783	22
190.853	1175
190.922	133
190.991	-182
191.060	948
191.129	4
191.198	1099
191.268	66
191.337	375
191.406	932
191.475	814
191.544	-318
191.613	1044
191.682	-262
191.752	-7
191.821	273
191.890	97
191.959	684
192.028	822
192.097	535
192.166	290
192.235	82
192.304	1124
192.373	-185
192.442	-460
192.511	-220
192.580	127
192.650	43
192.719	359
192.788	-424
192.857	753
192.926	-399
192.995	1162
193.064	1409
193.133	450
193.202	1278
193.271	1647
193.340	797
193.409	815
193.478	1545
193.547	1379
193.615	1342
193.684	3104
193.753	924
193.822	1641
193.891	1053
193.960	82
194.029	212
194.098	960
194.167	-121
194.236	1011
194.305	445
194.374	38
194.443	244
194.512	1150
194.580	500
194.649	1519
194.718	992
194.787	592
194.856	151
194.925	999
194.994	810
195.062	718
195.131	739
195.200	1807
195.269	1507
195.338	859
195.407	771
195.475	916
195.544	471
195.613	827
195.682	485
195.751	1711
195.819	1397
195.888	1677
195.957	2191
196.026	1361
196.094	776
196.163	319
196.232	1116
196.301	1332
196.369	334
196.438	1533
196.507	600
196.576	183
196.644	-114
196.713	965
196.782	573
196.850	916
196.919	1284
196.988	1163
197.056	-180
197.125	778
197.194	553
197.262	712
197.331	652
197.400	50
197.468	682
197.537	254
197.606	961
197.674	1194
197.743	1977
197.812	654
197.880	1869
197.949	1645
198.017	2296
198.086	1323
198.155	1045
198.223	945
198.292	2260
198.360	1226
198.429	827
198.497	1234
198.566	1660
198.635	2736
198.703	1246
198.772	588
198.840	2334
198.909	2757
198.977	938
199.046	766
199.114	667
199.183	1198
199.251	161
199.320	1455
199.388	-527
199.457	390
199.525	900
199.594	1040
199.662	720
199.731	651
199.799	69
199.867	637
199.936	214
200.004	616
200.073	212
200.141	-357
200.210	290
200.278	-70
200.346	642
200.415	843
200.483	834
200.552	1120
200.620	566
200.688	1088
200.757	389
200.825	1096
200.893	589
200.962	759
201.030	279
201.098	391
201.167	792
201.235	1139
201.303	699
201.372	989
201.440	921
201.508	1281
201.577	799
201.645	817
201.713	422
201.781	1304
201.850	2571
201.918	889
201.986	260
202.055	1422
202.123	517
202.191	730
202.259	961
202.327	834
202.396	715
202.464	428
202.532	719
202.600	3960
202.669	1973
202.737	930
202.805	1110
202.873	727
202.941	696
203.009	1140
203.078	10
203.146	752
203.214	1221
203.282	575
203.350	1784
203.418	807
203.487	1764
203.555	1607
203.623	1204
203.691	990
203.759	799
203.827	1351
203.895	1343
203.963	985
204.031	1417
204.099	109
204.168	893
204.236	1019
204.304	1418
204.372	1238
204.440	604
204.508	398
204.576	625
204.644	1112
204.712	623
204.780	989
204.848	912
204.916	274
204.984	783
205.052	537
205.120	901
205.188	382
205.256	-284
205.324	1079
205.392	689
205.460	402
205.528	1380
205.596	942
205.664	900
205.732	472
205.799	3011
205.867	5717
205.935	1447
206.003	1562
206.071	1039
206.139	1142
206.207	595
206.275	758
206.343	1128
206.411	389
206.478	1090
206.546	859
206.614	1407
206.682	1253
206.750	1023
206.818	1814
206.885	1437
206.953	44
207.021	847
207.089	1757
207.157	238
207.225	1344
207.292	271
207.360	969
207.428	255
207.496	677
207.563	640
207.631	1375
207.699	155
207.767	681
207.834	446
207.902	1098
207.970	48
208.038	1109
208.105	226
208.173	1229
208.241	1664
208.309	1109
208.376	1132
208.444	2895
208.512	1581
208.579	608
208.647	1526
208.715	2717
208.782	-74
208.850	1053
208.918	75
208.985	1104
209.053	1629
209.120	1512
209.188	650
209.256	1463
209.323	873
209.391	1773
209.459	1911
209.526	387
209.594	452
209.661	1181
209.729	739
209.796	581
209.864	1721
209.932	987
209.999	2126
210.067	2008
210.134	1911
210.202	1494
210.269	1476
210.337	2171
210.404	1368
210.472	1504
210.539	666
210.607	647
210.674	1622
210.742	1716
210.809	1725
210.877	1485
210.944	2622
211.012	1010
211.079	3131
211.146	894
211.214	1164
211.281	1995
211.349	1618
211.416	1598
211.484	2773
211.551	1167
211.618	1100
211.686	1538
211.753	682
211.821	2788
211.888	854
211.955	1208
212.023	591
212.090	1571
212.157	684
212.225	2290
212.292	3720
212.359	5987
212.427	15344
212.494	7075
212.561	2828
212.629	2762
212.696	2192
212.763	1654
212.831	950
212.898	2402
212.965	1102
213.032	1703
213.100	1318
213.167	1187
213.234	2277
213.301	2406
213.369	1844
213.436	1110
213.503	1267
213.570	2245
213.638	1316
213.705	1003
213.772	1041
213.839	1741
213.906	2964
213.973	2185
214.041	1039
214.108	2066
214.175	1525
214.242	2246
214.309	1342
214.376	2330
214.444	1292
214.511	1921
214.578	1562
214.645	1753
214.712	1926
214.779	1462
214.846	1131
214.913	1941
214.980	2669
215.048	2759
215.115	3794
215.182	2878
215.249	1792
215.316	1523
215.383	1971
215.450	2648
215.517	1988
215.584	1910
215.651	2060
215.718	1903
215.785	2080
215.852	1949
215.919	3912
215.986	2447
216.053	794
216.120	351
216.187	1921
216.254	2558
216.321	1578
216.388	1349
216.455	2369
216.522	2102
216.589	2553
216.656	4397
216.722	4587
216.789	2581
216.856	3025
216.923	2920
216.990	2531
217.057	2433
217.124	3118
217.191	2875
217.258	3188
217.324	4325
217.391	4589
217.458	4011
217.525	2935
217.592	2019
217.659	1316
217.725	2978
217.792	2371
217.859	3062
217.926	843
217.993	1242
218.059	1772
218.126	1288
218.193	747
218.260	1230
218.327	778
218.393	1047
218.460	524
218.527	738
218.594	1622
218.660	2894
218.727	3495
218.794	1215
218.860	2322
218.927	787
218.994	1248
219.061	1086
219.127	1567
219.194	2569
219.261	1472
219.327	618
219.394	1205
219.461	-25
219.527	1610
219.594	2791
219.661	935
219.727	506
219.794	1546
219.860	484
219.927	1614
219.994	2898
220.060	5211
220.127	4096
220.193	3131
220.260	1999
220.326	3500
220.393	4612
220.460	7045
220.526	5054
220.593	3108
220.659	4061
220.726	3120
220.792	7781
220.859	6560
220.925	8671
220.992	12420
221.058	11388
221.125	10902
221.191	8558
221.258	3227
221.324	2775
221.391	2112
221.457	1270
221.524	2395
221.590	3026
221.657	9221
221.723	6598
221.789	5506
221.856	5877
221.922	3198
221.989	2726
222.055	1608
222.121	1632
222.188	4274
222.254	2229
222.321	2053
222.387	873
222.453	1719
222.520	1658
222.586	1145
222.652	2122
222.719	1527
222.785	1463
222.851	1184
222.918	1663
222.984	1808
223.050	2970
223.116	1313
223.183	2201
223.249	744
223.315	724
223.382	1878
223.448	906
223.514	1041
223.580	688
223.647	366
223.713	457
223.779	841
223.845	1429
223.911	2914
223.978	467
224.044	1434
224.110	967
224.176	1247
224.242	1706
224.309	-174
224.375	1354
224.441	561
224.507	1272
224.573	342
224.639	1227
224.705	596
224.772	1143
224.838	179
224.904	1646
224.970	1309
225.036	1202
225.102	900
225.168	2454
225.234	697
225.300	1321
225.366	1911
225.432	1480
225.499	1833
225.565	1745
225.631	772
225.697	1768
225.763	1537
225.829	2269
225.895	2497
225.961	4026
226.027	4166
226.093	2770
226.159	4470
226.225	5043
226.291	10358
226.357	19988
226.423	10986
226.489	4941
226.554	3956
226.620	3533
226.686	4165
226.752	8517
226.818	10089
226.884	26311
226.950	23414
227.016	8466
227.082	5432
227.148	4189
227.214	4702
227.279	5677
227.345	4021
227.411	4055
227.477	3981
227.543	8097
227.609	7970
227.674	7083
227.740	4066
227.806	3154
227.872	2809
227.938	2625
228.003	6802
228.069	3799
228.135	1412
228.201	1223
228.267	1584
228.332	2704
228.398	2417
228.464	2609
228.530	1509
228.595	1267
228.661	1078
228.727	3333
228.792	3336
228.858	1679
228.924	160
228.990	4166
229.055	1753
229.121	3364
229.187	1617
229.252	1810
229.318	1532
229.384	2839
229.449	2778
229.515	340
229.581	213
229.646	2599
229.712	2043
229.777	4942
229.843	4924
229.909	3881
229.974	5357
230.040	4958
230.105	1933
230.171	2770
230.236	4705
230.302	7981
230.368	5301
230.433	2262
230.499	2900
230.564	6520
230.630	2189
230.695	1847
230.761	1536
230.826	762
230.892	4750
230.957	1794
231.023	1128
231.088	1601
231.154	1417
231.219	1789
231.284	2781
231.350	3724
231.415	261
231.481	2100
231.546	1720
231.612	1637
231.677	335
231.742	360
231.808	2029
231.873	885
231.939	-421
232.004	3905
232.069	4065
232.135	1727
232.200	1010
232.265	1955
232.331	1187
232.396	814
232.461	1370
232.527	525
232.592	465
232.657	1327
232.723	3842
232.788	3237
232.853	1832
232.918	1033
232.984	664
233.049	1726
233.114	2897
233.179	3454
233.245	4346
233.310	6238
233.375	1473
233.440	2808
233.506	780
233.571	1078
233.636	911
233.701	2262
233.766	3048
233.832	5190
233.897	1871
233.962	1800
234.027	3011
234.092	2873
234.157	2271
234.222	3036
234.288	3529
234.353	12415
234.418	11061
234.483	6904
234.548	3396
234.613	3412
234.678	3592
234.743	3305
234.808	13303
234.873	8124
234.938	4554
235.004	2357
235.069	2755
235.134	2084
235.199	3380
235.264	1895
235.329	889
235.394	2694
235.459	3861
235.524	2170
235.589	2879
235.654	1909
235.719	1128
235.784	2586
235.849	2935
235.913	6879
235.978	6999
236.043	8777
236.108	3260
236.173	2815
236.238	3993
236.303	1868
236.368	2201
236.433	4510
236.498	7279
236.563	4578
236.627	7533
236.692	32164
236.757	27205
236.822	10304
236.887	7588
236.952	6643
237.017	4351
237.081	6050
237.146	6258
237.211	13183
237.276	29382
237.341	55071
237.405	26723
237.470	10932
237.535	8129
237.600	4904
237.664	4116
237.729	2536
237.794	4090
237.859	8713
237.923	7319
237.988	4147
238.053	6303
238.118	6825
238.182	15863
238.247	15701
238.312	6676
238.376	6054
238.441	3901
238.506	5406
238.570	2507
238.635	2900
238.700	2560
238.764	2409
238.829	6714
238.893	9118
238.958	4422
239.023	3811
239.087	2278
239.152	2797
239.216	1956
239.281	1719
239.346	1317
239.410	2415
239.475	1938
239.539	14860
239.604	12904
239.668	4356
239.733	3021
239.797	4343
239.862	12222
239.926	15482
239.991	6129
240.055	3605
240.120	2810
240.184	2414
240.249	1774
240.313	2158
240.378	2523
240.442	9505
240.507	15752
240.571	6471
240.635	7151
240.700	10439
240.764	3456
240.829	2619
240.893	2333
240.957	3097
241.022	8267
241.086	16830
241.151	7857
241.215	3391
241.279	5076
241.344	9619
241.408	4020
241.472	2257
241.537	4102
241.601	2445
241.665	1833
241.730	1948
241.794	4117
241.858	3527
241.922	2428
241.987	3166
242.051	2232
242.115	2561
242.179	3041
242.244	1534
242.308	2560
242.372	3679
242.436	6110
242.501	3931
242.565	1408
242.629	2406
242.693	2514
242.757	2172
242.822	2985
242.886	3911
242.950	3311
243.014	3293
243.078	3204
243.142	4090
243.206	2730
243.271	4324
243.335	3032
243.399	5811
243.463	16329
243.527	50271
243.591	16755
243.655	6870
243.719	4085
243.783	4236
243.847	6680
243.911	9421
243.975	11425
244.040	8950
244.104	7083
244.168	3462
244.232	5725
244.296	8169
244.360	8747
244.424	4914
244.488	3869
244.552	4007
244.615	1477
244.679	3244
244.743	3682
244.807	4249
244.871	2809
244.935	2557
244.999	2318
245.063	3021
245.127	3762
245.191	5689
245.255	5724
245.319	4286
245.383	3617
245.446	4332
245.510	1798
245.574	4057
245.638	3779
245.702	1488
245.766	9849
245.829	7037
245.893	2718
245.957	3406
246.021	4791
246.085	4133
246.149	4521
246.212	12492
246.276	17291
246.340	8309
246.404	6319
246.467	5874
246.531	9061
246.595	6303
246.659	6543
246.722	4696
246.786	7060
246.850	5696
246.913	9076
246.977	3348
247.041	4319
247.104	4866
247.168	4770
247.232	10486
247.295	23126
247.359	12517
247.423	5758
247.486	10793
247.550	7149
247.614	4965
247.677	6856
247.741	5342
247.804	3655
247.868	4343
247.932	9194
247.995	23124
248.059	8243
248.122	4705
248.186	6273
248.249	10089
248.313	33976
248.376	39074
248.440	22993
248.503	9214
248.567	9098
248.630	11345
248.694	15560
248.757	18313
248.821	38356
248.884	24615
248.948	20154
249.011	30113
249.075	44563
249.138	40087
249.202	16398
249.265	9791
249.328	12942
249.392	8989
249.455	7772
249.519	5905
249.582	7411
249.645	12010
249.709	9383
249.772	5279
249.835	5550
249.899	5988
249.962	5858
250.025	5732
250.089	13266
250.152	20869
250.215	10625
250.279	7457
250.342	7021
250.405	7129
250.468	6142
250.532	7887
250.595	11823
250.658	41672
250.721	76343
250.785	28673
250.848	14497
250.911	7719
250.974	8902
251.038	10082
251.101	22202
251.164	12306
251.227	13142
251.290	11615
251.354	15329
251.417	58690
251.480	64016
251.543	39213
251.606	111383
251.669	88821
251.732	34850
251.795	33790
251.859	32907
251.922	70378
251.985	45336
252.048	19586
252.111	14790
252.174	11886
252.237	20483
252.300	46698
252.363	46891
252.426	95487
252.489	43605
252.552	29172
252.615	19644
252.678	15951
252.741	33881
252.804	44192
252.867	93943
252.930	61332
252.993	38155
253.056	22157
253.119	20523
253.182	15543
253.245	18268
253.308	15096
253.371	13690
253.434	16003
253.497	17210
253.559	24180
253.622	19949
253.685	20986
253.748	23767
253.811	10252
253.874	13449
253.937	12821
254.000	9269
254.062	15000
254.125	24617
254.188	27254
254.251	23394
254.314	10443
254.376	17735
254.439	21186
254.502	17683
254.565	16786
254.628	29075
254.690	19229
254.753	10223
254.816	9417
254.878	9596
254.941	16180
255.004	18184
255.067	8706
255.129	9429
255.192	5839
255.255	3701
255.317	5760
255.380	4443
255.443	3265
255.505	3706
255.568	4909
255.631	5472
255.693	5518
255.756	3133
255.819	4682
255.881	3084
255.944	3515
256.006	2657
256.069	4062
256.132	3269
256.194	5326
256.257	14717
256.319	12099
256.382	10687
256.444	5782
256.507	4175
256.569	3085
256.632	4061
256.694	7463
256.757	15686
256.819	48818
256.882	20266
256.944	8630
257.007	7649
257.069	9404
257.132	7384
257.194	5750
257.257	4846
257.319	5164
257.381	4537
257.444	11740
257.506	53704
257.569	64873
257.631	34929
257.693	18734
257.756	9463
257.818	9033
257.880	5296
257.943	5320
258.005	3979
258.067	5538
258.130	5473
258.192	5849
258.254	12245
258.317	7972
258.379	5079
258.441	12320
258.503	13054
258.566	17203
258.628	24812
258.690	6970
258.753	5197
258.815	11374
258.877	5580
258.939	4560
259.001	4897
259.064	4444
259.126	4954
259.188	8424
259.250	5120
259.312	6097
259.375	19172
259.437	12884
259.499	5379
259.561	3842
259.623	5251
259.685	7429
259.747	5200
259.809	15241
259.872	32428
259.934	44166
259.996	53888
260.058	17910
260.120	6872
260.182	5474
260.244	4652
260.306	3881
260.368	4917
260.430	3974
260.492	15148
260.554	28001
260.616	15730
260.678	22657
260.740	34790
260.802	10408
260.864	7390
260.926	6080
260.988	7061
261.050	6912
261.112	20960
261.174	49270
261.236	30959
261.298	9516
261.359	14377
261.421	23728
261.483	6396
261.545	6282
261.607	3228
261.669	3907
261.731	8905
261.793	23790
261.854	10249
261.916	8078
261.978	9106
262.040	12009
262.102	6607
262.164	9078
262.225	7787
262.287	4532
262.349	12049
262.411	11182
262.472	5890
262.534	7725
262.596	22255
262.658	8126
262.719	4451
262.781	6297
262.843	20290
262.904	10329
262.966	5892
263.028	7939
263.090	33437
263.151	95062
263.213	37886
263.275	25363
263.336	9680
263.398	6830
263.459	5049
263.521	4720
263.583	11914
263.644	9171
263.706	4489
263.767	2913
263.829	2886
263.891	2854
263.952	2397
264.014	3646
264.075	10754
264.137	32310
264.198	12594
264.260	5088
264.321	4277
264.383	13505
264.444	42162
264.506	14152
264.567	7863
264.629	16260
264.690	38396
264.752	14208
264.813	6876
264.875	4578
264.936	6944
264.998	5420
265.059	3035
265.120	3697
265.182	5247
265.243	22559
265.305	26184
265.366	7094
265.427	4160
265.489	5435
265.550	3212
265.611	4730
265.673	6023
265.734	6337
265.795	3870
265.857	2941
265.918	2932
265.979	7356
266.040	38592
266.102	35187
266.163	11326
266.224	13344
266.286	6756
266.347	3140
266.408	3633
266.469	3095
266.530	3053
266.592	3040
266.653	7095
266.714	13405
266.775	5265
266.836	3643
266.898	2790
266.959	10572
267.020	8546
267.081	4399
267.142	2354
267.203	2908
267.264	1843
267.326	3898
267.387	3067
267.448	1855
267.509	2540
267.570	3384
267.631	1669
267.692	2572
267.753	2741
267.814	1823
267.875	6333
267.936	17615
267.997	15112
268.058	10584
268.119	4391
268.180	4200
268.241	2609
268.302	3509
268.363	2419
268.424	3551
268.485	4272
268.546	3700
268.607	1774
268.668	2524
268.729	2429
268.790	3038
268.851	4754
268.912	13533
268.972	13964
269.033	7494
269.094	3591
269.155	3274
269.216	2411
269.277	2870
269.338	2953
269.398	2215
269.459	3566
269.520	5510
269.581	7413
269.642	8652
269.702	4729
269.763	4882
269.824	3509
269.885	4411
269.945	9199
270.006	3844
270.067	1859
270.128	2852
270.188	2686
270.249	3068
270.310	2266
270.370	2984
270.431	3134
270.492	1818
270.553	2463
270.613	7425
270.674	17209
270.734	7816
270.795	3160
270.856	5813
270.916	5438
270.977	3740
271.038	4665
271.098	4791
271.159	7029
271.219	7700
271.280	4225
271.340	3783
271.401	3722
271.462	12439
271.522	7972
271.583	4257
271.643	4806
271.704	3572
271.764	4990
271.825	10598
271.885	33165
271.946	47463
272.006	17123
272.066	20251
272.127	36291
272.187	13354
272.248	6794
272.308	7906
272.369	23882
272.429	15955
272.489	12749
272.550	17529
272.610	13778
272.671	10982
272.731	11848
272.791	19132
272.852	9943
272.912	7765
272.972	4605
273.033	5254
273.093	9119
273.153	12270
273.214	8593
273.274	7093
273.334	29131
273.394	46976
273.455	19032
273.515	18355
273.575	41623
273.635	18525
273.696	19646
273.756	36103
273.816	16525
273.876	9957
273.936	19421
273.997	42869
274.057	13485
274.117	8890
274.177	11287
274.237	50143
274.297	46769
274.358	30695
274.418	30710
274.478	26695
274.538	11639
274.598	8676
274.658	30169
274.718	40499
274.778	15961
274.838	9102
274.898	17999
274.958	55603
275.018	39955
275.078	26752
275.138	12310
275.198	7011
275.258	5126
275.318	6840
275.378	12338
275.438	14105
275.498	10088
275.558	21982
275.618	47513
275.678	30828
275.738	19761
275.798	22482
275.858	17104
275.918	6638
275.978	6804
276.038	6328
276.098	5017
276.157	10447
276.217	29082
276.277	14078
276.337	9405
276.397	7073
276.457	7493
276.517	6826
276.576	4712
276.636	3036
276.696	7187
276.756	17163
276.815	14034
276.875	7510
276.935	7442
276.995	7436
277.055	4051
277.114	4109
277.174	6906
277.234	22655
277.293	11848
277.353	6798
277.413	5051
277.472	5323
277.532	5516
277.592	6613
277.651	16878
277.711	34923
277.771	13071
277.830	39803
277.890	35245
277.950	21843
278.009	62801
278.069	27029
278.128	23308
278.188	35799
278.248	16259
278.307	35530
278.367	25749
278.426	8907
278.486	6756
278.545	5908
278.605	4463
278.664	4266
278.724	5170
278.783	13617
278.843	38084
278.902	13090
278.962	7951
279.021	7911
279.081	10650
279.140	10711
279.199	7764
279.259	7420
279.318	7888
279.378	9900
279.437	17609
279.496	58746
279.556	167448
279.615	146798
279.675	41390
279.734	24014
279.793	32944
279.853	49345
279.912	21268
279.971	11492
280.031	9522
280.090	17026
280.149	34106
280.208	30326
280.268	126022
280.327	137187
280.386	36156
280.445	26126
280.505	26029
280.564	16914
280.623	15841
280.682	14612
280.742	22447
280.801	8638
280.860	6930
280.919	7675
280.978	8042
281.037	7404
281.097	6264
281.156	5713
281.215	4636
281.274	6952
281.333	25743
281.392	23236
281.451	6218
281.510	5114
281.569	4514
281.628	5723
281.688	3878
281.747	6244
281.806	7916
281.865	5118
281.924	3937
281.983	4651
282.042	3583
282.101	4037
282.160	3350
282.219	3758
282.278	3814
282.337	14782
282.396	12503
282.454	5535
282.513	6278
282.572	23800
282.631	15996
282.690	5020
282.749	4854
282.808	6965
282.867	8850
282.926	6789
282.985	4426
283.043	3702
283.102	4207
283.161	5904
283.220	15433
283.279	32427
283.338	9395
283.396	5982
283.455	5605
283.514	5287
283.573	8917
283.631	7476
283.690	5845
283.749	4891
283.808	10498
283.866	13635
283.925	4705
283.984	5066
284.043	7844
284.101	7643
284.160	7044
284.219	17929
284.277	10437
284.336	9956
284.395	30214
284.453	28694
284.512	10031
284.570	12850
284.629	12089
284.688	9375
284.746	9252
284.805	10992
284.863	13809
284.922	17085
284.981	17636
285.039	23632
285.098	44794
285.156	104880
285.215	203606
285.273	199372
285.332	118581
285.390	61108
285.449	39816
285.507	26327
285.566	20866
285.624	16234
285.683	11827
285.741	9781
285.799	8763
285.858	8994
285.916	8199
285.975	6714
286.033	6130
286.091	6353
286.150	5516
286.208	6669
286.267	10714
286.325	7919
286.383	10065
286.442	9166
286.500	5162
286.558	4342
286.616	4021
286.675	6688
286.733	6036
286.791	5698
286.850	6806
286.908	11066
286.966	15038
287.024	7061
287.083	5403
287.141	4873
287.199	4200
287.257	7719
287.315	6706
287.374	5830
287.432	13926
287.490	11219
287.548	6213
287.606	5997
287.664	5474
287.723	10264
287.781	18577
287.839	8809
287.897	6249
287.955	7698
288.013	11828
288.071	24593
288.129	82512
288.187	231036
288.245	112134
288.303	36719
288.361	22369
288.419	25681
288.477	19687
288.535	11168
288.593	7649
288.651	8180
288.709	6393
288.767	6047
288.825	5755
288.883	6741
288.941	7791
288.999	6041
289.057	5320
289.115	8083
289.173	8151
289.231	7393
289.289	7989
289.346	7104
289.404	7496
289.462	10008
289.520	10587
289.578	7335
289.636	3983
289.694	4407
289.751	4184
289.809	4069
289.867	4720
289.925	6547
289.983	7197
290.040	5806
290.098	4795
290.156	5652
290.214	7678
290.271	5450
290.329	4479
290.387	4468
290.444	4056
290.502	3081
290.560	5616
290.617	8191
290.675	7369
290.733	5797
290.790	6293
290.848	6297
290.906	8129
290.963	7080
291.021	7343
291.078	7190
291.136	8475
291.194	23767
291.251	51886
291.309	17146
291.366	8594
291.424	6581
291.481	7448
291.539	7037
291.596	5233
291.654	4374
291.711	4686
291.769	5508
291.826	10414
291.884	8779
291.941	5092
291.999	5169
292.056	6116
292.114	7372
292.171	4588
292.228	6255
292.286	8570
292.343	14211
292.401	19381
292.458	14684
292.515	9494
292.573	9357
292.630	8935
292.687	9413
292.745	7806
292.802	13279
292.859	38618
292.917	40198
292.974	24093
293.031	10397
293.089	8110
293.146	7231
293.203	6228
293.260	6391
293.318	9633
293.375	22054
293.432	15269
293.489	7101
293.546	6172
293.604	9607
293.661	19440
293.718	48542
293.775	39659
293.832	18798
293.889	13119
293.947	12971
294.004	10647
294.061	10426
294.118	18835
294.175	41314
294.232	67564
294.289	31757
294.346	14208
294.403	11624
294.460	10813
294.517	9823
294.574	8760
294.631	8140
294.688	9866
294.745	19538
294.802	61176
294.859	90254
294.916	41075
294.973	21224
295.030	16576
295.087	15290
295.144	11053
295.201	9990
295.258	9027
295.315	10129
295.372	20494
295.429	39487
295.486	23338
295.542	18482
295.599	42780
295.656	81236
295.713	56808
295.770	48233
295.827	21612
295.883	14979
295.940	14229
295.997	21176
296.054	22018
296.111	12330
296.167	10303
296.224	8956
296.281	7964
296.338	7789
296.394	8405
296.451	10318
296.508	22541
296.564	49216
296.621	43054
296.678	46678
296.734	72599
296.791	38378
296.848	21897
296.904	19204
296.961	31950
297.018	48551
297.074	46294
297.131	22001
297.187	15008
297.244	17092
297.301	36543
297.357	67723
297.414	29225
297.470	15348
297.527	13540
297.583	10250
297.640	10713
297.696	10882
297.753	8852
297.809	7945
297.866	6640
297.922	7285
297.979	8139
298.035	8164
298.092	12019
298.148	26531
298.204	28472
298.261	17596
298.317	27022
298.374	57581
298.430	37291
298.486	19106
298.543	15124
298.599	13857
298.656	13037
298.712	20869
298.768	39679
298.824	31189
298.881	13431
298.937	9974
298.993	11008
299.050	14176
299.106	13056
299.162	11077
299.218	10346
299.275	8328
299.331	9856
299.387	14984
299.443	40208
299.500	50203
299.556	25727
299.612	15683
299.668	13365
299.724	15148
299.780	17531
299.837	12768
299.893	16237
299.949	39487
300.005	53106
300.061	43500
300.117	71892
300.173	40081
300.229	19911
300.285	20269
300.341	24436
300.397	15047
300.453	11248
300.510	9794
300.566	10871
300.622	12752
300.678	26322
300.734	48929
300.790	41997
300.845	46967
300.901	33336
300.957	44749
301.013	37192
301.069	17765
301.125	13251
301.181	13714
301.237	11612
301.293	9357
301.349	9585
301.405	8481
301.461	9097
301.516	9335
301.572	11191
301.628	18128
301.684	18225
301.740	26034
301.796	33488
301.851	24538
301.907	33654
301.963	38110
302.019	47997
302.074	109209
302.130	114027
302.186	57272
302.242	26895
302.297	20183
302.353	19304
302.409	30614
302.464	30255
302.520	25918
302.576	46871
302.631	56547
302.687	36498
302.743	19806
302.798	13618
302.854	10871
302.910	12910
302.965	17007
303.021	24720
303.076	23107
303.132	24614
303.187	28710
303.243	19013
303.299	12163
303.354	9939
303.410	10353
303.465	10128
303.521	10236
303.576	10034
303.632	12031
303.687	16924
303.743	37384
303.798	36749
303.853	18616
303.909	12660
303.964	12497
304.020	15501
304.075	23003
304.130	22238
304.186	32403
304.241	37519
304.297	31811
304.352	20763
304.358	20078
304.407	14533
304.449	13951
304.463	13766
304.518	14025
304.539	14073
304.573	14165
304.629	14065
304.630	14164
304.684	19053
304.720	27651
304.739	31978
304.794	48522
304.811	42441
304.850	27992
304.902	17568
304.905	16902
304.960	12469
304.992	12398
305.015	12344
305.071	11682
305.083	11388
305.126	10373
305.173	9301
305.181	9126
305.236	9683
305.264	9761
305.292	9826
305.347	12560
305.354	12626
305.402	13070
305.445	12675
305.457	12565
305.512	13474
305.535	14399
305.567	15674
305.622	17049
305.626	17480
305.678	25636
305.716	39938
305.733	45364
305.788	55241
305.807	49900
305.843	40465
305.897	41607
305.898	41581
305.953	43741
305.988	33665
306.008	28033
306.063	21879
306.078	19988
306.118	15217
306.168	11997
306.173	11703
306.228	8652
306.259	8928
306.283	9178
306.338	9226
306.349	9376
306.393	9930
306.440	10130
306.448	10232
306.503	12830
306.530	15764
306.558	19907
306.613	44774
306.620	48235
306.668	67561
306.711	59696
306.723	56790
306.778	40836
306.801	32442
306.833	22143
306.888	14566
306.892	14283
306.943	11587
306.982	11397
306.997	11274
307.052	11167
307.072	11943
307.107	14014
307.162	20051
307.163	20234
307.217	34610
307.253	40271
307.272	42225
307.327	46536
307.343	41755
307.381	31065
307.434	24322
307.436	24205
307.491	36299
307.524	53514
307.546	61282
307.600	51632
307.614	45502
307.655	27718
307.704	17107
307.710	16401
307.765	18404
307.795	23850
307.819	28452
307.874	52622
307.885	51712
307.929	41493
307.975	24748
307.984	22580
308.038	18805
308.065	21133
308.093	30666
308.148	58620
308.156	66386
308.202	106456
308.246	133654
308.257	133215
308.312	71765
308.336	52520
308.366	40338
308.421	30430
308.426	29238
308.475	19458
308.517	15341
308.530	14282
308.585	12295
308.607	11732
308.639	12070
308.694	15212
308.697	15673
308.748	28597
308.787	46932
308.803	50024
308.857	43141
308.877	35807
308.912	25883
308.967	20203
308.967	20231
309.021	21260
309.058	23371
309.076	26457
309.130	41629
309.148	48603
309.185	87103
309.238	153324
309.239	153638
309.293	180108
309.328	163176
309.348	141532
309.402	65991
309.418	49151
309.457	33368
309.508	22088
309.511	21653
309.566	20413
309.598	20661
309.620	23877
309.674	36197
309.688	39642
309.729	38140
309.778	29790
309.783	29063
309.837	20323
309.868	17121
309.892	18897
309.946	26165
309.959	29360
310.001	38550
310.049	46748
310.055	45875
310.109	30785
310.139	21161
310.163	16935
310.218	12421
310.229	11926
310.272	10572
310.319	9585
310.326	9343
310.381	9087
310.409	8814
310.435	8799
310.489	8764
310.499	8928
310.543	9536
310.589	10108
310.598	9964
310.652	10761
310.679	10154
310.706	9097
310.760	6879
310.769	6625
310.814	5456
310.859	5051
310.868	5007
310.923	5164
310.948	5488
310.977	6071
311.031	7432
311.038	7688
311.085	8059
311.128	7965
311.139	7629
311.193	6057
311.218	5536
311.247	5411
311.301	5114
311.308	5145
311.356	5021
311.398	5311
311.410	5173
311.464	4540
311.488	4199
311.518	3856
311.572	3457
311.578	3495
311.626	4931
311.668	6349
311.680	6600
311.734	7964
311.758	8781
311.788	8821
311.842	8713
311.847	8802
311.896	10223
311.937	11939
311.950	11422
312.004	9768
312.027	8994
312.058	7224
312.112	4513
312.117	4333
312.165	4678
312.207	5144
312.297	7000
312.386	5072
312.476	6326
312.566	7470
312.656	4374
312.745	3868
312.835	4349
312.925	5545
313.015	5685
313.104	5664
313.194	3458
313.284	3376
313.374	4193
313.463	4669
313.553	4161
313.643	3360
313.732	3217
313.822	3089
313.912	3930
314.001	5294
314.091	6442
314.180	8279
314.270	6208
314.360	8260
314.449	5852
314.539	4301
314.628	3556
314.718	6273
314.808	7537
314.897	3964
314.987	3483
315.076	5678
315.166	7153
315.255	6958
315.345	6341
315.434	7676
315.524	6457
315.613	6638
315.703	7182
315.792	13841
315.881	44568
315.971	14404
316.060	13889
316.150	23598
316.239	22690
316.328	8583
316.418	3477
316.507	4256
316.597	5178
316.686	6100
316.775	12126
316.865	23431
316.954	5328
317.043	3862
317.133	3863
317.222	4338
317.311	3617
317.400	2716
317.490	5837
317.579	5846
317.668	5474
317.757	9081
317.847	21608
317.936	75115
318.025	23684
318.114	16307
318.203	10198
318.293	14255
318.382	26561
318.471	19291
318.560	27393
318.649	42594
318.738	9756
318.828	7224
318.917	7338
319.006	12751
319.095	26266
319.184	51817
319.273	24505
319.362	11160
319.451	5213
319.540	4758
319.629	9152
319.718	14645
319.807	10786
319.896	20346
319.985	61761
320.074	20040
320.163	9297
320.252	16036
320.341	12764
320.430	10358
320.519	9348
320.608	6592
320.697	6131
320.786	5496
320.875	6994
320.964	7800
321.053	9884
321.142	14362
321.230	15516
321.319	14545
321.408	29782
321.497	15928
321.586	13934
321.675	22463
321.764	18554
321.852	12819
321.941	16418
322.030	11513
322.119	15393
322.207	31954
322.296	33018
322.385	17630
322.474	16330
322.562	34355
322.651	19965
322.740	15485
322.829	23994
322.917	31052
323.006	13290
323.095	11001
323.183	11464
323.272	15740
323.361	27722
323.449	74147
323.538	28709
323.626	56980
323.715	33424
323.804	18826
323.892	50931
323.981	25070
324.069	11024
324.158	33027
324.246	25779
324.335	8300
324.424	9482
324.512	6002
324.601	5411
324.689	6210
324.778	11715
324.866	20262
324.954	6315
325.043	6488
325.131	15590
325.220	28429
325.308	28261
325.397	21216
325.485	11159
325.574	4589
325.662	4245
325.750	4216
325.839	3923
325.927	3839
326.015	6488
326.104	11525
326.192	13811
326.280	5061
326.369	4285
326.457	5204
326.545	8363
326.634	4301
326.722	3307
326.810	4228
326.898	4023
326.987	4944
327.075	9236
327.163	13243
327.251	6017
327.340	4817
327.428	4880
327.516	4257
327.604	5297
327.692	4120
327.781	8132
327.869	12275
327.957	6426
328.045	5291
328.133	3858
328.221	7252
328.309	4540
328.397	3366
328.485	4576
328.574	6409
328.662	16389
328.750	13620
328.838	6502
328.926	4082
329.014	3996
329.102	5831
329.190	14579
329.278	7742
329.366	2865
329.454	3407
329.542	3632
329.630	2507
329.718	3577
329.806	4687
329.893	5014
329.981	4474
330.069	3861
330.157	10109
330.245	27653
330.333	13747
330.421	4176
330.509	6452
330.597	18967
330.684	14423
330.772	8933
330.860	14470
330.948	17088
331.036	6110
331.123	2501
331.211	4573
331.299	6954
331.387	15367
331.475	21150
331.562	7875
331.650	3826
331.738	6340
331.825	8461
331.913	3340
332.001	3194
332.089	7364
332.176	15251
332.264	34213
332.352	21927
332.439	7262
332.527	6032
332.614	6310
332.702	6609
332.790	5968
332.877	16623
332.965	28192
333.052	6333
333.140	8526
333.228	14116
333.315	5687
333.403	6489
333.490	20368
333.578	14119
333.665	14323
333.753	7284
333.840	5055
333.928	7300
334.015	22064
334.103	29057
334.190	71882
334.278	19567
334.365	12654
334.452	8629
334.540	5496
334.627	8573
334.715	12245
334.802	25997
334.889	103544
334.977	87643
335.064	16380
335.151	7536
335.239	7593
335.326	11097
335.413	37795
335.501	42594
335.588	7907
335.675	5692
335.762	9517
335.850	13763
335.937	9781
336.024	30894
336.111	103477
336.199	46681
336.286	11346
336.373	4935
336.460	4572
336.547	5181
336.635	5883
336.722	4475
336.809	6266
336.896	7352
336.983	24744
337.070	53386
337.157	73667
337.245	64865
337.332	40786
337.419	6929
337.506	5505
337.593	7755
337.680	23536
337.767	52820
337.854	17474
337.941	20375
338.028	25525
338.115	8414
338.202	12579
338.289	22726
338.376	60772
338.463	20333
338.550	36455
338.637	31415
338.724	17906
338.811	22281
338.898	5844
338.984	4080
339.071	5262
339.158	5251
339.245	11303
339.332	8522
339.419	17199
339.506	13553
339.593	2074
339.679	3183
339.766	3040
339.853	4141
339.940	6956
340.027	3530
340.113	3421
340.200	4463
340.287	4641
340.374	3628
340.460	5928
340.547	3085
340.634	6552
340.720	17380
340.807	9200
340.894	3012
340.980	4338
341.067	3307
341.154	4702
341.240	4728
341.327	8569
341.414	2662
341.500	2357
341.587	3906
341.674	3728
341.760	6289
341.847	6632
341.933	2808
342.020	1153
342.106	2035
342.193	2128
342.279	4481
342.366	3362
342.452	5714
342.539	3953
342.625	8020
342.712	17196
342.798	7094
342.885	4355
342.971	1259
343.058	1659
343.144	2136
343.230	2917
343.317	2278
343.403	1624
343.490	1421
343.576	1897
343.662	1868
343.749	2661
343.835	3872
343.921	8565
344.008	41083
344.094	86265
344.180	18302
344.267	7848
344.353	26980
344.439	30497
344.525	9500
344.612	3651
344.698	2365
344.784	2882
344.870	2179
344.957	2054
345.043	3863
345.129	3249
345.215	5659
345.301	2797
345.387	2062
345.474	2708
345.560	2482
345.646	4219
345.732	2819
345.818	2320
345.904	2060
345.990	3184
346.076	6413
346.162	10056
346.249	3511
346.335	2062
346.421	3506
346.507	11164
346.593	34434
346.679	8481
346.765	4820
346.851	3290
346.937	2687
347.023	2981
347.108	2649
347.194	2495
347.280	2843
347.366	4106
347.452	13441
347.538	43036
347.624	32325
347.710	26903
347.796	5471
347.882	3586
347.967	3179
348.053	5561
348.139	3785
348.225	2172
348.311	1280
348.397	2294
348.482	3988
348.568	4586
348.654	2120
348.740	5391
348.825	4032
348.911	6342
348.997	21927
349.083	41695
349.168	7956
349.254	2654
349.340	2196
349.425	2248
349.511	3357
349.597	4189
349.682	7437
349.768	21216
349.854	10988
349.939	3531
350.025	2565
350.110	2282
350.196	1707
350.282	1038
350.367	3084
350.453	7897
350.538	6340
350.624	3490
350.709	4308
350.795	2147
350.880	1914
350.966	4384
351.051	7196
351.137	4474
351.222	2785
351.308	7849
351.393	17015
351.479	4018
351.564	1045
351.649	2844
351.735	2013
351.820	2195
351.906	2525
351.991	4809
352.076	13320
352.162	16484
352.247	3856
352.332	2961
352.418	5030
352.503	6083
352.588	26845
352.673	17902
352.759	4470
352.844	1947
352.929	3167
353.014	3467
353.100	3397
353.185	4922
353.270	7073
353.355	6908
353.441	3316
353.526	5362
353.611	7063
353.696	6783
353.781	4569
353.866	1611
353.952	3229
354.037	5660
354.122	14003
354.207	10832
354.292	3994
354.377	2960
354.462	1758
354.547	3655
354.632	4963
354.717	5579
354.802	4941
354.887	2106
354.972	2468
355.057	1668
355.142	1796
355.227	2618
355.312	4240
355.397	8882
355.482	19747
355.567	9248
355.652	8689
355.737	9013
355.822	26744
355.907	18614
355.991	4024
356.076	1686
356.161	3072
356.246	1904
356.331	2696
356.416	7522
356.501	48219
356.585	43806
356.670	5346
356.755	6218
356.840	7791
356.924	33694
357.009	105002
357.094	35857
357.179	7232
357.263	6007
357.348	7071
357.433	6693
357.517	5719
357.602	4173
357.687	3188
357.771	5170
357.856	6131
357.941	7327
358.025	26078
358.110	102017
358.195	41158
358.279	6561
358.364	5743
358.448	18471
358.533	45264
358.617	31306
358.702	32115
358.787	10997
358.871	7626
358.956	5831
359.040	2222
359.125	1600
359.209	2306
359.294	3950
359.378	6204
359.462	4799
359.547	5513
359.631	3826
359.716	1140
359.800	3784
359.885	6144
359.969	2935
360.053	3365
360.138	2766
360.222	3798
360.306	6988
360.391	5489
360.475	7314
360.559	14104
360.644	17092
360.728	12334
360.812	27029
360.896	69317
360.981	28757
361.065	14865
361.149	5087
361.233	4646
361.318	4106
361.402	5395
361.486	4245
361.570	2825
361.654	4738
361.739	9446
361.823	44776
361.907	64773
361.991	10901
362.075	6861
362.159	12478
362.243	10449
362.327	12287
362.411	22440
362.495	10766
362.580	5322
362.664	4196
362.748	2785
362.832	4960
362.916	7106
363.000	30319
363.084	84987
363.168	84736
363.252	18264
363.336	8784
363.420	13489
363.503	53088
363.587	51133
363.671	8938
363.755	5785
363.839	8756
363.923	3717
364.007	8910
364.091	11838
364.175	22661
364.258	79668
364.342	53642
364.426	78149
364.510	40121
364.594	16883
364.677	17511
364.761	62186
364.845	39113
364.929	12477
365.013	9619
365.096	8823
365.180	9864
365.264	25007
365.347	78875
365.431	32731
365.515	8028
365.598	3483
365.682	5942
365.766	10979
365.849	11238
365.933	5516
366.017	10487
366.100	6536
366.184	2807
366.267	4208
366.351	3044
366.435	2231
366.518	2403
366.602	2455
366.685	2431
366.769	4170
366.852	9638
366.936	11576
367.019	6414
367.103	7578
367.186	14257
367.270	3649
367.353	2264
367.436	4044
367.520	2738
367.603	3451
367.687	4774
367.770	7588
367.853	5803
367.937	19702
368.020	27422
368.104	6507
368.187	7009
368.270	8464
368.353	8824
368.437	20395
368.520	47977
368.603	20745
368.687	20916
368.770	35113
368.853	9871
368.936	13552
369.020	13464
369.103	3905
369.186	3005
369.269	3509
369.352	6346
369.436	9483
369.519	6891
369.602	2084
369.685	5147
369.768	3564
369.851	4093
369.934	2314
370.018	3664
370.101	6450
370.184	7444
370.267	6418
370.350	11646
370.433	15813
370.516	36180
370.599	47284
370.682	15183
370.765	20010
370.848	25134
370.931	46576
371.014	19536
371.097	3917
371.180	3100
371.263	2968
371.346	1255
371.429	3460
371.511	3163
371.594	5759
371.677	12286
371.760	13943
371.843	8915
371.926	37211
372.009	79781
372.091	25238
372.174	20307
372.257	47113
372.340	17497
372.423	20648
372.505	23645
372.588	7958
372.671	14785
372.754	43915
372.836	21005
372.919	26901
373.002	45157
373.085	10936
373.167	9123
373.250	18940
373.332	43534
373.415	58404
373.498	115295
373.580	41354
373.663	71825
373.746	81781
373.828	17133
373.911	9423
373.993	13265
374.076	49594
374.159	41326
374.241	16573
374.324	37271
374.406	22651
374.489	36668
374.571	97100
374.654	35336
374.736	20684
374.819	64351
374.901	86385
374.983	83103
375.066	14357
375.148	9831
375.231	42467
375.313	68776
375.395	24694
375.478	5630
375.560	4372
375.643	6890
375.725	21876
375.807	81607
375.890	75181
375.972	36908
376.054	23386
376.136	39796
376.219	14603
376.301	23406
376.383	63325
376.465	22886
376.548	13018
376.630	19304
376.712	53853
376.794	21752
376.877	3674
376.959	1915
377.041	4618
377.123	13372
377.205	12677
377.287	2426
377.369	3054
377.452	3083
377.534	2044
377.616	2720
377.698	1033
377.780	1275
377.862	2717
377.944	3572
378.026	679
378.108	3467
378.190	2273
378.272	2150
378.354	2274
378.436	2458
378.518	7053
378.600	22725
378.682	13886
378.764	25333
378.846	18310
378.928	7791
379.010	6986
379.091	5123
379.173	3300
379.255	2083
379.337	3630
379.419	13665
379.501	35902
379.583	15348
379.664	4503
379.746	9140
379.828	25552
379.910	31805
379.991	26785
380.073	5068
380.155	3483
380.237	2844
380.318	2553
380.400	2916
380.482	5822
380.564	9037
380.645	8441
380.727	7514
380.809	5861
380.890	3846
380.972	2091
381.053	3054
381.135	4131
381.217	10418
381.298	25751
381.380	13307
381.461	13098
381.543	55461
381.624	58964
381.706	11659
381.787	8113
381.869	9417
381.951	26012
382.032	90696
382.113	52039
382.195	11644
382.276	9668
382.358	18831
382.439	48397
382.521	55693
382.602	85394
382.684	38392
382.765	66939
382.846	68388
382.928	97443
383.009	48954
383.090	33197
383.172	136481
383.253	208414
383.334	70679
383.416	76639
383.497	34972
383.578	15372
383.659	29256
383.741	113613
383.822	309026
383.903	144354
383.984	54139
384.066	88752
384.147	48259
384.228	11215
384.309	9490
384.390	6185
384.471	6028
384.553	6242
384.634	9561
384.715	7773
384.796	4838
384.877	6367
384.958	24501
385.039	24284
385.120	8915
385.201	5854
385.282	10511
385.363	11029
385.444	7304
385.525	14135
385.606	43201
385.687	32512
385.768	11551
385.849	12754
385.930	44228
386.011	69452
386.092	17389
386.173	5714
386.254	6530
386.335	6562
386.416	6513
386.496	18697
386.577	27675
386.658	13550
386.739	9607
386.820	12510
386.901	9303
386.981	6543
387.062	4494
387.143	8088
387.224	26537
387.304	24966
387.385	11995
387.466	10682
387.547	14321
387.627	8283
387.708	13999
387.789	47593
387.869	52316
387.950	14706
388.031	4817
388.111	6299
388.192	23070
388.273	29923
388.353	12876
388.434	5469
388.514	10693
388.595	46769
388.676	52966
388.756	24594
388.837	22569
388.917	13059
388.998	2983
389.078	3672
389.159	3092
389.239	1857
389.320	7254
389.400	4062
389.480	14632
389.561	29344
389.641	13182
389.722	5239
389.802	8141
389.883	14397
389.963	36847
390.043	27788
390.124	11124
390.204	12207
390.284	28857
390.365	18515
390.445	34804
390.525	63467
390.605	44207
390.686	13645
390.766	6892
390.846	3783
390.927	2270
391.007	3650
391.087	6683
391.167	6374
391.247	5498
391.328	11986
391.408	16567
391.488	9541
391.568	2588
391.648	4513
391.728	6185
391.808	7213
391.888	6406
391.969	16378
392.049	24970
392.129	15371
392.209	16188
392.289	33182
392.369	21805
392.449	25685
392.529	13890
392.609	10738
392.689	13354
392.769	33822
392.849	29431
392.929	30348
393.009	57763
393.089	42323
393.169	50796
393.248	162021
393.328	542111
393.408	544386
393.488	156399
393.568	46069
393.648	23196
393.728	14075
393.807	9334
393.887	9515
393.967	7719
394.047	7866
394.127	7043
394.206	11921
394.286	39257
394.366	184717
394.446	180340
394.525	32048
394.605	9230
394.685	13180
394.764	34986
394.844	54572
394.924	33135
395.003	7722
395.083	6041
395.163	5106
395.242	5113
395.322	5318
395.402	3603
395.481	7580
395.561	23806
395.640	56995
395.720	44833
395.799	63634
395.879	40217
395.958	15938
396.038	54004
396.117	238964
396.197	241172
396.276	65161
396.356	26886
396.435	25142
396.515	16255
396.594	19130
396.673	42946
396.753	167944
396.832	482316
396.912	328979
396.991	75764
397.070	23015
397.150	11712
397.229	9543
397.308	14647
397.388	23582
397.467	10908
397.546	5668
397.625	2633
397.705	6459
397.784	4445
397.863	3197
397.942	3649
398.022	6175
398.101	22877
398.180	56864
398.259	27995
398.338	8006
398.417	4541
398.497	3975
398.576	4029
398.655	1241
398.734	3419
398.813	4621
398.892	20624
398.971	59585
399.050	23957
399.129	3556
399.208	2392
399.287	2921
399.366	1904
399.445	2063
399.524	2812
399.603	1330
399.682	5743
399.761	18390
399.840	64915
399.919	42651
399.998	6201
400.077	1013
400.156	1096
400.235	5096
400.313	3018
400.392	4322
400.471	14433
400.550	19530
400.629	5114
400.708	3862
400.786	6375
400.865	17896
400.944	15220
401.023	6992
401.102	997
401.180	1895
401.259	3532
401.338	4550
401.416	4341
401.495	3494
401.574	4160
401.652	2886
401.731	5314
401.810	3048
401.888	2132
401.967	707
402.046	2812
402.124	5144
402.203	5360
402.281	3566
402.360	8177
402.438	21189
402.517	11702
402.596	4858
402.674	5613
402.753	3275
402.831	2550
402.910	3783
402.988	11521
403.066	32663
403.145	17947
403.223	9832
403.302	24653
403.380	17403
403.459	17351
403.537	6824
403.615	3933
403.694	435
403.772	1747
403.850	1372
403.929	784
404.007	1858
404.085	4966
404.164	3185
404.242	589
404.320	1973
404.398	4113
404.477	13669
404.555	69209
404.633	52346
404.711	7145
404.789	1967
404.868	2283
404.946	539
405.024	1229
405.102	842
405.180	1290
405.258	-165
405.336	1821
405.415	2170
405.493	7636
405.571	4029
405.649	534
405.727	1781
405.805	4343
405.883	3365
405.961	5552
406.039	6161
406.117	1593
406.195	3182
406.273	15389
406.351	57685
406.429	33219
406.507	7650
406.585	3126
406.663	1116
406.740	1847
406.818	1833
406.896	1818
406.974	2366
407.052	4322
407.130	34062
407.208	41744
407.285	7180
407.363	643
407.441	1883
407.519	833
407.596	1249
407.674	4558
407.752	11040
407.830	17535
407.907	9208
407.985	2415
408.063	1514
408.141	1708
408.218	5737
408.296	3152
408.373	1633
408.451	2628
408.529	1237
408.606	293
408.684	977
408.762	474
408.839	664
408.917	-161
408.994	1600
409.072	326
409.149	925
409.227	3882
409.304	4624
409.382	3328
409.459	4257
409.537	7985
409.614	4648
409.692	2714
409.769	3071
409.846	7721
409.924	10730
410.001	5841
410.079	2589
410.156	2750
410.233	2077
410.311	859
410.388	1613
410.465	2656
410.543	1943
410.620	1421
410.697	2074
410.775	1413
410.852	-40
410.929	3345
411.006	4514
411.083	3298
411.161	8475
411.238	9336
411.315	4400
411.392	1378
411.469	3730
411.547	3882
411.624	1140
411.701	1625
411.778	1504
411.855	3437
411.932	1062
412.009	1491
412.086	1055
412.163	2668
412.240	3724
412.317	6047
412.394	4122
412.471	1101
412.548	1199
412.625	1078
412.702	2855
412.779	6253
412.856	4352
412.933	279
413.010	382
413.087	3304
413.164	13428
413.241	16787
413.318	3432
413.395	4130
413.471	4212
413.548	1852
413.625	1265
413.702	2496
413.779	1872
413.855	595
413.932	-471
414.009	43
414.086	852
414.162	708
414.239	3762
414.316	13647
414.393	25818
414.469	6693
414.546	860
414.623	341
414.699	493
414.776	201
414.853	1003
414.929	1506
415.006	1974
415.082	4329
415.159	1843
415.236	1031
415.312	969
415.389	2395
415.465	2610
415.542	1345
415.618	-159
415.695	1668
415.771	1619
415.848	1444
415.924	2955
416.000	1580
416.077	1676
416.153	-1176
416.230	-621
416.306	448
416.383	856
416.459	1284
416.535	16
416.612	668
416.688	-57
416.764	1083
416.841	159
416.917	-150
416.993	1532
417.069	2541
417.146	2075
417.222	2305
417.298	1646
417.374	637
417.451	932
417.527	1392
417.603	1069
417.679	790
417.755	1086
417.831	-224
417.908	79
417.984	955
418.060	236
418.136	3530
418.212	3298
418.288	1821
418.364	1235
418.440	860
418.516	2483
418.592	6512
418.668	7553
418.744	7465
418.820	4923
418.896	1902
418.972	-185
419.048	719
419.124	4487
419.200	1569
419.276	978
419.352	-829
419.428	-224
419.504	746
419.579	633
419.655	596
419.731	1182
419.807	4722
419.883	9103
419.959	5338
420.034	2687
420.110	4899
420.186	16346
420.262	11550
420.337	2381
420.413	1479
420.489	607
420.565	1372
420.640	552
420.716	1881
420.792	197
420.867	1633
420.943	359
421.019	2709
421.094	1655
421.170	1029
421.245	288
421.321	1897
421.397	754
421.472	2978
421.548	3771
421.623	4343
421.699	1965
421.774	3395
421.850	2238
421.925	4246
422.001	3248
422.076	3888
422.152	4037
422.227	7334
422.302	9769
422.378	14503
422.453	27799
422.529	70112
422.604	191346
422.679	281413
422.755	193224
422.830	73503
422.905	30489
422.981	15603
423.056	10007
423.131	7741
423.207	4634
423.282	5480
423.357	7821
423.432	5283
423.508	5293
423.583	9722
423.658	7995
423.733	4527
423.808	5093
423.883	4861
423.959	2705
424.034	2613
424.109	2657
424.184	580
424.259	545
424.334	1399
424.409	684
424.484	1052
424.559	1494
424.634	1600
424.709	2000
424.784	2417
424.859	1703
424.934	3344
425.009	12128
425.084	19244
425.159	7191
425.234	1910
425.309	754
425.384	873
425.459	1187
425.534	1625
425.609	2426
425.683	1703
425.758	1046
425.833	2032
425.908	3004
425.983	7575
426.058	21166
426.132	9830
426.207	4425
426.282	9003
426.357	7724
426.431	2408
426.506	1925
426.581	2133
426.655	2131
426.730	1438
426.805	581
426.879	1637
426.954	1728
427.029	4649
427.103	20771
427.178	50776
427.253	21285
427.327	3931
427.402	5857
427.476	11155
427.551	5003
427.625	3862
427.700	3796
427.774	2643
427.849	4232
427.923	2000
427.998	948
428.072	2572
428.147	7260
428.221	25642
428.296	72587
428.370	35140
428.444	7376
428.519	11945
428.593	20936
428.667	18281
428.742	22118
428.816	18937
428.890	54704
428.965	73859
429.039	28595
429.113	24153
429.188	10606
429.262	1628
429.336	4729
429.410	12543
429.485	10500
429.559	17793
429.633	14225
429.707	4309
429.781	13434
429.855	63565
429.930	88541
430.004	59029
430.078	80764
430.152	64933
430.226	91336
430.300	82928
430.374	13443
430.448	7504
430.522	25909
430.596	68590
430.670	39978
430.744	72622
430.818	92213
430.892	19020
430.966	3642
431.040	2838
431.114	1300
431.188	1155
431.262	1518
431.336	3274
431.410	10125
431.484	25059
431.557	14384
431.631	2056
431.705	2951
431.779	13343
431.853	63079
431.927	42323
432.000	5114
432.074	2663
432.148	4599
432.222	4320
432.295	1326
432.369	1468
432.443	3861
432.516	26149
432.590	58130
432.664	24136
432.737	2954
432.811	474
432.885	962
432.958	1285
433.032	392
433.106	-84
433.179	-80
433.253	-260
433.326	378
433.400	-470
433.473	53
433.547	227
433.620	445
433.694	1725
433.767	3800
433.841	2469
433.914	373
433.988	20
434.061	669
434.134	750
434.208	-676
434.281	-668
434.355	107
434.428	633
434.501	66
434.575	364
434.648	2044
434.721	671
434.795	-283
434.868	-351
434.941	-698
435.014	-203
435.088	-109
435.161	1156
435.234	2647
435.307	3563
435.381	2415
435.454	2111
435.527	4238
435.600	4365
435.673	2700
435.746	538
435.819	366
435.892	142
435.966	541
436.039	1154
436.112	1866
436.185	-668
436.258	-581
436.331	-532
436.404	-129
436.477	-678
436.550	-283
436.623	129
436.696	-402
436.769	1149
436.842	66
436.915	2475
436.987	3477
437.060	1971
437.133	-297
437.206	-229
437.279	1107
437.352	779
437.425	-339
437.498	813
437.570	2957
437.643	3149
437.716	212
437.789	904
437.861	4191
437.934	15637
438.007	7781
438.080	1096
438.152	1019
438.225	4007
438.298	29968
438.370	82597
438.443	41025
438.516	14092
438.588	3240
438.661	442
438.734	1004
438.806	1859
438.879	2276
438.951	3881
439.024	8172
439.096	2275
439.169	964
439.241	-523
439.314	875
439.386	5546
439.459	11474
439.531	16264
439.604	7525
439.676	1966
439.749	64
439.821	343
439.893	408
439.966	1799
440.038	3488
440.110	2785
440.183	1105
440.255	558
440.327	3082
440.400	16280
440.472	59864
440.544	42520
440.617	7841
440.689	6328
440.761	8233
440.833	13824
440.905	9470
440.978	1971
441.050	1031
441.122	838
441.194	571
441.266	789
441.338	366
441.411	2267
441.483	15640
441.555	26678
441.627	8705
441.699	10078
441.771	12272
441.843	5577
441.915	971
441.987	308
442.059	1756
442.131	3319
442.203	8413
442.275	8529
442.347	7329
442.419	7284
442.491	32002
442.563	86009
442.635	46317
442.706	32309
442.778	26888
442.850	5365
442.922	2316
442.994	4119
443.066	8387
443.137	6573
443.209	3588
443.281	5229
443.353	12694
443.425	45521
443.496	145881
443.568	146025
443.640	56611
443.711	13707
443.783	5251
443.855	4484
443.926	2128
443.998	3492
444.070	8239
444.141	6375
444.213	5923
444.285	7288
444.356	9041
444.428	12965
444.499	5779
444.571	1460
444.642	1220
444.714	1782
444.785	3943
444.857	9885
444.928	29775
445.000	25844
445.071	20460
445.143	29192
445.214	13590
445.285	17633
445.357	55804
445.428	117712
445.500	223961
445.571	166124
445.642	90183
445.714	41826
445.785	49531
445.856	21240
445.928	6666
445.999	7403
446.070	6815
446.141	4598
446.213	4975
446.284	5228
446.355	8801
446.426	7878
446.497	4897
446.569	10182
446.640	15989
446.711	7714
446.782	3848
446.853	9002
446.924	10712
446.995	4513
447.066	4978
447.138	12919
447.209	11583
447.280	1446
447.351	685
447.422	942
447.493	5620
447.564	7691
447.635	4715
447.706	2925
447.777	854
447.847	596
447.918	951
447.989	6856
448.060	10495
448.131	23620
448.202	24037
448.273	10362
448.344	6852
448.414	2398
448.485	1806
448.556	2208
448.627	936
448.698	930
448.768	736
448.839	3165
448.910	11370
448.981	14576
449.051	3756
449.122	1371
449.193	903
449.263	1352
449.334	2189
449.405	1938
449.475	5430
449.546	8547
449.616	13245
449.687	17222
449.758	4469
449.828	2000
449.899	1586
449.969	1042
450.040	1442
450.110	5623
450.181	10208
450.251	3717
450.322	1732
450.392	2276
450.463	3512
450.533	1951
450.604	2957
450.674	2300
450.744	2565
450.815	2547
450.885	1994
450.955	2086
451.026	1154
451.096	2477
451.166	6301
451.237	13683
451.307	41204
451.377	28186
451.447	4530
451.518	2648
451.588	2762
451.658	3362
451.728	7134
451.799	32624
451.869	55633
451.939	20257
452.009	4469
452.079	1906
452.149	2553
452.219	8983
452.289	40074
452.360	48945
452.430	10574
452.500	4906
452.570	5307
452.640	9164
452.710	27123
452.780	52868
452.850	30041
452.920	16344
452.990	8235
453.060	4495
453.129	5452
453.199	11173
453.269	35102
453.339	93215
453.409	151383
453.479	130200
453.549	196789
453.619	222154
453.688	133790
453.758	24469
453.828	8076
453.898	4437
453.968	4605
454.037	4233
454.087	4374
454.107	4343
454.168	3379
454.177	3153
454.247	1498
454.249	1620
454.316	3056
454.330	4348
454.386	8408
454.411	15760
454.456	23373
454.492	36360
454.525	47471
454.574	29164
454.595	21793
454.655	7891
454.665	5926
454.734	11122
454.736	11871
454.804	25720
454.817	33333
454.873	51870
454.898	61204
454.943	72593
454.979	54645
455.013	40672
455.060	24716
455.082	20899
455.141	24779
455.152	23939
455.221	47151
455.222	48455
455.291	67371
455.303	61858
455.360	43658
455.384	35355
455.430	28272
455.465	36956
455.499	38816
455.546	56095
455.569	57317
455.627	48905
455.638	49303
455.707	13786
455.708	13867
455.777	8179
455.789	8496
455.846	9045
455.869	8874
455.916	9017
455.950	9741
455.985	9124
456.031	9888
456.054	10124
456.112	8366
456.124	8510
456.193	9405
456.193	9277
456.262	16905
456.274	18940
456.332	24065
456.355	26640
456.401	24310
456.436	20313
456.470	17623
456.516	9453
456.540	6847
456.597	5949
456.609	5631
456.678	6342
456.678	6287
456.747	5516
456.759	5578
456.817	5360
456.840	5205
456.886	5235
456.920	6139
456.955	7841
457.001	9987
457.024	13284
457.082	22854
457.093	24352
457.162	36724
457.163	37045
457.232	38059
457.243	37197
457.301	25080
457.324	17011
457.370	9733
457.405	8762
457.439	8588
457.485	8779
457.508	8976
457.566	10046
457.577	10042
457.646	11234
457.647	11319
457.715	14392
457.727	14994
457.784	16980
457.808	19248
457.853	23337
457.889	26902
457.922	27645
457.969	21986
457.991	21961
458.050	25299
458.060	25409
458.129	35372
458.130	35681
458.198	36591
458.211	34128
458.267	23264
458.292	18697
458.336	15051
458.372	15079
458.405	17451
458.453	22281
458.474	26354
458.533	41456
458.543	42650
458.611	63505
458.614	63936
458.680	46601
458.694	39808
458.749	24038
458.775	19575
458.818	15793
458.855	15332
458.887	16007
458.936	17375
458.955	17355
459.016	18531
459.024	18488
459.093	18795
459.097	18801
459.162	19557
459.177	20055
459.230	20703
459.257	21159
459.299	22044
459.338	22560
459.368	23263
459.418	25951
459.437	24753
459.499	19758
459.505	19638
459.574	16621
459.579	16578
459.643	16122
459.659	15998
459.711	16731
459.740	17493
459.780	20869
459.820	24389
459.849	27048
459.900	32208
459.917	30738
459.981	26683
459.986	26327
460.054	18920
460.061	18217
460.123	17918
460.141	18210
460.191	20144
460.222	21361
460.260	21966
460.302	22877
460.328	21377
460.382	18281
460.397	18520
460.462	18373
460.465	18296
460.534	18572
460.543	18628
460.602	21258
460.623	22466
460.671	25664
460.703	27942
460.739	27484
460.783	26510
460.808	26368
460.864	24705
460.876	24803
460.944	26087
460.945	25997
461.013	22069
461.024	21218
461.081	21615
461.104	21810
461.150	20556
461.184	19998
461.218	20443
461.264	20557
461.286	21408
461.345	24154
461.355	24469
461.423	27118
461.425	27194
461.491	30844
461.505	31599
461.559	64634
461.585	80207
461.628	136017
461.665	187404
461.696	202046
461.745	233029
461.764	195178
461.825	62205
461.832	61718
461.901	35981
461.905	35467
461.969	33268
461.985	33077
462.037	30961
462.065	29542
462.105	38039
462.145	47037
462.173	73934
462.225	124421
462.241	138780
462.305	200114
462.310	193094
462.378	86937
462.385	73236
462.446	41569
462.465	31823
462.514	27949
462.545	28445
462.582	29579
462.625	30700
462.650	30576
462.705	30750
462.718	33284
462.785	46272
462.786	46983
462.854	88595
462.865	95442
462.922	116955
462.945	126418
462.990	81945
463.025	44438
463.058	39989
463.104	32013
463.126	30776
463.184	30904
463.194	31278
463.262	33175
463.264	33255
463.330	36631
463.344	37208
463.398	46155
463.424	50570
463.466	55598
463.504	60503
463.533	58406
463.583	54373
463.601	56986
463.663	64945
463.669	67093
463.737	92362
463.743	94626
463.805	153870
463.823	171231
463.873	281836
463.903	349078
463.940	365896
463.982	388816
464.008	300678
464.062	106701
464.076	97630
464.142	40620
464.144	40275
464.211	36131
464.221	35871
464.279	37296
464.301	38072
464.347	46906
464.381	53317
464.414	68456
464.461	89284
464.482	91665
464.540	98376
464.550	91808
464.617	44254
464.620	42460
464.685	39883
464.699	39674
464.753	40678
464.779	41224
464.820	45950
464.859	50081
464.888	60409
464.938	78355
464.956	80747
465.018	89388
465.023	86399
465.091	45551
465.098	41103
465.158	39882
465.177	39674
465.226	40918
465.257	41794
465.293	44026
465.336	46511
465.361	50646
465.416	59622
465.428	68162
465.495	114034
465.496	114989
465.563	234634
465.575	255171
465.631	294269
465.654	310994
465.698	179938
465.734	69163
465.765	57879
465.813	38289
465.833	37592
465.893	38790
465.900	38754
465.968	38291
465.972	38180
466.035	35553
466.052	34794
466.102	35450
466.131	35677
466.170	36465
466.210	37201
466.237	37911
466.290	39060
466.304	39735
466.369	42376
466.372	42585
466.439	46302
466.449	46739
466.506	53501
466.528	55949
466.573	85148
466.607	106839
466.641	178178
466.687	277047
466.708	306399
466.766	386309
466.775	354651
466.842	111383
466.845	99576
466.909	64201
466.925	55829
466.977	51607
467.004	49549
467.044	50601
467.083	51484
467.111	52288
467.163	53480
467.178	54094
467.242	56074
467.245	56307
467.312	58583
467.321	58758
467.379	72781
467.400	77650
467.446	98249
467.480	112799
467.559	88080
467.638	61259
467.717	64447
467.796	65034
467.875	70394
467.955	74582
468.034	120380
468.113	314278
468.192	455509
468.271	105732
468.350	53607
468.429	60425
468.508	57244
468.588	59336
468.667	68471
468.746	67751
468.825	69851
468.904	60679
468.983	87772
469.062	183479
469.141	227907
469.220	67926
469.299	62871
469.378	67524
469.456	49510
469.535	51831
469.614	63013
469.693	79958
469.772	126912
469.851	214659
469.930	121437
470.009	48699
470.088	44153
470.166	44077
470.245	47320
470.324	50864
470.403	46490
470.482	44488
470.560	44633
470.639	51811
470.718	57171
470.797	56753
470.875	80342
470.954	149813
471.033	173732
471.111	49636
471.190	42970
471.269	42945
471.347	44761
471.426	57459
471.505	71403
471.583	56833
471.662	45351
471.740	46820
471.819	46180
471.898	45217
471.976	47037
472.055	49692
472.133	68539
472.212	125263
472.290	149241
472.369	72200
472.447	48341
472.526	44025
472.604	42933
472.683	45285
472.761	49881
472.839	46407
472.918	46133
472.996	62872
473.075	91599
473.153	80054
473.231	57626
473.310	80641
473.388	74164
473.466	63072
473.545	49317
473.623	54137
473.701	56895
473.780	45569
473.858	43488
473.936	47769
474.014	49303
474.093	64860
474.171	140746
474.249	240095
474.327	128493
474.405	43827
474.484	41120
474.562	43373
474.640	49364
474.718	60780
474.796	54274
474.874	39512
474.952	35078
475.030	37551
475.108	40124
475.187	41647
475.265	42586
475.343	52894
475.421	60855
475.499	50425
475.577	59507
475.655	97435
475.733	254128
475.811	481225
475.889	426139
475.966	253969
476.044	60839
476.122	68106
476.200	75707
476.278	71925
476.356	66745
476.434	70601
476.512	76491
476.590	92781
476.667	83582
476.745	62316
476.823	61538
476.901	73622
476.979	85013
477.056	71685
477.134	70436
477.212	62012
477.290	60663
477.367	59367
477.445	61773
477.523	64929
477.601	62618
477.678	68096
477.756	106032
477.834	130192
477.911	64788
477.989	65777
478.066	69685
478.144	89431
478.222	71846
478.299	74627
478.377	70745
478.454	54096
478.532	55823
478.609	56141
478.687	58509
478.764	54704
478.842	54890
478.919	62062
478.997	63716
479.074	64354
479.152	99571
479.229	147827
479.307	81531
479.384	52486
479.461	53999
479.539	77913
479.616	101582
479.694	78206
479.771	89593
479.848	95380
479.926	159427
480.003	157867
480.080	60064
480.157	60637
480.235	61582
480.312	63143
480.389	92253
480.467	194314
480.544	250109
480.621	99806
480.698	84322
480.775	106597
480.853	117431
480.930	78382
481.007	82715
481.084	106546
481.161	107336
481.238	105165
481.315	71166
481.392	68870
481.470	68582
481.547	71893
481.624	71389
481.701	73251
481.778	81830
481.855	96713
481.932	156795
482.009	289646
482.086	180896
482.163	70201
482.240	69960
482.317	87334
482.393	80164
482.470	75723
482.547	83263
482.624	69835
482.701	75862
482.778	72802
482.855	56892
482.932	56605
483.009	58096
483.085	63099
483.162	75801
483.239	72642
483.316	59891
483.393	58870
483.469	63009
483.546	91415
483.623	104098
483.699	67883
483.776	70033
483.853	78153
483.930	109842
484.006	292013
484.083	492495
484.160	135600
484.236	83791
484.313	81614
484.389	85431
484.466	71548
484.543	69251
484.619	80348
484.696	88004
484.772	128134
484.849	156730
484.925	81497
485.002	73260
485.078	86018
485.155	92781
485.231	76949
485.308	79110
485.384	90891
485.461	133770
485.537	314918
485.614	390893
485.690	96549
485.766	75190
485.843	74221
485.919	90998
485.995	92050
486.072	65901
486.148	67964
486.224	67607
486.301	86570
486.377	123648
486.453	114236
486.530	81278
486.606	86208
486.682	107356
486.758	242633
486.835	322138
486.911	197578
486.987	395606
487.063	246215
487.139	172663
487.215	124015
487.292	70978
487.368	67840
487.444	85002
487.520	103659
487.596	75757
487.672	78283
487.748	146098
487.824	206041
487.900	103119
487.976	81720
488.052	112606
488.128	132566
488.204	105124
488.280	89931
488.356	114190
488.432	343392
488.508	559342
488.584	133411
488.660	64349
488.736	63084
488.812	65843
488.888	76470
488.964	89035
489.039	166878
489.115	250213
489.191	160598
489.267	88233
489.343	92276
489.418	61015
489.494	56495
489.570	58098
489.646	63597
489.722	68543
489.797	78520
489.873	160064
489.949	458126
490.024	356102
490.100	78505
490.176	64913
490.251	76384
490.327	85127
490.403	64995
490.478	52588
490.554	47750
490.629	49229
490.705	51326
490.781	59349
490.856	73322
490.932	70639
491.007	64410
491.083	70157
491.158	78151
491.234	118686
491.309	363155
491.385	357270
491.460	92733
491.536	93667
491.611	58592
491.686	63786
491.762	74406
491.837	133955
491.913	250357
491.988	364850
492.063	331209
492.139	249336
492.214	160128
492.289	53216
492.365	50021
492.440	66949
492.515	100722
492.590	93055
492.666	64638
492.741	115427
492.816	241197
492.891	96862
492.967	44945
493.042	42393
493.117	39306
493.192	39512
493.267	43781
493.342	55049
493.418	55324
493.493	42409
493.568	43644
493.643	50714
493.718	93377
493.793	179563
493.868	121565
493.943	51955
494.018	49272
494.093	64305
494.168	64795
494.243	39358
494.318	43260
494.393	43229
494.468	39963
494.543	39944
494.618	46891
494.693	49386
494.768	62933
494.842	56741
494.917	38817
494.992	38633
495.067	36531
495.142	36234
495.217	39504
495.292	43300
495.366	56319
495.441	82057
495.516	103896
495.591	108216
495.665	243310
495.740	503248
495.815	233885
495.890	102850
495.964	89866
496.039	84206
496.114	78742
496.188	79796
496.263	80715
496.338	87493
496.412	115740
496.487	129198
496.561	101026
496.636	98340
496.710	88701
496.785	114133
496.860	148798
496.934	90093
497.009	79410
497.083	76881
497.158	82643
497.232	119001
497.307	158864
497.381	101108
497.455	153106
497.530	242232
497.604	115133
497.679	120109
497.753	235985
497.827	284970
497.902	156364
497.976	166053
498.050	344563
498.125	1179687
498.199	1124164
498.273	216142
498.348	129810
498.422	103067
498.496	102447
498.570	97766
498.645	92518
498.719	106167
498.793	150553
498.867	295567
498.941	346676
499.016	552025
499.090	1331142
499.164	491586
499.238	105336
499.312	85661
499.386	93526
499.460	107487
499.534	107020
499.609	131624
499.683	249356
499.757	203147
499.831	294196
499.905	995193
499.979	913176
500.053	347191
500.127	311704
500.201	131580
500.275	102694
500.349	100402
500.422	113348
500.496	138819
500.570	224516
500.644	577886
500.718	1074092
500.792	275210
500.866	123070
500.940	199651
501.013	141613
501.087	123143
501.161	163784
501.235	265430
501.309	639758
501.382	1195131
501.456	899533
501.530	306259
501.603	596176
501.677	213121
501.751	105258
501.825	117732
501.898	218332
501.972	642290
502.046	374977
502.119	132263
502.193	271297
502.266	691794
502.340	331664
502.413	350464
502.487	742945
502.561	533589
502.634	139012
502.708	82229
502.781	74496
502.855	67091
502.928	67548
503.002	69739
503.075	71678
503.149	84581
503.222	82412
503.295	98166
503.369	120684
503.442	162802
503.516	491016
503.589	1258224
503.662	797952
503.736	268459
503.809	645134
503.882	448875
503.956	557330
504.029	472121
504.102	168476
504.175	151531
504.249	90475
504.322	127022
504.395	117362
504.468	79349
504.542	94146
504.615	59443
504.688	51260
504.761	58395
504.834	74296
504.907	64248
504.980	86222
505.053	69320
505.127	69311
505.200	100980
505.273	176001
505.346	90429
505.419	74337
505.492	58611
505.565	47596
505.638	46601
505.711	54534
505.784	56413
505.857	53733
505.930	56848
506.003	57524
506.076	61180
506.149	111375
506.221	148661
506.294	89166
506.367	222797
506.440	676082
506.513	326464
506.586	157886
506.659	76556
506.731	55296
506.804	75282
506.877	95768
506.950	86064
507.022	56826
507.095	110738
507.168	124778
507.241	52362
507.313	41602
507.386	47177
507.459	52191
507.531	40252
507.604	41712
507.677	43179
507.749	34984
507.822	42835
507.894	57189
507.967	54324
508.040	38870
508.112	39126
508.185	43644
508.257	38668
508.330	51311
508.402	49362
508.475	59803
508.547	66646
508.620	70607
508.692	157770
508.765	65691
508.837	38738
508.909	37167
508.982	39201
509.054	42150
509.127	35692
509.199	37376
509.271	36430
509.344	32571
509.416	35107
509.488	39229
509.560	38544
509.633	36046
509.705	40863
509.777	45967
509.849	52634
509.922	40370
509.994	36752
510.066	37496
510.138	35029
510.210	42456
510.283	45933
510.355	41952
510.427	34971
510.499	33830
510.571	34712
510.643	37569
510.715	48807
510.787	43362
510.859	44838
510.931	70420
511.003	54573
511.076	52954
511.148	42597
511.219	49808
511.291	129280
511.363	159656
511.435	41840
511.507	33822
511.579	34961
511.651	36915
511.723	38185
511.795	38149
511.867	43961
511.939	73886
512.010	246503
512.082	149076
512.154	47164
512.226	40229
512.298	36525
512.369	50349
512.441	44395
512.513	43488
512.585	35757
512.656	45713
512.728	57219
512.800	36222
512.871	39902
512.943	39214
513.015	27512
513.086	31897
513.158	35219
513.230	40760
513.301	56289
513.373	53237
513.444	33598
513.516	29526
513.588	30918
513.659	33606
513.731	39946
513.802	37999
513.874	62059
513.945	103226
514.016	43084
514.088	36074
514.159	37214
514.231	45827
514.302	47685
514.374	43836
514.445	65889
514.516	225126
514.588	137724
514.659	73130
514.730	200201
514.802	87629
514.873	36110
514.944	39009
515.016	37566
515.087	46698
515.158	110829
515.229	178591
515.301	39346
515.372	38416
515.443	33079
515.514	28909
515.585	26897
515.656	28272
515.728	27784
515.799	27708
515.870	30279
515.941	35099
516.012	33180
516.083	32054
516.154	35688
516.225	46042
516.296	41709
516.367	36764
516.438	40152
516.509	49043
516.580	59857
516.651	133391
516.722	408104
516.793	216442
516.864	97946
516.935	109310
517.006	110304
517.077	125646
517.148	185855
517.219	346030
517.289	574733
517.360	670502
517.431	231731
517.502	78876
517.573	73812
517.643	68342
517.714	69041
517.785	69265
517.856	73545
517.926	77681
517.997	77560
518.068	82113
518.138	90037
518.209	101226
518.280	220181
518.350	689704
518.421	299633
518.492	90025
518.562	92254
518.633	117029
518.703	82335
518.774	104397
518.845	181337
518.915	176276
518.986	106865
519.056	100510
519.127	135036
519.197	215058
519.268	624847
519.338	405524
519.408	150643
519.479	97607
519.549	77355
519.620	64149
519.690	54430
519.760	60781
519.831	56678
519.901	62500
519.971	53927
520.042	73597
520.112	105434
520.182	71921
520.253	68274
520.323	62296
520.393	63884
520.463	63508
520.534	74882
520.604	130184
520.674	80280
520.744	95538
520.814	115663
520.885	101911
520.955	205949
521.025	720917
521.095	263085
521.165	83395
521.235	86369
521.305	67407
521.375	52235
521.445	53601
521.515	58172
521.585	65012
521.655	61528
521.725	60207
521.795	68485
521.865	63009
521.935	129379
522.005	113011
522.075	64896
522.145	71159
522.215	102524
522.285	159657
522.355	230467
522.424	492900
522.494	375109
522.564	106815
522.634	118868
522.704	223307
522.774	95580
522.843	61741
522.913	54354
522.983	59353
523.053	55283
523.122	56556
523.192	57339
523.262	134270
523.331	125439
523.401	52856
523.471	42360
523.540	46805
523.610	39955
523.680	44213
523.749	50935
523.819	86624
523.888	86664
523.958	45895
524.027	54000
524.097	64647
524.166	50538
524.236	50247
524.305	56763
524.375	51622
524.444	50335
524.514	58224
524.583	68298
524.653	102709
524.722	111926
524.791	64936
524.861	55301
524.930	50746
524.999	49692
525.069	70343
525.138	78791
525.207	115342
525.277	58820
525.346	57590
525.415	53943
525.484	52853
525.554	89290
525.623	77482
525.692	50605
525.761	58150
525.830	51410
525.900	54645
525.969	89512
526.038	91016
526.107	94862
526.176	212253
526.245	190216
526.314	123167
526.383	161506
526.452	167405
526.522	265068
526.591	386873
526.660	165643
526.729	84777
526.797	85265
526.867	132276
526.935	444361
527.004	570836
527.073	318412
527.142	76334
527.211	54124
527.280	50555
527.349	52586
527.418	40145
527.487	42208
527.555	41573
527.624	37217
527.693	37322
527.762	40104
527.831	39580
527.899	44697
527.968	44932
528.037	45865
528.106	49176
528.174	77574
528.243	94918
528.312	142380
528.380	141254
528.449	60962
528.518	42964
528.586	36874
528.655	39828
528.723	37916
528.792	40288
528.861	53154
528.929	50654
528.998	40811
529.066	36798
529.135	35934
529.203	37427
529.272	36537
529.340	36180
529.409	42885
529.477	43343
529.545	80347
529.614	76838
529.682	96200
529.751	111480
529.819	94124
529.887	63019
529.956	42092
530.024	43261
530.092	34158
530.161	36633
530.229	48914
530.297	37287
530.365	32830
530.434	30659
530.502	31949
530.570	32075
530.638	31500
530.707	34485
530.775	42171
530.843	35243
530.911	36360
530.979	32793
531.047	34871
531.115	38560
531.183	37167
531.252	37264
531.320	44330
531.388	38030
531.456	34858
531.524	33034
531.592	34645
531.660	38482
531.728	35863
531.796	35244
531.864	33269
531.932	37704
532.000	34698
532.067	37378
532.135	34947
532.203	40093
532.271	41724
532.339	53324
532.407	107171
532.475	68287
532.542	48052
532.610	47479
532.678	54914
532.746	141908
532.814	315852
532.881	93166
532.949	41910
533.017	39061
533.084	38669
533.152	35929
533.220	36737
533.287	37516
533.355	33329
533.423	36364
533.490	34880
533.558	36210
533.625	38483
533.693	44728
533.761	40460
533.828	43252
533.896	36980
533.963	51192
534.031	56712
534.098	76131
534.166	51223
534.233	36239
534.300	36305
534.368	38107
534.435	39608
534.503	34900
534.570	33781
534.637	35976
534.705	37896
534.772	39018
534.840	43188
534.907	102722
534.974	133338
535.041	56828
535.109	85805
535.176	41523
535.243	33566
535.310	34836
535.378	33072
535.445	31867
535.512	30580
535.579	34250
535.646	36039
535.714	34110
535.781	35612
535.848	36993
535.915	43075
535.982	38460
536.049	37554
536.116	40503
536.183	38482
536.250	39648
536.317	38700
536.384	43445
536.451	51338
536.518	52665
536.585	46339
536.652	60044
536.719	63776
536.786	54494
536.853	47867
536.920	76460
536.987	102844
537.053	68869
537.120	179600
537.187	140743
537.254	42962
537.321	41703
537.388	39397
537.454	37967
537.521	36661
537.588	35175
537.654	38276
537.721	36637
537.788	38347
537.855	33870
537.921	35598
537.988	36666
538.055	38334
538.121	38929
538.188	38841
538.254	47540
538.321	76447
538.388	52493
538.454	42080
538.521	37269
538.587	33252
538.654	35500
538.720	34505
538.787	35758
538.853	44646
538.920	63620
538.986	71172
539.053	53307
539.119	46545
539.185	40485
539.252	43220
539.318	52037
539.385	45053
539.451	41936
539.517	39764
539.583	47640
539.650	94985
539.716	180473
539.782	56330
539.849	38317
539.915	39224
539.981	38055
540.047	43047
540.114	44141
540.180	44630
540.246	39809
540.312	49198
540.378	83744
540.444	75146
540.510	71348
540.576	159791
540.643	64668
540.709	39725
540.775	39583
540.841	43224
540.907	71007
540.973	102613
541.039	53670
541.105	52429
541.171	39260
541.237	39940
541.303	39735
541.369	40037
541.435	45226
541.500	66262
541.566	47790
541.632	35791
541.698	34731
541.764	37723
541.830	37961
541.896	39153
541.961	38943
542.027	38189
542.093	35493
542.159	37417
542.224	42863
542.290	51016
542.356	69097
542.421	71522
542.487	45551
542.553	42360
542.618	57938
542.684	42530
542.750	42079
542.815	48465
542.881	81909
542.947	162803
543.012	97166
543.078	37691
543.143	38242
543.209	41051
543.274	38661
543.340	41316
543.405	67735
543.471	87042
543.536	41517
543.602	42320
543.667	44009
543.732	36425
543.798	38301
543.863	39547
543.928	35234
543.994	33547
544.059	34857
544.124	32227
544.190	33368
544.255	34329
544.320	33370
544.386	35788
544.451	45568
544.516	46646
544.581	48510
544.646	109639
544.712	134005
544.777	54550
544.842	65639
544.907	81251
544.972	59462
545.037	55467
545.102	62080
545.168	64630
545.233	64842
545.298	66952
545.363	82380
545.428	68672
545.493	84417
545.558	136277
545.623	79730
545.688	65936
545.753	60292
545.818	60218
545.883	60990
545.947	60084
546.012	74927
546.077	80287
546.142	60790
546.207	58234
546.272	65545
546.337	66418
546.401	59961
546.466	59102
546.531	59736
546.596	65116
546.661	60084
546.725	57582
546.790	56591
546.855	58920
546.919	58626
546.984	62517
547.049	72457
547.113	96551
547.178	73540
547.243	83948
547.307	87341
547.372	106472
547.436	131420
547.501	75571
547.565	76161
547.630	79879
547.695	90623
547.759	146736
547.823	105828
547.888	73369
547.952	70737
548.017	76539
548.081	94857
548.146	161750
548.210	118586
548.274	73718
548.339	67963
548.403	67352
548.468	63714
548.532	66705
548.596	68624
548.660	72433
548.725	78615
548.789	108556
548.853	110087
548.917	86252
548.982	150548
549.046	140035
549.110	74557
549.174	70515
549.238	67098
549.303	64670
549.367	68222
549.431	68641
549.495	67913
549.559	66189
549.623	68502
549.687	80749
549.751	93434
549.815	88000
549.879	84513
549.943	79656
550.007	86323
550.071	87731
550.135	88907
550.199	83880
550.263	81373
550.327	101173
550.391	154863
550.455	89728
550.519	83178
550.582	83717
550.646	95188
550.710	99055
550.774	88684
550.838	90727
550.901	96900
550.965	101199
551.029	106442
551.093	120916
551.156	163166
551.220	327006
551.284	317467
551.347	166226
551.411	415634
551.475	393846
551.538	106080
551.602	89139
551.666	82485
551.729	78560
551.793	79908
551.856	79489
551.920	74666
551.983	75624
552.047	76407
552.110	71569
552.174	73176
552.237	74487
552.301	70844
552.364	70837
552.428	72152
552.491	72948
552.554	71464
552.618	73366
552.681	77246
552.745	78182
552.808	84117
552.871	89713
552.934	77169
552.998	80991
553.061	90736
553.124	74970
553.187	70660
553.251	74038
553.314	77199
553.377	70878
553.440	76219
553.503	78225
553.567	78347
553.630	71644
553.693	74418
553.756	76861
553.819	70060
553.882	73586
553.945	69690
554.008	67878
554.071	68683
554.134	69110
554.197	67974
554.260	60629
554.323	69162
554.386	70888
554.449	69844
554.512	67695
554.575	67802
554.638	75046
554.701	67318
554.764	65242
554.827	67068
554.889	63100
554.952	59418
555.015	61413
555.078	62674
555.141	62224
555.203	59879
555.266	60482
555.329	64414
555.391	57782
555.454	60638
555.517	61516
555.580	59523
555.642	53680
555.705	56247
555.768	57530
555.830	58662
555.893	53949
555.955	55191
556.018	57276
556.080	58652
556.143	55186
556.206	58455
556.268	65246
556.330	62307
556.393	60015
556.455	67263
556.518	124572
556.580	108853
556.643	54526
556.705	53129
556.767	51253
556.830	55207
556.892	54862
556.955	67028
557.017	58318
557.079	54850
557.142	50761
557.204	54681
557.266	78608
557.328	70946
557.391	52932
557.453	51580
557.515	51745
557.577	58868
557.639	57374
557.701	50972
557.764	49040
557.826	55958
557.888	62333
557.950	55037
558.012	53365
558.074	58144
558.136	85432
558.198	156590
558.260	89603
558.322	63040
558.384	58409
558.446	61757
558.508	67981
558.570	81624
558.632	94812
558.694	119600
558.756	105327
558.818	239067
558.880	571425
558.942	208517
559.003	162702
559.065	99154
559.127	62118
559.189	62109
559.251	65845
559.312	72616
559.374	129891
559.436	381068
559.498	216135
559.559	68880
559.621	65915
559.683	75545
559.744	120189
559.806	245821
559.868	320891
559.929	108950
559.991	86077
560.052	94522
560.114	166887
560.176	124592
560.237	109831
560.299	160105
560.360	77569
560.422	67480
560.483	64551
560.545	64158
560.606	64503
560.667	63117
560.729	62224
560.790	59336
560.852	60859
560.913	62044
560.974	59269
561.036	58517
561.097	59239
561.158	59417
561.220	59802
561.281	60284
561.342	58414
561.403	62876
561.465	68651
561.526	103790
561.587	114781
561.648	63801
561.709	59673
561.771	59766
561.832	59014
561.893	58144
561.954	55145
562.015	56995
562.076	56072
562.137	58086
562.198	58164
562.259	55333
562.320	57225
562.381	58453
562.442	68389
562.503	61471
562.564	56813
562.625	55704
562.686	56561
562.747	64003
562.808	58803
562.869	65787
562.930	85707
562.991	79383
563.051	70895
563.112	65686
563.173	63275
563.234	60014
563.294	57747
563.355	58544
563.416	59710
563.477	58924
563.537	64923
563.598	71058
563.659	62959
563.720	64318
563.780	62420
563.841	64333
563.901	61228
563.962	61440
564.023	63822
564.083	64107
564.144	66579
564.204	65961
564.265	69828
564.325	88117
564.386	187856
564.446	148240
564.507	63536
564.567	58284
564.628	58613
564.688	58984
564.749	61196
564.809	79854
564.869	97843
564.930	61647
564.990	54537
565.050	53384
565.111	53522
565.171	51997
565.231	52816
565.292	51127
565.352	50639
565.412	54192
565.472	57267
565.532	54596
565.593	51853
565.653	51271
565.713	54801
565.773	55223
565.833	57593
565.893	64731
565.953	55215
566.013	55493
566.074	63710
566.134	95628
566.194	172443
566.254	147538
566.314	88841
566.374	60490
566.434	57845
566.494	56035
566.554	54150
566.614	53142
566.673	52850
566.733	58235
566.793	59830
566.853	59286
566.913	57627
566.973	59943
567.033	59937
567.092	62607
567.152	59658
567.212	61349
567.272	64520
567.331	71267
567.391	63695
567.451	70470
567.511	116144
567.570	109105
567.630	57861
567.690	55518
567.749	51987
567.809	52359
567.868	54048
567.928	60394
567.988	71267
568.047	59508
568.107	53214
568.166	53953
568.226	62682
568.285	71426
568.345	61663
568.404	57497
568.464	54427
568.523	53869
568.582	55327
568.642	56560
568.701	61758
568.761	73277
568.820	93125
568.879	98261
568.939	114945
568.998	74521
569.057	55754
569.116	52391
569.176	48180
569.235	47088
569.294	47372
569.353	47147
569.413	51516
569.472	54253
569.531	48090
569.590	47779
569.649	45974
569.708	45624
569.767	49321
569.827	58417
569.886	51332
569.945	45316
570.004	47803
570.063	48955
570.122	50663
570.181	58770
570.240	76902
570.299	69631
570.358	59681
570.417	49383
570.475	45973
570.534	48577
570.593	46945
570.652	51576
570.711	52546
570.770	52700
570.829	59669
570.887	48730
570.946	47275
571.005	45041
571.064	46324
571.122	52754
571.181	68588
571.240	52690
571.299	49768
571.357	60742
571.416	62777
571.475	76134
571.533	75557
571.592	56373
571.650	63663
571.709	46820
571.768	46298
571.826	44637
571.885	43634
571.943	44830
572.002	50929
572.060	53790
572.119	41853
572.177	42453
572.236	39795
572.294	40265
572.352	39560
572.411	40800
572.469	40919
572.528	40781
572.586	40614
572.644	47799
572.703	56555
572.761	46033
572.819	43479
572.877	41885
572.936	39597
572.994	40574
573.052	40377
573.110	41941
573.169	38452
573.227	37953
573.285	38260
573.343	39747
573.401	41499
573.459	40845
573.517	38841
573.576	39907
573.634	40029
573.692	43332
573.750	40564
573.808	43608
573.866	49708
573.924	74679
573.982	67310
574.040	45406
574.098	43746
574.155	39163
574.213	36036
574.271	37100
574.329	37570
574.387	36951
574.445	36940
574.503	35205
574.560	34319
574.618	34158
574.676	33258
574.734	33378
574.792	33904
574.849	33557
574.907	32026
574.965	32826
575.022	32357
575.080	31778
575.138	32694
575.195	35990
575.253	37230
575.311	36945
575.368	32457
575.426	34780
575.483	34536
575.541	33367
575.598	35867
575.656	40318
575.713	37634
575.771	35434
575.828	34816
575.886	36309
575.943	40567
576.001	43508
576.058	43978
576.115	47404
576.173	58248
576.230	64539
576.287	56296
576.345	49297
576.402	44390
576.459	46624
576.517	47798
576.574	55982
576.631	60175
576.688	49193
576.746	43557
576.803	42711
576.860	40879
576.917	40635
576.974	40821
577.031	41254
577.089	41452
577.146	44238
577.203	42627
577.260	46285
577.317	52731
577.374	65044
577.431	56418
577.488	43474
577.545	38424
577.602	37772
577.659	38565
577.716	36699
577.773	36979
577.830	36579
577.886	36931
577.943	35986
578.000	37677
578.057	43333
578.114	39868
578.171	36803
578.227	36506
578.284	37468
578.341	40007
578.398	41802
578.454	47425
578.511	57816
578.568	66977
578.625	53318
578.681	40987
578.738	37270
578.794	37410
578.851	35395
578.908	34465
578.964	37606
579.021	36781
579.077	35843
579.134	33990
579.190	33362
579.247	34052
579.303	34031
579.360	32310
579.416	32473
579.473	33065
579.529	30881
579.586	33816
579.642	33495
579.698	35751
579.755	36542
579.811	32619
579.867	33224
579.924	32881
579.980	34070
580.036	34534
580.093	34383
580.149	36041
580.205	36429
580.261	38096
580.317	41385
580.374	47636
580.430	57372
580.486	51941
580.542	41442
580.598	37410
580.619	37427
580.654	37511
580.692	37279
580.710	37252
580.765	35526
580.767	35525
580.823	35620
580.838	35558
580.879	35570
580.911	34795
580.935	34317
580.984	34799
580.991	34922
581.047	35074
581.057	35387
581.103	37043
581.130	37580
581.159	38233
581.203	38473
581.215	38598
581.270	39900
581.276	39720
581.326	38524
581.349	38299
581.382	38035
581.422	38041
581.438	38116
581.494	40073
581.494	40015
581.550	38571
581.567	38240
581.606	37611
581.640	37347
581.661	37283
581.713	36911
581.717	36914
581.773	36084
581.786	36325
581.829	37224
581.859	36989
581.885	36918
581.932	35375
581.940	35105
581.996	37856
582.004	37461
582.052	35638
582.077	35242
582.107	34766
582.150	35281
582.163	35472
582.219	36293
582.223	36290
582.274	36697
582.296	37925
582.330	39918
582.368	39512
582.386	39362
582.441	34059
582.441	34072
582.497	32424
582.514	32619
582.552	33288
582.587	32507
582.608	32012
582.659	33083
582.663	33168
582.719	32022
582.732	32184
582.774	32971
582.805	32769
582.830	32629
582.877	33028
582.885	33091
582.941	31268
582.950	31391
582.996	31901
583.023	32213
583.052	32795
583.095	32294
583.107	32096
583.162	33323
583.168	33381
583.218	34127
583.240	32931
583.273	31027
583.313	30190
583.328	29986
583.384	31649
583.385	31650
583.439	31362
583.458	30910
583.494	30106
583.531	29043
583.549	28500
583.603	29752
583.605	29789
583.660	29367
583.676	29431
583.715	29630
583.748	30960
583.770	31795
583.820	32411
583.825	32450
583.881	30661
583.893	30477
583.936	30025
583.965	30179
583.991	30095
584.038	29644
584.046	29624
584.101	30599
584.110	30462
584.156	29236
584.183	29002
584.211	28913
584.255	27854
584.266	27548
584.321	25816
584.328	26034
584.376	27716
584.400	27645
584.431	27450
584.472	26954
584.486	26738
584.541	26313
584.545	26302
584.596	25674
584.617	26473
584.651	28252
584.689	29590
584.706	29898
584.761	28457
584.762	28472
584.816	27430
584.834	27645
584.871	28235
584.906	28158
584.926	28074
584.978	28272
584.980	28248
585.035	28727
585.051	29113
585.090	29966
585.123	30485
585.145	30769
585.195	31661
585.200	31777
585.254	32140
585.267	32375
585.309	32368
585.340	33816
585.364	35133
585.412	36226
585.419	36351
585.473	37409
585.484	38425
585.528	43878
585.556	48286
585.583	57986
585.628	80481
585.637	88658
585.692	162379
585.700	176114
585.747	220986
585.772	187759
585.801	122267
585.845	52619
585.856	44363
585.910	33912
585.917	33057
585.965	31251
585.989	30333
586.019	29573
586.061	30081
586.074	30194
586.128	29944
586.133	30191
586.183	32294
586.205	32966
586.237	33960
586.277	35178
586.292	35325
586.346	33762
586.349	33839
586.401	34478
586.421	35367
586.455	37082
586.493	41981
586.509	44901
586.564	61052
586.565	62266
586.618	111222
586.637	103564
586.672	79259
586.709	50877
586.727	38480
586.781	32991
586.781	32907
586.835	29665
586.853	29254
586.889	28443
586.925	27804
586.944	27490
586.996	28643
586.998	28613
587.052	29651
587.068	29324
587.106	28230
587.140	28665
587.161	28852
587.212	29419
587.215	29377
587.269	30272
587.284	30265
587.323	29724
587.356	29765
587.377	29875
587.427	30536
587.431	30474
587.485	30131
587.499	30258
587.539	30724
587.571	31227
587.593	31163
587.643	31410
587.648	31432
587.702	33170
587.715	33649
587.755	34349
587.786	34159
587.810	33825
587.858	33145
587.864	33004
587.917	34428
587.930	35066
587.971	37341
588.001	39099
588.025	40094
588.073	38139
588.079	37930
588.133	39160
588.145	39869
588.187	41339
588.217	42496
588.241	43886
588.288	47530
588.295	48019
588.348	52407
588.360	53913
588.402	59851
588.431	63767
588.456	66773
588.503	73731
588.510	74949
588.564	86916
588.575	89714
588.617	100608
588.646	109760
588.671	121501
588.718	147075
588.725	153973
588.778	218253
588.789	234840
588.832	367107
588.861	471019
588.886	608673
588.932	888161
588.939	903168
588.993	930191
589.004	925815
589.047	677237
589.075	484638
589.100	373343
589.147	206492
589.154	196935
589.207	149116
589.218	141209
589.261	132655
589.290	130176
589.314	135805
589.361	151906
589.368	159523
589.421	232911
589.433	252015
589.475	418368
589.504	552183
589.528	663114
589.576	852312
589.582	829935
589.635	544515
589.647	476866
589.689	273130
589.718	152820
589.742	125226
589.790	85842
589.795	84048
589.849	75055
589.861	75539
589.902	79951
589.932	73453
589.955	64172
590.004	44966
590.009	43642
590.062	39654
590.075	38736
590.115	36358
590.146	35144
590.168	34165
590.218	32794
590.222	32619
590.275	32361
590.289	32592
590.328	33071
590.360	32497
590.381	31561
590.431	30523
590.435	30296
590.488	29191
590.503	29007
590.541	28620
590.574	28463
590.594	27961
590.645	26987
590.647	26831
590.700	26534
590.716	26564
590.753	25931
590.787	25643
590.806	25400
590.859	25415
590.859	25283
590.912	25176
590.930	25326
590.965	25402
591.001	25943
591.018	25475
591.071	24063
591.072	24184
591.124	24468
591.143	24829
591.177	24468
591.214	24256
591.230	24318
591.283	25082
591.285	25261
591.336	24861
591.356	24778
591.389	24808
591.427	25061
591.442	24508
591.495	23178
591.498	23232
591.547	22938
591.569	22989
591.600	22724
591.640	22877
591.653	22956
591.706	23968
591.711	24245
591.759	25204
591.782	26287
591.811	27453
591.853	29147
591.864	28405
591.917	24416
591.924	24171
591.969	23236
591.995	23021
592.022	22968
592.066	23437
592.075	23902
592.127	27962
592.137	29083
592.180	31351
592.208	32461
592.233	29417
592.279	24096
592.285	23664
592.338	22211
592.350	22075
592.390	22130
592.421	22462
592.443	22430
592.491	22876
592.495	22696
592.548	22382
592.562	22470
592.600	21837
592.633	21572
592.653	21197
592.704	20576
592.705	20694
592.775	20939
592.846	22246
592.916	20872
592.987	23220
593.058	22668
593.128	21515
593.199	21087
593.270	21916
593.341	21068
593.411	22643
593.482	21632
593.553	23466
593.623	21797
593.694	23746
593.764	24987
593.835	23176
593.906	22322
593.976	23814
594.047	24567
594.117	29087
594.188	29378
594.258	24420
594.329	23321
594.399	25223
594.470	24430
594.540	24196
594.611	25091
594.681	25654
594.751	25580
594.822	27415
594.892	27660
594.963	29231
595.033	28921
595.103	30291
595.174	33119
595.244	43811
595.314	49028
595.384	32500
595.455	31053
595.525	32422
595.595	33194
595.665	34058
595.736	32913
595.806	32696
595.876	32455
595.946	32994
596.016	33479
596.087	34632
596.157	35245
596.227	35757
596.297	37389
596.367	40129
596.437	42217
596.507	51020
596.577	56205
596.647	43298
596.717	41919
596.787	42265
596.857	42230
596.927	42394
596.997	42533
597.067	43511
597.137	44523
597.207	43914
597.277	44074
597.347	43601
597.417	41142
597.487	42638
597.557	43586
597.626	44432
597.696	45768
597.766	51763
597.836	56092
597.906	42863
597.975	38691
598.045	39032
598.115	40605
598.185	44684
598.254	47792
598.324	53373
598.394	52735
598.464	50766
598.533	47955
598.603	46372
598.672	45424
598.742	46962
598.812	45968
598.881	47797
598.951	46139
599.020	46467
599.090	48404
599.159	49657
599.229	46585
599.299	45538
599.368	47913
599.437	46590
599.507	43259
599.576	42811
599.646	42089
599.715	41228
599.785	41463
599.854	42393
599.924	43832
599.993	41933
600.062	40163
600.132	41088
600.201	43577
600.270	51722
600.340	50969
600.409	50188
600.478	50018
600.547	51716
600.617	46318
600.686	37875
600.755	35127
600.824	34169
600.894	33899
600.963	33028
601.032	32710
601.101	31905
601.170	29874
601.239	30366
601.308	30969
601.378	29443
601.447	28671
601.516	29111
601.585	30133
601.654	31403
601.723	30325
601.792	30214
601.861	32290
601.930	32784
601.999	32923
602.068	32480
602.137	32911
602.206	33452
602.275	33376
602.343	35432
602.412	35153
602.481	33560
602.550	32812
602.619	34747
602.688	35439
602.756	34461
602.825	34581
602.894	35922
602.963	36600
603.032	37789
603.100	37159
603.169	37457
603.238	36851
603.307	36250
603.375	37446
603.444	37836
603.513	39320
603.581	40257
603.650	40152
603.719	40304
603.787	40171
603.856	42412
603.924	43294
603.993	44685
604.061	43895
604.130	47613
604.198	49028
604.267	49150
604.335	49303
604.404	50390
604.472	51288
604.541	51833
604.609	50856
604.678	51962
604.746	51975
604.815	52282
604.883	53402
604.951	55200
605.020	54693
605.088	56568
605.156	57465
605.225	59399
605.293	58217
605.361	58697
605.429	59435
605.498	61161
605.566	61362
605.634	66508
605.702	67076
605.771	70336
605.839	70573
605.907	68623
605.975	65413
606.043	64827
606.111	63579
606.180	65303
606.248	64135
606.316	63651
606.384	64553
606.452	68478
606.520	69244
606.588	69471
606.656	69136
606.724	67345
606.792	63678
606.860	56903
606.928	51965
606.996	51407
607.064	48516
607.132	50896
607.200	53036
607.267	56121
607.335	55246
607.403	58638
607.471	56408
607.539	55023
607.607	54447
607.674	48273
607.742	49377
607.810	49361
607.878	47235
607.946	49444
608.013	51464
608.081	53075
608.149	53777
608.216	55130
608.284	55578
608.352	56812
608.419	56071
608.487	63336
608.555	55740
608.622	54448
608.690	57948
608.757	64700
608.825	66795
608.893	64683
608.960	64780
609.028	65728
609.095	68564
609.163	59294
609.230	53425
609.298	48669
609.365	49937
609.432	53754
609.500	57696
609.567	67995
609.635	78396
609.702	81713
609.769	76782
609.837	62228
609.904	51454
609.971	52327
610.039	60401
610.106	79890
610.173	156601
610.241	354655
610.308	165620
610.375	64176
610.442	53897
610.509	51754
610.577	52960
610.644	53711
610.711	56048
610.778	56004
610.845	58900
610.912	64014
610.980	63792
611.047	64611
611.114	64159
611.181	62634
611.248	59588
611.315	66651
611.382	66196
611.449	69300
611.516	70352
611.583	69277
611.650	71035
611.717	72105
611.784	73249
611.851	77276
611.918	84185
611.984	98273
612.051	144919
612.118	303937
612.185	731375
612.252	380383
612.319	104640
612.386	91475
612.452	83285
612.519	82452
612.586	87266
612.653	84145
612.719	81824
612.786	78091
612.853	72389
612.919	70367
612.986	72852
613.053	67826
613.120	63136
613.186	61128
613.253	62945
613.319	61516
613.386	62079
613.453	64811
613.519	66330
613.586	66321
613.652	71747
613.719	66397
613.785	66234
613.852	65615
613.918	61943
613.985	64833
614.051	67550
614.118	70053
614.184	65913
614.250	63970
614.317	64785
614.383	63880
614.449	64294
614.516	65796
614.582	65934
614.648	64359
614.715	62976
614.781	61655
614.847	62418
614.914	62711
614.980	61365
615.046	60907
615.112	62061
615.179	62126
615.245	63734
615.311	64057
615.377	67569
615.443	67654
615.509	66164
615.575	67819
615.642	66629
615.708	70561
615.774	72453
615.840	78394
615.906	84831
615.972	108620
616.038	172831
616.104	371380
616.170	880913
616.236	621774
616.302	149036
616.368	116224
616.434	84061
616.500	81584
616.565	91523
616.631	111322
616.697	88330
616.763	94647
616.829	147130
616.895	258297
616.961	216900
617.026	89417
617.092	68722
617.158	68676
617.224	64841
617.289	60894
617.355	58193
617.421	59264
617.487	59752
617.552	55296
617.618	54122
617.684	54236
617.749	56099
617.815	53164
617.880	50064
617.946	51321
618.012	53066
618.077	53040
618.143	51235
618.208	52425
618.274	55729
618.339	57830
618.405	46278
618.470	48352
618.536	47826
618.601	49559
618.667	44461
618.732	43459
618.798	41010
618.863	41390
618.928	41239
618.994	43844
619.059	44529
619.124	47057
619.190	42270
619.255	40619
619.320	41777
619.386	41405
619.451	39685
619.516	40837
619.581	39515
619.647	40730
619.712	41370
619.777	40128
619.842	41140
619.907	41490
619.972	41069
620.038	40592
620.103	39322
620.168	38506
620.233	39802
620.298	39160
620.363	40973
620.428	40791
620.493	42050
620.558	43203
620.623	41703
620.688	42353
620.753	42527
620.818	42754
620.883	43597
620.948	43033
621.013	41869
621.078	42726
621.143	42658
621.207	46492
621.272	44055
621.337	43849
621.402	45498
621.467	51085
621.532	51623
621.596	46466
621.661	42247
621.726	41863
621.791	41632
621.855	42620
621.920	42321
621.985	45119
622.049	49347
622.114	47888
622.179	45021
622.243	47732
622.308	46417
622.373	50669
622.437	48474
622.502	45284
622.566	44818
622.631	43966
622.695	45128
622.760	44946
622.824	44533
622.889	44965
622.953	45655
623.018	54853
623.082	51023
623.147	47077
623.211	46029
623.276	46702
623.340	43411
623.404	42462
623.469	41882
623.533	42820
623.597	41825
623.662	41624
623.726	38574
623.790	37429
623.854	36583
623.919	37394
623.983	37374
624.047	39417
624.111	37797
624.176	39751
624.240	41566
624.304	44314
624.368	38968
624.432	39399
624.496	40937
624.560	42115
624.625	43513
624.689	42540
624.753	42397
624.817	40656
624.881	41437
624.945	37782
625.009	35640
625.073	36601
625.137	39947
625.201	42803
625.265	41208
625.329	37993
625.393	38622
625.456	40271
625.520	39922
625.584	43238
625.648	49764
625.712	64220
625.776	109354
625.839	113318
625.903	54280
625.967	38712
626.031	56815
626.095	75310
626.158	42011
626.222	29762
626.286	28700
626.349	28078
626.413	25795
626.477	27729
626.540	26520
626.604	25426
626.668	26488
626.731	25057
626.795	26110
626.858	27522
626.922	25364
626.986	26143
627.049	23480
627.113	25691
627.176	24447
627.240	25093
627.303	24741
627.366	24789
627.430	25088
627.493	26109
627.557	25558
627.620	26502
627.684	25235
627.747	26836
627.810	23332
627.874	23298
627.937	20437
628.000	23800
628.064	21988
628.127	18890
628.190	20317
628.253	20357
628.317	18690
628.380	19392
628.443	18459
628.506	19478
628.569	17597
628.632	17408
628.696	17539
628.759	17029
628.822	16422
628.885	15337
628.948	16360
629.011	16009
629.074	16157
629.137	14891
629.200	15725
629.263	18052
629.326	13884
629.389	15191
629.452	15213
629.515	16326
629.578	15652
629.641	16672
629.704	14823
629.767	15646
629.830	13821
629.892	14121
629.955	12974
630.018	16410
630.081	14776
630.144	16833
630.207	14301
630.269	16967
630.332	15896
630.395	15050
630.458	13345
630.520	13066
630.583	13809
630.646	13790
630.708	13246
630.771	12449
630.834	13290
630.896	12109
630.959	13382
631.021	13042
631.084	13860
631.146	15723
631.209	16532
631.272	13615
631.334	13397
631.397	13372
631.459	13136
631.522	14422
631.584	14212
631.646	15864
631.709	15102
631.771	18554
631.834	14953
631.896	14567
631.958	11882
632.021	13792
632.083	12435
632.145	13493
632.208	11815
632.270	13440
632.332	11464
632.395	11361
632.457	13028
632.519	11478
632.581	12955
632.643	12138
632.706	12287
632.768	11219
632.830	11664
632.892	12650
632.954	11697
633.016	13975
633.078	11643
633.141	12017
633.203	11726
633.265	12572
633.327	12225
633.389	11952
633.451	12815
633.513	13776
633.575	14534
633.637	13882
633.698	12788
633.760	13333
633.822	12253
633.884	13581
633.946	13543
634.008	13445
634.070	13554
634.132	13791
634.193	15105
634.255	15876
634.317	16071
634.379	17182
634.441	14860
634.502	13473
634.564	11782
634.626	11800
634.687	11255
634.749	12127
634.811	11208
634.873	10654
634.934	10471
634.996	11594
635.057	10941
635.119	10430
635.181	10938
635.242	13336
635.304	9231
635.365	13655
635.427	10402
635.488	10963
635.550	9897
635.611	12537
635.673	9503
635.734	12992
635.796	12183
635.857	15445
635.918	13081
635.980	16935
636.041	14803
636.102	16964
636.164	17869
636.225	17684
636.286	12753
636.348	14757
636.409	11590
636.470	10496
636.531	11251
636.593	11952
636.654	11814
636.715	10088
636.776	9773
636.838	9555
636.899	10811
636.960	10314
637.021	7995
637.082	9722
637.143	8901
637.204	7623
637.265	8408
637.326	9721
637.387	9095
637.448	8296
637.509	10057
637.570	10746
637.631	9772
637.692	8599
637.753	7241
637.814	8932
637.875	8469
637.936	9193
637.997	7917
638.058	9524
638.119	8584
638.179	8304
638.240	7084
638.301	8914
638.362	7441
638.423	9152
638.483	9126
638.544	6761
638.605	8259
638.666	7727
638.726	8337
638.787	8251
638.848	7775
638.908	7212
638.969	7397
639.030	7537
639.090	5960
639.151	7613
639.211	8349
639.272	9787
639.332	11908
639.393	9146
639.453	7466
639.514	8782
639.574	8453
639.635	7829
639.695	7842
639.756	6725
639.816	7309
639.877	7633
639.937	11278
639.997	12656
640.058	6539
640.118	5981
640.178	7599
640.239	6746
640.299	6709
640.359	7283
640.420	8013
640.480	8801
640.540	9187
640.600	9248
640.661	8738
640.721	7008
640.781	7958
640.841	5979
640.901	8240
640.961	8546
641.021	7549
641.082	8261
641.142	8483
641.202	8262
641.262	4774
641.322	7710
641.382	4489
641.442	7626
641.502	6750
641.562	7190
641.622	5977
641.682	7067
641.742	7706
641.802	7385
641.861	7441
641.921	6938
641.981	7270
642.041	7516
642.101	7713
642.161	5026
642.221	5329
642.280	6109
642.340	5927
642.400	5812
642.460	7110
642.519	6202
642.579	5562
642.639	7934
642.698	2990
642.758	8893
642.818	6629
642.877	6124
642.937	6350
642.997	7832
643.056	8693
643.116	5395
643.175	7525
643.235	7191
643.294	6924
643.354	7684
643.414	7676
643.473	10203
643.532	10666
643.592	16089
643.651	27762
643.711	50760
643.770	104664
643.830	267980
643.889	514091
643.948	96433
644.008	18689
644.067	11710
644.126	9040
644.186	8057
644.245	7728
644.304	5000
644.363	8354
644.423	5380
644.482	5642
644.541	7409
644.600	4302
644.659	10028
644.719	10254
644.778	17376
644.837	29279
644.896	63454
644.955	135298
645.014	36133
645.073	9536
645.132	7717
645.191	7392
645.250	6640
645.309	8226
645.368	7890
645.427	11150
645.486	15897
645.545	25181
645.604	7789
645.663	7176
645.722	5577
645.781	6205
645.840	9204
645.898	9829
645.957	17025
646.016	23370
646.075	48207
646.134	96730
646.192	275811
646.251	348499
646.310	41743
646.369	13347
646.427	12228
646.486	7470
646.545	7931
646.603	6376
646.662	7099
646.721	5853
646.779	5234
646.838	5328
646.896	8504
646.955	9992
647.014	18039
647.072	32477
647.131	88589
647.189	33839
647.248	6429
647.306	5483
647.365	6371
647.423	2952
647.481	5750
647.540	2885
647.598	4972
647.657	4489
647.715	4562
647.773	3448
647.832	5685
647.890	3085
647.948	3670
648.007	4883
648.065	3181
648.123	3418
648.181	5458
648.240	4215
648.298	3438
648.356	4158
648.414	4308
648.472	3967
648.531	4951
648.589	3031
648.647	4333
648.705	4692
648.763	4644
648.821	3881
648.879	4047
648.937	5144
648.995	6568
649.053	8067
649.111	12187
649.169	21014
649.227	39751
649.285	84889
649.343	235975
649.401	89711
649.459	18508
649.516	11121
649.574	5177
649.632	7789
649.690	8514
649.748	9076
649.806	11826
649.863	22652
649.921	61989
649.979	33118
650.037	6250
650.094	3023
650.152	4626
650.210	2689
650.268	3760
650.325	3011
650.383	2444
650.440	2833
650.498	4531
650.556	3235
650.613	2660
650.671	3535
650.728	3800
650.786	4079
650.843	4863
650.901	1540
650.958	3676
651.016	1866
651.073	2768
651.131	2937
651.188	3154
651.246	3095
651.303	3061
651.360	2887
651.418	2551
651.475	2304
651.532	1384
651.590	2798
651.647	1820
651.704	2238
651.762	2951
651.819	2816
651.876	2316
651.933	2323
651.990	3016
652.048	1348
652.105	2621
652.162	2565
652.219	2230
652.276	2434
652.333	2681
652.390	1200
652.448	1981
652.505	2568
652.562	2843
652.619	1790
652.676	2451
652.733	3094
652.790	2602
652.847	810
652.904	2709
652.961	1097
653.017	2202
653.074	2791
653.131	2067
653.188	1767
653.245	2509
653.302	2629
653.359	1575
653.415	3102
653.472	1437
653.529	2106
653.586	2411
653.642	1017
653.699	2610
653.756	1544
653.813	1792
653.869	2170
653.926	2388
653.983	1686
654.039	2615
654.096	2276
654.152	3346
654.209	1160
654.266	2223
654.322	1287
654.379	3491
654.435	2594
654.492	3629
654.548	4469
654.605	7103
654.661	3458
654.717	2359
654.774	3250
654.830	2941
654.887	2655
654.943	2647
655.000	2308
655.056	2604
655.112	1747
655.168	1889
655.225	2137
655.281	3462
655.337	3605
655.394	7973
655.450	5374
655.506	5242
655.562	8762
655.618	6800
655.675	1548
655.731	2795
655.787	1765
655.843	3168
655.899	2092
655.955	2911
656.011	2534
656.067	1445
656.123	2465
656.179	3330
656.235	4109
656.291	1142
656.347	3035
656.403	2442
656.459	3334
656.515	3474
656.571	3243
656.627	2735
656.683	1639
656.739	2566
656.795	2086
656.850	1645
656.906	2743
656.962	3320
657.018	1018
657.074	3043
657.129	2542
657.185	4135
657.241	7125
657.297	4700
657.352	2309
657.408	1109
657.464	2589
657.519	1980
657.575	550
657.630	2154
657.686	1791
657.742	1476
657.797	924
657.853	2406
657.908	2584
657.964	1390
658.019	1528
658.075	2079
658.130	2152
658.186	1863
658.241	1774
658.297	1193
658.352	1069
658.407	2218
658.463	2037
658.518	2081
658.573	2065
658.629	1691
658.684	1304
658.739	2730
658.795	860
658.850	1864
658.905	1146
658.960	1327
659.016	1029
659.071	1660
659.126	1241
659.181	2507
659.236	3409
659.291	3384
659.346	1611
659.401	2266
659.457	1446
659.512	1606
659.567	2761
659.622	2209
659.677	831
659.732	1683
659.787	1706
659.842	2857
659.897	3606
659.952	2410
660.007	2042
660.061	2651
660.116	403
660.171	1484
660.226	1826
660.281	2189
660.336	1429
660.391	2105
660.445	448
660.500	958
660.555	771
660.610	1120
660.664	1845
660.719	1722
660.774	1354
660.828	1988
660.883	1350
660.938	1959
660.992	914
661.047	2387
661.101	1376
661.156	1685
661.211	-184
661.265	1292
661.320	1372
661.374	1493
661.429	890
661.483	2367
661.538	1184
661.592	988
661.647	1464
661.701	1696
661.755	2095
661.810	2255
661.864	1214
661.919	964
661.973	1809
662.027	1444
662.081	1009
662.136	1868
662.190	2037
662.244	1944
662.299	1416
662.353	1890
662.407	1552
662.461	2053
662.515	2588
662.569	1662
662.624	2123
662.678	1968
662.732	1216
662.786	2183
662.840	2428
662.894	2135
662.948	1274
663.002	1632
663.056	1739
663.110	1380
663.164	1727
663.218	1739
663.272	1636
663.326	3110
663.380	2066
663.434	2848
663.488	1945
663.542	2434
663.595	1991
663.649	2106
663.703	2637
663.757	2079
663.811	1961
663.864	1783
663.918	1771
663.972	2169
664.026	1747
664.079	1648
664.133	1838
664.187	1573
664.240	1759
664.294	2077
664.348	2128
664.401	2631
664.455	2345
664.508	1368
664.562	1460
664.615	2535
664.669	1612
664.722	2289
664.776	2286
664.829	2624
664.883	2014
664.936	2457
664.990	1650
665.043	2719
665.097	1597
665.150	3785
665.203	1861
665.257	2400
665.310	2310
665.363	2095
665.417	2504
665.470	3020
665.523	2370
665.576	2349
665.630	2277
665.683	2519
665.736	2774
665.789	2457
665.842	1559
665.895	2946
665.949	2208
666.002	2733
666.055	2118
666.108	3154
666.161	2853
666.214	2908
666.267	2171
666.320	3298
666.373	3445
666.426	3234
666.479	2200
666.532	3063
666.585	3467
666.638	4533
666.691	3268
666.744	4506
666.796	3076
666.849	4030
666.902	3452
666.955	3015
667.008	2469
667.060	1711
667.113	2356
667.166	2107
667.219	2447
667.271	2809
667.324	2299
667.377	2707
667.430	1800
667.482	2702
667.535	2080
667.587	2970
667.640	2535
667.693	4253
667.745	4078
667.798	5046
667.850	3130
667.903	3400
667.955	3028
668.008	2571
668.060	3875
668.113	3918
668.165	3546
668.218	3920
668.270	3316
668.322	3061
668.375	1651
668.427	3292
668.479	2921
668.532	3653
668.584	3040
668.636	3292
668.689	2996
668.741	2843
668.793	2044
668.845	3420
668.898	3101
668.950	3338
669.002	3080
669.054	3335
669.106	2319
669.158	3844
669.211	2964
669.263	3201
669.315	4170
669.367	3318
669.419	2863
669.471	4320
669.523	3484
669.575	3833
669.627	3337
669.679	3293
669.731	2881
669.783	2930
669.835	3454
669.886	3056
669.938	2501
669.990	2937
670.042	2451
670.094	3147
670.146	1771
670.197	3209
670.249	3538
670.301	3481
670.353	3302
670.404	4033
670.456	3657
670.508	5129
670.560	6631
670.611	9673
670.663	15027
670.715	38229
670.766	50276
670.818	12550
670.869	3907
670.921	4040
670.972	3644
671.024	3314
671.075	2882
671.127	3640
671.178	2464
671.230	2537
671.281	3579
671.333	4043
671.384	3832
671.436	5069
671.487	5754
671.538	7844
671.590	9303
671.641	14710
671.692	24965
671.744	44933
671.795	21277
671.846	7681
671.897	6052
671.949	5846
672.000	3325
672.051	5523
672.102	4899
672.153	3674
672.204	3983
672.256	4515
672.307	3999
672.358	4616
672.409	3806
672.460	3794
672.511	3088
672.562	4097
672.613	3224
672.664	4203
672.715	3657
672.766	3627
672.817	3408
672.868	2805
672.919	3518
672.970	3125
673.021	3932
673.071	3706
673.122	3423
673.173	3876
673.224	2952
673.275	3710
673.326	2983
673.376	3727
673.427	3096
673.478	4584
673.528	2920
673.579	4066
673.630	3511
673.680	3970
673.731	3495
673.782	2202
673.832	3271
673.883	4086
673.934	3218
673.984	3033
674.035	3158
674.085	4094
674.136	3506
674.186	5149
674.237	5215
674.287	8771
674.338	4899
674.388	3664
674.438	3150
674.489	3684
674.539	2921
674.589	5330
674.640	4912
674.690	4121
674.740	3906
674.791	4947
674.841	4428
674.891	4616
674.942	3608
674.992	3858
675.042	3809
675.092	4089
675.142	2195
675.193	3587
675.243	2984
675.293	4278
675.343	3918
675.393	3740
675.443	4581
675.493	3332
675.543	2722
675.593	4686
675.643	2690
675.693	3947
675.743	3379
675.793	3879
675.843	3287
675.893	3552
675.943	3528
675.993	3625
676.043	3414
676.093	4201
676.142	3068
676.192	3632
676.242	3774
676.292	3269
676.341	2918
676.391	4016
676.441	3014
676.491	2855
676.540	2514
676.590	2527
676.640	3781
676.689	2834
676.739	3163
676.789	3320
676.838	2432
676.888	3524
676.937	3623
676.987	2706
677.037	2056
677.086	3241
677.136	2815
677.185	2994
677.235	1292
677.284	2389
677.333	2344
677.383	2894
677.432	1805
677.482	2451
677.531	2338
677.580	2188
677.630	2661
677.679	3118
677.728	2183
677.778	2735
677.827	2383
677.876	3226
677.925	2285
677.975	3186
678.024	3466
678.073	2357
678.122	3641
678.171	3555
678.220	3258
678.269	4781
678.319	4256
678.368	3557
678.417	3455
678.466	4265
678.515	3669
678.564	3834
678.613	3037
678.662	3220
678.711	3369
678.760	4227
678.809	3256
678.857	3233
678.906	2880
678.955	4094
679.004	4073
679.053	3950
679.102	3515
679.151	3499
679.199	2366
679.248	2928
679.297	3422
679.346	4041
679.394	3224
679.443	3380
679.492	3335
679.540	3560
679.589	3523
679.638	3870
679.686	1917
679.735	3628
679.784	3200
679.832	3467
679.881	2531
679.929	3073
679.978	2182
680.026	3159
680.075	3147
680.123	3099
680.172	3198
680.220	2153
680.268	2775
680.317	3208
680.365	2036
680.414	2132
680.462	2069
680.510	3841
680.559	2265
680.607	3691
680.655	3300
680.703	2766
680.752	3374
680.800	3552
680.848	2267
680.896	2423
680.945	2590
680.993	3134
681.041	2678
681.089	3315
681.137	1943
681.185	2464
681.233	2536
681.258	2781
681.281	2967
681.329	2810
681.377	2630
681.380	2689
681.425	2903
681.473	3658
681.502	3933
681.521	4032
681.569	4555
681.617	3689
681.624	3731
681.665	3659
681.713	3574
681.745	4410
681.761	4729
681.809	3818
681.857	4721
681.867	4481
681.904	3503
681.952	4812
681.989	3758
682.000	3377
682.048	4630
682.096	4039
682.111	4062
682.143	3966
682.191	4463
682.233	5843
682.239	5999
682.286	5275
682.334	4593
682.354	4412
682.382	4108
682.430	5362
682.476	5047
682.477	4998
682.525	5654
682.572	4406
682.598	4580
682.620	4675
682.667	5257
682.715	6883
682.720	6811
682.763	5700
682.810	5874
682.841	4889
682.857	4320
682.905	5338
682.952	5519
682.963	5575
683.000	5640
683.047	5598
683.085	7062
683.095	7408
683.142	5711
683.190	6303
683.206	6215
683.237	5995
683.284	6408
683.328	6489
683.332	6455
683.379	6470
683.426	6522
683.449	6390
683.473	6220
683.521	6197
683.568	7146
683.571	7102
683.615	5996
683.662	7131
683.693	6679
683.709	6424
683.757	7066
683.804	6955
683.814	7036
683.851	7192
683.898	7423
683.936	7424
683.945	7393
683.992	7636
684.039	8336
684.057	7818
684.086	6904
684.133	7548
684.179	7350
684.180	7314
684.227	8133
684.274	8392
684.300	8346
684.321	8307
684.368	7751
684.415	8735
684.422	8666
684.462	7943
684.509	7966
684.543	7920
684.556	7913
684.603	8127
684.649	7932
684.665	8070
684.696	8363
684.743	8669
684.786	9250
684.790	9300
684.837	9389
684.883	10786
684.908	10855
684.930	10661
684.977	11768
685.023	10274
685.029	10372
685.070	10650
685.117	9683
685.150	10300
685.164	10720
685.210	10755
685.257	11987
685.272	11801
685.303	10948
685.350	10903
685.393	10803
685.396	10799
685.443	12003
685.490	12218
685.514	12033
685.536	11740
685.583	11414
685.629	11705
685.636	11583
685.675	10760
685.722	11262
685.757	11470
685.768	11588
685.815	12068
685.861	12362
685.878	12452
685.908	12690
685.954	12403
686.000	13807
686.000	13828
686.047	14954
686.093	17930
686.121	17780
686.139	16737
686.185	14983
686.232	13573
686.242	13415
686.278	13348
686.324	12965
686.363	12309
686.370	12271
686.416	12111
686.463	12600
686.484	12312
686.509	11954
686.555	11680
686.601	11648
686.606	11713
686.647	12277
686.693	11532
686.727	12016
686.739	12227
686.785	12123
686.831	12831
686.848	12590
686.877	11904
686.923	11909
686.969	11844
686.969	11845
687.015	12048
687.061	12253
687.090	13151
687.107	13465
687.153	13221
687.199	12511
687.211	12539
687.245	13027
687.291	13594
687.332	13789
687.336	13778
687.382	14571
687.428	13740
687.453	14001
687.474	13805
687.520	12443
687.565	12124
687.574	11848
687.611	11727
687.657	12612
687.695	12875
687.702	12906
687.748	13424
687.794	13538
687.816	13650
687.839	13446
687.885	12557
687.931	12183
687.937	12078
687.976	12215
688.022	12911
688.058	13195
688.067	13181
688.113	13900
688.158	13480
688.179	13498
688.204	13693
688.249	13869
688.295	14346
688.300	14354
688.340	14540
688.386	15086
688.421	14909
688.431	14727
688.477	14599
688.522	14178
688.542	14107
688.567	14306
688.613	14009
688.658	14557
688.663	14520
688.703	14248
688.749	14768
688.784	14713
688.794	14660
688.839	14220
688.884	14264
688.905	14270
688.930	14528
688.975	14173
689.020	14628
689.026	14668
689.065	14722
689.110	14368
689.146	14412
689.155	14407
689.201	13701
689.246	13596
689.267	13557
689.291	13927
689.336	14175
689.381	14300
689.388	14321
689.426	14191
689.471	14779
689.509	14406
689.516	14315
689.561	14378
689.606	14229
689.630	14120
689.651	14251
689.696	14201
689.741	14738
689.750	14753
689.785	14678
689.830	14529
689.871	14042
689.875	13990
689.920	14272
689.965	13646
689.992	13353
690.010	13402
690.054	13443
690.099	14283
690.112	14250
690.144	14014
690.189	14055
690.233	13429
690.233	13445
690.278	13979
690.323	13786
690.354	13769
690.367	13853
690.412	14168
690.457	14345
690.474	14297
690.501	13967
690.546	14118
690.590	13805
690.595	13717
690.635	13461
690.680	13333
690.716	13799
690.724	13965
690.769	13805
690.813	14447
690.836	14406
690.857	14345
690.902	14545
690.946	14367
690.957	14460
690.991	14787
691.035	14860
691.077	14948
691.080	15013
691.124	15376
691.168	16499
691.198	16810
691.213	16918
691.257	17752
691.301	17753
691.318	17946
691.346	17421
691.390	15807
691.434	15334
691.439	15142
691.478	15009
691.522	15768
691.559	15770
691.567	15754
691.611	16131
691.655	15580
691.680	15600
691.699	15745
691.743	16115
691.787	16389
691.800	16281
691.831	16258
691.875	17088
691.919	17320
691.921	17301
691.964	17792
692.008	18410
692.041	18623
692.052	18626
692.096	18387
692.139	18651
692.162	18584
692.183	18460
692.227	18263
692.271	17936
692.282	17889
692.315	18131
692.359	18127
692.402	18079
692.403	18111
692.447	17785
692.490	17825
692.523	17704
692.534	17884
692.578	18347
692.622	18856
692.643	19133
692.666	18826
692.709	17954
692.753	16846
692.763	16619
692.797	16607
692.840	16670
692.884	16826
692.884	16864
692.928	17110
692.971	17574
693.004	17837
693.015	17811
693.059	17676
693.102	17535
693.124	17337
693.146	17465
693.189	17815
693.233	18183
693.245	18352
693.276	18768
693.320	18733
693.363	18894
693.365	18848
693.407	18551
693.450	18586
693.485	18481
693.493	18558
693.537	18953
693.580	19007
693.605	19346
693.624	19204
693.667	18184
693.710	17360
693.725	16899
693.753	16943
693.797	17828
693.840	18042
693.845	18084
693.883	18005
693.926	17379
693.966	16753
693.970	16748
694.013	16598
694.056	16606
694.086	16271
694.099	16504
694.142	17379
694.185	18367
694.206	18812
694.229	19205
694.272	19363
694.315	20291
694.326	20316
694.358	19809
694.401	19418
694.444	18922
694.446	18844
694.487	18442
694.530	18159
694.566	18071
694.573	18056
694.616	17337
694.659	16708
694.686	16406
694.702	16349
694.745	15934
694.787	15732
694.806	15477
694.830	15876
694.873	16518
694.916	17338
694.926	17481
694.959	17250
695.002	16823
695.044	16398
695.046	16352
695.087	17115
695.130	17462
695.166	17929
695.172	17984
695.215	17998
695.258	18192
695.286	18036
695.301	18005
695.343	17911
695.386	17948
695.406	17905
695.428	17761
695.471	17341
695.514	17082
695.526	16895
695.556	17001
695.599	17292
695.641	17425
695.646	17417
695.684	17555
695.726	17452
695.766	17368
695.769	17420
695.811	17619
695.854	17860
695.886	17931
695.896	17790
695.938	17100
695.981	16343
696.005	15886
696.023	16278
696.065	17065
696.108	17941
696.125	18205
696.150	18222
696.192	18434
696.235	18378
696.245	18365
696.277	18143
696.319	17554
696.361	17279
696.365	17179
696.404	17025
696.446	17113
696.485	17249
696.488	17338
696.530	17636
696.572	18118
696.604	18392
696.614	18256
696.656	17491
696.698	16783
696.724	16162
696.740	16219
696.783	16456
696.825	16617
696.844	16769
696.867	17009
696.909	17109
696.951	17132
696.964	17151
696.992	17043
697.034	16750
697.076	16368
697.083	16297
697.118	17028
697.160	17617
697.202	18439
697.203	18409
697.244	17891
697.286	17435
697.323	16920
697.327	16964
697.369	16915
697.411	16940
697.442	16915
697.453	17121
697.494	17667
697.536	18449
697.562	18760
697.578	18581
697.620	18052
697.661	17430
697.682	17136
697.703	17391
697.744	17741
697.786	18177
697.801	18263
697.828	18580
697.869	19025
697.911	19429
697.921	19486
697.952	19121
697.994	18521
698.035	18024
698.040	17905
698.077	17462
698.118	16980
698.160	16391
698.160	16343
698.201	16861
698.243	17274
698.279	17624
698.284	17676
698.325	17700
698.367	17767
698.399	17718
698.408	17612
698.449	16949
698.491	16268
698.518	15799
698.532	16124
698.573	16911
698.614	17790
698.638	18197
698.656	18266
698.697	18365
698.738	18459
698.757	18446
698.779	18587
698.820	18756
698.862	18946
698.877	18970
698.903	19413
698.944	20026
698.985	20645
698.996	20763
699.026	20455
699.067	19953
699.116	19304
699.235	19196
699.354	16978
699.474	19195
699.593	23557
699.713	20373
699.832	18486
699.951	18925
700.070	17967
700.190	17005
700.309	18483
700.428	21321
700.547	17597
700.667	17672
700.786	20609
700.905	17159
701.024	19548
701.143	17574
701.262	14848
701.381	16021
701.500	16328
701.619	16904
701.738	15269
701.857	15000
701.976	14602
702.095	14196
702.214	16240
702.333	15736
702.452	14506
702.571	14313
702.690	14189
702.809	14374
702.928	13749
703.047	15023
703.165	13569
703.284	13806
703.403	13909
703.522	18261
703.640	16299
703.759	22588
703.878	33012
703.997	17192
704.115	14561
704.234	14609
704.353	12857
704.471	13125
704.590	12255
704.708	12286
704.827	12577
704.946	14505
705.064	15623
705.183	14346
705.301	19534
705.420	30593
705.538	25101
705.656	20387
705.775	17886
705.893	20540
706.012	22123
706.130	21375
706.249	21270
706.367	22626
706.485	24888
706.604	22166
706.722	22064
706.840	28520
706.958	22570
707.077	19897
707.195	19719
707.313	19506
707.431	19193
707.549	18331
707.668	18910
707.786	20588
707.904	18732
708.022	17305
708.140	17928
708.258	17534
708.376	19082
708.494	17596
708.612	21637
708.730	34464
708.848	30345
708.966	27638
709.084	24972
709.202	23895
709.320	25077
709.438	25217
709.556	26021
709.674	25044
709.791	25042
709.909	24319
710.027	23277
710.145	23801
710.263	24079
710.380	24812
710.498	22880
710.616	23880
710.733	23993
710.851	25927
710.969	26298
711.086	24221
711.204	22792
711.322	24261
711.439	25400
711.557	25492
711.674	22885
711.792	22779
711.909	20600
712.027	20664
712.144	20827
712.262	22476
712.379	25710
712.497	40011
712.614	37812
712.732	30916
712.849	30295
712.966	32056
713.084	37560
713.201	31118
713.318	30486
713.436	29886
713.553	30067
713.670	30993
713.787	35388
713.905	34454
714.022	28816
714.139	28663
714.256	31455
714.373	36718
714.490	45719
714.608	97862
714.725	364517
714.842	300269
714.959	37359
715.076	28733
715.193	26913
715.310	24825
715.427	23315
715.544	23405
715.661	24043
715.778	24496
715.895	29173
716.011	27121
716.128	24916
716.245	24142
716.362	25749
716.479	26092
716.596	23674
716.713	23932
716.829	22266
716.946	22437
717.063	22003
717.180	21120
717.296	20688
717.413	22103
717.530	20790
717.646	20839
717.763	20073
717.880	20127
717.996	19609
718.113	20905
718.229	20831
718.346	18422
718.462	19019
718.579	23431
718.695	31303
718.812	30542
718.928	33915
719.045	21661
719.161	17903
719.277	17046
719.394	18279
719.510	19832
719.626	19522
719.743	25815
719.859	24426
719.975	36539
720.092	110867
720.208	206360
720.324	31699
720.440	21220
720.557	23903
720.673	31351
720.789	52285
720.905	117592
721.021	32033
721.137	19043
721.253	19212
721.369	19648
721.486	24017
721.602	34541
721.718	18286
721.834	15486
721.950	16317
722.066	15550
722.181	14681
722.297	16139
722.413	15163
722.529	15022
722.645	14929
722.761	13745
722.877	14289
722.993	14898
723.108	15698
723.224	14521
723.340	15956
723.456	13806
723.571	14771
723.687	13103
723.803	13639
723.918	13362
724.034	14055
724.150	14934
724.265	18353
724.381	45856
724.497	50671
724.612	14223
724.728	12662
724.843	13105
724.959	17946
725.074	43576
725.190	43929
725.305	17057
725.421	14046
725.536	10960
725.651	11554
725.767	11671
725.882	11369
725.997	10919
726.113	11879
726.228	10424
726.343	11230
726.459	10008
726.574	11895
726.689	10550
726.804	11472
726.920	11202
727.035	11248
727.150	12179
727.265	10707
727.380	12219
727.495	10354
727.610	9185
727.725	10713
727.841	9948
727.956	10081
728.071	13458
728.186	10324
728.301	8064
728.416	10256
728.531	8936
728.645	8579
728.760	10190
728.875	9678
728.990	9650
729.105	10184
729.220	9471
729.335	8441
729.449	9022
729.564	8133
729.679	8190
729.794	8758
729.908	11810
730.023	9384
730.138	6945
730.253	7931
730.367	7489
730.482	6873
730.596	8158
730.711	8297
730.826	8260
730.940	6893
731.055	9019
731.169	7726
731.284	6645
731.398	8817
731.513	11596
731.627	11115
731.742	12984
731.856	13126
731.970	7397
732.085	9857
732.199	11088
732.313	15351
732.428	38834
732.542	119657
732.656	58626
732.771	11338
732.885	8592
732.999	8593
733.113	10894
733.227	9645
733.342	7816
733.456	7400
733.570	6827
733.684	7759
733.798	7675
733.912	7541
734.026	7007
734.140	7245
734.254	10626
734.368	22697
734.482	25869
734.596	7326
734.710	6415
734.824	7421
734.938	6508
735.052	6934
735.166	9866
735.280	7571
735.393	7360
735.507	8064
735.621	13195
735.735	28770
735.849	9030
735.962	6911
736.076	8615
736.190	8872
736.303	14272
736.417	19289
736.531	6931
736.644	8189
736.758	5628
736.872	5129
736.985	6061
737.099	5579
737.212	5743
737.326	5891
737.439	6081
737.553	5264
737.666	5110
737.780	4292
737.893	5503
738.007	5333
738.120	5237
738.233	5679
738.347	4659
738.460	5123
738.573	6362
738.687	5073
738.800	5728
738.913	6995
739.026	5506
739.140	5726
739.253	4724
739.366	5583
739.479	4621
739.592	4538
739.705	4065
739.818	4931
739.932	4667
740.045	4650
740.158	5072
740.271	4682
740.384	4728
740.497	4752
740.610	5030
740.723	5389
740.836	4985
740.949	5175
741.062	7290
741.174	6199
741.287	5116
741.400	4324
741.513	5266
741.626	5237
741.739	5566
741.851	4298
741.964	4246
742.077	4493
742.189	4889
742.302	5777
742.415	4766
742.527	4236
742.640	5078
742.753	3986
742.865	3731
742.978	4295
743.090	4953
743.203	4098
743.316	4100
743.428	3146
743.541	4576
743.653	3651
743.766	3172
743.878	4301
743.990	9190
744.103	7274
744.215	4975
744.327	2979
744.440	6036
744.552	7856
744.664	3720
744.777	3656
744.889	3208
745.001	4158
745.113	2920
745.226	3085
745.338	3988
745.450	3378
745.562	3426
745.674	3374
745.786	1924
745.898	2908
746.010	2903
746.122	2618
746.234	3975
746.347	3120
746.459	3686
746.570	3295
746.682	4499
746.794	3410
746.906	3159
747.018	3304
747.130	2562
747.242	3253
747.354	3285
747.466	4715
747.577	2093
747.689	2728
747.801	2887
747.913	2705
748.024	3080
748.136	3221
748.248	2737
748.359	2983
748.471	3116
748.583	2457
748.694	2452
748.806	3516
748.918	7385
749.029	3811
749.141	3516
749.252	3529
749.364	3891
749.475	8448
749.587	7251
749.698	3413
749.809	3204
749.921	3216
750.032	2199
750.144	1490
750.255	2733
750.366	2697
750.478	2403
750.589	2483
750.700	2717
750.811	2276
750.923	4706
751.034	9105
751.145	7458
751.256	2387
751.367	3039
751.479	2436
751.590	2137
751.701	2565
751.812	1471
751.923	2463
752.034	2751
752.145	2429
752.256	2607
752.367	2536
752.478	1905
752.589	3165
752.700	2510
752.811	2293
752.922	1888
753.032	2317
753.143	2803
753.254	2514
753.365	2344
753.476	2649
753.586	2293
753.697	1962
753.808	2105
753.919	1611
754.029	1907
754.140	1497
754.251	1930
754.361	2917
754.472	2621
754.582	2759
754.693	2647
754.804	1906
754.914	1651
755.025	1543
755.135	1239
755.246	2207
755.356	1656
755.466	2522
755.577	2347
755.687	2993
755.798	1606
755.908	1787
756.018	1676
756.129	2047
756.239	1973
756.349	2123
756.460	2402
756.570	2627
756.680	1882
756.790	2139
756.900	2803
757.011	1716
757.121	1847
757.231	1878
757.341	2671
757.451	2115
757.561	1218
757.671	1975
757.781	1172
757.891	2912
758.001	2753
758.111	3176
758.221	1861
758.331	2319
758.441	2068
758.551	4074
758.661	2547
758.771	2942
758.880	3446
758.990	2549
759.100	2654
759.210	2232
759.320	3033
759.429	2509
759.539	3611
759.649	2610
759.758	2716
759.868	3927
759.978	2775
760.087	3599
760.197	4080
760.307	3201
760.416	2573
760.526	3057
760.635	3172
760.745	3029
760.854	3029
760.964	3878
761.073	3115
761.182	3449
761.292	3845
761.401	4613
761.511	2155
761.620	2749
761.729	3313
761.839	3466
761.948	3006
762.057	3252
762.166	2706
762.276	1365
762.385	3432
762.494	3290
762.603	1446
762.712	2653
762.822	2137
762.931	2944
763.040	2570
763.149	2263
763.258	2285
763.367	3449
763.476	2189
763.585	2525
763.694	2772
763.803	4217
763.912	3521
764.021	2537
764.130	2003
764.238	3152
764.347	2866
764.456	2646
764.565	2249
764.674	2168
764.783	2689
764.891	1851
765.000	3506
765.109	2724
765.217	2076
765.326	3895
765.435	5434
765.543	3551
765.652	3246
765.761	2726
765.869	3839
765.978	5213
766.086	8814
766.195	15177
766.303	46987
766.412	163534
766.520	103053
766.629	12674
766.737	6612
766.846	5312
766.954	3956
767.062	4737
767.171	4450
767.279	4725
767.387	3769
767.496	3238
767.604	4598
767.712	3614
767.820	2707
767.928	4154
768.037	3552
768.145	3885
768.253	4095
768.361	3194
768.469	3393
768.577	3703
768.685	3559
768.793	2779
768.901	3027
769.009	3284
769.117	2705
769.225	3576
769.333	4429
769.441	5242
769.549	8631
769.657	16732
769.765	61903
769.873	129451
769.981	22432
770.088	5280
770.196	3894
770.304	4481
770.412	4953
770.519	4309
770.627	3672
770.735	4121
770.842	3381
770.950	4131
771.058	3368
771.165	3863
771.273	3071
771.380	3964
771.488	4359
771.595	3526
771.703	3698
771.810	4074
771.918	3600
772.025	4078
772.133	4028
772.240	3649
772.348	4163
772.455	4082
772.562	3302
772.670	3258
772.777	3484
772.884	4346
772.991	4190
773.099	3673
773.206	3045
773.313	4064
773.420	3216
773.528	3771
773.635	2901
773.742	4265
773.849	4673
773.956	3338
774.063	3797
774.170	3778
774.277	3923
774.384	3951
774.491	4017
774.598	3862
774.705	3524
774.812	4017
774.919	4864
775.026	4210
775.133	4203
775.239	3309
775.346	4019
775.453	2996
775.560	4046
775.667	4687
775.773	2970
775.880	3089
775.987	4048
776.093	2770
776.200	3495
776.307	2888
776.413	3343
776.520	3970
776.627	3604
776.733	4665
776.840	2708
776.946	4878
777.053	3926
777.159	6177
777.266	3687
777.372	6531
777.478	4913
777.585	4032
777.691	2890
777.798	3922
777.904	3476
778.010	5047
778.117	4309
778.223	3180
778.329	3840
778.435	2455
778.542	2791
778.648	3433
778.754	2898
778.860	3064
778.966	3929
779.072	3471
779.178	3611
779.284	3401
779.391	1824
779.497	2172
779.603	4306
779.708	2426
779.815	3265
779.920	3812
780.026	3120
780.132	2098
780.238	2423
780.344	2508
780.450	3672
780.556	2787
780.661	2602
780.767	3377
780.873	1734
780.979	3100
781.085	2712
781.190	3234
781.296	2853
781.402	1612
781.507	1764
781.613	2791
781.719	2704
781.824	2758
781.930	3054
782.035	2635
782.141	2870
782.246	2125
782.352	1617
782.457	2210
782.563	2260
782.668	1491
782.773	2755
782.879	2719
782.984	2799
783.090	3442
783.195	5150
783.300	4169
783.405	3324
783.511	3025
783.616	2874
783.721	3329
783.826	2265
783.932	3189
784.037	1981
784.142	2139
784.247	2484
784.352	3450
784.457	2925
784.562	2024
784.667	1861
784.772	2597
784.877	1294
784.982	2709
785.087	2280
785.192	3606
785.297	2393
785.402	2364
785.507	2410
785.611	1927
785.716	2193
785.821	2006
785.926	2012
786.031	2674
786.135	1917
786.240	2382
786.345	689
786.450	2609
786.554	1352
786.659	1526
786.763	1343
786.868	2643
786.973	3706
787.077	2835
787.182	1717
787.286	1953
787.391	1090
787.495	1215
787.600	1939
787.704	1655
787.809	2055
787.913	2055
788.017	1528
788.122	2657
788.226	1836
788.330	1332
788.435	2576
788.539	1307
788.643	1728
788.747	1489
788.852	1541
788.956	866
789.060	2507
789.164	1566
789.268	1413
789.372	2139
789.476	1599
789.580	908
789.684	1244
789.788	1967
789.892	1163
789.996	3000
790.100	1459
790.204	1995
790.308	2580
790.412	1275
790.516	2192
790.620	1525
790.724	1056
790.828	1822
790.931	995
791.035	3558
791.139	1279
791.242	379
791.346	2683
791.450	1298
791.554	1550
791.657	807
791.761	2680
791.864	1984
791.968	2086
792.072	1301
792.175	1808
792.279	2731
792.382	1959
792.486	3177
792.589	2967
792.693	1893
792.796	1056
792.899	1578
793.003	2416
793.106	845
793.209	1385
793.313	2331
793.416	-156
793.519	3307
793.623	2792
793.726	4072
793.829	1648
793.932	2275
794.035	659
794.138	2777
794.242	2682
794.345	2608
794.448	2969
794.551	2790
794.654	3441
794.757	3118
794.860	4687
794.963	3031
795.066	890
795.169	2536
795.272	592
795.375	1232
795.477	926
795.580	1632
795.683	-368
795.786	1623
795.889	954
795.991	2455
796.094	3240
796.197	762
796.300	3052
796.402	774
796.505	184
796.608	758
796.710	1941
796.813	811
796.915	1134
797.018	900
797.120	1524
797.223	115
797.326	1543
797.428	378
797.530	1364
797.633	1121
797.735	3611
797.838	7485
797.940	4467
798.042	1564
798.145	803
798.247	1474
798.349	-256
798.452	1843
798.554	734
798.656	803
798.758	2881
798.860	1935
798.962	1054
799.065	980
799.167	241
799.269	2426
799.371	1792
799.473	2510
799.575	3120
799.677	3391
799.779	3420
799.881	1445
799.983	1678
800.085	260
800.187	1547
800.289	786
800.390	1013
800.492	1356
800.594	915
800.696	397
800.798	151
800.899	624
801.001	591
801.103	1230
801.205	752
801.306	1148
801.408	-875
801.509	1069
801.611	1503
801.713	758
801.814	179
801.916	158
802.017	1101
802.119	-336
802.220	1918
802.322	-67
802.423	5611
802.525	2007
802.626	940
802.727	1074
802.829	946
802.930	-683
803.031	2492
803.133	-34
803.234	1045
803.335	520
803.436	-227
803.538	816
803.639	-646
803.740	774
803.841	-68
803.942	1440
804.043	1453
804.144	-330
804.245	-302
804.346	-394
804.447	757
804.548	1575
804.649	2392
804.750	18
804.851	846
804.952	-442
805.053	578
805.154	4
805.255	1997
805.355	733
805.456	177
805.557	-81
805.658	-136
805.758	170
805.859	-151
805.960	-210
806.061	-637
806.161	-283
806.262	182
806.362	203
806.463	271
806.564	446
806.664	942
806.765	2562
806.865	1943
806.966	926
807.066	-150
807.166	1545
807.267	385
807.367	157
807.468	1760
807.568	-568
807.668	412
807.769	589
807.869	-548
807.969	884
808.069	361
808.170	141
808.270	-448
808.370	-79
808.470	1861
808.570	-49
808.670	-443
808.770	-57
808.870	82
808.970	1064
809.070	328
809.170	-379
809.271	747
809.370	-713
809.470	770
809.570	16
809.670	-284
809.770	10
809.870	882
809.970	-80
810.070	-361
810.169	215
810.269	-1481
810.369	1158
810.469	-19
810.568	43
810.668	-337
810.768	-10
810.867	-531
810.967	-51
811.066	170
811.166	396
811.265	646
811.365	-588
811.464	-256
811.564	-270
811.663	352
811.763	-978
811.862	358
811.962	901
812.061	-1233
812.160	-875
812.260	190
812.359	-510
812.458	-570
812.557	1130
812.657	-239
812.756	401
812.855	-86
812.954	128
813.053	153
813.153	349
813.252	-679
813.351	794
813.450	-252
813.549	-33
813.648	893
813.747	241
813.846	1011
813.945	-511
814.044	159
814.143	-108
814.242	80
814.341	-726
814.439	-2
814.538	620
814.637	86
814.736	-417
814.835	768
814.933	-100
815.032	-99
815.131	480
815.229	769
815.328	1018
815.427	180
815.525	1098
815.624	1262
815.722	-391
815.821	156
815.919	714
816.018	217
816.116	1281
816.215	-7
816.313	558
816.412	548
816.510	542
816.609	1747
816.707	1543
816.805	975
816.904	134
817.002	1249
817.100	1035
817.198	1497
817.296	1145
817.395	1218
817.493	1220
817.591	189
817.689	1534
817.787	2003
817.885	4284
817.983	5385
818.081	14207
818.179	38017
818.277	102232
818.375	66208
818.473	11638
818.571	5204
818.669	3894
818.767	2618
818.865	2904
818.963	4220
819.061	6858
819.158	12563
819.256	32327
819.354	79236
819.452	185685
819.549	85484
819.647	16550
819.745	6173
819.842	4549
819.940	2808
820.038	2084
820.135	1966
820.233	2401
820.330	1208
820.428	728
820.525	1782
820.623	880
820.720	83
820.818	869
820.915	1591
821.012	1347
821.110	-537
821.207	1503
821.304	44
821.402	174
821.499	1053
821.596	941
821.693	450
821.791	33
821.888	1343
821.985	4766
822.082	1999
822.179	1446
822.276	538
822.373	366
822.470	179
822.567	497
822.664	-348
822.761	1799
822.858	-724
822.955	8
823.052	138
823.149	299
823.246	291
823.343	643
823.440	562
823.536	-156
823.633	-197
823.730	446
823.827	563
823.923	491
824.020	957
824.117	-421
824.213	355
824.310	454
824.407	455
824.503	132
824.600	546
824.696	24
824.793	421
824.889	531
824.986	-606
825.082	9
825.179	442
825.275	1242
825.371	-414
825.468	738
825.564	-250
825.660	26
825.757	1123
825.853	1679
825.949	-284
826.045	527
826.142	-304
826.238	-403
826.334	1067
826.430	-392
826.526	879
826.622	-54
826.718	415
826.814	-404
826.910	542
827.006	62
827.102	-603
827.198	1073
827.294	60
827.390	49
827.486	198
827.582	-973
827.678	-501
827.774	111
827.869	-760
827.965	742
828.061	-925
828.157	-149
828.252	706
828.348	-314
828.444	99
828.539	-465
828.635	379
828.731	762
828.826	-742
828.922	436
829.017	59
829.113	-32
829.208	-894
829.304	-678
829.399	1395
829.495	-123
829.590	636
829.685	-396
829.781	279
829.876	-494
829.971	-900
830.066	-166
830.162	-421
830.257	-742
830.352	-369
830.447	622
830.543	807
830.638	248
830.733	890
830.828	-652
830.923	514
831.018	-468
831.113	806
831.208	91
831.303	211
831.398	-244
831.493	214
831.588	-262
831.683	-1619
831.778	-462
831.873	-81
831.967	653
832.062	-549
832.157	-1210
832.252	220
832.346	-385
832.441	596
832.536	806
832.631	3340
832.725	2318
832.820	-623
832.914	-320
833.009	-565
833.104	669
833.198	883
833.293	-728
833.387	620
833.482	325
833.576	-368
833.670	322
833.765	830
833.859	385
833.954	-440
834.048	-617
834.142	-166
834.237	-994
834.331	-302
834.425	107
834.519	-669
834.613	45
834.708	882
834.802	69
834.896	-634
834.990	273
835.084	272
835.178	-695
835.272	-34
835.366	112
835.460	352
835.554	113
835.648	-483
835.742	-807
835.836	-32
835.930	-886
836.024	847
836.117	1032
836.211	1114
836.305	3107
836.399	4238
836.493	42
836.586	1180
836.680	-662
836.774	-352
836.867	905
836.961	-1368
837.055	-608
837.148	60
837.242	-18
837.335	-1462
837.429	407
837.522	804
837.616	1496
837.709	5662
837.803	3194
837.896	234
837.989	348
838.083	3431
838.176	9485
838.269	5637
838.363	995
838.456	135
838.549	1553
838.642	1388
838.735	4645
838.829	1443
838.922	12
839.015	203
839.108	-545
839.201	714
839.294	171
839.387	719
839.480	172
839.573	2715
839.666	3815
839.759	392
839.852	-1085
839.945	-525
840.038	-601
840.131	140
840.223	-188
840.316	700
840.409	-437
840.502	-441
840.594	1039
840.687	-890
840.780	561
840.873	-117
840.965	1339
841.058	3031
841.150	7163
841.243	4061
841.336	113
841.428	335
841.521	-899
841.613	159
841.706	949
841.798	111
841.890	219
841.983	-1301
842.075	692
842.167	322
842.260	-6
842.352	2380
842.444	3128
842.537	9016
842.629	13062
842.721	1478
842.813	307
842.905	-715
842.997	1174
843.090	481
843.182	3867
843.274	8625
843.366	21797
843.458	40227
843.550	22343
843.642	2371
843.734	1199
843.826	1813
843.918	1301
844.009	-125
844.101	-686
844.193	-12
844.285	524
844.377	-67
844.469	355
844.560	-21
844.652	-143
844.744	-227
844.835	-2
844.927	542
845.019	1579
845.110	555
845.202	-103
845.293	-312
845.385	-337
845.476	-699
845.568	833
845.659	-287
845.751	741
845.842	-547
845.934	-717
846.025	-545
846.116	190
846.208	96
846.299	-654
846.390	254
846.482	170
846.573	1116
846.664	1849
846.755	2879
846.846	2506
846.937	-1290
847.029	-737
847.120	-148
847.211	-494
847.302	410
847.393	-339
847.484	911
847.575	-936
847.666	-869
847.757	-485
847.847	-47
847.938	1277
848.029	-521
848.120	-584
848.211	92
848.302	-820
848.392	-489
848.483	-867
848.574	-901
848.664	-556
848.755	-116
848.846	-479
848.936	-490
849.027	-45
849.118	-45
849.208	-27
849.299	1050
849.389	1918
849.480	7754
849.570	14751
849.661	28575
849.751	45167
849.841	13484
849.932	343
850.022	-587
850.112	-540
850.203	-428
850.293	420
850.383	68
850.474	-802
850.564	58
850.654	72
850.744	52
850.834	-543
850.924	-191
851.014	284
851.104	-441
851.194	-984
851.284	260
851.374	882
851.464	690
851.554	1170
851.644	394
851.734	2908
851.824	1340
851.914	-339
852.004	-33
852.094	-967
852.183	-6
852.273	-404
852.363	-259
852.452	223
852.542	-39
852.632	411
852.721	-391
852.811	-494
852.901	344
852.990	-373
853.080	585
853.169	698
853.259	407
853.348	386
853.438	1243
853.527	2167
853.617	3063
853.706	7227
853.795	15237
853.885	37302
853.974	71376
854.063	134270
854.152	199336
854.242	64132
854.331	9159
854.420	2788
854.509	3264
854.598	2279
854.687	2093
854.777	2952
854.866	72
854.955	919
855.044	-224
855.133	235
855.222	-175
855.311	-154
855.400	-494
855.488	-291
855.577	-1238
855.666	-69
855.755	1157
855.844	-216
855.933	-368
856.021	-618
856.110	317
856.199	-151
856.288	-564
856.376	-595
856.465	-177
856.554	-587
856.642	86
856.731	-727
856.819	-356
856.908	-143
856.996	-391
857.085	-686
857.173	-739
857.262	-879
857.350	-840
857.438	-239
857.527	-205
857.615	-1124
857.703	261
857.792	35
857.880	-920
857.968	-952
858.056	-16
858.145	-404
858.233	-509
858.321	-941
858.409	61
858.497	-634
858.585	-1082
858.673	-153
858.761	-1094
858.849	-614
858.937	-239
859.025	-151
859.113	-71
859.201	-1107
859.289	35
859.377	-1321
859.465	-535
859.552	-1055
859.640	-341
859.728	673
859.816	-497
859.903	242
859.991	-848
860.079	-635
860.166	76
860.254	-520
860.342	-824
860.429	-900
860.517	-956
860.604	-425
860.692	-491
860.779	-761
860.867	-465
860.954	296
861.042	-480
861.129	-1121
861.216	-835
861.304	-1257
861.391	-1197
861.478	-447
861.565	69
861.653	355
861.740	-845
861.827	-766
861.914	-1258
862.001	-75
862.089	37
862.176	-1217
862.263	126
862.350	-827
862.437	-1085
862.524	-1438
862.611	-778
862.698	-396
862.785	-1083
862.871	-462
862.958	-88
863.045	-273
863.132	-466
863.219	-706
863.306	-1411
863.392	-267
863.479	-705
863.566	-1071
863.652	-181
863.739	-964
863.826	-426
863.912	-507
863.999	-608
864.086	-428
864.172	-572
864.259	-215
864.345	-825
864.432	-195
864.518	-788
864.604	-862
864.691	-588
864.777	-1013
864.863	-861
864.950	261
865.036	459
865.122	1101
865.209	1099
865.295	492
865.381	376
865.467	1543
865.553	1775
865.639	3668
865.726	7636
865.812	18061
865.898	37129
865.984	54895
866.070	107582
866.156	107524
866.242	22948
866.328	4022
866.414	1296
866.499	1618
866.585	530
866.671	988
866.757	1046
866.843	718
866.928	65
867.014	-101
867.100	139
867.186	652
867.271	1274
867.357	2375
867.442	3368
867.528	1253
867.614	436
867.699	107
867.785	84
867.870	346
867.956	716
868.041	1412
868.127	638
868.212	1735
868.297	1007
868.383	-693
868.468	1015
868.553	1965
868.639	2601
868.724	5365
868.809	3614
868.894	374
868.979	814
869.065	288
869.150	-162
869.235	-413
869.320	-491
869.405	-972
869.490	-834
869.575	-1136
869.660	-180
869.745	-615
869.830	-258
869.915	-159
870.000	-787
870.085	-276
870.169	-754
870.254	-34
870.339	-643
870.424	-417
870.509	233
870.593	469
870.678	-144
870.763	-236
870.847	-726
870.932	-525
871.016	17
871.101	-786
871.186	-598
871.270	-615
871.355	-848
871.439	-334
871.523	567
871.608	-704
871.692	-829
871.777	-554
871.861	-819
871.945	-1027
872.030	-648
872.114	232
872.198	-670
872.282	-428
872.367	112
872.451	-1099
872.535	-604
872.619	-230
872.703	-1000
872.787	-300
872.871	-470
872.955	-427
873.039	-1938
873.123	-19
873.207	287
873.291	-81
873.375	1003
873.459	-961
873.543	-974
873.627	-436
873.711	-830
873.794	-1233
873.878	-1437
873.962	-466
874.045	-1120
874.129	-303
874.137	-342
874.213	-732
874.245	-713
874.296	-683
874.352	-1086
874.380	-1287
874.460	-177
874.464	-132
874.547	-912
874.568	-715
874.631	-142
874.676	-291
874.714	-420
874.784	174
874.798	295
874.881	38
874.892	-135
874.965	-1344
874.999	-801
875.048	-84
875.107	-451
875.131	-586
875.215	-964
875.215	-963
875.298	-1398
875.323	-1161
875.381	-634
875.430	-644
875.465	-616
875.538	-565
875.548	-559
875.631	-651
875.646	-580
875.714	-378
875.753	-529
875.798	-632
875.861	-612
875.881	-602
875.964	-295
875.968	-294
876.047	-312
876.076	-485
876.130	-768
876.183	-505
876.213	-386
876.291	398
876.296	447
876.379	-769
876.398	-661
876.462	-100
876.506	-245
876.545	-498
876.613	-287
876.628	-240
876.711	-739
876.721	-764
876.794	-853
876.828	-784
876.877	-679
876.935	-599
876.960	-575
877.043	-83
877.043	-85
877.125	-112
877.150	-35
877.208	35
877.258	63
877.291	154
877.365	17
877.374	-12
877.456	-211
877.472	-114
877.539	256
877.579	80
877.622	-73
877.687	100
877.704	151
877.787	-382
877.794	-389
877.869	-472
877.901	-379
877.952	-157
878.008	-39
878.034	-32
878.115	-504
878.117	-510
878.199	-310
878.222	-195
878.282	9
878.329	270
878.364	508
878.437	-351
878.447	-502
878.529	-1008
878.544	-1031
878.611	-799
878.651	-903
878.694	-1017
878.758	-352
878.776	-188
878.858	-107
878.865	-79
878.941	216
878.972	183
879.023	85
879.078	-84
879.105	8
879.185	783
879.187	787
879.269	344
879.292	3
879.351	-624
879.399	-328
879.433	-89
879.506	95
879.516	97
879.598	-392
879.613	-415
879.680	-186
879.720	177
879.762	405
879.827	-142
879.844	-287
879.926	398
879.933	367
880.007	142
880.040	128
880.089	168
880.147	552
880.171	774
880.253	1817
880.254	1822
880.335	2589
880.360	2789
880.417	3931
880.467	5898
880.499	7236
880.574	8766
880.580	8653
880.662	1931
880.680	1341
880.744	498
880.787	393
880.825	377
880.893	-80
880.907	-161
880.989	-197
881.000	-217
881.070	39
881.106	311
881.152	452
881.213	465
881.233	468
881.315	-533
881.319	-506
881.396	238
881.426	283
881.478	305
881.532	219
881.559	142
881.639	-171
881.641	-175
881.722	-213
881.745	-310
881.803	-13
881.852	454
881.885	459
881.958	218
881.966	250
882.047	953
882.064	978
882.129	753
882.171	798
882.210	1232
882.277	2040
882.291	2022
882.372	1128
882.383	1036
882.454	793
882.489	643
882.535	409
882.596	260
882.616	272
882.697	537
882.702	516
882.778	7
882.808	53
882.859	360
882.914	119
882.940	73
883.020	548
883.021	555
883.102	500
883.127	389
883.183	234
883.233	159
883.264	66
883.339	154
883.345	136
883.426	-103
883.445	-243
883.507	163
883.551	490
883.587	406
883.657	424
883.668	533
883.749	711
883.763	797
883.830	562
883.869	430
883.910	523
883.975	506
883.991	466
884.072	588
884.081	574
884.152	543
884.187	474
884.233	293
884.292	61
884.314	94
884.394	331
884.398	320
884.475	15
884.504	47
884.555	395
884.610	768
884.636	923
884.716	1298
884.716	1304
884.797	735
884.821	616
884.877	528
884.927	362
884.958	441
885.033	594
885.038	582
885.118	589
885.139	448
885.199	555
885.244	930
885.279	818
885.350	231
885.359	328
885.439	1140
885.456	1298
885.520	1048
885.561	1032
885.600	1133
885.667	1087
885.680	990
885.760	330
885.773	214
885.840	848
885.878	1259
885.920	1294
885.984	1356
886.000	1356
886.080	1331
886.089	1285
886.160	1172
886.195	1221
886.240	1542
886.300	1885
886.320	1753
886.400	1426
886.406	1370
886.480	1316
886.511	1382
886.560	1550
886.616	1648
886.640	1629
886.720	1460
886.722	1448
886.800	642
886.827	390
886.879	943
886.932	1329
886.959	1302
887.038	1360
887.039	1366
887.119	1047
887.143	954
887.198	1352
887.248	1714
887.278	1565
887.354	982
887.358	992
887.437	1102
887.459	1192
887.517	1357
887.564	1333
887.596	1342
887.669	1326
887.676	1336
887.755	1303
887.774	1341
887.835	1725
887.880	1915
887.914	1760
887.985	1425
887.994	1413
888.073	1241
888.090	1199
888.153	1112
888.195	1036
888.232	987
888.300	852
888.311	873
888.391	1017
888.405	1028
888.470	1130
888.510	1203
888.549	1466
888.615	1945
888.628	1928
888.708	1691
888.720	1651
888.787	1338
888.825	1132
888.866	1259
888.930	1472
888.945	1490
889.024	1495
889.035	1499
889.103	1476
889.140	1418
889.182	1475
889.245	1581
889.261	1571
889.340	1439
889.349	1421
889.419	1734
889.454	1877
889.498	1722
889.559	1479
889.577	1426
889.656	1176
889.664	1147
889.735	1771
889.768	2058
889.814	2018
889.873	1951
889.978	974
890.083	2352
890.187	1059
890.292	1567
890.397	1902
890.501	1124
890.606	1345
890.710	1667
890.815	1960
890.919	1723
891.024	1697
891.128	1277
891.233	1390
891.337	2044
891.442	1744
891.546	1399
891.650	599
891.755	1589
891.859	2400
891.963	1188
892.068	1769
892.172	1146
892.276	1483
892.380	1475
892.484	828
892.589	1603
892.693	1440
892.797	909
892.901	1618
893.005	1371
893.109	998
893.213	1150
893.317	960
893.421	1495
893.525	947
893.629	1117
893.733	157
893.837	2277
893.941	1711
894.045	2061
894.148	1405
894.252	1697
894.356	1368
894.460	2228
894.564	997
894.667	1550
894.771	1244
894.875	866
894.978	1571
895.082	857
895.186	1867
895.289	2021
895.393	1289
895.496	1682
895.600	279
895.703	1205
895.807	403
895.910	2021
896.014	876
896.117	1534
896.221	1816
896.324	1378
896.427	822
896.531	774
896.634	667
896.737	1087
896.840	1312
896.944	1144
897.047	746
897.150	2153
897.253	983
897.356	1985
897.460	977
897.563	2064
897.666	1472
897.769	1365
897.872	1120
897.975	1682
898.078	1015
898.181	1042
898.284	1403
898.387	1985
898.490	2165
898.593	2016
898.695	1346
898.798	2098
898.901	4547
899.004	1861
899.107	1394
899.209	1285
899.312	1861
899.415	883
899.518	969
899.620	741
899.723	380
899.826	2487
899.928	3253
900.031	1800
900.133	858
900.236	1566
900.338	536
900.441	1250
900.543	677
900.646	942
900.748	1095
900.851	1353
900.953	833
901.055	731
901.158	823
901.260	1063
901.362	-148
901.465	814
901.567	520
901.669	1737
901.771	1284
901.873	1566
901.976	287
902.078	1268
902.180	364
902.282	1230
902.384	605
902.486	1389
902.588	2572
902.690	5908
902.792	1777
902.894	1790
902.996	971
903.098	700
903.200	1149
903.302	1564
903.404	854
903.505	446
903.607	443
903.709	715
903.811	891
903.913	1057
904.014	462
904.116	1626
904.218	672
904.319	946
904.421	1296
904.523	1553
904.624	1457
904.726	795
904.827	528
904.929	1037
905.030	734
905.132	1620
905.233	1351
905.335	459
905.436	891
905.537	985
905.639	1192
905.740	883
905.841	723
905.943	1617
906.044	1069
906.145	1006
906.247	939
906.348	741
906.449	-221
906.550	90
906.651	686
906.752	239
906.854	595
906.955	613
907.056	337
907.157	1070
907.258	899
907.359	750
907.460	616
907.561	937
907.662	331
907.762	1096
907.863	213
907.964	580
908.065	1248
908.166	1375
908.267	-562
908.367	901
908.468	628
908.569	1750
908.670	1803
908.770	2179
908.871	1777
908.971	4406
909.072	6931
909.173	1047
909.273	590
909.374	229
909.474	750
909.575	1061
909.675	386
909.776	186
909.876	769
909.977	682
910.077	710
910.177	723
910.278	540
910.378	-28
910.478	466
910.579	439
910.679	947
910.779	796
910.879	688
910.980	727
911.080	-373
911.180	-445
911.280	506
911.380	394
911.480	626
911.580	204
911.680	567
911.780	679
911.880	1223
911.980	392
912.080	914
912.180	1806
912.280	1620
912.380	918
912.480	368
912.580	810
912.679	701
912.779	253
912.879	1153
912.979	-202
913.078	-159
913.178	238
913.278	9
913.377	485
913.477	-591
913.577	939
913.676	963
913.776	786
913.875	79
913.975	609
914.074	-29
914.174	1105
914.273	759
914.373	749
914.472	-82
914.572	-22
914.671	130
914.770	484
914.870	135
914.969	127
915.068	303
915.167	1003
915.267	738
915.366	847
915.465	359
915.564	1542
915.663	413
915.763	14
915.862	606
915.961	159
916.060	-48
916.159	412
916.258	155
916.357	1028
916.456	288
916.555	978
916.654	91
916.752	2917
916.851	167
916.950	1298
917.049	387
917.148	91
917.247	1227
917.345	1380
917.444	-3
917.543	878
917.642	1040
917.740	1406
917.839	232
917.937	473
918.036	734
918.135	390
918.233	126
918.332	572
918.430	156
918.529	376
918.627	-54
918.726	667
918.824	315
918.923	371
919.021	991
919.119	177
919.218	428
919.316	1000
919.414	197
919.512	1737
919.611	862
919.709	-189
919.807	382
919.905	757
920.003	760
920.102	333
920.200	318
920.298	1404
920.396	147
920.494	282
920.592	262
920.690	88
920.788	854
920.886	637
920.984	1351
921.082	333
921.180	440
921.277	684
921.375	1361
921.473	1511
921.571	602
921.669	241
921.766	1984
921.864	1750
921.962	1693
922.060	945
922.157	-389
922.255	1599
922.352	1159
922.450	1096
922.548	408
922.645	1498
922.743	1168
922.840	1547
922.938	1844
923.035	1931
923.133	1521
923.230	2677
923.327	2435
923.425	1651
923.522	2540
923.619	2097
923.717	1362
923.814	2364
923.911	1869
924.008	2200
924.106	1038
924.203	1581
924.300	1113
924.397	1994
924.494	2834
924.591	4425
924.688	2031
924.786	1909
924.883	974
924.979	1783
925.077	1822
925.173	2129
925.270	1704
925.367	2279
925.464	1880
925.561	2198
925.658	1943
925.755	3326
925.852	2915
925.948	2640
926.045	1182
926.142	1622
926.239	854
926.335	1842
926.432	1843
926.529	1908
926.625	1649
926.722	686
926.818	697
926.915	2129
927.011	1031
927.108	834
927.204	1203
927.301	1645
927.397	1285
927.494	2031
927.590	1379
927.687	2260
927.783	1030
927.879	1730
927.976	1445
928.072	1199
928.168	1784
928.264	1373
928.361	1494
928.457	1728
928.553	2475
928.649	2680
928.745	1635
928.841	1463
928.937	2157
929.033	1236
929.129	1479
929.225	1781
929.321	904
929.417	1102
929.513	811
929.609	1960
929.705	1596
929.801	1585
929.897	877
929.993	1927
930.089	1721
930.184	1329
930.280	1534
930.376	2260
930.471	811
930.567	1684
930.663	1226
930.758	456
930.854	1647
930.950	1054
931.045	827
931.141	1729
931.236	1984
931.332	1724
931.427	880
931.523	1711
931.618	1342
931.714	842
931.809	920
931.905	1704
932.000	803
932.095	885
932.191	954
932.286	1724
932.381	-37
932.476	673
932.572	890
932.667	1284
932.762	822
932.857	1689
932.952	769
933.047	230
933.142	201
933.237	738
933.332	570
933.427	2113
933.522	717
933.617	843
933.712	714
933.807	776
933.902	775
933.997	1268
934.092	645
934.187	775
934.282	756
934.376	471
934.471	810
934.566	1147
934.661	1318
934.755	1363
934.850	917
934.945	839
935.039	283
935.134	1014
935.228	-204
935.323	1095
935.417	464
935.512	1014
935.606	925
935.701	949
935.795	641
935.890	357
935.984	844
936.079	1444
936.173	399
936.267	318
936.362	1064
936.456	1270
936.550	1303
936.644	903
936.738	-311
936.833	1259
936.927	428
937.021	565
937.115	520
937.209	661
937.303	1079
937.397	790
937.491	1098
937.585	1106
937.679	990
937.773	1587
937.867	1059
937.961	566
938.055	1043
938.149	1057
938.243	478
938.337	362
938.430	862
938.524	1227
938.618	-499
938.712	573
938.805	65
938.899	844
938.993	1115
939.086	1046
939.180	-267
939.274	481
939.367	176
939.461	328
939.554	-99
939.648	781
939.741	446
939.835	1585
939.928	1277
940.022	1354
940.115	1070
940.208	1184
940.302	694
940.395	1415
940.488	-1221
940.582	1289
940.675	563
940.768	359
940.861	492
940.954	447
941.048	246
941.141	651
941.234	359
941.327	1646
941.420	1988
941.513	1183
941.606	226
941.699	1707
941.792	942
941.885	882
941.978	956
942.071	784
942.164	-611
942.257	1539
942.349	166
942.442	1821
942.535	207
942.628	259
942.721	306
942.813	-414
942.906	1551
942.999	1646
943.091	1133
943.184	1603
943.277	-62
943.369	642
943.462	-335
943.554	874
943.647	-380
943.739	1257
943.832	767
943.924	-142
944.017	617
944.109	-568
944.201	919
944.294	1319
944.386	188
944.478	556
944.571	276
944.663	895
944.755	-231
944.847	371
944.940	416
945.032	6
945.124	-17
945.216	2132
945.308	384
945.400	1665
945.492	248
945.584	754
945.676	834
945.768	464
945.860	813
945.952	568
946.044	548
946.136	867
946.228	335
946.320	-964
946.412	138
946.503	-59
946.595	465
946.687	-23
946.779	197
946.870	659
946.962	-9
947.054	11
947.145	652
947.237	1100
947.329	660
947.420	-76
947.512	-8
947.603	-120
947.695	717
947.786	22
947.878	91
947.969	828
948.061	340
948.152	378
948.243	445
948.335	652
948.426	207
948.517	-128
948.609	31
948.700	391
948.791	190
948.882	578
948.973	844
949.065	236
949.156	465
949.247	269
949.338	531
949.429	-348
949.520	-114
949.611	-380
949.702	313
949.793	46
949.884	501
949.975	-187
950.066	-62
950.157	-237
950.247	523
950.338	-188
950.429	709
950.520	1697
950.611	3675
950.701	1832
950.792	2246
950.883	3217
950.973	1325
951.064	2672
951.155	1731
951.245	1729
951.336	905
951.427	-341
951.517	867
951.608	413
951.698	137
951.788	-226
951.879	447
951.969	-118
952.060	230
952.150	512
952.240	70
952.331	-478
952.421	422
952.511	-576
952.602	-231
952.692	431
952.782	197
952.872	-668
952.962	283
953.052	1124
953.143	-254
953.233	298
953.323	377
953.413	576
953.503	300
953.593	700
953.683	608
953.773	227
953.863	534
953.953	203
954.042	156
954.132	-129
954.222	52
954.312	170
954.402	1050
954.492	4102
954.581	12583
954.671	4773
954.761	193
954.850	1123
954.940	202
955.030	855
955.119	6
955.209	317
955.298	-73
955.388	4
955.477	748
955.567	-675
955.656	-22
955.746	369
955.835	-368
955.925	-399
956.014	-763
956.103	373
956.193	1239
956.282	560
956.371	-143
956.461	242
956.550	-725
956.639	-263
956.728	-785
956.817	328
956.906	-847
956.995	708
957.085	-411
957.174	367
957.263	-186
957.352	-462
957.441	-759
957.530	366
957.619	-332
957.708	759
957.796	-183
957.885	493
957.974	-494
958.063	49
958.152	-1080
958.241	633
958.329	-224
958.418	121
958.507	-587
958.596	1238
958.684	-127
958.773	27
958.861	1248
958.950	-115
959.039	-707
959.127	340
959.216	574
959.304	11
959.393	-580
959.481	370
959.570	584
959.658	1008
959.746	1753
959.835	4821
959.923	15507
960.011	6098
960.100	375
960.188	189
960.276	-801
960.365	-211
960.453	-174
960.541	-1122
960.629	-16
960.717	-266
960.805	-636
960.893	-310
960.981	-714
961.069	592
961.158	-795
961.245	412
961.333	-192
961.421	-790
961.509	497
961.597	724
961.685	61
961.773	299
961.861	-521
961.949	385
962.036	-84
962.124	884
962.212	-513
962.299	-212
962.387	-671
962.475	-491
962.562	-877
962.650	340
962.738	294
962.825	-100
962.913	-8
963.000	554
963.088	359
963.175	958
963.263	860
963.350	435
963.438	1577
963.525	4368
963.612	7609
963.700	20398
963.787	60705
963.874	26996
963.962	3151
964.049	1123
964.136	444
964.223	-200
964.310	117
964.398	900
964.485	983
964.572	3271
964.659	11113
964.746	12251
964.833	1230
964.920	374
965.007	279
965.094	310
965.181	404
965.268	946
965.355	171
965.441	178
965.528	-898
965.615	-7
965.702	-729
965.789	289
965.875	-501
965.962	154
966.049	-688
966.136	1259
966.222	-154
966.309	1222
966.395	181
966.482	580
966.569	-771
966.655	248
966.742	179
966.828	807
966.915	-178
967.001	1432
967.087	644
967.174	1689
967.260	2887
967.347	7306
967.433	17830
967.519	44596
967.605	14861
967.692	499
967.778	-220
967.864	-95
967.950	503
968.036	-236
968.123	-4
968.209	200
968.295	-1564
968.381	1926
968.467	81
968.553	-591
968.639	1417
968.725	1692
968.811	7636
968.897	7631
968.983	707
969.069	-467
969.154	297
969.240	494
969.326	-569
969.412	-207
969.497	-335
969.583	49
969.669	192
969.755	-184
969.840	202
969.926	780
970.012	1149
970.097	1719
970.183	1320
970.268	2452
970.354	4993
970.439	11609
970.525	32011
970.610	10897
970.696	1733
970.781	-148
970.866	-1023
970.952	1181
971.037	-30
971.122	-211
971.208	548
971.293	940
971.378	107
971.463	622
971.549	543
971.634	875
971.719	1329
971.804	4124
971.889	6841
971.974	699
972.059	-370
972.144	517
972.229	96
972.314	387
972.399	1101
972.484	1430
972.569	1486
972.654	3501
972.739	13578
972.824	19180
972.908	4082
972.993	574
973.078	39
973.163	-712
973.247	-160
973.332	-1748
973.417	735
973.501	-1090
973.586	-691
973.671	1201
973.755	414
973.840	932
973.924	1742
974.009	1000
974.093	1539
974.178	4889
974.262	10966
974.346	15434
974.431	2949
974.515	504
974.600	1002
974.684	1800
974.768	-991
974.852	1088
974.937	-1393
975.021	-286
975.105	-510
975.189	-331
975.273	559
975.358	-628
975.442	-1121
975.526	18
975.610	-1106
975.694	-1241
975.778	933
975.862	328
975.946	-1901
976.030	1177
976.114	-440
976.198	-201
976.281	-316
976.365	462
976.449	118
976.533	847
976.617	-827
976.700	884
976.784	1805
976.868	3039
976.951	7410
977.035	5962
977.119	641
977.202	138
977.286	226
977.369	-85
977.453	300
977.536	510
977.620	-465
977.703	1162
977.787	-356
977.870	1312
977.953	1854
978.037	144
978.120	3573
978.203	7260
978.287	19431
978.370	8239
978.453	2077
978.536	1384
978.620	4456
978.703	10908
978.786	4896
978.869	481
978.952	-1398
979.035	1774
979.118	-496
979.201	-498
979.284	258
979.367	-686
979.450	94
979.533	-614
979.616	-632
979.699	-173
979.782	-198
979.865	-136
979.948	-779
980.030	108
980.113	-287
980.196	-944
980.279	-247
980.361	-203
980.444	-365
980.526	-425
980.609	-444
980.692	-43
980.774	84
980.857	-700
980.939	611
981.022	-562
981.104	-480
981.187	-48
981.269	124
981.352	230
981.434	-136
981.516	-701
981.599	526
981.681	172
981.763	-28
981.846	-306
981.928	-47
982.010	-83
982.092	-823
982.174	746
982.256	-365
982.339	-614
982.421	-47
982.503	-256
982.585	-1497
982.667	10
982.749	-446
982.831	-296
982.913	-904
982.995	1451
983.077	786
983.158	3406
983.240	-230
983.322	805
983.404	638
983.486	-408
983.568	235
983.649	-286
983.731	-315
983.813	-431
983.894	-241
983.976	-841
984.058	-1458
984.139	1143
984.221	-1909
984.302	129
984.384	291
984.465	-523
984.547	22
984.628	-923
984.710	-560
984.791	371
984.872	-1448
984.954	-16
985.035	97
985.116	-1409
985.198	-420
985.279	1176
985.360	-434
985.441	-368
985.522	-57
985.604	438
985.685	-1771
985.766	410
985.847	787
985.928	-756
986.009	-206
986.090	91
986.171	-478
986.252	-1208
986.333	-857
986.414	-612
986.495	-165
986.576	423
986.656	-619
986.737	422
986.818	-1106
986.899	-51
986.980	-576
987.060	755
987.141	-791
987.222	558
987.302	-643
987.383	172
987.464	-909
987.544	247
987.625	-593
987.705	795
987.786	232
987.866	660
987.947	24
988.027	10
988.108	-282
988.188	-194
988.268	-327
988.349	-370
988.429	-231
988.509	-187
988.589	-357
988.670	-664
988.750	1070
988.830	-627
988.910	-366
988.990	-184
989.070	-880
989.151	191
989.231	-937
989.311	560
989.391	-31
989.471	124
989.551	-281
989.631	-981
989.711	199
989.791	-18
989.870	-64
989.950	306
990.030	-1009
990.110	0
990.190	-1053
990.269	-810
990.349	-707
990.429	-283
990.509	-419
990.588	-274
990.668	-1304
990.747	-548
990.827	-639
990.907	-465
990.986	-683
991.066	-412
991.145	-886
991.225	-59
991.304	-711
991.383	-150
991.463	-267
991.542	195
991.622	-135
991.701	-521
991.780	-1057
991.859	-754
991.939	-657
992.018	-635
992.097	193
992.176	26
992.256	-347
992.335	-663
992.414	509
992.493	-193
992.572	155
992.651	2629
992.730	637
992.809	451
992.888	-989
992.967	-850
993.046	-773
993.125	-1646
993.203	-370
993.282	114
993.361	119
993.440	314
993.519	-1076
993.597	307
993.676	-1268
993.755	98
993.834	-759
993.912	-1791
993.991	814
994.069	-766
994.148	-553
994.226	-32
994.305	24
994.384	-1098
994.462	-284
994.540	-1150
994.619	-808
994.697	-649
994.776	-712
994.854	31
994.932	-566
995.011	-103
995.089	-299
995.167	-718
995.245	-874
995.324	-1324
995.402	-438
995.480	-1274
995.558	-122
995.636	-1187
995.714	-1150
995.792	703
995.870	-484
995.948	-28
996.026	-332
996.104	-1493
996.182	422
996.260	-58
996.338	-222
996.416	-1205
996.494	-284
996.572	477
996.649	-531
996.727	-873
996.805	-1340
996.883	124
996.960	-923
997.038	11
997.116	-508
997.193	-2052
997.271	-734
997.348	-1569
997.426	-992
997.504	-1729
997.581	-151
997.658	-434
997.736	-1573
997.813	-1619
997.891	-16
997.968	-1698
998.046	-537
998.123	-913
998.200	-574
998.277	-887
998.355	-544
998.432	-2083
998.509	-775
998.586	-535
998.663	-1212
998.741	-1185
998.818	-1482
998.895	-1021
998.972	-925
999.049	-859
999.126	-610
999.203	-697
999.280	-1068
999.357	-1094
999.434	-920
999.511	-766
999.587	-96
999.664	-759
999.741	244
999.818	199
999.895	-1616
999.971	-526
1000.048	-1011
1000.125	831
1000.202	-280
1000.278	55
1000.355	-763
1000.431	-1076
1000.508	-2139
1000.584	-355
1000.661	-484
1000.738	-101
1000.814	-2133
1000.890	64
1000.967	-1377
1001.043	646
1001.120	-1483
1001.196	-1322
1001.272	-862
1001.349	-765
1001.425	-532
1001.501	-1337
1001.577	-1583
1001.654	-460
1001.730	-2008
1001.806	-797
1001.882	-1742
1001.958	-208
1002.034	-670
1002.110	-896
1002.186	-1518
1002.262	-1294
1002.338	-1750
1002.414	-494
1002.490	-544
1002.566	-984
1002.642	-1810
1002.718	333
1002.794	-693
1002.870	-225
1002.945	-1180
1003.021	-1052
1003.097	-2000
1003.173	-521
1003.248	-1428
1003.324	-68
1003.400	33
1003.475	-1114
1003.551	-850
1003.626	-728
1003.702	-777
1003.777	-1192
1003.853	-1510
1003.928	-1316
1004.004	-1514
1004.079	-380
1004.155	-1026
1004.230	-1818
1004.305	-36
1004.381	-1029
1004.456	-723
1004.531	-823
1004.607	-879
1004.682	-911
1004.757	-237
1004.832	-531
1004.907	-714
1004.982	-592
1005.057	232
1005.133	-972
1005.208	-1316
1005.283	-1505
1005.358	-961
1005.433	-1670
1005.508	-700
1005.583	-713
1005.657	674
1005.732	828
1005.807	-1444
1005.882	-388
1005.957	-590
1006.032	-807
1006.106	-637
1006.181	-1547
1006.256	-832
1006.331	-1078
1006.405	-1604
1006.480	-958
1006.554	-389
1006.629	-1117
1006.704	-1269
1006.778	-1362
1006.853	-808
1006.927	-647
1007.002	-1507
1007.076	-952
1007.150	-1753
1007.225	-1228
1007.299	-784
1007.373	-1710
1007.448	-993
1007.522	-260
1007.596	-988
1007.671	-1843
1007.745	-1579
1007.819	-1237
1007.893	-1737
1007.967	-401
1008.041	-2251
1008.115	-820
1008.190	-1959
1008.264	-403
1008.338	-2479
1008.412	-1401
1008.486	-2067
1008.560	-1050
1008.633	-1739
1008.707	-1296
1008.781	-1054
1008.855	-1311
1008.929	-1528
1009.003	-1285
1009.076	-2391
1009.150	-1480
1009.224	-1338
1009.298	-952
1009.371	-2139
1009.445	-637
1009.519	-524
1009.592	-1902
1009.666	-904
1009.739	-923
1009.813	-2008
1009.886	-726
1009.960	-2581
1010.033	-1824
1010.107	-1784
1010.180	-1619
1010.253	-1818
1010.327	-2055
1010.400	-1156
1010.473	-1636
1010.547	-560
1010.620	-1441
1010.693	-1392
1010.766	-1428
1010.840	-1107
1010.913	-1393
1010.986	-1911
1011.059	-957
1011.132	-1172
1011.205	-151
1011.278	-1557
1011.351	-1383
1011.424	-666
1011.497	-1970
1011.570	-1026
1011.643	-1458
1011.716	-1382
1011.789	-1106
1011.862	-1910
1011.934	-315
1012.007	-2193
1012.080	-910
1012.153	-707
1012.225	-361
1012.298	-1470
1012.371	-1120
1012.443	-798
1012.516	-1923
1012.588	-1473
1012.661	-330
1012.733	-1465
1012.806	-456
1012.879	-1664
1012.951	-1625
1013.023	-1201
1013.096	-1263
1013.168	-2409
1013.241	-1742
1013.313	-2130
1013.385	-1130
1013.458	-1650
1013.530	-85
1013.602	-1467
1013.674	-1332
1013.746	-2262
1013.819	-1508
1013.891	-1352
1013.963	-2039
1014.035	-1013
1014.107	-1625
1014.179	-403
1014.251	-1744
1014.323	-1102
1014.395	-569
1014.467	-1068
1014.539	-630
1014.611	-795
1014.683	-831
1014.754	-1186
1014.826	-1229
1014.898	-1331
1014.970	-2119
1015.042	-824
1015.113	-657
1015.185	-1875
1015.257	-1204
1015.328	-981
1015.400	-981
1015.471	-1094
1015.543	-2271
1015.615	-1073
1015.686	-1501
1015.757	-1652
1015.829	-1069
1015.901	-1801
1015.972	-962
1016.043	-1362
1016.115	-1674
1016.186	-1998
1016.257	-1671
1016.328	-982
1016.400	-136
1016.471	-2356
1016.542	-1485
1016.613	-1381
1016.685	-958
1016.756	-2198
1016.827	-1900
1016.898	-1712
1016.969	-1048
1017.040	-1508
1017.111	-1314
1017.182	-1686
1017.253	-631
1017.324	-949
1017.395	-1628
1017.466	-1134
1017.537	-1464
1017.608	-1931
1017.678	-1355
1017.749	-980
1017.820	-1329
1017.891	-1920
1017.961	-1504
1018.032	-1231
1018.103	-1991
1018.173	-1457
1018.244	-1552
1018.315	-1131
1018.385	-677
1018.456	-1630
1018.526	-588
1018.597	-1546
1018.667	-992
1018.738	-586
1018.808	-939
1018.878	-1229
1018.949	-680
1019.019	-1843
1019.089	-1435
1019.160	-951
1019.230	-2687
1019.300	-1144
1019.371	-1998
1019.441	-1393
1019.511	-874
1019.581	-1358
1019.651	-1975
1019.721	-1369
1019.791	-1061
1019.861	-1690
1019.931	-974
1020.001	-1688
1020.071	-961
1020.141	-1679
1020.211	-896
1020.281	-2096
1020.351	-1829
1020.421	-1473
1020.491	-518
1020.560	-1642
1020.630	-1190
1020.700	-1919
1020.770	-1654
1020.839	-1673
1020.909	-399
1020.979	-1694
1021.048	-1112
1021.118	-1348
1021.187	-1458
1021.257	-1717
1021.326	-861
1021.396	-2005
1021.465	-913
1021.535	-1203
1021.604	-1705
1021.674	-1903
1021.743	-1822
1021.812	-1595
1021.882	-1152
1021.951	-1253
1022.020	-684
1022.089	-1379
1022.159	-1723
1022.228	-1671
1022.297	-1222
1022.366	-1471
1022.435	-816
1022.504	-1808
1022.573	-1451
1022.642	-1607
1022.711	-1232
1022.781	-1421
1022.849	-819
1022.918	-1341
1022.987	-1332
1023.056	-1496
1023.125	-1430
1023.194	-1130
1023.263	-1411
1023.331	-1560
1023.400	-2049
1023.469	-1567
1023.538	-527
1023.606	-1997
1023.675	-838
1023.744	-2285
1023.812	-683
1023.881	-1278
1023.949	-1493
1024.018	-1096
1024.086	-1658
1024.155	-1449
1024.223	-1286
1024.292	-1398
1024.360	-1360
1024.429	-1475
1024.497	-1419
1024.565	-1123
1024.634	-521
1024.702	-1456
1024.770	-1373
1024.838	-1988
1024.907	-835
1024.975	-1918
1025.043	-1649
1025.111	-2266
1025.179	-1419
1025.247	-1214
1025.315	-1378
1025.383	-1556
1025.451	-1294
1025.519	-1605
1025.587	-1368
1025.655	-1694
1025.723	-1322
1025.791	-722
1025.859	-517
1025.927	-1485
1025.995	-1845
1026.062	-1905
1026.130	-1204
1026.198	-1211
1026.266	-1840
1026.333	-1499
1026.401	-635
1026.469	-1123
1026.536	-911
1026.604	-1277
1026.671	-1989
1026.739	-1947
1026.806	-1272
1026.874	-1387
1026.941	-1746
1027.009	-1571
1027.076	-2270
1027.144	-1292
1027.211	-1861
1027.278	-1522
1027.345	-2031
1027.413	-1407
1027.480	-1657
1027.547	-1590
1027.614	-1711
1027.682	-836
1027.749	-1169
1027.816	-1915
1027.883	-1574
1027.950	-1051
1028.017	-2006
1028.084	-1114
1028.151	-2164
1028.218	-1388
1028.285	-1271
1028.352	-1366
1028.419	-1567
1028.486	-1787
1028.553	-1219
1028.619	-2098
1028.686	-1980
1028.753	-2274
1028.820	-2073
1028.886	-1398
1028.953	-1119
1029.020	-1521
1029.086	-1392
1029.153	-1477
1029.220	-2165
1029.286	-1376
1029.353	-1252
1029.419	-1274
1029.486	-1699
1029.552	-2816
1029.619	-1697
1029.685	-1290
1029.751	-1173
1029.818	-796
1029.884	-1529
1029.951	-296
1030.017	-1125
1030.083	-1535
1030.149	-1349
1030.216	-1113
1030.282	-1409
1030.348	-1594
1030.414	-1353
1030.480	-1126
1030.546	-1320
1030.612	-2182
1030.678	-2312
1030.744	-1830
1030.810	-1267
1030.876	-1615
1030.942	-1979
1031.008	-2094
1031.074	-1429
1031.140	-2179
1031.206	-2105
1031.272	-2431
1031.337	-1545
1031.403	-1059
1031.469	-1645
1031.534	-1302
1031.600	-1587
1031.666	-2306
1031.731	-2128
1031.797	-1729
1031.863	-912
1031.928	-1687
1031.994	-1840
1032.059	-1279
1032.125	-2052
1032.190	-1322
1032.256	-1821
1032.321	-2319
1032.386	-1229
1032.452	-1899
1032.517	-1164
1032.582	-2400
1032.647	-2313
1032.713	-2312
1032.778	-1484
1032.843	-2210
1032.908	-1838
1032.974	-2461
1033.039	-1752
1033.104	-1841
1033.169	-1884
1033.234	-1720
1033.299	-1038
1033.364	-1305
1033.429	-1793
1033.494	-1199
1033.559	-1777
1033.624	-2328
1033.688	-1308
1033.753	-1917
1033.818	-1591
1033.883	-2080
1033.948	-1025
1034.013	-1593
1034.077	-1398
1034.142	-1828
1034.207	-1236
1034.271	-1313
1034.336	-408
1034.400	199
1034.465	-166
1034.530	-1029
1034.594	-1497
1034.658	-1600
1034.723	-1321
1034.787	-1709
1034.852	-2323
1034.916	-1859
1034.981	-1536
1035.045	-1665
1035.109	-1399
1035.173	-1686
1035.238	-2005
1035.302	-1848
1035.366	-1536
1035.430	-1870
1035.495	-2560
1035.559	-1643
1035.623	-1563
1035.687	-1959
1035.751	-2462
1035.815	-1869
1035.879	-1369
1035.943	-1825
1036.007	-1556
1036.071	-2230
1036.135	-1946
1036.198	-1860
1036.262	-1965
1036.326	-1754
1036.390	-1825
1036.454	-1152
1036.517	-1982
1036.581	-1820
1036.645	-1236
1036.709	-1731
1036.772	-1338
1036.836	-2339
1036.900	-1336
1036.963	-2291
1037.026	-1719
1037.090	-1833
1037.154	-2131
1037.217	-1974
1037.280	-1596
1037.344	-1965
1037.407	-2079
1037.471	-2667
1037.534	-2131
1037.597	-1270
1037.661	-1749
1037.724	-2134
1037.787	-2071
1037.850	-2483
1037.913	-996
1037.977	-1073
1038.040	-1592
1038.103	-1933
1038.166	-1870
1038.229	-1293
1038.292	-1969
1038.355	-1019
1038.418	-1506
1038.481	-1259
1038.544	-1266
1038.607	-1645
1038.670	-2117
1038.732	-2034
1038.795	-1089
1038.858	-2167
1038.921	-2180
1038.984	-1557
1039.046	-2022
1039.109	-1435
1039.172	-1289
1039.234	-2220
1039.297	-1256
1039.360	-1778
1039.422	-2135
1039.485	-1775
1039.547	-1369
1039.610	-995
1039.672	-1882
1039.734	-1441
1039.797	-1303
1039.859	-1758
1039.922	-1285
1039.984	-1505
1040.046	-2418
1040.109	-2404
1040.171	-1852
1040.233	-2132
1040.295	-1466
1040.358	-1762
1040.420	-1655
1040.482	-2781
1040.544	-858
1040.606	-2096
1040.668	-1075
1040.730	-2117
1040.792	-1307
1040.854	-2089
1040.916	-2443
1040.978	-2564
1041.040	-1667
1041.102	-1396
1041.164	-1086
1041.225	-2494
1041.287	-2144
1041.349	-1650
1041.411	-2118
1041.472	-2573
1041.534	-1563
1041.596	-1326
1041.657	-2432
1041.719	-1650
1041.781	-1251
1041.842	-2101
1041.904	-1050
1041.965	-2025
1042.027	-1464
1042.088	-1415
1042.150	-1889
1042.211	-2018
1042.272	-2352
1042.334	-1565
1042.395	-2288
1042.456	-3241
1042.518	-1512
1042.579	-2417
1042.640	-1484
1042.701	-2332
1042.763	-2586
1042.824	-2741
1042.885	-1867
1042.946	-1880
1043.007	-2541
1043.068	-1887
1043.129	-2081
1043.190	-1863
1043.251	-1856
1043.312	-1956
1043.373	-1161
1043.434	-1695
1043.495	-1468
1043.556	-2064
1043.616	-1749
1043.677	-2122
1043.738	-1670
1043.799	-1491
1043.859	-1937
1043.920	-1973
1043.981	-1153
1044.041	-1972
1044.102	-1671
1044.162	-2287
1044.223	-2225
1044.284	-2254
1044.344	-2264
1044.405	-1778
1044.465	-1627
1044.525	-2420
1044.586	-1747
1044.646	-1245
1044.707	-1058
1044.767	-1113
1044.827	-1154
1044.887	-1361
1044.948	-1380
1045.008	-1948
1045.068	-1478
1045.128	-1326
1045.188	-1465
1045.249	-807
1045.309	-698
1045.369	-1481
1045.429	-2064
1045.489	-1386
1045.549	-1549
1045.609	-2067
1045.669	-1757
1045.729	-1879
1045.789	-1967
1045.848	-1526
1045.908	-797
1045.968	-1982
1046.028	-1640
1046.088	-1676
1046.147	-1359
1046.207	-1495
1046.267	-1161
1046.326	-1240
1046.386	-2025
1046.446	-1128
1046.505	-1639
1046.565	-1251
1046.624	-606
1046.684	-1026
1046.743	-733
1046.803	-700
1046.862	-88
1046.922	0
