'Start Wavelength	183.907
'End Wavelength	1046.922
'Gate Delay	5.000
'Gate Width (ms)	1.050
'Laser Output Level	0.000
'X Position	0.000
'Y Position	0.000
'Z Position	0.000
'Grid Point Number	1.000
'Shot Number	100.000
183.907	941.000
183.977	-656.000
184.047	-103
184.116	15
184.186	-47
184.256	636
184.325	-131
184.395	-215
184.465	847
184.534	-224
184.604	-408
184.674	-413
184.743	-527
184.813	959
184.883	-475
184.952	322
185.022	283
185.092	-305
185.161	-142
185.231	-109
185.301	-355
185.370	286
185.440	-431
185.509	-75
185.579	-15
185.649	-181
185.718	283
185.788	218
185.857	310
185.927	-457
185.996	-883
186.066	-248
186.136	395
186.205	-137
186.275	-263
186.344	-246
186.414	-4
186.483	-46
186.553	452
186.622	197
186.692	-550
186.761	-371
186.831	152
186.900	57
186.970	156
187.039	-27
187.109	291
187.178	297
187.248	750
187.317	180
187.387	-485
187.456	-79
187.526	239
187.595	263
187.664	372
187.734	175
187.803	-117
187.873	476
187.942	641
188.012	388
188.081	-630
188.150	-26
188.220	114
188.289	-6
188.358	177
188.428	194
188.497	-673
188.567	592
188.636	608
188.705	24
188.775	-429
188.844	-590
188.913	456
188.983	486
189.052	-659
189.121	413
189.191	-7
189.260	315
189.329	1008
189.399	-27
189.468	-130
189.537	34
189.606	724
189.676	-720
189.745	1026
189.814	529
189.883	-787
189.953	601
190.022	473
190.091	202
190.161	1606
190.230	56
190.299	29
190.368	153
190.437	-46
190.507	-310
190.576	-429
190.645	662
190.714	-101
190.783	9
190.853	491
190.922	431
190.991	-405
191.060	-189
191.129	-19
191.198	333
191.268	1058
191.337	164
191.406	241
191.475	-166
191.544	-68
191.613	320
191.682	-463
191.752	-556
191.821	-141
191.890	-240
191.959	86
192.028	298
192.097	276
192.166	-59
192.235	-649
192.304	793
192.373	-205
192.442	519
192.511	40
192.580	-27
192.650	-288
192.719	-303
192.788	549
192.857	80
192.926	186
192.995	317
193.064	-758
193.133	1056
193.202	141
193.271	99
193.340	1003
193.409	980
193.478	986
193.547	1192
193.615	1462
193.684	1814
193.753	815
193.822	814
193.891	224
193.960	879
194.029	103
194.098	175
194.167	-377
194.236	1168
194.305	334
194.374	161
194.443	123
194.512	243
194.580	530
194.649	1259
194.718	1232
194.787	496
194.856	89
194.925	384
194.994	745
195.062	384
195.131	-392
195.200	1065
195.269	467
195.338	575
195.407	920
195.475	871
195.544	1001
195.613	562
195.682	-482
195.751	70
195.819	925
195.888	899
195.957	807
196.026	674
196.094	1005
196.163	763
196.232	403
196.301	1003
196.369	814
196.438	539
196.507	25
196.576	424
196.644	-112
196.713	167
196.782	87
196.850	816
196.919	13
196.988	297
197.056	-194
197.125	-31
197.194	673
197.262	-166
197.331	-401
197.400	260
197.468	59
197.537	384
197.606	-192
197.674	1039
197.743	913
197.812	249
197.880	461
197.949	795
198.017	488
198.086	653
198.155	663
198.223	429
198.292	1847
198.360	1165
198.429	2
198.497	399
198.566	302
198.635	1101
198.703	12
198.772	939
198.840	822
198.909	1338
198.977	367
199.046	660
199.114	598
199.183	497
199.251	745
199.320	-92
199.388	428
199.457	419
199.525	-71
199.594	433
199.662	148
199.731	394
199.799	8
199.867	389
199.936	-227
200.004	43
200.073	859
200.141	118
200.210	-245
200.278	-316
200.346	485
200.415	377
200.483	172
200.552	1093
200.620	40
200.688	91
200.757	527
200.825	199
200.893	-91
200.962	1075
201.030	413
201.098	-4
201.167	723
201.235	846
201.303	747
201.372	110
201.440	751
201.508	560
201.577	680
201.645	212
201.713	590
201.781	-6
201.850	865
201.918	291
201.986	86
202.055	1095
202.123	-313
202.191	638
202.259	1090
202.327	-194
202.396	16
202.464	1015
202.532	272
202.600	2974
202.669	1856
202.737	944
202.805	-99
202.873	594
202.941	41
203.009	-24
203.078	-104
203.146	282
203.214	532
203.282	-485
203.350	851
203.418	774
203.487	1012
203.555	209
203.623	158
203.691	119
203.759	-653
203.827	1132
203.895	918
203.963	928
204.031	364
204.099	473
204.168	579
204.236	1129
204.304	1201
204.372	657
204.440	425
204.508	-56
204.576	22
204.644	818
204.712	-8
204.780	110
204.848	717
204.916	1039
204.984	451
205.052	129
205.120	190
205.188	616
205.256	834
205.324	407
205.392	205
205.460	182
205.528	178
205.596	614
205.664	-141
205.732	-44
205.799	2106
205.867	1895
205.935	286
206.003	616
206.071	415
206.139	668
206.207	524
206.275	463
206.343	115
206.411	1036
206.478	143
206.546	65
206.614	219
206.682	222
206.750	643
206.818	272
206.885	747
206.953	-1011
207.021	737
207.089	692
207.157	-65
207.225	721
207.292	508
207.360	437
207.428	1070
207.496	-385
207.563	186
207.631	455
207.699	-82
207.767	-15
207.834	749
207.902	497
207.970	810
208.038	781
208.105	675
208.173	590
208.241	170
208.309	876
208.376	1257
208.444	1243
208.512	1107
208.579	278
208.647	744
208.715	1665
208.782	576
208.850	321
208.918	-169
208.985	630
209.053	1115
209.120	148
209.188	637
209.256	780
209.323	14
209.391	712
209.459	1163
209.526	1177
209.594	392
209.661	517
209.729	111
209.796	594
209.864	491
209.932	-930
209.999	1291
210.067	1044
210.134	1001
210.202	1395
210.269	1792
210.337	236
210.404	218
210.472	123
210.539	854
210.607	1060
210.674	1187
210.742	1636
210.809	1236
210.877	1218
210.944	1617
211.012	282
211.079	2648
211.146	671
211.214	672
211.281	-557
211.349	1340
211.416	1504
211.484	1645
211.551	-182
211.618	1385
211.686	1049
211.753	38
211.821	1338
211.888	91
211.955	734
212.023	382
212.090	963
212.157	868
212.225	915
212.292	2024
212.359	3956
212.427	6925
212.494	4071
212.561	1516
212.629	851
212.696	772
212.763	1774
212.831	1235
212.898	587
212.965	1058
213.032	137
213.100	927
213.167	547
213.234	1438
213.301	1032
213.369	1246
213.436	513
213.503	538
213.570	897
213.638	1116
213.705	894
213.772	559
213.839	1937
213.906	1736
213.973	2040
214.041	688
214.108	1269
214.175	1257
214.242	1337
214.309	1586
214.376	1384
214.444	1476
214.511	1405
214.578	430
214.645	1742
214.712	1361
214.779	1092
214.846	761
214.913	1460
214.980	1388
215.048	1862
215.115	2687
215.182	1885
215.249	1270
215.316	854
215.383	1672
215.450	688
215.517	1285
215.584	1316
215.651	935
215.718	952
215.785	1545
215.852	1526
215.919	2049
215.986	1930
216.053	1730
216.120	735
216.187	1004
216.254	1881
216.321	1211
216.388	1170
216.455	1374
216.522	1196
216.589	2221
216.656	3604
216.722	3348
216.789	2092
216.856	2315
216.923	1511
216.990	2379
217.057	1745
217.124	1887
217.191	1388
217.258	2785
217.324	2800
217.391	3209
217.458	2154
217.525	812
217.592	1845
217.659	938
217.725	1582
217.792	1892
217.859	3017
217.926	997
217.993	1232
218.059	631
218.126	813
218.193	836
218.260	468
218.327	405
218.393	630
218.460	219
218.527	1139
218.594	954
218.660	2066
218.727	2574
218.794	340
218.860	1615
218.927	272
218.994	916
219.061	1033
219.127	1096
219.194	1815
219.261	825
219.327	724
219.394	1531
219.461	45
219.527	774
219.594	2507
219.661	894
219.727	142
219.794	980
219.860	517
219.927	1135
219.994	1383
220.060	2756
220.127	1300
220.193	1351
220.260	1679
220.326	2921
220.393	3215
220.460	5036
220.526	2865
220.593	1488
220.659	2610
220.726	2286
220.792	5577
220.859	4540
220.925	6319
220.992	8016
221.058	7685
221.125	6689
221.191	4485
221.258	2215
221.324	1860
221.391	681
221.457	1482
221.524	1479
221.590	2484
221.657	4504
221.723	3264
221.789	3509
221.856	3885
221.922	1437
221.989	1831
222.055	1153
222.121	5
222.188	1787
222.254	512
222.321	758
222.387	456
222.453	453
222.520	714
222.586	1206
222.652	1442
222.719	952
222.785	1168
222.851	304
222.918	1034
222.984	633
223.050	1162
223.116	808
223.183	2078
223.249	-1071
223.315	240
223.382	239
223.448	767
223.514	166
223.580	833
223.647	594
223.713	452
223.779	651
223.845	1028
223.911	1405
223.978	-527
224.044	1166
224.110	872
224.176	1178
224.242	893
224.309	-738
224.375	1193
224.441	389
224.507	321
224.573	-514
224.639	888
224.705	241
224.772	469
224.838	981
224.904	1483
224.970	286
225.036	817
225.102	-293
225.168	1477
225.234	362
225.300	63
225.366	1097
225.432	987
225.499	466
225.565	1122
225.631	1271
225.697	852
225.763	1542
225.829	1696
225.895	1392
225.961	2938
226.027	1937
226.093	2014
226.159	3454
226.225	3852
226.291	8411
226.357	13747
226.423	8281
226.489	4447
226.554	2606
226.620	3684
226.686	3583
226.752	6001
226.818	8144
226.884	16254
226.950	16065
227.016	7072
227.082	4342
227.148	3155
227.214	3490
227.279	3674
227.345	3168
227.411	2533
227.477	1339
227.543	2643
227.609	2714
227.674	3216
227.740	1475
227.806	2022
227.872	1345
227.938	1453
228.003	4621
228.069	2016
228.135	1226
228.201	1114
228.267	730
228.332	1686
228.398	1674
228.464	1533
228.530	630
228.595	1195
228.661	654
228.727	1445
228.792	2777
228.858	576
228.924	127
228.990	3086
229.055	439
229.121	2170
229.187	1446
229.252	1541
229.318	931
229.384	1703
229.449	1637
229.515	-144
229.581	717
229.646	2530
229.712	1396
229.777	3025
229.843	3822
229.909	2802
229.974	3604
230.040	3246
230.105	1653
230.171	1650
230.236	3192
230.302	4603
230.368	3596
230.433	2236
230.499	2437
230.564	4564
230.630	1476
230.695	1547
230.761	2083
230.826	-332
230.892	2774
230.957	444
231.023	998
231.088	1470
231.154	1220
231.219	1421
231.284	1810
231.350	3321
231.415	605
231.481	1009
231.546	731
231.612	817
231.677	488
231.742	-201
231.808	2214
231.873	663
231.939	-526
232.004	2767
232.069	2554
232.135	1031
232.200	373
232.265	1975
232.331	873
232.396	1492
232.461	336
232.527	313
232.592	126
232.657	644
232.723	2028
232.788	1462
232.853	1144
232.918	660
232.984	496
233.049	-51
233.114	1509
233.179	1859
233.245	3209
233.310	3402
233.375	49
233.440	1494
233.506	2033
233.571	2186
233.636	1812
233.701	1146
233.766	2166
233.832	2808
233.897	2243
233.962	1035
234.027	2332
234.092	1461
234.157	1441
234.222	965
234.288	1976
234.353	6239
234.418	6786
234.483	4106
234.548	3035
234.613	2460
234.678	1962
234.743	1566
234.808	7128
234.873	4018
234.938	2771
235.004	1622
235.069	1574
235.134	1060
235.199	2042
235.264	1475
235.329	-289
235.394	1822
235.459	2012
235.524	1401
235.589	2616
235.654	1254
235.719	-11
235.784	1567
235.849	897
235.913	3897
235.978	3174
236.043	4819
236.108	1924
236.173	1356
236.238	2208
236.303	1243
236.368	999
236.433	2595
236.498	3568
236.563	3542
236.627	6094
236.692	20780
236.757	18131
236.822	8405
236.887	5789
236.952	5045
237.017	2148
237.081	4643
237.146	4324
237.211	9822
237.276	19633
237.341	32215
237.405	16893
237.470	8045
237.535	5347
237.600	3709
237.664	3565
237.729	1628
237.794	3033
237.859	7252
237.923	4089
237.988	2832
238.053	4603
238.118	3945
238.182	8929
238.247	9732
238.312	4419
238.376	3515
238.441	2049
238.506	4021
238.570	1469
238.635	3033
238.700	1310
238.764	1580
238.829	3111
238.893	5047
238.958	2624
239.023	2453
239.087	1624
239.152	1972
239.216	890
239.281	2188
239.346	1817
239.410	1434
239.475	2043
239.539	8653
239.604	6465
239.668	3282
239.733	1234
239.797	1743
239.862	2321
239.926	6029
239.991	3054
240.055	1551
240.120	1303
240.184	1842
240.249	588
240.313	836
240.378	792
240.442	4869
240.507	8511
240.571	2803
240.635	3627
240.700	5913
240.764	2577
240.829	1431
240.893	-77
240.957	1605
241.022	4473
241.086	8926
241.151	3799
241.215	1359
241.279	2889
241.344	3356
241.408	2765
241.472	1395
241.537	2362
241.601	3211
241.665	803
241.730	1510
241.794	2680
241.858	2040
241.922	2679
241.987	2024
242.051	1762
242.115	1385
242.179	2016
242.244	899
242.308	2714
242.372	1901
242.436	2736
242.501	2722
242.565	1010
242.629	1457
242.693	1519
242.757	890
242.822	1902
242.886	2517
242.950	2086
243.014	779
243.078	2162
243.142	2879
243.206	1713
243.271	2308
243.335	2155
243.399	3115
243.463	8492
243.527	25553
243.591	8974
243.655	4130
243.719	2115
243.783	3810
243.847	4213
243.911	5461
243.975	7623
244.040	5968
244.104	5273
244.168	2317
244.232	3499
244.296	6287
244.360	5086
244.424	2976
244.488	2167
244.552	2180
244.615	500
244.679	1993
244.743	2244
244.807	1665
244.871	2748
244.935	2377
244.999	109
245.063	2025
245.127	2430
245.191	3609
245.255	3429
245.319	4007
245.383	2703
245.446	3944
245.510	1414
245.574	2775
245.638	3225
245.702	1751
245.766	6855
245.829	5296
245.893	2216
245.957	1485
246.021	3370
246.085	2805
246.149	4090
246.212	9958
246.276	13593
246.340	6220
246.404	4752
246.467	4906
246.531	6139
246.595	4777
246.659	4658
246.722	3152
246.786	5578
246.850	4722
246.913	6025
246.977	2239
247.041	2183
247.104	3946
247.168	3268
247.232	8216
247.295	17073
247.359	10709
247.423	4400
247.486	7664
247.550	4979
247.614	3571
247.677	4988
247.741	3955
247.804	2154
247.868	3254
247.932	6385
247.995	16692
248.059	6870
248.122	3630
248.186	5413
248.249	7743
248.313	25703
248.376	29040
248.440	18933
248.503	7950
248.567	7451
248.630	8354
248.694	12571
248.757	15682
248.821	28062
248.884	20266
248.948	15720
249.011	23104
249.075	32160
249.138	29261
249.202	13047
249.265	7791
249.328	8058
249.392	5835
249.455	6350
249.519	4136
249.582	4859
249.645	9108
249.709	6499
249.772	3656
249.835	3480
249.899	3812
249.962	4605
250.025	4102
250.089	10209
250.152	14766
250.215	7352
250.279	5220
250.342	5958
250.405	5715
250.468	4528
250.532	5168
250.595	9345
250.658	23542
250.721	41733
250.785	17149
250.848	9943
250.911	5727
250.974	6152
251.038	8017
251.101	17129
251.164	8610
251.227	8526
251.290	7398
251.354	9329
251.417	32047
251.480	35791
251.543	22464
251.606	59348
251.669	49090
251.732	19766
251.795	21580
251.859	21020
251.922	39773
251.985	25560
252.048	12423
252.111	8851
252.174	8459
252.237	15619
252.300	33871
252.363	31423
252.426	54667
252.489	26448
252.552	16229
252.615	10319
252.678	10560
252.741	23801
252.804	27868
252.867	53339
252.930	38794
252.993	23585
253.056	14692
253.119	11536
253.182	8305
253.245	10092
253.308	9848
253.371	9062
253.434	9806
253.497	10502
253.559	15220
253.622	12412
253.685	13907
253.748	16694
253.811	8399
253.874	8893
253.937	8141
254.000	6676
254.062	10863
254.125	17890
254.188	19142
254.251	16467
254.314	7526
254.376	12959
254.439	14842
254.502	13248
254.565	11073
254.628	22570
254.690	14697
254.753	7717
254.816	6507
254.878	7002
254.941	10949
255.004	13906
255.067	6282
255.129	6210
255.192	3806
255.255	2706
255.317	5508
255.380	3013
255.443	2071
255.505	2365
255.568	1763
255.631	3590
255.693	2857
255.756	2241
255.819	2758
255.881	2140
255.944	2509
256.006	1624
256.069	2184
256.132	1932
256.194	3356
256.257	7479
256.319	5499
256.382	5341
256.444	4085
256.507	2745
256.569	2163
256.632	2932
256.694	4203
256.757	12283
256.819	34634
256.882	15471
256.944	6789
257.007	6809
257.069	5659
257.132	3738
257.194	4029
257.257	2731
257.319	2979
257.381	3450
257.444	10277
257.506	36755
257.569	45189
257.631	19871
257.693	12106
257.756	6351
257.818	5773
257.880	3834
257.943	4157
258.005	2369
258.067	4143
258.130	3792
258.192	3507
258.254	7182
258.317	5051
258.379	3601
258.441	7915
258.503	9273
258.566	9407
258.628	13606
258.690	2852
258.753	4273
258.815	8571
258.877	4120
258.939	3184
259.001	2842
259.064	2370
259.126	3386
259.188	4585
259.250	3578
259.312	3345
259.375	8116
259.437	6018
259.499	3029
259.561	1823
259.623	3677
259.685	4800
259.747	3708
259.809	8670
259.872	17770
259.934	25821
259.996	31851
260.058	11070
260.120	3814
260.182	3396
260.244	2744
260.306	1606
260.368	3097
260.430	2229
260.492	9272
260.554	15376
260.616	6384
260.678	13280
260.740	18909
260.802	5279
260.864	4904
260.926	2668
260.988	3911
261.050	3636
261.112	13587
261.174	29002
261.236	17582
261.298	5970
261.359	7511
261.421	12509
261.483	3705
261.545	4966
261.607	1810
261.669	3237
261.731	5363
261.793	13400
261.854	6124
261.916	5492
261.978	4871
262.040	6797
262.102	2923
262.164	4278
262.225	4004
262.287	3008
262.349	8052
262.411	6813
262.472	3695
262.534	4648
262.596	11560
262.658	4880
262.719	1717
262.781	4210
262.843	10485
262.904	5186
262.966	4157
263.028	4013
263.090	17157
263.151	47657
263.213	21143
263.275	14656
263.336	5869
263.398	4282
263.459	1843
263.521	3194
263.583	7621
263.644	7114
263.706	4032
263.767	1126
263.829	2077
263.891	1443
263.952	2373
264.014	1444
264.075	6571
264.137	21383
264.198	8335
264.260	2220
264.321	3589
264.383	8455
264.444	28071
264.506	8911
264.567	4628
264.629	9756
264.690	23666
264.752	9114
264.813	4581
264.875	2810
264.936	4271
264.998	4044
265.059	1836
265.120	2348
265.182	3899
265.243	17096
265.305	20083
265.366	5966
265.427	3264
265.489	3863
265.550	2033
265.611	3246
265.673	3296
265.734	3721
265.795	2829
265.857	2015
265.918	1901
265.979	5462
266.040	27699
266.102	28327
266.163	8787
266.224	9155
266.286	5041
266.347	2258
266.408	2602
266.469	2776
266.530	2597
266.592	1619
266.653	5351
266.714	10468
266.775	3476
266.836	2491
266.898	1663
266.959	6305
267.020	5377
267.081	3279
267.142	2475
267.203	1642
267.264	778
267.326	2368
267.387	1570
267.448	999
267.509	1415
267.570	2089
267.631	1166
267.692	1180
267.753	1677
267.814	1210
267.875	4765
267.936	12198
267.997	9097
268.058	6816
268.119	3133
268.180	3275
268.241	1757
268.302	2334
268.363	1202
268.424	2603
268.485	2886
268.546	1888
268.607	1489
268.668	1590
268.729	1080
268.790	1610
268.851	2271
268.912	9050
268.972	10027
269.033	5136
269.094	2276
269.155	1773
269.216	1337
269.277	2174
269.338	1787
269.398	1700
269.459	2789
269.520	4583
269.581	5317
269.642	7044
269.702	3469
269.763	2625
269.824	1828
269.885	2933
269.945	6020
270.006	2651
270.067	1040
270.128	1526
270.188	893
270.249	1765
270.310	737
270.370	1114
270.431	1828
270.492	1263
270.553	1595
270.613	5369
270.674	11494
270.734	5938
270.795	2509
270.856	4139
270.916	3187
270.977	2208
271.038	3194
271.098	3061
271.159	5788
271.219	5475
271.280	2781
271.340	1510
271.401	2497
271.462	6187
271.522	3962
271.583	2884
271.643	2863
271.704	2098
271.764	3933
271.825	8295
271.885	28029
271.946	38612
272.006	13897
272.066	15442
272.127	29160
272.187	9412
272.248	5357
272.308	6410
272.369	18087
272.429	12023
272.489	10894
272.550	12214
272.610	10848
272.671	8685
272.731	7632
272.791	11247
272.852	6744
272.912	5480
272.972	3466
273.033	2429
273.093	5255
273.153	7315
273.214	5105
273.274	4490
273.334	18714
273.394	33302
273.455	14238
273.515	12298
273.575	28497
273.635	12917
273.696	13387
273.756	27535
273.816	13048
273.876	7442
273.936	11267
273.997	22606
274.057	7978
274.117	5706
274.177	8409
274.237	34755
274.297	32535
274.358	19728
274.418	21571
274.478	19878
274.538	8412
274.598	5870
274.658	15163
274.718	21496
274.778	9772
274.838	5677
274.898	9367
274.958	28872
275.018	26967
275.078	20251
275.138	8727
275.198	4300
275.258	3526
275.318	4605
275.378	9224
275.438	11434
275.498	6769
275.558	12286
275.618	27401
275.678	21400
275.738	15148
275.798	13862
275.858	9016
275.918	3866
275.978	4673
276.038	4371
276.098	2800
276.157	6381
276.217	21621
276.277	10521
276.337	7088
276.397	4555
276.457	5465
276.517	3702
276.576	3163
276.636	2121
276.696	4774
276.756	12851
276.815	11112
276.875	4419
276.935	5685
276.995	5262
277.055	3242
277.114	3456
277.174	4214
277.234	16603
277.293	8263
277.353	5004
277.413	3658
277.472	3653
277.532	4466
277.592	4436
277.651	13689
277.711	28447
277.771	10514
277.830	31063
277.890	29196
277.950	17719
278.009	49214
278.069	21763
278.128	18823
278.188	29754
278.248	14124
278.307	29541
278.367	21001
278.426	6958
278.486	4558
278.545	2848
278.605	3589
278.664	3241
278.724	4421
278.783	10465
278.843	28382
278.902	9723
278.962	5440
279.021	5864
279.081	6130
279.140	5861
279.199	5669
279.259	6430
279.318	4829
279.378	7530
279.437	11080
279.496	38361
279.556	110951
279.615	99483
279.675	29531
279.734	16281
279.793	20647
279.853	29264
279.912	12111
279.971	8256
280.031	6075
280.090	10273
280.149	19127
280.208	19645
280.268	81327
280.327	90819
280.386	24305
280.445	17652
280.505	18861
280.564	10377
280.623	9136
280.682	9794
280.742	17064
280.801	6157
280.860	4575
280.919	4414
280.978	4818
281.037	3921
281.097	3548
281.156	3560
281.215	3726
281.274	4552
281.333	18227
281.392	15821
281.451	4071
281.510	3073
281.569	2552
281.628	3113
281.688	2356
281.747	3676
281.806	4228
281.865	4219
281.924	2404
281.983	3322
282.042	1775
282.101	2002
282.160	2853
282.219	3031
282.278	3277
282.337	11479
282.396	9292
282.454	3201
282.513	5039
282.572	17593
282.631	12349
282.690	4688
282.749	2659
282.808	5001
282.867	4721
282.926	4851
282.985	3545
283.043	3215
283.102	2827
283.161	3922
283.220	8904
283.279	21077
283.338	7778
283.396	4317
283.455	4895
283.514	4471
283.573	8141
283.631	6845
283.690	4287
283.749	4295
283.808	8802
283.866	11212
283.925	4566
283.984	4594
284.043	6968
284.101	7411
284.160	4163
284.219	9071
284.277	6826
284.336	8769
284.395	25086
284.453	23608
284.512	10085
284.570	13107
284.629	13300
284.688	10338
284.746	12574
284.805	14822
284.863	18382
284.922	23267
284.981	28356
285.039	41243
285.098	66783
285.156	115760
285.215	143499
285.273	135265
285.332	129342
285.390	86546
285.449	55737
285.507	39516
285.566	29309
285.624	22873
285.683	17283
285.741	14355
285.799	12082
285.858	11066
285.916	9792
285.975	7668
286.033	6523
286.091	6033
286.150	6366
286.208	6214
286.267	6788
286.325	6566
286.383	9562
286.442	9319
286.500	4810
286.558	4439
286.616	3990
286.675	6218
286.733	5090
286.791	4331
286.850	6243
286.908	6729
286.966	12491
287.024	6415
287.083	3567
287.141	2630
287.199	4161
287.257	6399
287.315	4863
287.374	4862
287.432	11528
287.490	9940
287.548	4681
287.606	4031
287.664	3814
287.723	6252
287.781	9504
287.839	4636
287.897	4351
287.955	6105
288.013	7307
288.071	15008
288.129	51353
288.187	143260
288.245	74204
288.303	24145
288.361	14748
288.419	12612
288.477	9324
288.535	6583
288.593	5585
288.651	4854
288.709	3555
288.767	3458
288.825	3623
288.883	3782
288.941	2288
288.999	3104
289.057	3059
289.115	2901
289.173	2735
289.231	3788
289.289	3463
289.346	3130
289.404	3724
289.462	6996
289.520	8108
289.578	4335
289.636	2784
289.694	1673
289.751	2433
289.809	2442
289.867	2801
289.925	3829
289.983	4690
290.040	2778
290.098	2277
290.156	3248
290.214	4916
290.271	2804
290.329	1903
290.387	1946
290.444	1837
290.502	1038
290.560	2774
290.617	3530
290.675	2540
290.733	3176
290.790	3258
290.848	3324
290.906	3218
290.963	3786
291.021	3338
291.078	3177
291.136	3818
291.194	13603
291.251	33134
291.309	10874
291.366	4914
291.424	3643
291.481	3620
291.539	3342
291.596	3413
291.654	1993
291.711	2255
291.769	3132
291.826	7394
291.884	5968
291.941	2830
291.999	2335
292.056	4264
292.114	4399
292.171	2664
292.228	2343
292.286	4212
292.343	8080
292.401	10262
292.458	6932
292.515	4129
292.573	5165
292.630	4313
292.687	5522
292.745	3966
292.802	7663
292.859	22806
292.917	28110
292.974	17205
293.031	6570
293.089	4699
293.146	3132
293.203	3342
293.260	4172
293.318	4354
293.375	11532
293.432	7647
293.489	4122
293.546	3887
293.604	5951
293.661	13339
293.718	38367
293.775	26229
293.832	12830
293.889	8211
293.947	7186
294.004	5387
294.061	7111
294.118	12524
294.175	29177
294.232	45378
294.289	21777
294.346	9163
294.403	7354
294.460	6098
294.517	5276
294.574	5374
294.631	4657
294.688	6463
294.745	13749
294.802	45353
294.859	64181
294.916	27283
294.973	12257
295.030	10788
295.087	8904
295.144	7298
295.201	6122
295.258	4937
295.315	6807
295.372	15576
295.429	29883
295.486	17109
295.542	12266
295.599	27734
295.656	53103
295.713	37221
295.770	34356
295.827	16254
295.883	9874
295.940	8663
295.997	12726
296.054	13280
296.111	8173
296.167	5662
296.224	5029
296.281	3809
296.338	4708
296.394	4823
296.451	5883
296.508	14753
296.564	31320
296.621	26230
296.678	35515
296.734	55994
296.791	28219
296.848	15693
296.904	13439
296.961	25185
297.018	36081
297.074	32145
297.131	13882
297.187	9997
297.244	12795
297.301	28656
297.357	53605
297.414	23532
297.470	10634
297.527	7928
297.583	6527
297.640	7076
297.696	6473
297.753	4703
297.809	4536
297.866	4521
297.922	4553
297.979	4252
298.035	4814
298.092	7986
298.148	18804
298.204	21834
298.261	12621
298.317	19194
298.374	44176
298.430	29910
298.486	13623
298.543	9432
298.599	8861
298.656	9399
298.712	14717
298.768	27893
298.824	20678
298.881	9470
298.937	6028
298.993	6420
299.050	7869
299.106	8260
299.162	6641
299.218	6270
299.275	5454
299.331	6759
299.387	11091
299.443	31018
299.500	36380
299.556	15608
299.612	8779
299.668	8183
299.724	6446
299.780	6712
299.837	6338
299.893	9780
299.949	27308
300.005	37458
300.061	31920
300.117	51237
300.173	30704
300.229	15280
300.285	16662
300.341	20176
300.397	11738
300.453	7507
300.510	6385
300.566	5680
300.622	7146
300.678	9748
300.734	24324
300.790	29157
300.845	34734
300.901	23839
300.957	28109
301.013	27419
301.069	12856
301.125	8962
301.181	9347
301.237	8256
301.293	5801
301.349	5381
301.405	5117
301.461	5040
301.516	7010
301.572	7114
301.628	12565
301.684	13501
301.740	15508
301.796	24492
301.851	18916
301.907	26877
301.963	31635
302.019	39201
302.074	86977
302.130	96053
302.186	52853
302.242	23145
302.297	15864
302.353	14817
302.409	23479
302.464	24020
302.520	19258
302.576	37192
302.631	46870
302.687	31039
302.743	15180
302.798	9523
302.854	7640
302.910	8895
302.965	9347
303.021	15997
303.076	16320
303.132	17953
303.187	24418
303.243	14393
303.299	8867
303.354	6530
303.410	6293
303.465	7034
303.521	6006
303.576	6174
303.632	8289
303.687	12630
303.743	30990
303.798	32389
303.853	15469
303.909	9869
303.964	8633
304.020	11833
304.075	18360
304.130	17181
304.186	27507
304.241	31407
304.297	25668
304.352	15714
304.358	15003
304.407	9238
304.449	8595
304.463	8387
304.518	8563
304.539	8618
304.573	8703
304.629	8254
304.630	8343
304.684	12660
304.720	20715
304.739	24760
304.794	39522
304.811	35033
304.850	24194
304.902	12953
304.905	12235
304.960	8459
304.992	8233
305.015	8086
305.071	8764
305.083	8488
305.126	7431
305.173	6662
305.181	6562
305.236	5501
305.264	6066
305.292	6603
305.347	7426
305.354	7495
305.402	7946
305.445	7824
305.457	7791
305.512	9370
305.535	9928
305.567	10676
305.622	10387
305.626	10620
305.678	16238
305.716	28107
305.733	32299
305.788	42167
305.807	37740
305.843	30141
305.897	31940
305.898	31929
305.953	35192
305.988	25916
306.008	20815
306.063	13342
306.078	12186
306.118	9448
306.168	7052
306.173	6853
306.228	6025
306.259	5865
306.283	5741
306.338	5231
306.349	5303
306.393	5627
306.440	6074
306.448	6198
306.503	7174
306.530	8224
306.558	10698
306.613	23043
306.620	24813
306.668	34642
306.711	37914
306.723	37635
306.778	31882
306.801	25123
306.833	17404
306.888	10399
306.892	10090
306.943	7284
306.982	7013
306.997	7034
307.052	6940
307.072	7432
307.107	8993
307.162	12249
307.163	12321
307.217	18875
307.253	21833
307.272	22419
307.327	23943
307.343	21729
307.381	16830
307.434	14290
307.436	14500
307.491	25213
307.524	36445
307.546	39592
307.600	37055
307.614	33131
307.655	21622
307.704	12767
307.710	12382
307.765	13795
307.795	17082
307.819	20366
307.874	33990
307.885	34164
307.929	27835
307.975	18407
307.984	17765
308.038	20235
308.065	23947
308.093	36478
308.148	71863
308.156	79457
308.202	118322
308.246	146078
308.257	144343
308.312	91849
308.336	69839
308.366	54941
308.421	37026
308.426	35448
308.475	23553
308.517	17321
308.530	16129
308.585	13955
308.607	13516
308.639	13652
308.694	14923
308.697	15139
308.748	25936
308.787	38668
308.803	39066
308.857	31606
308.877	26504
308.912	21197
308.967	18597
308.967	18615
309.021	23471
309.058	28636
309.076	34323
309.130	56178
309.148	65274
309.185	104168
309.238	167606
309.239	168021
309.293	184017
309.328	176544
309.348	157892
309.402	89379
309.418	71711
309.457	53141
309.508	34828
309.511	34184
309.566	30586
309.598	30448
309.620	34702
309.674	48396
309.688	52492
309.729	51118
309.778	43644
309.783	42707
309.837	30724
309.868	24842
309.892	27491
309.946	37023
309.959	40523
310.001	51017
310.049	60638
310.055	58967
310.109	37926
310.139	25090
310.163	19798
310.218	11987
310.229	10767
310.272	9026
310.319	7987
310.326	7864
310.381	7611
310.409	7565
310.435	7535
310.489	7285
310.499	7292
310.543	7579
310.589	8148
310.598	8181
310.652	8755
310.679	8818
310.706	8051
310.760	5991
310.769	5751
310.814	5000
310.859	4381
310.868	4389
310.923	4461
310.948	4612
310.977	5252
311.031	6493
311.038	6701
311.085	6521
311.128	6080
311.139	6013
311.193	5754
311.218	5677
311.247	5446
311.301	4979
311.308	4932
311.356	5198
311.398	5572
311.410	5437
311.464	4842
311.488	4519
311.518	4534
311.572	4673
311.578	4713
311.626	6530
311.668	8194
311.680	8409
311.734	9337
311.758	9753
311.788	9488
311.842	9036
311.847	9006
311.896	12369
311.937	15403
311.950	15037
312.004	13497
312.027	12744
312.058	10261
312.112	5974
312.117	5572
312.165	6026
312.207	6467
312.297	10817
312.386	8668
312.476	6755
312.566	10911
312.656	6439
312.745	5203
312.835	6598
312.925	7322
313.015	6190
313.104	7054
313.194	4139
313.284	4136
313.374	6674
313.463	5712
313.553	5192
313.643	4703
313.732	3831
313.822	3611
313.912	5581
314.001	6542
314.091	7932
314.180	12770
314.270	7524
314.360	8959
314.449	6935
314.539	4801
314.628	4902
314.718	6885
314.808	8506
314.897	4906
314.987	4118
315.076	5637
315.166	7750
315.255	7669
315.345	7987
315.434	7110
315.524	7523
315.613	7438
315.703	8054
315.792	7902
315.881	7117
315.971	5958
316.060	14826
316.150	25872
316.239	26329
316.328	9640
316.418	4418
316.507	4788
316.597	5912
316.686	6387
316.775	11432
316.865	27051
316.954	5850
317.043	4338
317.133	4245
317.222	3850
317.311	4003
317.400	2891
317.490	6421
317.579	6242
317.668	4801
317.757	5538
317.847	7386
317.936	10143
318.025	14357
318.114	8106
318.203	7362
318.293	10941
318.382	19735
318.471	17516
318.560	26023
318.649	62574
318.738	13697
318.828	8882
318.917	9818
319.006	13701
319.095	31667
319.184	76561
319.273	38342
319.362	17585
319.451	6750
319.540	6622
319.629	12529
319.718	22228
319.807	13721
319.896	24785
319.985	89664
320.074	32067
320.163	10316
320.252	17519
320.341	16844
320.430	14975
320.519	13293
320.608	8684
320.697	8092
320.786	6284
320.875	8617
320.964	10063
321.053	14934
321.142	21482
321.230	22246
321.319	18927
321.408	45174
321.497	20389
321.586	17437
321.675	25949
321.764	24358
321.852	16287
321.941	25667
322.030	16471
322.119	20656
322.207	43576
322.296	40170
322.385	21070
322.474	17033
322.562	48019
322.651	28328
322.740	18126
322.829	25932
322.917	35660
323.006	17231
323.095	13096
323.183	12070
323.272	18068
323.361	28541
323.449	85876
323.538	30839
323.626	63296
323.715	39130
323.804	18943
323.892	61439
323.981	32326
324.069	12478
324.158	34934
324.246	31462
324.335	11109
324.424	15096
324.512	6294
324.601	7727
324.689	9130
324.778	12542
324.866	23891
324.954	7920
325.043	7431
325.131	16793
325.220	30172
325.308	32584
325.397	22989
325.485	14002
325.574	4620
325.662	3075
325.750	4881
325.839	4144
325.927	3869
326.015	5334
326.104	11764
326.192	16827
326.280	4314
326.369	5723
326.457	6623
326.545	12501
326.634	4623
326.722	4095
326.810	3571
326.898	3987
326.987	5338
327.075	11837
327.163	13787
327.251	6218
327.340	4581
327.428	5799
327.516	2801
327.604	3661
327.692	5408
327.781	6953
327.869	12621
327.957	6912
328.045	5757
328.133	3797
328.221	5847
328.309	4666
328.397	4335
328.485	4998
328.574	7721
328.662	23855
328.750	15897
328.838	6875
328.926	4510
329.014	3861
329.102	8077
329.190	23015
329.278	12955
329.366	3749
329.454	4112
329.542	3875
329.630	2710
329.718	3953
329.806	4387
329.893	5827
329.981	4735
330.069	3057
330.157	6694
330.245	15672
330.333	8581
330.421	4294
330.509	8150
330.597	29485
330.684	21654
330.772	10659
330.860	18724
330.948	25097
331.036	9097
331.123	3524
331.211	4423
331.299	8369
331.387	20772
331.475	34587
331.562	9320
331.650	4734
331.738	6341
331.825	9704
331.913	3205
332.001	3325
332.089	7062
332.176	17610
332.264	36197
332.352	27501
332.439	8573
332.527	6951
332.614	5477
332.702	7976
332.790	4498
332.877	16210
332.965	33923
333.052	8663
333.140	8711
333.228	20245
333.315	6391
333.403	6561
333.490	22164
333.578	17683
333.665	21081
333.753	9979
333.840	3336
333.928	7185
334.015	22841
334.103	32740
334.190	91467
334.278	22606
334.365	9000
334.452	5427
334.540	3973
334.627	6910
334.715	10988
334.802	21452
334.889	104294
334.977	88860
335.064	10910
335.151	4705
335.239	6969
335.326	12811
335.413	46570
335.501	59417
335.588	8555
335.675	5232
335.762	10006
335.850	18475
335.937	9937
336.024	25977
336.111	109863
336.199	41024
336.286	6573
336.373	3921
336.460	3152
336.547	3881
336.635	6484
336.722	4940
336.809	5371
336.896	9721
336.983	32793
337.070	75820
337.157	95554
337.245	71148
337.332	47022
337.419	7173
337.506	5119
337.593	8083
337.680	29486
337.767	82607
337.854	22718
337.941	28802
338.028	30559
338.115	10052
338.202	14357
338.289	23877
338.376	72025
338.463	25575
338.550	49920
338.637	48519
338.724	17861
338.811	25808
338.898	5620
338.984	4410
339.071	7328
339.158	5824
339.245	17717
339.332	12824
339.419	18052
339.506	17198
339.593	2352
339.679	3529
339.766	3500
339.853	5803
339.940	11225
340.027	4597
340.113	4302
340.200	5567
340.287	4286
340.374	5461
340.460	9460
340.547	4039
340.634	8083
340.720	28397
340.807	14668
340.894	2948
340.980	3525
341.067	3359
341.154	4590
341.240	5963
341.327	13351
341.414	5424
341.500	5447
341.587	4076
341.674	3001
341.760	10392
341.847	10647
341.933	3630
342.020	866
342.106	2223
342.193	3940
342.279	7310
342.366	5468
342.452	9262
342.539	5831
342.625	12390
342.712	29244
342.798	12216
342.885	4493
342.971	1464
343.058	1633
343.144	1653
343.230	2329
343.317	2407
343.403	2471
343.490	1736
343.576	1782
343.662	2150
343.749	3128
343.835	4174
343.921	10681
344.008	52421
344.094	106659
344.180	23585
344.267	10628
344.353	34129
344.439	39214
344.525	16325
344.612	9301
344.698	9420
344.784	5356
344.870	2381
344.957	3022
345.043	5441
345.129	4078
345.215	8621
345.301	5005
345.387	3330
345.474	1952
345.560	2682
345.646	4899
345.732	3665
345.818	4654
345.904	3504
345.990	4280
346.076	5227
346.162	11804
346.249	4769
346.335	2992
346.421	3964
346.507	13443
346.593	44671
346.679	10048
346.765	3913
346.851	3199
346.937	2702
347.023	3282
347.108	3556
347.194	2531
347.280	2977
347.366	3810
347.452	12946
347.538	52194
347.624	41132
347.710	35361
347.796	7190
347.882	3654
347.967	3074
348.053	7339
348.139	4362
348.225	2550
348.311	2747
348.397	2203
348.482	3430
348.568	4837
348.654	1719
348.740	967
348.825	-73
348.911	6936
348.997	26130
349.083	50548
349.168	8644
349.254	3363
349.340	3500
349.425	2084
349.511	3541
349.597	5008
349.682	10177
349.768	33147
349.854	15422
349.939	4022
350.025	3685
350.110	5957
350.196	2943
350.282	1004
350.367	2361
350.453	7193
350.538	6653
350.624	4930
350.709	5685
350.795	1986
350.880	2064
350.966	3764
351.051	6021
351.137	5172
351.222	2897
351.308	10463
351.393	30295
351.479	6313
351.564	2598
351.649	2829
351.735	1947
351.820	1358
351.906	2167
351.991	3912
352.076	20516
352.162	27262
352.247	5603
352.332	4067
352.418	7472
352.503	11648
352.588	43569
352.673	33034
352.759	6531
352.844	2278
352.929	3664
353.014	4473
353.100	3012
353.185	3173
353.270	8764
353.355	8819
353.441	2268
353.526	3635
353.611	9509
353.696	10577
353.781	6723
353.866	2702
353.952	3653
354.037	9606
354.122	21974
354.207	19344
354.292	6995
354.377	2522
354.462	2307
354.547	2947
354.632	4230
354.717	6422
354.802	2893
354.887	2481
354.972	1715
355.057	1564
355.142	1206
355.227	3178
355.312	5328
355.397	13846
355.482	34029
355.567	15256
355.652	11885
355.737	12726
355.822	38545
355.907	28126
355.991	5525
356.076	1634
356.161	2524
356.246	2385
356.331	2758
356.416	8211
356.501	59087
356.585	54452
356.670	7841
356.755	5656
356.840	8734
356.924	39074
357.009	134514
357.094	49606
357.179	11029
357.263	7073
357.348	8160
357.433	8683
357.517	7236
357.602	3888
357.687	3280
357.771	5696
357.856	16986
357.941	12666
358.025	33097
358.110	130119
358.195	57997
358.279	9254
358.364	7979
358.448	27629
358.533	73757
358.617	50870
358.702	50307
358.787	17668
358.871	9751
358.956	8187
359.040	1514
359.125	1372
359.209	2463
359.294	7865
359.378	11942
359.462	7525
359.547	4276
359.631	3831
359.716	1617
359.800	3639
359.885	9042
359.969	3028
360.053	2988
360.138	1526
360.222	4973
360.306	9459
360.391	7484
360.475	13074
360.559	27509
360.644	27278
360.728	18378
360.812	33859
360.896	84373
360.981	42330
361.065	23665
361.149	5876
361.233	4855
361.318	3753
361.402	4532
361.486	3746
361.570	3041
361.654	3896
361.739	13450
361.823	57700
361.907	81016
361.991	14009
362.075	7610
362.159	18122
362.243	12517
362.327	7222
362.411	7015
362.495	5735
362.580	3369
362.664	2459
362.748	1438
362.832	1947
362.916	1193
363.000	11230
363.084	50832
363.168	91271
363.252	21735
363.336	9192
363.420	15187
363.503	65249
363.587	72389
363.671	11658
363.755	7125
363.839	11906
363.923	3677
364.007	9971
364.091	13083
364.175	22835
364.258	96140
364.342	39515
364.426	14606
364.510	8727
364.594	13590
364.677	19145
364.761	74185
364.845	47829
364.929	18242
365.013	13897
365.096	11818
365.180	14989
365.264	28309
365.347	101583
365.431	44862
365.515	13138
365.598	3977
365.682	4250
365.766	15230
365.849	18653
365.933	6592
366.017	12117
366.100	9130
366.184	2455
366.267	2814
366.351	1924
366.435	748
366.518	842
366.602	1229
366.685	2064
366.769	3868
366.852	11561
366.936	18782
367.019	6964
367.103	9679
367.186	22174
367.270	4374
367.353	928
367.436	2487
367.520	1639
367.603	3243
367.687	4391
367.770	11043
367.853	7108
367.937	23892
368.020	37066
368.104	7704
368.187	9121
368.270	13414
368.353	11359
368.437	20236
368.520	54599
368.603	27469
368.687	29299
368.770	51429
368.853	11977
368.936	16377
369.020	18369
369.103	5091
369.186	2476
369.269	3376
369.352	8382
369.436	12298
369.519	6665
369.602	1641
369.685	4296
369.768	3660
369.851	3378
369.934	1805
370.018	4510
370.101	10151
370.184	10476
370.267	7818
370.350	10502
370.433	17511
370.516	39616
370.599	41043
370.682	12391
370.765	31831
370.848	36793
370.931	64599
371.014	27722
371.097	4078
371.180	2790
371.263	3023
371.346	460
371.429	2508
371.511	2393
371.594	7158
371.677	15596
371.760	21624
371.843	12753
371.926	51232
372.009	108480
372.091	35813
372.174	27004
372.257	59688
372.340	22479
372.423	27988
372.505	35215
372.588	12372
372.671	20901
372.754	61477
372.836	29768
372.919	36492
373.002	66950
373.085	16842
373.167	11147
373.250	26933
373.332	57535
373.415	76431
373.498	146309
373.580	52198
373.663	67256
373.746	84381
373.828	21157
373.911	11183
373.993	14839
374.076	66039
374.159	57131
374.241	20273
374.324	55428
374.406	34302
374.489	46208
374.571	122205
374.654	46989
374.736	26054
374.819	77758
374.901	107059
374.983	103242
375.066	17234
375.148	9438
375.231	49367
375.313	94575
375.395	35990
375.478	6810
375.560	3889
375.643	6230
375.725	25586
375.807	96367
375.890	84667
375.972	45283
376.054	23395
376.136	44624
376.219	16860
376.301	28684
376.383	79836
376.465	28054
376.548	19131
376.630	24530
376.712	70257
376.794	28841
376.877	3447
376.959	1530
377.041	4972
377.123	17284
377.205	21029
377.287	1862
377.369	2297
377.452	1025
377.534	1817
377.616	1513
377.698	1228
377.780	506
377.862	2299
377.944	2844
378.026	176
378.108	1442
378.190	1439
378.272	2007
378.354	460
378.436	1303
378.518	7858
378.600	33911
378.682	21660
378.764	38198
378.846	27858
378.928	10314
379.010	11590
379.091	5565
379.173	2296
379.255	1895
379.337	3896
379.419	17357
379.501	52992
379.583	20202
379.664	5181
379.746	13761
379.828	38939
379.910	50272
379.991	41370
380.073	6646
380.155	5017
380.237	2425
380.318	1658
380.400	2594
380.482	8144
380.564	11451
380.645	9192
380.727	8783
380.809	5691
380.890	3754
380.972	1867
381.053	2404
381.135	4066
381.217	12960
381.298	40446
381.380	17629
381.461	16891
381.543	70598
381.624	80290
381.706	14810
381.787	9540
381.869	9998
381.951	31616
382.032	113050
382.113	68257
382.195	16366
382.276	11020
382.358	20728
382.439	63101
382.521	69902
382.602	104971
382.684	49475
382.765	95659
382.846	108252
382.928	159037
383.009	84914
383.090	62585
383.172	219814
383.253	308270
383.334	109535
383.416	102024
383.497	49428
383.578	28623
383.659	56129
383.741	187727
383.822	435379
383.903	215556
383.984	81901
384.066	124537
384.147	72206
384.228	16792
384.309	11785
384.390	8440
384.471	5871
384.553	7160
384.634	11670
384.715	10727
384.796	5748
384.877	7244
384.958	33184
385.039	40785
385.120	13709
385.201	7819
385.282	12373
385.363	14759
385.444	9254
385.525	14610
385.606	49709
385.687	39130
385.768	13017
385.849	17857
385.930	57527
386.011	90344
386.092	22695
386.173	7197
386.254	6010
386.335	6346
386.416	5975
386.496	23017
386.577	39661
386.658	17255
386.739	11652
386.820	12590
386.901	10344
386.981	6834
387.062	3193
387.143	7951
387.224	36890
387.304	34588
387.385	13365
387.466	9185
387.547	12892
387.627	5407
387.708	14140
387.789	65018
387.869	74711
387.950	18199
388.031	2649
388.111	5244
388.192	25161
388.273	36200
388.353	16150
388.434	6761
388.514	12474
388.595	57706
388.676	72724
388.756	35163
388.837	35976
388.917	20474
388.998	2835
389.078	3562
389.159	3613
389.239	2292
389.320	6831
389.400	3987
389.480	17554
389.561	41139
389.641	18315
389.722	7078
389.802	10950
389.883	17246
389.963	46667
390.043	32064
390.124	12501
390.204	13783
390.284	41873
390.365	26129
390.445	45298
390.525	65746
390.605	43913
390.686	17939
390.766	5731
390.846	3009
390.927	1204
391.007	2184
391.087	4564
391.167	3541
391.247	2405
391.328	9411
391.408	19225
391.488	11887
391.568	1034
391.648	2732
391.728	6668
391.808	6223
391.888	6674
391.969	20837
392.049	33498
392.129	18213
392.209	17758
392.289	41996
392.369	24947
392.449	34212
392.529	15260
392.609	9087
392.689	11034
392.769	39442
392.849	30914
392.929	27378
393.009	66368
393.089	31870
393.169	9075
393.248	23043
393.328	141032
393.408	145048
393.488	25584
393.568	7594
393.648	4205
393.728	3308
393.807	2398
393.887	3258
393.967	2698
394.047	4167
394.127	6945
394.206	13201
394.286	52739
394.366	222517
394.446	226095
394.525	50921
394.605	13022
394.685	15077
394.764	45889
394.844	74233
394.924	42928
395.003	9164
395.083	4683
395.163	5316
395.242	4388
395.322	4723
395.402	1756
395.481	6969
395.561	27395
395.640	74790
395.720	45265
395.799	79400
395.879	57698
395.958	24112
396.038	78967
396.117	288301
396.197	299077
396.276	102599
396.356	38574
396.435	31957
396.515	13867
396.594	10042
396.673	13138
396.753	36512
396.832	138617
396.912	117497
396.991	32959
397.070	7143
397.150	2733
397.229	2460
397.308	1629
397.388	2349
397.467	1559
397.546	1624
397.625	3
397.705	4310
397.784	4126
397.863	1336
397.942	302
398.022	2659
398.101	25104
398.180	77671
398.259	40203
398.338	8283
398.417	3744
398.497	2458
398.576	3764
398.655	1128
398.734	1102
398.813	1929
398.892	23133
398.971	79486
399.050	33157
399.129	2979
399.208	1670
399.287	2102
399.366	1603
399.445	1286
399.524	1815
399.603	674
399.682	5443
399.761	21224
399.840	80713
399.919	56868
399.998	7257
400.077	-534
400.156	114
400.235	4568
400.313	1896
400.392	3993
400.471	19823
400.550	30758
400.629	6818
400.708	3781
400.786	5167
400.865	23377
400.944	22743
401.023	8190
401.102	11
401.180	657
401.259	1174
401.338	3566
401.416	3972
401.495	3766
401.574	3494
401.652	2830
401.731	4072
401.810	2262
401.888	831
401.967	-932
402.046	1271
402.124	4124
402.203	5700
402.281	3239
402.360	5928
402.438	27507
402.517	16998
402.596	5526
402.674	4495
402.753	2054
402.831	1057
402.910	2285
402.988	6775
403.066	19680
403.145	9862
403.223	6993
403.302	11753
403.380	8283
403.459	7761
403.537	3125
403.615	2018
403.694	-1217
403.772	188
403.850	-554
403.929	-683
404.007	121
404.085	2075
404.164	1178
404.242	1978
404.320	12867
404.398	44357
404.477	47473
404.555	93078
404.633	76651
404.711	34054
404.789	18622
404.868	3322
404.946	531
405.024	164
405.102	-70
405.180	-807
405.258	371
405.336	1092
405.415	723
405.493	7320
405.571	3929
405.649	-241
405.727	416
405.805	3762
405.883	2218
405.961	5108
406.039	7621
406.117	1942
406.195	3540
406.273	20412
406.351	76883
406.429	44442
406.507	10409
406.585	2966
406.663	2232
406.740	2983
406.818	1685
406.896	389
406.974	1256
407.052	5053
407.130	45691
407.208	60138
407.285	10026
407.363	85
407.441	815
407.519	14
407.596	1108
407.674	3603
407.752	8144
407.830	20173
407.907	12281
407.985	1776
408.063	146
408.141	145
408.218	5916
408.296	3596
408.373	199
408.451	985
408.529	818
408.606	-340
408.684	-1150
408.762	-1649
408.839	-915
408.917	-1531
408.994	-814
409.072	-1389
409.149	-1340
409.227	-213
409.304	-102
409.382	-989
409.459	-1329
409.537	364
409.614	383
409.692	-937
409.769	-592
409.846	-443
409.924	2127
410.001	207
410.079	31
410.156	-202
410.233	-743
410.311	-944
410.388	-896
410.465	98
410.543	104
410.620	342
410.697	872
410.775	1031
410.852	-1864
410.929	730
411.006	2202
411.083	-310
411.161	2891
411.238	7591
411.315	4821
411.392	-699
411.469	2615
411.547	1609
411.624	-775
411.701	-1122
411.778	1175
411.855	4338
411.932	1455
412.009	-830
412.086	727
412.163	2228
412.240	2057
412.317	4013
412.394	3019
412.471	112
412.548	-381
412.625	-371
412.702	2092
412.779	5679
412.856	2178
412.933	206
413.010	1080
413.087	3725
413.164	19533
413.241	24821
413.318	4495
413.395	2836
413.471	4563
413.548	754
413.625	1376
413.702	1222
413.779	1630
413.855	-642
413.932	-844
414.009	-773
414.086	-678
414.162	-336
414.239	1935
414.316	18249
414.393	40785
414.469	12157
414.546	142
414.623	-477
414.699	-136
414.776	62
414.853	-50
414.929	264
415.006	957
415.082	3068
415.159	1255
415.236	10
415.312	673
415.389	3252
415.465	3953
415.542	885
415.618	717
415.695	2808
415.771	201
415.848	737
415.924	1711
416.000	1118
416.077	208
416.153	-1515
416.230	-1596
416.306	-705
416.383	-92
416.459	-457
416.535	-978
416.612	-345
416.688	-144
416.764	-907
416.841	-812
416.917	496
416.993	640
417.069	1648
417.146	2686
417.222	2123
417.298	446
417.374	-280
417.451	1145
417.527	1317
417.603	1270
417.679	754
417.755	-58
417.831	-1621
417.908	-551
417.984	-360
418.060	-792
418.136	3786
418.212	5128
418.288	636
418.364	-70
418.440	-752
418.516	2952
418.592	7493
418.668	10808
418.744	11459
418.820	7487
418.896	1114
418.972	-663
419.048	-551
419.124	4873
419.200	1860
419.276	413
419.352	-1274
419.428	-358
419.504	-564
419.579	-38
419.655	363
419.731	512
419.807	6976
419.883	13889
419.959	7015
420.034	1199
420.110	5497
420.186	24775
420.262	18372
420.337	2147
420.413	660
420.489	-469
420.565	-111
420.640	-371
420.716	407
420.792	-1342
420.867	-36
420.943	-1773
421.019	2300
421.094	625
421.170	-162
421.245	-669
421.321	-770
421.397	-1129
421.472	-315
421.548	1701
421.623	2270
421.699	878
421.774	633
421.850	-827
421.925	1860
422.001	1071
422.076	-498
422.152	-364
422.227	2057
422.302	1452
422.378	1231
422.453	3976
422.529	11096
422.604	54305
422.679	123383
422.755	59666
422.830	11834
422.905	2814
422.981	490
423.056	-302
423.131	-347
423.207	-678
423.282	236
423.357	5928
423.432	2157
423.508	2524
423.583	10683
423.658	8069
423.733	1836
423.808	3205
423.883	2753
423.959	821
424.034	-610
424.109	-674
424.184	-2009
424.259	-731
424.334	-1336
424.409	-1535
424.484	-558
424.559	-732
424.634	-487
424.709	129
424.784	2072
424.859	605
424.934	2335
425.009	17762
425.084	29118
425.159	9113
425.234	994
425.309	-1191
425.384	3195
425.459	4177
425.534	1501
425.609	832
425.683	242
425.758	-134
425.833	515
425.908	2064
425.983	9771
426.058	31527
426.132	12048
426.207	2915
426.282	7779
426.357	6124
426.431	-111
426.506	309
426.581	1035
426.655	397
426.730	258
426.805	-457
426.879	75
426.954	1430
427.029	4983
427.103	28518
427.178	68033
427.253	27434
427.327	3758
427.402	5802
427.476	15972
427.551	5053
427.625	2672
427.700	2591
427.774	-117
427.849	1945
427.923	-113
427.998	-275
428.072	757
428.147	5693
428.221	12404
428.296	19667
428.370	6150
428.444	3107
428.519	9493
428.593	24319
428.667	18515
428.742	24696
428.816	17090
428.890	29814
428.965	30167
429.039	18562
429.113	26423
429.188	7182
429.262	661
429.336	4058
429.410	14573
429.485	10804
429.559	18683
429.633	14413
429.707	2081
429.781	9259
429.855	44366
429.930	53523
430.004	53462
430.078	95978
430.152	62469
430.226	24554
430.300	18421
430.374	3222
430.448	4508
430.522	29100
430.596	83138
430.670	39079
430.744	42436
430.818	65408
430.892	15288
430.966	1240
431.040	-284
431.114	78
431.188	-212
431.262	63
431.336	438
431.410	9271
431.484	28116
431.557	14943
431.631	-178
431.705	-513
431.779	1075
431.853	12117
431.927	7986
432.000	424
432.074	523
432.148	2190
432.222	2701
432.295	348
432.369	-317
432.443	2857
432.516	30018
432.590	70245
432.664	25737
432.737	2371
432.811	-583
432.885	196
432.958	-589
433.032	-1410
433.106	-1390
433.179	-522
433.253	-954
433.326	-1334
433.400	-1393
433.473	-350
433.547	-1260
433.620	-1118
433.694	1327
433.767	2395
433.841	76
433.914	-732
433.988	-1386
434.061	-617
434.134	-1299
434.208	-1581
434.281	-695
434.355	-952
434.428	-107
434.501	-796
434.575	-843
434.648	70
434.721	-1703
434.795	-1406
434.868	-1501
434.941	-1287
435.014	-1624
435.088	-461
435.161	87
435.234	1916
435.307	2356
435.381	792
435.454	499
435.527	-806
435.600	-374
435.673	-530
435.746	-354
435.819	-724
435.892	-639
435.966	-1352
436.039	471
436.112	302
436.185	-1604
436.258	-1792
436.331	-1662
436.404	-1174
436.477	-1402
436.550	-1153
436.623	-551
436.696	-1557
436.769	-785
436.842	-635
436.915	1200
436.987	2340
437.060	-134
437.133	-825
437.206	-229
437.279	130
437.352	-1623
437.425	-697
437.498	-116
437.570	2653
437.643	2992
437.716	-312
437.789	-1481
437.861	1608
437.934	6665
438.007	2589
438.080	-919
438.152	726
438.225	3638
438.298	34818
438.370	92339
438.443	38485
438.516	8522
438.588	690
438.661	-1308
438.734	-594
438.806	750
438.879	1149
438.951	751
439.024	2319
439.096	-113
439.169	-183
439.241	-784
439.314	-553
439.386	3291
439.459	5285
439.531	5176
439.604	1257
439.676	-382
439.749	-1558
439.821	-1024
439.893	-832
439.966	-536
440.038	856
440.110	637
440.183	124
440.255	264
440.327	2029
440.400	17101
440.472	66904
440.544	41198
440.617	5632
440.689	3421
440.761	2709
440.833	6392
440.905	3733
440.978	-885
441.050	-1076
441.122	-748
441.194	-985
441.266	-624
441.338	-809
441.411	2434
441.483	19825
441.555	30647
441.627	7567
441.699	5700
441.771	6181
441.843	1627
441.915	-977
441.987	-850
442.059	-641
442.131	1514
442.203	3580
442.275	4062
442.347	3992
442.419	487
442.491	2311
442.563	8049
442.635	10569
442.706	26128
442.778	19741
442.850	2539
442.922	-290
442.994	1466
443.066	3754
443.137	2887
443.209	2484
443.281	1422
443.353	4215
443.425	9835
443.496	15328
443.568	11372
443.640	4541
443.711	1926
443.783	881
443.855	746
443.926	259
443.998	1464
444.070	4186
444.141	1854
444.213	2879
444.285	4934
444.356	4649
444.428	3695
444.499	659
444.571	-930
444.642	-82
444.714	468
444.785	3373
444.857	7085
444.928	21619
445.000	13272
445.071	13177
445.143	16010
445.214	5165
445.285	9159
445.357	31570
445.428	29156
445.500	40178
445.571	38322
445.642	15671
445.714	21278
445.785	33832
445.856	10331
445.928	4924
445.999	3845
446.070	2282
446.141	2046
446.213	4426
446.284	2498
446.355	4128
446.426	3016
446.497	1210
446.569	6800
446.640	10039
446.711	4096
446.782	1102
446.853	2871
446.924	2769
446.995	1852
447.066	2158
447.138	8479
447.209	4160
447.280	-443
447.351	291
447.422	237
447.493	2819
447.564	3414
447.635	3348
447.706	1053
447.777	390
447.847	-97
447.918	969
447.989	3661
448.060	5873
448.131	16567
448.202	13462
448.273	7455
448.344	3417
448.414	1363
448.485	886
448.556	855
448.627	-326
448.698	275
448.768	-383
448.839	1186
448.910	8015
448.981	6672
449.051	1777
449.122	-250
449.193	-442
449.263	703
449.334	1411
449.405	1552
449.475	5163
449.546	5428
449.616	8951
449.687	8195
449.758	1806
449.828	383
449.899	43
449.969	-356
450.040	304
450.110	1815
450.181	1454
450.251	56
450.322	149
450.392	843
450.463	1223
450.533	114
450.604	1610
450.674	1506
450.744	679
450.815	73
450.885	482
450.955	429
451.026	619
451.096	64
451.166	3674
451.237	11581
451.307	29839
451.377	12491
451.447	1519
451.518	1071
451.588	1382
451.658	2401
451.728	5791
451.799	30067
451.869	35571
451.939	10424
452.009	1884
452.079	578
452.149	1882
452.219	8340
452.289	35194
452.360	28658
452.430	5959
452.500	2729
452.570	3035
452.640	4719
452.710	17080
452.780	30221
452.850	17618
452.920	12244
452.990	5647
453.060	3203
453.129	4486
453.199	8827
453.269	32985
453.339	71345
453.409	109761
453.479	112724
453.549	166718
453.619	180252
453.688	80035
453.758	15035
453.828	6033
453.898	3369
453.968	3098
454.037	2726
454.087	2514
454.107	2394
454.168	1784
454.177	1653
454.247	2120
454.249	2140
454.316	1972
454.330	2635
454.386	4892
454.411	10090
454.456	17318
454.492	22771
454.525	27563
454.574	16004
454.595	11140
454.655	5082
454.665	4213
454.734	5547
454.736	5857
454.804	12597
454.817	17471
454.873	32894
454.898	36217
454.943	41035
454.979	27128
455.013	15518
455.060	8553
455.082	6573
455.141	12346
455.152	13219
455.221	33925
455.222	34757
455.291	72388
455.303	76875
455.360	88190
455.384	114357
455.430	145439
455.465	113576
455.499	86212
455.546	58112
455.569	44939
455.627	28606
455.638	26254
455.707	6913
455.708	6946
455.777	4396
455.789	4390
455.846	4123
455.869	3872
455.916	3496
455.950	3920
455.985	3997
456.031	4260
456.054	4344
456.112	3155
456.124	2956
456.193	3156
456.193	3114
456.262	5123
456.274	5709
456.332	7271
456.355	7445
456.401	6802
456.436	5499
456.470	4326
456.516	3336
456.540	3075
456.597	2373
456.609	2164
456.678	2602
456.678	2575
456.747	2454
456.759	2394
456.817	2068
456.840	2274
456.886	2624
456.920	2768
456.955	3103
457.001	3629
457.024	4184
457.082	5948
457.093	6140
457.162	8658
457.163	8722
457.232	9437
457.243	8978
457.301	5573
457.324	4809
457.370	4685
457.405	5117
457.439	5022
457.485	4267
457.508	4126
457.566	4142
457.577	4171
457.646	4492
457.647	4530
457.715	4721
457.727	4749
457.784	4618
457.808	4599
457.853	5604
457.889	6952
457.922	7635
457.969	8810
457.991	8794
458.050	7945
458.060	7772
458.129	6431
458.130	6424
458.198	5236
458.211	5183
458.267	4725
458.292	4590
458.336	4672
458.372	4811
458.405	5236
458.453	5342
458.474	5443
458.533	7534
458.543	7779
458.611	9297
458.614	9370
458.680	8192
458.694	7718
458.749	6424
458.775	5901
458.818	5428
458.855	5387
458.887	5450
458.936	5384
458.955	5460
459.016	6587
459.024	6635
459.093	6584
459.097	6620
459.162	7579
459.177	7798
459.230	8508
459.257	9155
459.299	9366
459.338	8921
459.368	8817
459.418	9286
459.437	8969
459.499	7480
459.505	7427
459.574	6835
459.579	6861
459.643	6636
459.659	6519
459.711	7067
459.740	7352
459.780	7947
459.820	8652
459.849	9240
459.900	10526
459.917	10278
459.981	9806
459.986	9721
460.054	7809
460.061	7669
460.123	8227
460.141	8371
460.191	9401
460.222	10393
460.260	11230
460.302	12133
460.328	11313
460.382	9351
460.397	9303
460.462	8139
460.465	8088
460.534	8426
460.543	8383
460.602	11404
460.623	12892
460.671	17118
460.703	20773
460.739	20046
460.783	18249
460.808	16634
460.864	9968
460.876	9685
460.944	10057
460.945	10029
461.013	9063
461.024	8848
461.081	9311
461.104	9770
461.150	9491
461.184	9140
461.218	9059
461.264	8722
461.286	8929
461.345	9433
461.355	9405
461.423	10097
461.425	10105
461.491	11189
461.505	11561
461.559	24609
461.585	30604
461.628	51836
461.665	72573
461.696	79195
461.745	93811
461.764	80551
461.825	25419
461.832	24611
461.901	13502
461.905	13236
461.969	11620
461.985	11464
462.037	11459
462.065	11503
462.105	13681
462.145	15885
462.173	24627
462.225	41346
462.241	45779
462.305	66142
462.310	64137
462.378	32531
462.385	28065
462.446	15602
462.465	12430
462.514	11470
462.545	11892
462.582	11737
462.625	11644
462.650	11680
462.705	11665
462.718	12275
462.785	15271
462.786	15436
462.854	25222
462.865	26979
462.922	32460
462.945	34712
462.990	24931
463.025	15805
463.058	14097
463.104	11826
463.126	11605
463.184	11933
463.194	12038
463.262	12367
463.264	12405
463.330	13297
463.344	13337
463.398	15098
463.424	15935
463.466	16613
463.504	17524
463.533	17242
463.583	16247
463.601	17122
463.663	20326
463.669	20799
463.737	26331
463.743	26820
463.805	42993
463.823	47753
463.873	77110
463.903	95521
463.940	101027
463.982	108664
464.008	85941
464.062	32425
464.076	29936
464.142	15326
464.144	15194
464.211	13617
464.221	13539
464.279	14134
464.301	14377
464.347	15823
464.381	16715
464.414	20351
464.461	25521
464.482	26227
464.540	28558
464.550	27357
464.617	17896
464.620	17529
464.685	17835
464.699	17964
464.753	20783
464.779	22293
464.820	23984
464.859	25500
464.888	26131
464.938	27052
464.956	27630
465.018	29867
465.023	29296
465.091	20936
465.098	20002
465.158	19209
465.177	19062
465.226	19472
465.257	19656
465.293	20645
465.336	21811
465.361	23334
465.416	26640
465.428	29305
465.495	43628
465.496	43963
465.563	85356
465.575	92579
465.631	111574
465.654	119876
465.698	72137
465.734	30593
465.765	25554
465.813	17514
465.833	17204
465.893	17781
465.900	17669
465.968	16761
465.972	16657
466.035	16723
466.052	16760
466.102	16459
466.131	16146
466.170	16405
466.210	16719
466.237	17439
466.290	18771
466.304	19062
466.369	20095
466.372	20165
466.439	21181
466.449	21291
466.506	24251
466.528	25293
466.573	37295
466.607	46254
466.641	76278
466.687	117947
466.708	130392
466.766	164665
466.775	151146
466.842	46927
466.845	41881
466.909	26230
466.925	22641
466.977	21816
467.004	21467
467.044	22275
467.083	23043
467.111	24914
467.163	28291
467.178	28992
467.242	31628
467.245	31642
467.312	30608
467.321	30410
467.379	30807
467.400	30857
467.446	35516
467.480	38765
467.559	33135
467.638	27094
467.717	26735
467.796	30553
467.875	34432
467.955	34714
468.034	53518
468.113	141953
468.192	207602
468.271	49118
468.350	22991
468.429	24015
468.508	23335
468.588	23703
468.667	25817
468.746	26770
468.825	26460
468.904	25493
468.983	32688
469.062	61716
469.141	77396
469.220	30289
469.299	25404
469.378	28235
469.456	28594
469.535	27627
469.614	28856
469.693	31486
469.772	44193
469.851	65882
469.930	42126
470.009	26627
470.088	25264
470.166	28260
470.245	35555
470.324	41189
470.403	34352
470.482	27492
470.560	24761
470.639	26379
470.718	28720
470.797	26257
470.875	30381
470.954	47238
471.033	52334
471.111	23818
471.190	21733
471.269	21212
471.347	20971
471.426	24395
471.505	29266
471.583	27031
471.662	24396
471.740	23759
471.819	23254
471.898	22623
471.976	22752
472.055	23380
472.133	26786
472.212	40146
472.290	43878
472.369	27602
472.447	22996
472.526	22709
472.604	25978
472.683	25513
472.761	23711
472.839	22618
472.918	21801
472.996	23847
473.075	30169
473.153	28161
473.231	22944
473.310	28781
473.388	27185
473.466	25114
473.545	24589
473.623	31208
473.701	30501
473.780	21143
473.858	20525
473.936	22491
474.014	21048
474.093	25175
474.171	43766
474.249	68884
474.327	40772
474.405	19240
474.484	19182
474.562	20645
474.640	21034
474.718	23867
474.796	21029
474.874	18563
474.952	17405
475.030	19145
475.108	17778
475.187	18729
475.265	17570
475.343	21098
475.421	22641
475.499	21893
475.577	24065
475.655	34565
475.733	80609
475.811	143995
475.889	130209
475.966	82547
476.044	23173
476.122	24043
476.200	25710
476.278	23738
476.356	22656
476.434	25484
476.512	25268
476.590	28450
476.667	27414
476.745	23447
476.823	23957
476.901	24981
476.979	27279
477.056	24625
477.134	24260
477.212	23548
477.290	23455
477.367	21565
477.445	22472
477.523	21925
477.601	21582
477.678	23871
477.756	31282
477.834	35349
477.911	22147
477.989	21840
478.066	22581
478.144	27035
478.222	23580
478.299	23451
478.377	22886
478.454	19706
478.532	20797
478.609	22042
478.687	22484
478.764	20791
478.842	22141
478.919	24134
478.997	23156
479.074	22282
479.152	29222
479.229	39643
479.307	25273
479.384	19464
479.461	20271
479.539	23714
479.616	28220
479.694	23743
479.771	26756
479.848	27843
479.926	40598
480.003	43067
480.080	19951
480.157	20783
480.235	20840
480.312	22059
480.389	26430
480.467	47901
480.544	60169
480.621	30301
480.698	25435
480.775	30524
480.853	32512
480.930	25238
481.007	25559
481.084	30503
481.161	30432
481.238	30718
481.315	23252
481.392	22565
481.470	22328
481.547	22464
481.624	23355
481.701	24408
481.778	24544
481.855	29262
481.932	44571
482.009	81097
482.086	51045
482.163	22700
482.240	21632
482.317	24912
482.393	22628
482.470	22806
482.547	24263
482.624	22022
482.701	23865
482.778	22288
482.855	18216
482.932	19770
483.009	19689
483.085	20844
483.162	22956
483.239	23049
483.316	18746
483.393	19659
483.469	20732
483.546	26326
483.623	29819
483.699	24176
483.776	25247
483.853	28252
483.930	40297
484.006	113188
484.083	194476
484.160	70161
484.236	69965
484.313	58013
484.389	47787
484.466	41700
484.543	38462
484.619	40924
484.696	42237
484.772	50241
484.849	56400
484.925	42285
485.002	39618
485.078	42944
485.155	42723
485.231	38935
485.308	39376
485.384	42315
485.461	54271
485.537	108438
485.614	131327
485.690	45802
485.766	37872
485.843	39711
485.919	50877
485.995	52990
486.072	35096
486.148	33452
486.224	33865
486.301	38270
486.377	45871
486.453	44430
486.530	39302
486.606	50399
486.682	56603
486.758	85893
486.835	105056
486.911	77122
486.987	133620
487.063	110535
487.139	109594
487.215	76721
487.292	41918
487.368	35976
487.444	39472
487.520	43887
487.596	35989
487.672	36903
487.748	47117
487.824	54004
487.900	40015
487.976	36795
488.052	41413
488.128	49632
488.204	42722
488.280	41541
488.356	48717
488.432	125122
488.508	198787
488.584	57156
488.660	33909
488.736	32944
488.812	35694
488.888	42840
488.964	52753
489.039	101859
489.115	156295
489.191	95164
489.267	39477
489.343	36912
489.418	30016
489.494	29554
489.570	28252
489.646	32237
489.722	32995
489.797	35754
489.873	61093
489.949	158013
490.024	125467
490.100	32387
490.176	30476
490.251	35128
490.327	43019
490.403	29792
490.478	26136
490.554	24292
490.629	24863
490.705	25010
490.781	28557
490.856	30398
490.932	31470
491.007	31372
491.083	31160
491.158	32370
491.234	44060
491.309	116306
491.385	117157
491.460	33845
491.536	34596
491.611	28283
491.686	30835
491.762	39725
491.837	71767
491.913	120820
491.988	167838
492.063	191739
492.139	80928
492.214	52316
492.289	25443
492.365	24805
492.440	30043
492.515	34034
492.590	34534
492.666	27466
492.741	40546
492.816	70977
492.891	39404
492.967	30323
493.042	34633
493.117	42040
493.192	52966
493.267	110779
493.342	446800
493.418	615548
493.493	85648
493.568	29676
493.643	26459
493.718	34757
493.793	51460
493.868	49113
493.943	29036
494.018	24354
494.093	25251
494.168	24590
494.243	20503
494.318	21018
494.393	19792
494.468	19862
494.543	18928
494.618	23450
494.693	21548
494.768	23365
494.842	22571
494.917	19015
494.992	20210
495.067	19463
495.142	18665
495.217	21293
495.292	21743
495.366	27996
495.441	35100
495.516	44313
495.591	52587
495.665	136531
495.740	314062
495.815	135223
495.890	39597
495.964	32864
496.039	34172
496.114	30340
496.188	30106
496.263	31877
496.338	30668
496.412	36142
496.487	41091
496.561	39094
496.636	39039
496.710	32513
496.785	36340
496.860	44852
496.934	32236
497.009	30206
497.083	30083
497.158	30843
497.232	38441
497.307	47724
497.381	34671
497.455	46475
497.530	65072
497.604	38679
497.679	38975
497.753	66016
497.827	84002
497.902	60268
497.976	71210
498.050	160609
498.125	653658
498.199	642061
498.273	87703
498.348	50389
498.422	42156
498.496	42614
498.570	41559
498.645	36777
498.719	39183
498.793	52906
498.867	90291
498.941	114594
499.016	274852
499.090	756157
499.164	258662
499.238	40311
499.312	32736
499.386	39021
499.460	38679
499.534	39260
499.609	49526
499.683	82502
499.757	72478
499.831	133036
499.905	531298
499.979	489082
500.053	99863
500.127	91816
500.201	53288
500.275	40066
500.349	39041
500.422	47196
500.496	61538
500.570	109600
500.644	298132
500.718	582959
500.792	130380
500.866	42902
500.940	58353
501.013	48082
501.087	45612
501.161	70575
501.235	96339
501.309	214802
501.382	575560
501.456	467003
501.530	116680
501.603	219877
501.677	79765
501.751	36715
501.825	41736
501.898	81314
501.972	258187
502.046	152885
502.119	46862
502.193	105216
502.266	280452
502.340	127976
502.413	122448
502.487	247785
502.561	146040
502.634	43609
502.708	28672
502.781	27059
502.855	24343
502.928	23029
503.002	23191
503.075	23449
503.149	28580
503.222	29310
503.295	33472
503.369	43712
503.442	56421
503.516	180946
503.589	489412
503.662	308690
503.736	94570
503.809	225072
503.882	170123
503.956	242315
504.029	197750
504.102	52390
504.175	41246
504.249	25840
504.322	33037
504.395	33936
504.468	23638
504.542	27410
504.615	19710
504.688	18585
504.761	19235
504.834	26460
504.907	25375
504.980	38871
505.053	24861
505.127	27429
505.200	35562
505.273	44314
505.346	26680
505.419	20979
505.492	20239
505.565	16186
505.638	16740
505.711	17592
505.784	17925
505.857	17333
505.930	20285
506.003	18879
506.076	22482
506.149	33796
506.221	42120
506.294	35318
506.367	87945
506.440	318821
506.513	154254
506.586	43625
506.659	24511
506.731	20009
506.804	23547
506.877	31034
506.950	26005
507.022	19630
507.095	28925
507.168	34887
507.241	19459
507.313	15678
507.386	17597
507.459	22934
507.531	15957
507.604	14769
507.677	16575
507.749	14172
507.822	19317
507.894	32357
507.967	35467
508.040	21560
508.112	20274
508.185	20195
508.257	19170
508.330	27952
508.402	22076
508.475	23550
508.547	23934
508.620	24536
508.692	44871
508.765	25355
508.837	17259
508.909	17020
508.982	16836
509.054	19600
509.127	16409
509.199	16685
509.271	15917
509.344	16462
509.416	15610
509.488	17563
509.560	18021
509.633	18286
509.705	20409
509.777	22519
509.849	28544
509.922	22297
509.994	19883
510.066	19975
510.138	19132
510.210	31587
510.283	27651
510.355	24916
510.427	22407
510.499	20542
510.571	20107
510.643	19448
510.715	30245
510.787	26328
510.859	21595
510.931	28230
511.003	32609
511.076	29899
511.148	20871
511.219	23601
511.291	42748
511.363	50979
511.435	21618
511.507	18143
511.579	19784
511.651	19618
511.723	18763
511.795	17835
511.867	19376
511.939	26383
512.010	64818
512.082	46284
512.154	19229
512.226	20048
512.298	24631
512.369	34036
512.441	25421
512.513	25628
512.585	21083
512.656	23525
512.728	26133
512.800	19009
512.871	18637
512.943	18979
513.015	15965
513.086	18726
513.158	19521
513.230	21087
513.301	28154
513.373	29902
513.444	19554
513.516	17723
513.588	17253
513.659	19715
513.731	22468
513.802	21217
513.874	37309
513.945	63844
514.016	25071
514.088	18506
514.159	19797
514.231	25851
514.302	31699
514.374	24455
514.445	26094
514.516	66793
514.588	47114
514.659	28512
514.730	63326
514.802	36283
514.873	18298
514.944	20730
515.016	20105
515.087	24452
515.158	38051
515.229	58598
515.301	18015
515.372	18075
515.443	14354
515.514	16437
515.585	13522
515.656	17600
515.728	16273
515.799	15767
515.870	17173
515.941	18999
516.012	18225
516.083	23431
516.154	25071
516.225	31005
516.296	30769
516.367	28882
516.438	33220
516.509	41761
516.580	56316
516.651	149919
516.722	541229
516.793	234398
516.864	66241
516.935	65123
517.006	72584
517.077	90529
517.148	171881
517.219	553819
517.289	873260
517.360	391146
517.431	126951
517.502	41241
517.573	36402
517.643	34889
517.714	36562
517.785	37033
517.856	39480
517.926	46794
517.997	53521
518.068	63883
518.138	81140
518.209	110294
518.280	340842
518.350	1196742
518.421	474962
518.492	79097
518.562	45620
518.633	43739
518.703	31180
518.774	36040
518.845	39657
518.915	40226
518.986	37780
519.056	43748
519.127	66582
519.197	107557
519.268	311609
519.338	197406
519.408	49271
519.479	46689
519.549	34712
519.620	26110
519.690	22664
519.760	23456
519.831	23369
519.901	24460
519.971	21216
520.042	24208
520.112	30339
520.182	28970
520.253	29385
520.323	23341
520.393	27668
520.463	35793
520.534	29012
520.604	53746
520.674	33550
520.744	36552
520.814	57811
520.885	55747
520.955	94880
521.025	375893
521.095	133280
521.165	30596
521.235	27063
521.305	23461
521.375	20385
521.445	22237
521.515	25566
521.585	29690
521.655	27593
521.725	24989
521.795	25597
521.865	20459
521.935	38798
522.005	34269
522.075	21459
522.145	24215
522.215	28131
522.285	41859
522.355	57487
522.424	117234
522.494	96704
522.564	39677
522.634	53205
522.704	145571
522.774	55908
522.843	23448
522.913	20829
522.983	25649
523.053	21101
523.122	22928
523.192	25994
523.262	76642
523.331	73671
523.401	23317
523.471	16237
523.540	18651
523.610	15034
523.680	16676
523.749	18578
523.819	25637
523.888	24588
523.958	16710
524.027	18763
524.097	21801
524.166	18177
524.236	19018
524.305	21289
524.375	17108
524.444	15854
524.514	20406
524.583	19969
524.653	28434
524.722	30803
524.791	20002
524.861	20109
524.930	17074
524.999	16815
525.069	24939
525.138	24461
525.207	33292
525.277	19267
525.346	19448
525.415	17744
525.484	18213
525.554	22734
525.623	21848
525.692	16827
525.761	18350
525.830	15792
525.900	15814
525.969	22536
526.038	22184
526.107	17535
526.176	26627
526.245	24465
526.314	33016
526.383	33811
526.452	26604
526.522	42153
526.591	75281
526.660	73177
526.729	37368
526.797	36614
526.867	70736
526.935	311468
527.004	214825
527.073	79564
527.142	22509
527.211	17838
527.280	20567
527.349	21492
527.418	13598
527.487	16442
527.555	15293
527.624	12719
527.693	13514
527.762	15047
527.831	13772
527.899	15596
527.968	15542
528.037	14729
528.106	17379
528.174	30283
528.243	30190
528.312	41579
528.380	48864
528.449	20078
528.518	15944
528.586	11892
528.655	13736
528.723	13039
528.792	13212
528.861	15103
528.929	14711
528.998	14605
529.066	12282
529.135	11609
529.203	13163
529.272	11928
529.340	13024
529.409	14824
529.477	14260
529.545	21861
529.614	22692
529.682	23091
529.751	30272
529.819	27766
529.887	19154
529.956	12492
530.024	15270
530.092	11288
530.161	15039
530.229	20475
530.297	14461
530.365	13247
530.434	11851
530.502	10925
530.570	12668
530.638	10356
530.707	15095
530.775	14670
530.843	13244
530.911	12859
530.979	12889
531.047	12327
531.115	14249
531.183	13647
531.252	13794
531.320	14038
531.388	11816
531.456	12626
531.524	10815
531.592	13564
531.660	15700
531.728	11349
531.796	11898
531.864	12348
531.932	14135
532.000	13118
532.067	14550
532.135	14917
532.203	18733
532.271	17808
532.339	28537
532.407	63430
532.475	39426
532.542	24981
532.610	25703
532.678	29470
532.746	101952
532.814	250885
532.881	61326
532.949	18886
533.017	15204
533.084	14370
533.152	14127
533.220	14376
533.287	15697
533.355	12458
533.423	13729
533.490	12624
533.558	14265
533.625	14666
533.693	15950
533.761	15876
533.828	18631
533.896	15733
533.963	30909
534.031	35602
534.098	44592
534.166	24630
534.233	17830
534.300	19214
534.368	19693
534.435	16750
534.503	16204
534.570	15438
534.637	14768
534.705	13770
534.772	14512
534.840	13265
534.907	18752
534.974	18479
535.041	15932
535.109	22311
535.176	14931
535.243	13315
535.310	14332
535.378	12965
535.445	12912
535.512	11553
535.579	13590
535.646	12481
535.714	13925
535.781	16388
535.848	17198
535.915	19902
535.982	21261
536.049	21537
536.116	21371
536.183	17328
536.250	18535
536.317	16785
536.384	19369
536.451	22721
536.518	24394
536.585	19307
536.652	24585
536.719	29289
536.786	24294
536.853	20644
536.920	31448
536.987	41967
537.053	37202
537.120	132629
537.187	105463
537.254	18196
537.321	14738
537.388	15247
537.454	13428
537.521	12607
537.588	12358
537.654	14957
537.721	15605
537.788	16064
537.855	13940
537.921	14532
537.988	14466
538.055	15618
538.121	13933
538.188	14909
538.254	22128
538.321	36505
538.388	23558
538.454	15243
538.521	13813
538.587	12973
538.654	13267
538.720	13626
538.787	12906
538.853	14400
538.920	19865
538.986	20367
539.053	18096
539.119	18021
539.185	16763
539.252	18598
539.318	24090
539.385	20183
539.451	18283
539.517	18902
539.583	21418
539.650	45089
539.716	107789
539.782	28758
539.849	15844
539.915	15845
539.981	15569
540.047	17793
540.114	16925
540.180	18933
540.246	16526
540.312	21815
540.378	38810
540.444	37287
540.510	42097
540.576	112696
540.643	36045
540.709	14818
540.775	15312
540.841	15748
540.907	23036
540.973	33152
541.039	23238
541.105	24348
541.171	15440
541.237	15346
541.303	16804
541.369	18104
541.435	21462
541.500	32053
541.566	20503
541.632	14948
541.698	13722
541.764	14244
541.830	14076
541.896	13465
541.961	15247
542.027	14166
542.093	14993
542.159	15213
542.224	16995
542.290	23341
542.356	33359
542.421	38330
542.487	25735
542.553	19374
542.618	22385
542.684	18052
542.750	17791
542.815	20272
542.881	32873
542.947	100963
543.012	66364
543.078	16512
543.143	15634
543.209	16221
543.274	17137
543.340	18271
543.405	39188
543.471	56350
543.536	17889
543.602	15788
543.667	15042
543.732	15092
543.798	13675
543.863	14925
543.928	13487
543.994	11899
544.059	14408
544.124	12857
544.190	13750
544.255	14417
544.320	15562
544.386	14958
544.451	20843
544.516	22759
544.581	23698
544.646	62461
544.712	90340
544.777	23095
544.842	22864
544.907	24631
544.972	19735
545.037	19924
545.102	22647
545.168	21571
545.233	22336
545.298	23955
545.363	28354
545.428	27122
545.493	40042
545.558	80396
545.623	36160
545.688	22741
545.753	20832
545.818	20242
545.883	21995
545.947	19427
546.012	23113
546.077	24028
546.142	22422
546.207	20267
546.272	24224
546.337	24677
546.401	21217
546.466	19624
546.531	19287
546.596	20696
546.661	20951
546.725	20042
546.790	17626
546.855	19766
546.919	18366
546.984	18642
547.049	21345
547.113	26435
547.178	19183
547.243	22454
547.307	24543
547.372	28235
547.436	33754
547.501	19783
547.565	20282
547.630	24238
547.695	26293
547.759	33359
547.823	27721
547.888	19578
547.952	19097
548.017	19955
548.081	23984
548.146	38063
548.210	30373
548.274	18879
548.339	18029
548.403	17854
548.468	16858
548.532	17339
548.596	17952
548.660	18239
548.725	19823
548.789	25146
548.853	27743
548.917	21842
548.982	36570
549.046	36490
549.110	20543
549.174	19287
549.238	18008
549.303	15577
549.367	18509
549.431	17244
549.495	16259
549.559	17620
549.623	17725
549.687	21441
549.751	31437
549.815	22579
549.879	19688
549.943	18686
550.007	21571
550.071	20979
550.135	27027
550.199	21954
550.263	20329
550.327	25467
550.391	36759
550.455	21713
550.519	20086
550.582	21079
550.646	27131
550.710	28998
550.774	21145
550.838	21310
550.901	22063
550.965	23471
551.029	23788
551.093	27154
551.156	38940
551.220	84340
551.284	85618
551.347	40507
551.411	113099
551.475	116185
551.538	27046
551.602	20983
551.666	20695
551.729	18698
551.793	21500
551.856	24662
551.920	29264
551.983	25240
552.047	21329
552.110	18542
552.174	18555
552.237	17941
552.301	18458
552.364	18046
552.428	19919
552.491	18695
552.554	20272
552.618	20616
552.681	22229
552.745	24175
552.808	36524
552.871	46987
552.934	31390
552.998	26296
553.061	29435
553.124	28698
553.187	31838
553.251	36269
553.314	43683
553.377	48144
553.440	84706
553.503	309940
553.567	479028
553.630	78484
553.693	31447
553.756	25319
553.819	20393
553.882	19411
553.945	18301
554.008	17983
554.071	15985
554.134	17537
554.197	17897
554.260	16098
554.323	20312
554.386	18768
554.449	17647
554.512	16664
554.575	16313
554.638	17862
554.701	16776
554.764	16618
554.827	16938
554.889	16051
554.952	15095
555.015	16026
555.078	16424
555.141	16525
555.203	15192
555.266	15274
555.329	17873
555.391	15888
555.454	17017
555.517	16360
555.580	15921
555.642	14203
555.705	15400
555.768	16111
555.830	16894
555.893	14924
555.955	16702
556.018	15785
556.080	16685
556.143	15465
556.206	15999
556.268	18551
556.330	18700
556.393	17652
556.455	19828
556.518	31296
556.580	30963
556.643	16436
556.705	16067
556.767	14670
556.830	16914
556.892	18935
556.955	26194
557.017	20986
557.079	17451
557.142	16486
557.204	19012
557.266	34154
557.328	27644
557.391	16271
557.453	16814
557.515	16503
557.577	19273
557.639	19804
557.701	15712
557.764	14499
557.826	16092
557.888	17176
557.950	14834
558.012	15242
558.074	15728
558.136	17731
558.198	21019
558.260	19294
558.322	17873
558.384	16918
558.446	18305
558.508	18388
558.570	23329
558.632	33537
558.694	46913
558.756	24441
558.818	30769
558.880	58973
558.942	27705
559.003	21530
559.065	16354
559.127	15678
559.189	15881
559.251	15686
559.312	17000
559.374	20188
559.436	39715
559.498	27793
559.559	16974
559.621	16716
559.683	19613
559.744	28515
559.806	42576
559.868	41775
559.929	25564
559.991	22362
560.052	21932
560.114	25932
560.176	24565
560.237	23720
560.299	28241
560.360	20825
560.422	22030
560.483	22013
560.545	20830
560.606	20824
560.667	19991
560.729	20053
560.790	19902
560.852	19345
560.913	20347
560.974	19777
561.036	19515
561.097	18921
561.158	20969
561.220	20588
561.281	21194
561.342	21466
561.403	24310
561.465	27722
561.526	50496
561.587	59246
561.648	24926
561.709	21600
561.771	21931
561.832	20216
561.893	20636
561.954	20372
562.015	20393
562.076	20201
562.137	20695
562.198	20670
562.259	20145
562.320	20559
562.381	22117
562.442	26382
562.503	24305
562.564	19647
562.625	19006
562.686	20337
562.747	20701
562.808	19970
562.869	21475
562.930	28548
562.991	27723
563.051	24278
563.112	22992
563.173	21458
563.234	21099
563.294	21193
563.355	20954
563.416	22017
563.477	22080
563.537	21589
563.598	23537
563.659	21500
563.720	22042
563.780	22319
563.841	22431
563.901	22012
563.962	21609
564.023	21258
564.083	23015
564.144	21992
564.204	22703
564.265	22241
564.325	29180
564.386	54611
564.446	45679
564.507	21589
564.567	20438
564.628	20235
564.688	21435
564.749	21710
564.809	25156
564.869	29439
564.930	22939
564.990	20362
565.050	20026
565.111	20190
565.171	20652
565.231	19232
565.292	19033
565.352	18223
565.412	20936
565.472	20695
565.532	20940
565.593	19162
565.653	18963
565.713	21070
565.773	20965
565.833	22569
565.893	27226
565.953	20948
566.013	21215
566.074	22122
566.134	30036
566.194	48016
566.254	45234
566.314	29216
566.374	22240
566.434	22363
566.494	20923
566.554	19672
566.614	19972
566.673	19923
566.733	20981
566.793	21468
566.853	20632
566.913	20534
566.973	21717
567.033	22486
567.092	22052
567.152	21316
567.212	22377
567.272	22039
567.331	24733
567.391	22508
567.451	24239
567.511	33441
567.570	35933
567.630	20804
567.690	20567
567.749	19655
567.809	19778
567.868	20182
567.928	21730
567.988	23622
568.047	22320
568.107	20378
568.166	19924
568.226	19807
568.285	22864
568.345	22092
568.404	21767
568.464	20265
568.523	18964
568.582	19965
568.642	21578
568.701	20271
568.761	22111
568.820	24328
568.879	26732
568.939	32765
568.998	26267
569.057	20448
569.116	19925
569.176	18853
569.235	18920
569.294	17750
569.353	18281
569.413	18272
569.472	20803
569.531	17625
569.590	17987
569.649	17226
569.708	16845
569.767	18415
569.827	20575
569.886	18470
569.945	17568
570.004	17149
570.063	18095
570.122	19238
570.181	20970
570.240	23992
570.299	24542
570.358	20270
570.417	18759
570.475	17732
570.534	19083
570.593	17947
570.652	18837
570.711	19200
570.770	19078
570.829	21100
570.887	18758
570.946	20059
571.005	18147
571.064	18280
571.122	18776
571.181	22149
571.240	19240
571.299	18792
571.357	21118
571.416	21586
571.475	23354
571.533	25191
571.592	20143
571.650	20424
571.709	18962
571.768	17534
571.826	17022
571.885	17140
571.943	16354
572.002	18083
572.060	20282
572.119	16107
572.177	17295
572.236	15339
572.294	15856
572.352	16112
572.411	14928
572.469	16062
572.528	16943
572.586	15278
572.644	17158
572.703	18502
572.761	17645
572.819	16409
572.877	15748
572.936	14660
572.994	15114
573.052	15169
573.110	15161
573.169	14060
573.227	14119
573.285	14161
573.343	15281
573.401	15231
573.459	15897
573.517	15379
573.576	15152
573.634	15537
573.692	15492
573.750	13866
573.808	15170
573.866	16942
573.924	23955
573.982	22125
574.040	14854
574.098	15491
574.155	14321
574.213	14233
574.271	14358
574.329	12997
574.387	13832
574.445	14880
574.503	12955
574.560	12898
574.618	12954
574.676	12868
574.734	13403
574.792	13740
574.849	13388
574.907	12530
574.965	12562
575.022	12244
575.080	14316
575.138	13598
575.195	14014
575.253	14553
575.311	14685
575.368	13884
575.426	13843
575.483	13735
575.541	13888
575.598	13390
575.656	14464
575.713	14306
575.771	14243
575.828	12934
575.886	13917
575.943	16431
576.001	16170
576.058	15750
576.115	16697
576.173	18739
576.230	21639
576.287	20828
576.345	19083
576.402	16280
576.459	16833
576.517	16847
576.574	18536
576.631	19508
576.688	18899
576.746	16012
576.803	15663
576.860	14857
576.917	16390
576.974	16376
577.031	15870
577.089	15578
577.146	16706
577.203	16722
577.260	17653
577.317	18073
577.374	21467
577.431	19287
577.488	17628
577.545	16533
577.602	18673
577.659	20497
577.716	25950
577.773	30820
577.830	25579
577.886	19515
577.943	18159
578.000	18042
578.057	19846
578.114	18836
578.171	20925
578.227	25959
578.284	27214
578.341	23582
578.398	21179
578.454	20558
578.511	22288
578.568	23291
578.625	19518
578.681	16032
578.738	15748
578.794	15038
578.851	15581
578.908	14653
578.964	17044
579.021	16069
579.077	16375
579.134	14573
579.190	15272
579.247	14181
579.303	14768
579.360	13303
579.416	14338
579.473	14619
579.529	14709
579.586	14393
579.642	14339
579.698	15448
579.755	17801
579.811	16248
579.867	17605
579.924	18278
579.980	20324
580.036	22248
580.093	25874
580.149	34065
580.205	40069
580.261	31410
580.317	27407
580.374	24119
580.430	24918
580.486	23224
580.542	21464
580.598	18757
580.619	18121
580.654	17035
580.692	16628
580.710	16455
580.765	16170
580.767	16179
580.823	16500
580.838	16188
580.879	15433
580.911	14944
580.935	14604
580.984	15491
580.991	15634
581.047	16255
581.057	16327
581.103	16754
581.130	18105
581.159	19516
581.203	20865
581.215	21260
581.270	20104
581.276	20017
581.326	19300
581.349	18905
581.382	18359
581.422	18280
581.438	18276
581.494	17395
581.494	17382
581.550	17262
581.567	17122
581.606	16807
581.640	16572
581.661	16479
581.713	16094
581.717	16077
581.773	15797
581.786	15950
581.829	16472
581.859	16943
581.885	17343
581.932	16189
581.940	16001
581.996	16918
582.004	16737
582.052	15712
582.077	15895
582.107	16155
582.150	16372
582.163	16445
582.219	16839
582.223	16793
582.274	16469
582.296	16848
582.330	17329
582.368	17672
582.386	17903
582.441	17083
582.441	17086
582.497	16816
582.514	17917
582.552	20722
582.587	24426
582.608	26270
582.659	20962
582.663	20560
582.719	16582
582.732	16426
582.774	16219
582.805	15771
582.830	15417
582.877	16370
582.885	16525
582.941	16255
582.950	16375
582.996	16958
583.023	17160
583.052	17704
583.095	19164
583.107	19540
583.162	22802
583.168	23055
583.218	24831
583.240	23867
583.273	22435
583.313	20747
583.328	20119
583.384	18149
583.385	18132
583.439	17389
583.458	17165
583.494	16842
583.531	16270
583.549	16132
583.603	15812
583.605	15787
583.660	15748
583.676	15386
583.715	14737
583.748	15796
583.770	16505
583.820	16254
583.825	16200
583.881	16040
583.893	15779
583.936	15029
583.965	14680
583.991	14330
584.038	15007
584.046	15150
584.101	15446
584.110	15175
584.156	13711
584.183	14204
584.211	14626
584.255	14426
584.266	14443
584.321	14369
584.328	14390
584.376	14380
584.400	14588
584.431	14937
584.472	14100
584.486	13735
584.541	13841
584.545	13847
584.596	14286
584.617	14620
584.651	15368
584.689	15656
584.706	15506
584.761	15130
584.762	15130
584.816	15396
584.834	15579
584.871	15817
584.906	15862
584.926	15925
584.978	15690
584.980	15689
585.035	16425
585.051	16839
585.090	17895
585.123	18151
585.145	18316
585.195	19042
585.200	19303
585.254	23501
585.267	25529
585.309	33584
585.340	39479
585.364	40422
585.412	28077
585.419	26223
585.473	18050
585.484	17213
585.528	18010
585.556	18312
585.583	18543
585.628	19978
585.637	20559
585.692	24327
585.700	25192
585.747	28376
585.772	27286
585.801	23923
585.845	19251
585.856	18638
585.910	17848
585.917	17729
585.965	17439
585.989	17385
586.019	17366
586.061	17564
586.074	17661
586.128	17889
586.133	18023
586.183	20165
586.205	20578
586.237	20717
586.277	20968
586.292	20904
586.346	20246
586.349	20261
586.401	21006
586.421	21189
586.455	22624
586.493	25672
586.509	29107
586.564	42346
586.565	42848
586.618	68969
586.637	70444
586.672	53244
586.709	31672
586.727	25519
586.781	20270
586.781	20267
586.835	19745
586.853	19567
586.889	18959
586.925	18717
586.944	18746
586.996	18784
586.998	18802
587.052	20579
587.068	20513
587.106	19958
587.140	20149
587.161	20203
587.212	20036
587.215	20064
587.269	21104
587.284	21258
587.323	21045
587.356	20746
587.377	20678
587.427	20562
587.431	20561
587.485	21077
587.499	21151
587.539	21564
587.571	21903
587.593	22040
587.643	22210
587.648	22285
587.702	23182
587.715	23447
587.755	24164
587.786	24615
587.810	24531
587.858	23542
587.864	23631
587.917	25895
587.930	26364
587.971	28037
588.001	29350
588.025	29502
588.073	28354
588.079	28375
588.133	29634
588.145	29930
588.187	31214
588.217	32416
588.241	33983
588.288	36542
588.295	36964
588.348	41686
588.360	42638
588.402	46926
588.431	50380
588.456	53538
588.503	59639
588.510	60580
588.564	69175
588.575	71175
588.617	81451
588.646	88607
588.671	96563
588.718	114164
588.725	119617
588.778	168573
588.789	181036
588.832	298161
588.861	390631
588.886	532790
588.932	839877
588.939	861322
588.993	971676
589.004	960856
589.047	612927
589.075	390329
589.100	287713
589.147	148327
589.154	142549
589.207	110457
589.218	104789
589.261	100821
589.290	99882
589.314	104258
589.361	115601
589.368	122290
589.421	184910
589.433	200871
589.475	360096
589.504	487465
589.528	610697
589.576	856724
589.582	834663
589.635	492205
589.647	418820
589.689	223848
589.718	113225
589.742	94889
589.790	65571
589.795	65221
589.849	64422
589.861	65012
589.902	69158
589.932	69805
589.955	60041
590.004	37634
590.009	37044
590.062	34188
590.075	33282
590.115	31586
590.146	30659
590.168	30073
590.218	28479
590.222	28575
590.275	29946
590.289	30241
590.328	29850
590.360	29374
590.381	28665
590.431	26851
590.435	26855
590.488	27010
590.503	26944
590.541	27059
590.574	27273
590.594	26946
590.645	26129
590.647	26166
590.700	26566
590.716	26693
590.753	25822
590.787	24888
590.806	24830
590.859	24842
590.859	24854
590.912	24368
590.930	24312
590.965	24221
591.001	23895
591.018	23890
591.071	23911
591.072	23898
591.124	23231
591.143	22959
591.177	23684
591.214	24448
591.230	24725
591.283	25730
591.285	25753
591.336	26516
591.356	26784
591.389	26669
591.427	26305
591.442	25938
591.495	24825
591.498	24710
591.547	24303
591.569	24230
591.600	23869
591.640	23264
591.653	23616
591.706	25061
591.711	25220
591.759	28458
591.782	30090
591.811	31782
591.853	34099
591.864	33017
591.917	27025
591.924	26179
591.969	26253
591.995	26241
592.022	26488
592.066	26922
592.075	27921
592.127	33990
592.137	35120
592.180	40226
592.208	43243
592.233	37777
592.279	27206
592.285	26933
592.338	24661
592.350	24147
592.390	24108
592.421	24062
592.443	24298
592.491	24789
592.495	24834
592.548	25278
592.562	25390
592.600	24679
592.633	24041
592.653	23957
592.704	23587
592.705	23733
592.775	24369
592.846	24091
592.916	25340
592.987	26264
593.058	25820
593.128	23617
593.199	23783
593.270	22349
593.341	23367
593.411	22389
593.482	23198
593.553	23139
593.623	22962
593.694	23947
593.764	27475
593.835	23068
593.906	22435
593.976	22031
594.047	25108
594.117	33516
594.188	33145
594.258	21927
594.329	20913
594.399	21622
594.470	21062
594.540	21114
594.611	20636
594.681	21452
594.751	22056
594.822	22740
594.892	24307
594.963	26211
595.033	24984
595.103	25707
595.174	30492
595.244	52016
595.314	64683
595.384	27541
595.455	23649
595.525	23055
595.595	23681
595.665	24668
595.736	22813
595.806	23684
595.876	22812
595.946	22306
596.016	20500
596.087	22432
596.157	22541
596.227	22457
596.297	24525
596.367	25233
596.437	29560
596.507	47560
596.577	60761
596.647	27643
596.717	22668
596.787	22029
596.857	23371
596.927	23456
596.997	24040
597.067	28739
597.137	41113
597.207	30212
597.277	23763
597.347	22882
597.417	21891
597.487	23668
597.557	23459
597.626	24457
597.696	28768
597.766	39018
597.836	56998
597.906	30625
597.975	23292
598.045	22424
598.115	22569
598.185	22188
598.254	23733
598.324	24339
598.394	23621
598.464	23765
598.533	22340
598.603	21247
598.672	22478
598.742	22073
598.812	22699
598.881	21864
598.951	21580
599.020	20632
599.090	20060
599.159	20589
599.229	19197
599.299	18786
599.368	21178
599.437	20636
599.507	22565
599.576	27107
599.646	35089
599.715	37313
599.785	23578
599.854	27223
599.924	31152
599.993	25419
600.062	20842
600.132	21823
600.201	21992
600.270	22786
600.340	21501
600.409	19823
600.478	20924
600.547	19994
600.617	21605
600.686	21280
600.755	20780
600.824	22409
600.894	21834
600.963	20398
601.032	19904
601.101	20242
601.170	19788
601.239	19913
601.308	21386
601.378	20199
601.447	20404
601.516	19364
601.585	20312
601.654	20626
601.723	22980
601.792	23617
601.861	31065
601.930	43314
601.999	27169
602.068	20436
602.137	19955
602.206	20031
602.275	20495
602.343	24441
602.412	23813
602.481	20373
602.550	18598
602.619	19179
602.688	20679
602.756	18928
602.825	18561
602.894	18370
602.963	19048
603.032	18181
603.100	18936
603.169	19003
603.238	19323
603.307	18960
603.375	17802
603.444	18255
603.513	17977
603.581	17994
603.650	18404
603.719	17413
603.787	17652
603.856	18813
603.924	18417
603.993	19053
604.061	16850
604.130	18447
604.198	18581
604.267	18073
604.335	17751
604.404	17026
604.472	15897
604.541	17781
604.609	17711
604.678	16666
604.746	17881
604.815	16729
604.883	17146
604.951	17631
605.020	16516
605.088	17635
605.156	18724
605.225	17587
605.293	17303
605.361	18206
605.429	17559
605.498	18226
605.566	18900
605.634	18583
605.702	17873
605.771	18436
605.839	19031
605.907	17956
605.975	17961
606.043	18061
606.111	19446
606.180	25458
606.248	47955
606.316	53123
606.384	23869
606.452	28831
606.520	26984
606.588	19416
606.656	16342
606.724	16124
606.792	16303
606.860	15713
606.928	14819
606.996	16242
607.064	14999
607.132	15627
607.200	16370
607.267	15979
607.335	15041
607.403	15728
607.471	16130
607.539	15341
607.607	16001
607.674	15716
607.742	16621
607.810	17618
607.878	16148
607.946	14275
608.013	15614
608.081	16218
608.149	15710
608.216	14813
608.284	16206
608.352	16562
608.419	19038
608.487	35148
608.555	20635
608.622	15961
608.690	15091
608.757	15815
608.825	15637
608.893	17521
608.960	19890
609.028	27181
609.095	37970
609.163	19501
609.230	18813
609.298	17234
609.365	14275
609.432	14511
609.500	15369
609.567	15623
609.635	17280
609.702	16500
609.769	18059
609.837	22233
609.904	17500
609.971	15417
610.039	17708
610.106	21246
610.173	29466
610.241	55321
610.308	57657
610.375	36053
610.442	17630
610.509	16071
610.577	15482
610.644	15104
610.711	14719
610.778	16579
610.845	17659
610.912	23405
610.980	40026
611.047	84209
611.114	39792
611.181	17392
611.248	14595
611.315	16570
611.382	13891
611.449	15239
611.516	15272
611.583	15341
611.650	14834
611.717	14844
611.784	15396
611.851	16504
611.918	18200
611.984	17025
612.051	24656
612.118	41103
612.185	82175
612.252	51368
612.319	18332
612.386	15821
612.452	16608
612.519	24107
612.586	39054
612.653	23469
612.719	15053
612.786	14123
612.853	13910
612.919	14389
612.986	14223
613.053	13091
613.120	12916
613.186	12093
613.253	14828
613.319	14027
613.386	13617
613.453	13522
613.519	18103
613.586	23376
613.652	35291
613.719	29313
613.785	24828
613.852	18891
613.918	22237
613.985	37760
614.051	90324
614.118	248242
614.184	213391
614.250	34146
614.317	17828
614.383	14811
614.449	15143
614.516	14496
614.582	16600
614.648	14297
614.715	12900
614.781	13274
614.847	14539
614.914	17483
614.980	15771
615.046	14718
615.112	13840
615.179	13415
615.245	13163
615.311	14345
615.377	15259
615.443	15871
615.509	15598
615.575	15874
615.642	14520
615.708	16551
615.774	16911
615.840	20047
615.906	22734
615.972	23199
616.038	32162
616.104	57261
616.170	118571
616.236	93363
616.302	31907
616.368	22740
616.434	20982
616.500	21464
616.565	21532
616.631	21607
616.697	20066
616.763	20898
616.829	24099
616.895	32205
616.961	30516
617.026	22414
617.092	18242
617.158	19302
617.224	18626
617.289	18466
617.355	20302
617.421	20339
617.487	20830
617.552	18690
617.618	17589
617.684	18034
617.749	19879
617.815	17398
617.880	16772
617.946	18036
618.012	18085
618.077	16858
618.143	17141
618.208	18077
618.274	18181
618.339	20090
618.405	17689
618.470	20858
618.536	21964
618.601	25393
618.667	23227
618.732	21523
618.798	20703
618.863	20822
618.928	20027
618.994	24091
619.059	26423
619.124	33755
619.190	24270
619.255	20740
619.320	22287
619.386	21724
619.451	18934
619.516	20885
619.581	20118
619.647	20499
619.712	20326
619.777	20558
619.842	21645
619.907	21464
619.972	21915
620.038	21593
620.103	20696
620.168	18906
620.233	20229
620.298	19250
620.363	19783
620.428	20897
620.493	20018
620.558	19215
620.623	19266
620.688	18428
620.753	19095
620.818	19015
620.883	19569
620.948	18657
621.013	19639
621.078	19812
621.143	20408
621.207	23507
621.272	23045
621.337	24719
621.402	29462
621.467	41537
621.532	42503
621.596	29762
621.661	26567
621.726	24519
621.791	25112
621.855	26039
621.920	29821
621.985	31445
622.049	38862
622.114	35271
622.179	30513
622.243	29826
622.308	27890
622.373	29917
622.437	27969
622.502	25704
622.566	27162
622.631	27099
622.695	27708
622.760	28026
622.824	27068
622.889	26593
622.953	30665
623.018	42023
623.082	38803
623.147	27143
623.211	26303
623.276	26905
623.340	24375
623.404	24254
623.469	25070
623.533	24383
623.597	23329
623.662	24665
623.726	23354
623.790	23421
623.854	23952
623.919	26057
623.983	24228
624.047	24821
624.111	22925
624.176	23925
624.240	24608
624.304	27470
624.368	23854
624.432	24574
624.496	25407
624.560	26723
624.625	28173
624.689	23517
624.753	22143
624.817	23258
624.881	21794
624.945	22183
625.009	22346
625.073	22614
625.137	24292
625.201	30951
625.265	29450
625.329	23462
625.393	25542
625.456	24262
625.520	25379
625.584	30902
625.648	41888
625.712	75988
625.776	189018
625.839	202387
625.903	66396
625.967	37580
626.031	72196
626.095	109469
626.158	33421
626.222	21278
626.286	20488
626.349	19631
626.413	20723
626.477	23805
626.540	20408
626.604	20180
626.668	21575
626.731	19377
626.795	22422
626.858	22605
626.922	20492
626.986	21609
627.049	18079
627.113	19106
627.176	19143
627.240	19434
627.303	18949
627.366	19775
627.430	19014
627.493	20554
627.557	20536
627.620	21587
627.684	19688
627.747	19907
627.810	17658
627.874	18824
627.937	19610
628.000	21322
628.064	19311
628.127	16256
628.190	19375
628.253	19867
628.317	17892
628.380	18522
628.443	17861
628.506	18357
628.569	17503
628.632	16820
628.696	17670
628.759	17249
628.822	16247
628.885	16830
628.948	17832
629.011	17504
629.074	17467
629.137	16494
629.200	16888
629.263	19949
629.326	15732
629.389	16177
629.452	17626
629.515	18231
629.578	16296
629.641	19989
629.704	18361
629.767	17926
629.830	16751
629.892	16008
629.955	16142
630.018	18244
630.081	18592
630.144	22597
630.207	16852
630.269	20471
630.332	23252
630.395	18332
630.458	15508
630.520	14675
630.583	16639
630.646	15659
630.708	14835
630.771	13918
630.834	15012
630.896	14978
630.959	14302
631.021	13542
631.084	15903
631.146	18931
631.209	22747
631.272	14304
631.334	14571
631.397	13696
631.459	13159
631.522	14012
631.584	14313
631.646	14736
631.709	15776
631.771	20267
631.834	15394
631.896	14038
631.958	12050
632.021	14932
632.083	12269
632.145	15264
632.208	13514
632.270	15102
632.332	12729
632.395	12403
632.457	13972
632.519	14018
632.581	13614
632.643	12440
632.706	13039
632.768	12280
632.830	12886
632.892	12576
632.954	11762
633.016	14380
633.078	12191
633.141	11981
633.203	11763
633.265	13125
633.327	13166
633.389	12663
633.451	14776
633.513	18119
633.575	19003
633.637	16702
633.698	14376
633.760	12422
633.822	12499
633.884	12538
633.946	13302
634.008	14675
634.070	18782
634.132	30553
634.193	18783
634.255	12564
634.317	11063
634.379	12445
634.441	10832
634.502	11094
634.564	11486
634.626	10601
634.687	11658
634.749	11991
634.811	12196
634.873	9570
634.934	11161
634.996	11647
635.057	10966
635.119	10596
635.181	10402
635.242	12545
635.304	9231
635.365	13181
635.427	11461
635.488	11296
635.550	10673
635.611	12489
635.673	9061
635.734	12409
635.796	11301
635.857	13112
635.918	10370
635.980	12818
636.041	10343
636.102	11354
636.164	11296
636.225	12257
636.286	9705
636.348	11326
636.409	10711
636.470	10604
636.531	12252
636.593	14904
636.654	13188
636.715	10548
636.776	9135
636.838	9166
636.899	10541
636.960	10221
637.021	8860
637.082	10197
637.143	10651
637.204	8792
637.265	8768
637.326	9364
637.387	9450
637.448	7619
637.509	9749
637.570	9531
637.631	10250
637.692	7895
637.753	7471
637.814	9358
637.875	9565
637.936	9606
637.997	8939
638.058	9687
638.119	10718
638.179	9365
638.240	9066
638.301	9743
638.362	8577
638.423	9565
638.483	9843
638.544	8345
638.605	8912
638.666	7570
638.726	9415
638.787	9186
638.848	8246
638.908	8624
638.969	9394
639.030	9727
639.090	8143
639.151	8717
639.211	10375
639.272	13770
639.332	20690
639.393	11433
639.453	9191
639.514	8969
639.574	9384
639.635	8496
639.695	9853
639.756	8002
639.816	10445
639.877	10477
639.937	17744
639.997	21796
640.058	9711
640.118	7445
640.178	9415
640.239	7278
640.299	7685
640.359	7492
640.420	7854
640.480	7790
640.540	7029
640.600	7328
640.661	8880
640.721	7507
640.781	10566
640.841	7696
640.901	8992
640.961	8778
641.021	8709
641.082	8963
641.142	14612
641.202	10825
641.262	6677
641.322	8642
641.382	6481
641.442	8420
641.502	8178
641.562	8434
641.622	7747
641.682	8844
641.742	6877
641.802	8792
641.861	8968
641.921	9805
641.981	10455
642.041	10177
642.101	11859
642.161	7395
642.221	7674
642.280	7597
642.340	7516
642.400	6678
642.460	8183
642.519	7325
642.579	7213
642.639	8339
642.698	5373
642.758	8364
642.818	8043
642.877	7606
642.937	8304
642.997	9613
643.056	13906
643.116	7010
643.175	8353
643.235	7713
643.294	7372
643.354	7342
643.414	8243
643.473	7627
643.532	7558
643.592	7587
643.651	9702
643.711	13797
643.770	21945
643.830	40946
643.889	78842
643.948	18727
644.008	8227
644.067	7296
644.126	6539
644.186	6558
644.245	6957
644.304	5361
644.363	8299
644.423	5127
644.482	7315
644.541	6794
644.600	5159
644.659	7844
644.719	6375
644.778	8710
644.837	8875
644.896	12495
644.955	20854
645.014	16744
645.073	18749
645.132	9449
645.191	7914
645.250	6785
645.309	6862
645.368	6179
645.427	6817
645.486	5848
645.545	8794
645.604	5995
645.663	7214
645.722	5985
645.781	5779
645.840	5666
645.898	6091
645.957	8116
646.016	6616
646.075	11176
646.134	16862
646.192	38649
646.251	49639
646.310	9608
646.369	6187
646.427	7130
646.486	5889
646.545	5707
646.603	5958
646.662	6532
646.721	5951
646.779	4993
646.838	4614
646.896	7035
646.955	6673
647.014	7148
647.072	6915
647.131	12433
647.189	6749
647.248	4748
647.306	5997
647.365	6678
647.423	4479
647.481	7178
647.540	4462
647.598	5477
647.657	5549
647.715	6486
647.773	4744
647.832	7097
647.890	5731
647.948	4870
648.007	7235
648.065	6382
648.123	7987
648.181	12481
648.240	21463
648.298	15873
648.356	7107
648.414	6815
648.472	6624
648.531	7318
648.589	6083
648.647	5884
648.705	5980
648.763	5956
648.821	6299
648.879	5019
648.937	6166
648.995	5971
649.053	5882
649.111	7587
649.169	9238
649.227	10573
649.285	16319
649.343	33770
649.401	24348
649.459	34089
649.516	32082
649.574	43593
649.632	116725
649.690	126515
649.748	36486
649.806	49914
649.863	68255
649.921	19635
649.979	9389
650.037	8430
650.094	6268
650.152	6966
650.210	5087
650.268	6865
650.325	5860
650.383	5760
650.440	5558
650.498	5460
650.556	6371
650.613	4919
650.671	5898
650.728	5703
650.786	6219
650.843	5928
650.901	3507
650.958	5722
651.016	4334
651.073	5584
651.131	4361
651.188	4692
651.246	6556
651.303	4266
651.360	5564
651.418	4194
651.475	5098
651.532	4084
651.590	4597
651.647	3768
651.704	5196
651.762	4833
651.819	5552
651.876	4938
651.933	5527
651.990	6037
652.048	3899
652.105	4841
652.162	5397
652.219	5038
652.276	5531
652.333	6064
652.390	4886
652.448	5451
652.505	6881
652.562	8448
652.619	13629
652.676	32793
652.733	28471
652.790	6789
652.847	4340
652.904	5067
652.961	3609
653.017	3601
653.074	5009
653.131	5013
653.188	3911
653.245	3560
653.302	3742
653.359	3413
653.415	5171
653.472	3658
653.529	4497
653.586	3864
653.642	3563
653.699	4299
653.756	3846
653.813	3353
653.869	4599
653.926	3199
653.983	4028
654.039	4371
654.096	4348
654.152	5827
654.209	3073
654.266	4836
654.322	4453
654.379	5837
654.435	7173
654.492	7010
654.548	11442
654.605	16005
654.661	7296
654.717	5057
654.774	5491
654.830	5070
654.887	4690
654.943	4703
655.000	4997
655.056	5047
655.112	5671
655.168	5290
655.225	5260
655.281	7939
655.337	11006
655.394	18852
655.450	11991
655.506	10971
655.562	19965
655.618	13737
655.675	4638
655.731	4428
655.787	4590
655.843	5333
655.899	3995
655.955	4808
656.011	4909
656.067	3621
656.123	5980
656.179	3989
656.235	5058
656.291	3636
656.347	6285
656.403	4598
656.459	6208
656.515	6705
656.571	7183
656.627	5345
656.683	4531
656.739	4846
656.795	4010
656.850	5297
656.906	5690
656.962	5330
657.018	4280
657.074	4434
657.129	4032
657.185	4285
657.241	4369
657.297	3249
657.352	4205
657.408	4433
657.464	6824
657.519	5455
657.575	3389
657.630	4177
657.686	4023
657.742	3679
657.797	4184
657.853	4368
657.908	5897
657.964	3982
658.019	4178
658.075	5233
658.130	4763
658.186	3895
658.241	4756
658.297	4597
658.352	4323
658.407	4530
658.463	3764
658.518	4678
658.573	4429
658.629	3309
658.684	3142
658.739	3769
658.795	3059
658.850	4162
658.905	4389
658.960	4475
659.016	3808
659.071	4008
659.126	5911
659.181	5991
659.236	9667
659.291	10095
659.346	7814
659.401	9948
659.457	17178
659.512	25297
659.567	9227
659.622	5585
659.677	4502
659.732	4362
659.787	4600
659.842	7130
659.897	8317
659.952	4727
660.007	4265
660.061	4293
660.116	2535
660.171	3703
660.226	4895
660.281	4998
660.336	4151
660.391	4496
660.445	3312
660.500	4699
660.555	4432
660.610	3236
660.664	5024
660.719	4198
660.774	4994
660.828	3482
660.883	3982
660.938	4444
660.992	2838
661.047	4553
661.101	3792
661.156	4212
661.211	3848
661.265	3529
661.320	4467
661.374	3343
661.429	3483
661.483	4170
661.538	3311
661.592	4190
661.647	4209
661.701	4549
661.755	3539
661.810	4597
661.864	3780
661.919	3695
661.973	4485
662.027	4437
662.081	4007
662.136	4459
662.190	5235
662.244	5794
662.299	3907
662.353	3929
662.407	4478
662.461	4642
662.515	4228
662.569	4760
662.624	4905
662.678	4176
662.732	4401
662.786	5070
662.840	4992
662.894	4697
662.948	3870
663.002	3871
663.056	3918
663.110	3761
663.164	3907
663.218	4098
663.272	4887
663.326	4913
663.380	5005
663.434	4410
663.488	4131
663.542	4943
663.595	4781
663.649	3704
663.703	4990
663.757	4931
663.811	3148
663.864	3603
663.918	3858
663.972	5058
664.026	4139
664.079	4201
664.133	4809
664.187	3864
664.240	4248
664.294	3768
664.348	3831
664.401	4493
664.455	3555
664.508	4073
664.562	4724
664.615	3776
664.669	3537
664.722	4237
664.776	3840
664.829	3884
664.883	3956
664.936	4219
664.990	4645
665.043	5276
665.097	5368
665.150	7099
665.203	5161
665.257	4836
665.310	5050
665.363	5112
665.417	5034
665.470	5328
665.523	4568
665.576	4738
665.630	4136
665.683	5023
665.736	5774
665.789	5042
665.842	3843
665.895	4748
665.949	5029
666.002	5000
666.055	5216
666.108	5484
666.161	5736
666.214	5243
666.267	5098
666.320	6101
666.373	5290
666.426	5007
666.479	5508
666.532	6416
666.585	7385
666.638	7539
666.691	6891
666.744	7673
666.796	6829
666.849	6646
666.902	5909
666.955	5345
667.008	4973
667.060	3985
667.113	4042
667.166	4774
667.219	5091
667.271	4780
667.324	4975
667.377	6502
667.430	7451
667.482	11588
667.535	9234
667.587	5782
667.640	5764
667.693	6623
667.745	10249
667.798	10056
667.850	5556
667.903	5273
667.955	4969
668.008	5632
668.060	6457
668.113	6373
668.165	6278
668.218	6397
668.270	6380
668.322	5710
668.375	5533
668.427	5657
668.479	5286
668.532	5236
668.584	5622
668.636	5550
668.689	5891
668.741	5070
668.793	5699
668.845	5476
668.898	6194
668.950	5391
669.002	5378
669.054	4789
669.106	5556
669.158	6853
669.211	6485
669.263	6957
669.315	11951
669.367	14249
669.419	6424
669.471	5887
669.523	5847
669.575	7690
669.627	5813
669.679	5854
669.731	4660
669.783	5801
669.835	6526
669.886	4855
669.938	5878
669.990	5474
670.042	3853
670.094	6063
670.146	5295
670.197	6584
670.249	6880
670.301	7020
670.353	8639
670.404	10082
670.456	13795
670.508	21513
670.560	32318
670.611	56709
670.663	99035
670.715	248363
670.766	334767
670.818	79410
670.869	18041
670.921	11123
670.972	9155
671.024	7712
671.075	7376
671.127	6063
671.178	6391
671.230	6498
671.281	5832
671.333	5862
671.384	6136
671.436	6292
671.487	7006
671.538	6505
671.590	7160
671.641	7577
671.692	7961
671.744	8783
671.795	6925
671.846	6036
671.897	6481
671.949	6330
672.000	6171
672.051	5789
672.102	6440
672.153	5104
672.204	5620
672.256	5431
672.307	4914
672.358	6389
672.409	5612
672.460	6244
672.511	5569
672.562	5123
672.613	5343
672.664	5148
672.715	5491
672.766	5776
672.817	4567
672.868	4912
672.919	5517
672.970	5690
673.021	5761
673.071	4332
673.122	5392
673.173	5097
673.224	5347
673.275	5256
673.326	4658
673.376	5374
673.427	5357
673.478	5070
673.528	5204
673.579	4803
673.630	5145
673.680	5550
673.731	4428
673.782	4564
673.832	5163
673.883	6060
673.934	4270
673.984	4640
674.035	4758
674.085	5304
674.136	5388
674.186	5738
674.237	8381
674.287	11939
674.338	5674
674.388	5279
674.438	5340
674.489	5350
674.539	5880
674.589	5805
674.640	5427
674.690	4473
674.740	5196
674.791	5855
674.841	6228
674.891	5346
674.942	5262
674.992	4683
675.042	4711
675.092	3700
675.142	4797
675.193	4397
675.243	3947
675.293	5173
675.343	4008
675.393	5068
675.443	4919
675.493	4845
675.543	4346
675.593	4557
675.643	3958
675.693	4236
675.743	5278
675.793	4496
675.843	4114
675.893	4669
675.943	5072
675.993	3825
676.043	5146
676.093	4840
676.142	4074
676.192	4699
676.242	4493
676.292	4093
676.341	5042
676.391	5379
676.441	3660
676.491	4084
676.540	3393
676.590	4372
676.640	3441
676.689	4655
676.739	3876
676.789	3493
676.838	3522
676.888	4455
676.937	3391
676.987	2354
677.037	3619
677.086	3068
677.136	4678
677.185	4169
677.235	3946
677.284	4396
677.333	3278
677.383	3844
677.432	2568
677.482	4257
677.531	3746
677.580	3625
677.630	3755
677.679	2757
677.728	3712
677.778	3393
677.827	3365
677.876	4135
677.925	3780
677.975	3474
678.024	3421
678.073	4051
678.122	3731
678.171	3832
678.220	4185
678.269	4857
678.319	4327
678.368	3503
678.417	4156
678.466	4713
678.515	4751
678.564	5768
678.613	3779
678.662	4202
678.711	4295
678.760	3774
678.809	3844
678.857	3509
678.906	3709
678.955	4224
679.004	4664
679.053	3930
679.102	4173
679.151	4282
679.199	3550
679.248	3678
679.297	4319
679.346	4133
679.394	3380
679.443	4123
679.492	3746
679.540	3455
679.589	4501
679.638	3867
679.686	3845
679.735	3400
679.784	3882
679.832	4096
679.881	3665
679.929	3123
679.978	3044
680.026	3345
680.075	4068
680.123	3226
680.172	3146
680.220	3089
680.268	3793
680.317	3026
680.365	3000
680.414	3184
680.462	3215
680.510	3793
680.559	3082
680.607	3550
680.655	3533
680.703	2612
680.752	3697
680.800	3362
680.848	2774
680.896	2586
680.945	3184
680.993	3360
681.041	3521
681.089	2539
681.137	2888
681.185	2231
681.233	2524
681.258	3101
681.281	3601
681.329	3271
681.377	2989
681.380	3075
681.425	3762
681.473	4051
681.502	4040
681.521	3933
681.569	4428
681.617	3810
681.624	3898
681.665	4118
681.713	4472
681.745	4420
681.761	4324
681.809	3631
681.857	4561
681.867	4505
681.904	4092
681.952	4875
681.989	4388
682.000	4185
682.048	4161
682.096	5176
682.111	5023
682.143	4555
682.191	5251
682.233	5822
682.239	5855
682.286	4657
682.334	4885
682.354	4773
682.382	4551
682.430	5607
682.476	5122
682.477	5069
682.525	5415
682.572	5778
682.598	5323
682.620	4870
682.667	5281
682.715	5813
682.720	5872
682.763	5964
682.810	5993
682.841	5754
682.857	5596
682.905	5476
682.952	7193
682.963	7049
683.000	6345
683.047	6554
683.085	7046
683.095	7124
683.142	6661
683.190	6679
683.206	6506
683.237	6181
683.284	6583
683.328	7031
683.332	7017
683.379	6510
683.426	6844
683.449	6797
683.473	6760
683.521	6730
683.568	6786
683.571	6826
683.615	6887
683.662	8056
683.693	7517
683.709	7142
683.757	6926
683.804	7602
683.814	7605
683.851	7556
683.898	7753
683.936	7441
683.945	7334
683.992	8308
684.039	8468
684.057	8432
684.086	8320
684.133	8224
684.179	8998
684.180	8987
684.227	8309
684.274	8465
684.300	8525
684.321	8569
684.368	8659
684.415	8987
684.422	8882
684.462	8081
684.509	8028
684.543	8665
684.556	8869
684.603	8405
684.649	8115
684.665	8449
684.696	9189
684.743	9584
684.786	10240
684.790	10281
684.837	9614
684.883	11590
684.908	11515
684.930	11274
684.977	11136
685.023	11356
685.029	11295
685.070	10506
685.117	10645
685.150	11106
685.164	11386
685.210	12229
685.257	12550
685.272	12341
685.303	11475
685.350	12087
685.393	11376
685.396	11328
685.443	12178
685.490	12858
685.514	12641
685.536	12274
685.583	12528
685.629	12406
685.636	12308
685.675	11799
685.722	11982
685.757	12798
685.768	13060
685.815	12748
685.861	13327
685.878	13183
685.908	13012
685.954	13335
686.000	14518
686.000	14533
686.047	15257
686.093	17603
686.121	17739
686.139	16973
686.185	15614
686.232	13969
686.242	13743
686.278	13577
686.324	13253
686.363	12537
686.370	12498
686.416	13206
686.463	14627
686.484	14728
686.509	14688
686.555	14466
686.601	14015
686.606	14075
686.647	14156
686.693	13591
686.727	13484
686.739	13578
686.785	13407
686.831	13833
686.848	13747
686.877	13318
686.923	12679
686.969	13077
686.969	13080
687.015	13717
687.061	14533
687.090	14137
687.107	13711
687.153	14217
687.199	12742
687.211	12842
687.245	13686
687.291	13943
687.332	15070
687.336	15136
687.382	15162
687.428	14789
687.453	14882
687.474	14737
687.520	14077
687.565	13673
687.574	13468
687.611	13205
687.657	13162
687.695	14022
687.702	14187
687.748	14184
687.794	14910
687.816	14785
687.839	14428
687.885	14027
687.931	14180
687.937	14069
687.976	13808
688.022	14126
688.058	14283
688.067	14298
688.113	14320
688.158	13675
688.179	13924
688.204	14481
688.249	14841
688.295	15539
688.300	15597
688.340	15857
688.386	16469
688.421	16212
688.431	16082
688.477	15876
688.522	15894
688.542	15934
688.567	16132
688.613	15496
688.658	15921
688.663	15888
688.703	15646
688.749	15913
688.784	15804
688.794	15765
688.839	15667
688.884	15894
688.905	15746
688.930	15862
688.975	15708
689.020	16431
689.026	16457
689.065	16228
689.110	15725
689.146	15541
689.155	15573
689.201	15896
689.246	15779
689.267	15827
689.291	15969
689.336	16297
689.381	16370
689.388	16394
689.426	16420
689.471	16364
689.509	16282
689.516	16283
689.561	15417
689.606	16099
689.630	16154
689.651	16405
689.696	16272
689.741	16711
689.750	16742
689.785	16740
689.830	16184
689.871	16372
689.875	16417
689.920	16891
689.965	16661
689.992	16679
690.010	16804
690.054	16970
690.099	17657
690.112	17664
690.144	17511
690.189	17316
690.233	17104
690.233	17128
690.278	17685
690.323	17763
690.354	18061
690.367	18188
690.412	18430
690.457	18853
690.474	18989
690.501	19348
690.546	19411
690.590	19995
690.595	20007
690.635	21302
690.680	22739
690.716	23896
690.724	24372
690.769	26889
690.813	29828
690.836	30925
690.857	34272
690.902	41960
690.946	49446
690.957	51250
690.991	66672
691.035	88695
691.077	108873
691.080	109135
691.124	106894
691.168	105240
691.198	104500
691.213	98793
691.257	81517
691.301	64115
691.318	57321
691.346	52018
691.390	43549
691.434	34972
691.439	33949
691.478	31742
691.522	29457
691.559	27234
691.567	27017
691.611	25811
691.655	24128
691.680	23346
691.699	23227
691.743	22663
691.787	22209
691.800	22100
691.831	22423
691.875	22170
691.919	22273
691.921	22236
691.964	22261
692.008	22287
692.041	22243
692.052	22256
692.096	22252
692.139	22651
692.162	22472
692.183	22231
692.227	21963
692.271	21225
692.282	21159
692.315	21585
692.359	21685
692.402	22043
692.403	22084
692.447	21803
692.490	21753
692.523	21456
692.534	21569
692.578	22100
692.622	22590
692.643	22616
692.666	22488
692.709	22298
692.753	22138
692.763	22130
692.797	22516
692.840	22495
692.884	22630
692.884	22676
692.928	23169
692.971	23246
693.004	23270
693.015	23383
693.059	24051
693.102	24247
693.124	24408
693.146	24838
693.189	25830
693.233	26511
693.245	26702
693.276	28287
693.320	30433
693.363	32078
693.365	32089
693.407	34242
693.450	36559
693.485	38129
693.493	39599
693.537	46863
693.580	54536
693.605	58743
693.624	66119
693.667	83518
693.710	101184
693.725	107379
693.753	137653
693.797	185542
693.840	233235
693.845	238237
693.883	234349
693.926	229022
693.966	224653
693.970	221119
694.013	180072
694.056	139006
694.086	110515
694.099	105346
694.142	88293
694.185	71209
694.206	63016
694.229	59597
694.272	52422
694.315	45670
694.326	43784
694.358	41675
694.401	38493
694.444	35528
694.446	35298
694.487	33671
694.530	32112
694.566	30514
694.573	30271
694.616	28228
694.659	26319
694.686	25121
694.702	25047
694.745	24622
694.787	24086
694.806	23751
694.830	23660
694.873	23677
694.916	23576
694.926	23470
694.959	23038
695.002	22639
695.044	22071
695.046	22000
695.087	22151
695.130	21964
695.166	22192
695.172	22292
695.215	22183
695.258	22272
695.286	22224
695.301	22199
695.343	22087
695.386	21770
695.406	21656
695.428	21560
695.471	21244
695.514	20879
695.526	20680
695.556	20724
695.599	21008
695.641	21220
695.646	21179
695.684	21129
695.726	21054
695.766	20878
695.769	20927
695.811	21071
695.854	21058
695.886	21176
695.896	21193
695.938	20861
695.981	20444
696.005	20120
696.023	20294
696.065	20631
696.108	21279
696.125	21422
696.150	21566
696.192	21595
696.235	21760
696.245	21740
696.277	21547
696.319	21187
696.361	20846
696.365	20757
696.404	21368
696.446	22241
696.485	22752
696.488	22793
696.530	22716
696.572	22568
696.604	22418
696.614	22359
696.656	21756
696.698	21319
696.724	20976
696.740	20927
696.783	20649
696.825	20367
696.844	20157
696.867	20314
696.909	20578
696.951	20709
696.964	20762
696.992	20429
697.034	19648
697.076	18991
697.083	18814
697.118	19384
697.160	20146
697.202	20923
697.203	20886
697.244	20404
697.286	20032
697.323	19527
697.327	19517
697.369	19070
697.411	18541
697.442	18100
697.453	18372
697.494	19320
697.536	20191
697.562	20761
697.578	20686
697.620	20258
697.661	19758
697.682	19546
697.703	19986
697.744	20619
697.786	21374
697.801	21552
697.828	21455
697.869	21184
697.911	20968
697.921	20865
697.952	20734
697.994	20486
698.035	20219
698.040	20129
698.077	20142
698.118	20101
698.160	20116
698.160	20061
698.201	19659
698.243	19230
698.279	18830
698.284	18927
698.325	19379
698.367	19712
698.399	19974
698.408	19912
698.449	19369
698.491	18852
698.518	18436
698.532	18568
698.573	18822
698.614	19073
698.638	19170
698.656	19427
698.697	19897
698.738	20382
698.757	20547
698.779	20759
698.820	21063
698.862	21356
698.877	21419
698.903	21569
698.944	21695
698.985	21828
698.996	21808
699.026	21372
699.067	20692
699.116	19827
699.235	20058
699.354	19265
699.474	19689
699.593	24399
699.713	21392
699.832	20026
699.951	19247
700.070	19684
700.190	19028
700.309	20754
700.428	21667
700.547	20229
700.667	20737
700.786	23307
700.905	18394
701.024	21820
701.143	19228
701.262	17140
701.381	17504
701.500	18452
701.619	18134
701.738	16965
701.857	17788
701.976	16924
702.095	16553
702.214	17914
702.333	17782
702.452	18018
702.571	15863
702.690	16425
702.809	16443
702.928	16502
703.047	17226
703.165	15866
703.284	15590
703.403	16997
703.522	19462
703.640	18756
703.759	23212
703.878	30825
703.997	17843
704.115	16325
704.234	15739
704.353	15972
704.471	14663
704.590	14419
704.708	15247
704.827	14741
704.946	17205
705.064	20010
705.183	17328
705.301	22030
705.420	34412
705.538	30486
705.656	31476
705.775	48982
705.893	144265
706.012	157340
706.130	31799
706.249	26903
706.367	25424
706.485	27438
706.604	24344
706.722	24474
706.840	27493
706.958	26332
707.077	22455
707.195	22825
707.313	21956
707.431	20993
707.549	21011
707.668	21792
707.786	22310
707.904	22300
708.022	19985
708.140	20191
708.258	20003
708.376	21777
708.494	20568
708.612	23083
708.730	35992
708.848	33119
708.966	28087
709.084	26678
709.202	27014
709.320	27659
709.438	28048
709.556	28011
709.674	26170
709.791	26925
709.909	25943
710.027	26523
710.145	26097
710.263	26575
710.380	25656
710.498	25680
710.616	26304
710.733	25960
710.851	27312
710.969	26969
711.086	26458
711.204	25047
711.322	25904
711.439	26538
711.557	26461
711.674	27151
711.792	28600
711.909	40317
712.027	47467
712.144	24898
712.262	24382
712.379	28300
712.497	41437
712.614	41878
712.732	33091
712.849	30925
712.966	33536
713.084	37144
713.201	32958
713.318	33489
713.436	31477
713.553	31436
713.670	31565
713.787	36930
713.905	34708
714.022	30845
714.139	29337
714.256	30722
714.373	30851
714.490	31717
714.608	33963
714.725	58329
714.842	51450
714.959	28338
715.076	26496
715.193	26959
715.310	26194
715.427	26947
715.544	24319
715.661	25512
715.778	25724
715.895	29926
716.011	28088
716.128	26127
716.245	26615
716.362	27864
716.479	27959
716.596	24299
716.713	25814
716.829	23227
716.946	24691
717.063	23257
717.180	23124
717.296	23325
717.413	22924
717.530	24312
717.646	23514
717.763	23156
717.880	21653
717.996	22090
718.113	22147
718.229	21233
718.346	20708
718.462	22448
718.579	25371
718.695	31388
718.812	31970
718.928	32857
719.045	23991
719.161	20507
719.277	19599
719.394	22147
719.510	25015
719.626	21996
719.743	24342
719.859	21665
719.975	21940
720.092	27811
720.208	33808
720.324	23149
720.440	21360
720.557	24645
720.673	30492
720.789	50583
720.905	107757
721.021	33822
721.137	21067
721.253	22167
721.369	22315
721.486	25299
721.602	34428
721.718	20178
721.834	17067
721.950	18365
722.066	17475
722.181	17662
722.297	18940
722.413	17081
722.529	17527
722.645	18272
722.761	17652
722.877	18770
722.993	17010
723.108	18008
723.224	16528
723.340	17530
723.456	16725
723.571	16921
723.687	16041
723.803	15769
723.918	15146
724.034	16637
724.150	16518
724.265	20814
724.381	44081
724.497	48090
724.612	16652
724.728	15178
724.843	15424
724.959	20177
725.074	41802
725.190	41507
725.305	17582
725.421	15630
725.536	13125
725.651	14321
725.767	14327
725.882	12993
725.997	13794
726.113	13424
726.228	13876
726.343	14605
726.459	12516
726.574	15139
726.689	13174
726.804	13465
726.920	14305
727.035	13895
727.150	14319
727.265	12874
727.380	15233
727.495	13964
727.610	13823
727.725	18126
727.841	30198
727.956	90465
728.071	49533
728.186	14976
728.301	12188
728.416	13141
728.531	12306
728.645	11106
728.760	12120
728.875	11508
728.990	11573
729.105	12818
729.220	12144
729.335	11068
729.449	10793
729.564	10530
729.679	9515
729.794	10984
729.908	13091
730.023	11602
730.138	9660
730.253	11244
730.367	10073
730.482	11913
730.596	11126
730.711	10923
730.826	10224
730.940	10583
731.055	10509
731.169	10451
731.284	9106
731.398	10525
731.513	12244
731.627	11877
731.742	13643
731.856	14434
731.970	8908
732.085	9701
732.199	9104
732.313	10228
732.428	11550
732.542	14546
732.656	11855
732.771	8606
732.885	8396
732.999	10300
733.113	11057
733.227	10269
733.342	8520
733.456	9326
733.570	7919
733.684	9478
733.798	9120
733.912	8779
734.026	8356
734.140	9180
734.254	10993
734.368	22355
734.482	24372
734.596	8477
734.710	7941
734.824	8697
734.938	8124
735.052	7747
735.166	10540
735.280	9497
735.393	8711
735.507	8860
735.621	13212
735.735	26704
735.849	10615
735.962	8590
736.076	9665
736.190	9599
736.303	15299
736.417	18581
736.531	8327
736.644	9403
736.758	6821
736.872	7052
736.985	7875
737.099	7469
737.212	6131
737.326	7420
737.439	7176
737.553	7355
737.666	7196
737.780	6504
737.893	6151
738.007	6977
738.120	6960
738.233	7564
738.347	6352
738.460	7521
738.573	7768
738.687	8035
738.800	7748
738.913	8599
739.026	8607
739.140	13667
739.253	13577
739.366	7510
739.479	6327
739.592	7241
739.705	7330
739.818	6600
739.932	6738
740.045	6929
740.158	6789
740.271	7623
740.384	6571
740.497	6580
740.610	6559
740.723	7166
740.836	6668
740.949	7852
741.062	8921
741.174	9214
741.287	6890
741.400	7482
741.513	7435
741.626	7814
741.739	7663
741.851	7052
741.964	5903
742.077	7001
742.189	6891
742.302	6780
742.415	5940
742.527	7174
742.640	6716
742.753	7822
742.865	6427
742.978	6864
743.090	6901
743.203	7642
743.316	6293
743.428	6512
743.541	5788
743.653	6705
743.766	6027
743.878	7214
743.990	9958
744.103	8523
744.215	6858
744.327	7276
744.440	7432
744.552	10517
744.664	6946
744.777	6542
744.889	5502
745.001	6600
745.113	6097
745.226	6993
745.338	6630
745.450	6737
745.562	5702
745.674	6164
745.786	5882
745.898	7344
746.010	7529
746.122	7633
746.234	6612
746.347	7311
746.459	6636
746.570	6027
746.682	6337
746.794	7073
746.906	6842
747.018	5794
747.130	4947
747.242	5901
747.354	5718
747.466	6265
747.577	5742
747.689	6996
747.801	5777
747.913	6205
748.024	6104
748.136	6727
748.248	6026
748.359	6141
748.471	6354
748.583	7510
748.694	12393
748.806	16789
748.918	9824
749.029	7402
749.141	7111
749.252	7506
749.364	7326
749.475	11224
749.587	10895
749.698	6566
749.809	6125
749.921	5977
750.032	6254
750.144	6177
750.255	6499
750.366	5570
750.478	5555
750.589	6407
750.700	6332
750.811	6118
750.923	7632
751.034	11497
751.145	11555
751.256	6734
751.367	6351
751.479	6348
751.590	5657
751.701	5991
751.812	6171
751.923	6104
752.034	5820
752.145	6503
752.256	5668
752.367	5803
752.478	6769
752.589	6439
752.700	6071
752.811	6859
752.922	6925
753.032	7457
753.143	7433
753.254	5800
753.365	5796
753.476	6132
753.586	6046
753.697	6909
753.808	6349
753.919	5878
754.029	6632
754.140	7453
754.251	6610
754.361	5970
754.472	6704
754.582	7047
754.693	6771
754.804	6994
754.914	6121
755.025	7002
755.135	6205
755.246	6131
755.356	6477
755.466	7781
755.577	7561
755.687	7756
755.798	7602
755.908	7146
756.018	6647
756.129	7280
756.239	7370
756.349	6843
756.460	7310
756.570	8023
756.680	7015
756.790	8165
756.900	8488
757.011	8030
757.121	6894
757.231	7969
757.341	8055
757.451	7988
757.561	7368
757.671	8109
757.781	6868
757.891	8661
758.001	8555
758.111	9554
758.221	9354
758.331	9612
758.441	9122
758.551	10587
758.661	9131
758.771	10377
758.880	10355
758.990	10102
759.100	10049
759.210	9792
759.320	10254
759.429	11008
759.539	10860
759.649	10520
759.758	11550
759.868	12009
759.978	10816
760.087	11789
760.197	11949
760.307	11348
760.416	11941
760.526	11953
760.635	12488
760.745	12568
760.854	13121
760.964	15050
761.073	14716
761.182	14696
761.292	15099
761.401	17200
761.511	15847
761.620	15886
761.729	16837
761.839	17662
761.948	17499
762.057	19139
762.166	18165
762.276	17714
762.385	19479
762.494	20850
762.603	20915
762.712	23501
762.822	23779
762.931	24955
763.040	24917
763.149	25130
763.258	28653
763.367	29819
763.476	30817
763.585	32060
763.694	34470
763.803	36197
763.912	38896
764.021	41676
764.130	42842
764.238	46250
764.347	50440
764.456	53345
764.565	58586
764.674	63298
764.783	68623
764.891	75668
765.000	86536
765.109	96307
765.217	108858
765.326	127505
765.435	150665
765.543	177842
765.652	214471
765.761	267157
765.869	337966
765.978	441186
766.086	577660
766.195	737475
766.303	801389
766.412	555997
766.520	572194
766.629	786255
766.737	700841
766.846	542884
766.954	411453
767.062	317813
767.171	262481
767.279	198115
767.387	160501
767.496	134233
767.604	113879
767.712	101512
767.820	88955
767.928	82919
768.037	75451
768.145	73221
768.253	70451
768.361	68454
768.469	68126
768.577	70236
768.685	73586
768.793	78932
768.901	86556
769.009	101319
769.117	120149
769.225	150683
769.333	199533
769.441	279117
769.549	411512
769.657	609495
769.765	717603
769.873	526397
769.981	674081
770.088	578882
770.196	398929
770.304	283545
770.412	210226
770.519	167561
770.627	132977
770.735	110414
770.842	94244
770.950	81850
771.058	71173
771.165	63969
771.273	57619
771.380	51948
771.488	47910
771.595	43266
771.703	40641
771.810	38521
771.918	33514
772.025	33181
772.133	31823
772.240	29092
772.348	28803
772.455	26980
772.562	25425
772.670	23809
772.777	24171
772.884	22629
772.991	22241
773.099	19657
773.206	19754
773.313	19708
773.420	19152
773.528	17544
773.635	16544
773.742	17636
773.849	16994
773.956	15714
774.063	15630
774.170	14560
774.277	15091
774.384	14751
774.491	13329
774.598	14177
774.705	14063
774.812	14760
774.919	13636
775.026	13955
775.133	12818
775.239	13001
775.346	11205
775.453	12109
775.560	11540
775.667	11444
775.773	10938
775.880	11521
775.987	11231
776.093	11087
776.200	11043
776.307	10359
776.413	9871
776.520	10511
776.627	10032
776.733	10106
776.840	8252
776.946	10677
777.053	9781
777.159	10456
777.266	6986
777.372	10787
777.478	9099
777.585	9112
777.691	8685
777.798	8866
777.904	11260
778.010	19322
778.117	11074
778.223	8520
778.329	8392
778.435	8212
778.542	7931
778.648	7249
778.754	7651
778.860	7697
778.966	7698
779.072	8284
779.178	6650
779.284	7424
779.391	7652
779.497	6895
779.603	11994
779.708	13805
779.815	27970
779.920	94747
780.026	163553
780.132	29914
780.238	10173
780.344	8902
780.450	8185
780.556	7487
780.661	6701
780.767	5735
780.873	6180
780.979	7034
781.085	5902
781.190	5957
781.296	5114
781.402	5828
781.507	4734
781.613	5861
781.719	5233
781.824	5200
781.930	5697
782.035	5936
782.141	5028
782.246	5784
782.352	5343
782.457	4935
782.563	4985
782.668	5128
782.773	5602
782.879	4355
782.984	5626
783.090	5825
783.195	6448
783.300	6386
783.405	5914
783.511	5218
783.616	6209
783.721	4607
783.826	4832
783.932	5636
784.037	4786
784.142	5127
784.247	4387
784.352	4472
784.457	4645
784.562	4666
784.667	4808
784.772	4362
784.877	3488
784.982	4662
785.087	3508
785.192	5459
785.297	3851
785.402	4466
785.507	4482
785.611	5349
785.716	4220
785.821	3779
785.926	4000
786.031	4830
786.135	4511
786.240	4406
786.345	3132
786.450	4300
786.554	3706
786.659	4105
786.763	3947
786.868	4600
786.973	4419
787.077	3740
787.182	4363
787.286	3991
787.391	3275
787.495	3614
787.600	3594
787.704	2987
787.809	3782
787.913	3261
788.017	3571
788.122	4294
788.226	3252
788.330	3403
788.435	3897
788.539	3603
788.643	2721
788.747	3034
788.852	3601
788.956	3102
789.060	3780
789.164	3305
789.268	2117
789.372	3462
789.476	3230
789.580	2249
789.684	2776
789.788	4076
789.892	2544
789.996	4407
790.100	2883
790.204	3746
790.308	3617
790.412	3925
790.516	7708
790.620	5927
790.724	4504
790.828	3170
790.931	3289
791.035	6324
791.139	5057
791.242	2098
791.346	4469
791.450	2777
791.554	2220
791.657	2613
791.761	3776
791.864	3339
791.968	2457
792.072	3639
792.175	2628
792.279	2560
792.382	2432
792.486	3855
792.589	3733
792.693	4011
792.796	2089
792.899	3621
793.003	2918
793.106	1049
793.209	2973
793.313	3353
793.416	1762
793.519	4030
793.623	4538
793.726	5303
793.829	2663
793.932	3379
794.035	1726
794.138	4534
794.242	3821
794.345	6198
794.448	8170
794.551	15644
794.654	50502
794.757	95354
794.860	19400
794.963	6680
795.066	2629
795.169	3709
795.272	1900
795.375	3441
795.477	1639
795.580	3322
795.683	2444
795.786	3020
795.889	1520
795.991	2890
796.094	3752
796.197	2980
796.300	3280
796.402	2208
796.505	1785
796.608	2705
796.710	2215
796.813	2266
796.915	1773
797.018	1993
797.120	2269
797.223	1469
797.326	2684
797.428	1702
797.530	1509
797.633	1779
797.735	4115
797.838	6905
797.940	4900
798.042	1028
798.145	2113
798.247	2843
798.349	1263
798.452	1947
798.554	2393
798.656	821
798.758	2798
798.860	1552
798.962	1772
799.065	1946
799.167	1281
799.269	3031
799.371	3084
799.473	2885
799.575	1962
799.677	4498
799.779	4425
799.881	2334
799.983	2836
800.085	2137
800.187	1514
800.289	1098
800.390	2035
800.492	2662
800.594	2594
800.696	1435
800.798	1965
800.899	1585
801.001	1030
801.103	1690
801.205	1702
801.306	1647
801.408	1332
801.509	1454
801.611	1703
801.713	1825
801.814	1344
801.916	2131
802.017	1383
802.119	1181
802.220	2213
802.322	419
802.423	4929
802.525	2375
802.626	1609
802.727	1735
802.829	2145
802.930	847
803.031	3326
803.133	868
803.234	906
803.335	1824
803.436	618
803.538	686
803.639	-19
803.740	667
803.841	585
803.942	1606
804.043	1839
804.144	841
804.245	1431
804.346	1026
804.447	899
804.548	1679
804.649	3281
804.750	1273
804.851	403
804.952	1225
805.053	973
805.154	383
805.255	666
805.355	1274
805.456	978
805.557	567
805.658	513
805.758	1487
805.859	1718
805.960	1090
806.061	1336
806.161	422
806.262	1239
806.362	745
806.463	1332
806.564	1688
806.664	1829
806.765	2731
806.865	2480
806.966	1261
807.066	-277
807.166	2453
807.267	1601
807.367	689
807.468	1784
807.568	70
807.668	1260
807.769	1460
807.869	36
807.969	614
808.069	1482
808.170	1680
808.270	-110
808.370	2079
808.470	2014
808.570	606
808.670	1483
808.770	1328
808.870	857
808.970	2218
809.070	577
809.170	67
809.271	851
809.370	484
809.470	1661
809.570	517
809.670	398
809.770	1048
809.870	1360
809.970	521
810.070	901
810.169	2303
810.269	-325
810.369	1477
810.469	645
810.568	858
810.668	-55
810.768	273
810.867	1409
810.967	549
811.066	404
811.166	420
811.265	794
811.365	387
811.464	722
811.564	366
811.663	567
811.763	-723
811.862	203
811.962	2334
812.061	1264
812.160	-482
812.260	352
812.359	688
812.458	-273
812.557	2959
812.657	2905
812.756	2106
812.855	593
812.954	469
813.053	1144
813.153	629
813.252	-212
813.351	578
813.450	372
813.549	708
813.648	1717
813.747	337
813.846	1235
813.945	32
814.044	146
814.143	524
814.242	1204
814.341	-306
814.439	105
814.538	529
814.637	-282
814.736	838
814.835	866
814.933	-142
815.032	101
815.131	325
815.229	-147
815.328	325
815.427	-286
815.525	701
815.624	842
815.722	525
815.821	742
815.919	506
816.018	260
816.116	510
816.215	-38
816.313	490
816.412	51
816.510	551
816.609	1010
816.707	852
816.805	243
816.904	-76
817.002	46
817.100	531
817.198	978
817.296	90
817.395	-148
817.493	1015
817.591	224
817.689	1473
817.787	1306
817.885	3166
817.983	4552
818.081	8607
818.179	21986
818.277	51339
818.375	49233
818.473	16167
818.571	6806
818.669	4850
818.767	3359
818.865	3520
818.963	3663
819.061	4397
819.158	9971
819.256	20847
819.354	46267
819.452	106445
819.549	75836
819.647	24000
819.745	9479
819.842	5956
819.940	3400
820.038	1787
820.135	2038
820.233	2426
820.330	1147
820.428	1222
820.525	1503
820.623	724
820.720	438
820.818	1468
820.915	1863
821.012	2783
821.110	302
821.207	891
821.304	374
821.402	-41
821.499	491
821.596	1933
821.693	140
821.791	1596
821.888	1871
821.985	3827
822.082	2061
822.179	1327
822.276	9
822.373	561
822.470	777
822.567	273
822.664	-666
822.761	492
822.858	-1009
822.955	1584
823.052	1108
823.149	42
823.246	25
823.343	159
823.440	316
823.536	-576
823.633	-889
823.730	-288
823.827	332
823.923	470
824.020	1113
824.117	584
824.213	-640
824.310	681
824.407	445
824.503	1213
824.600	171
824.696	367
824.793	1288
824.889	-54
824.986	-153
825.082	757
825.179	461
825.275	272
825.371	-672
825.468	1406
825.564	21
825.660	606
825.757	51
825.853	655
825.949	-987
826.045	168
826.142	102
826.238	21
826.334	-9
826.430	-835
826.526	928
826.622	118
826.718	187
826.814	-79
826.910	1556
827.006	464
827.102	-219
827.198	370
827.294	-930
827.390	320
827.486	848
827.582	-496
827.678	190
827.774	637
827.869	-262
827.965	1465
828.061	-710
828.157	-294
828.252	476
828.348	-709
828.444	92
828.539	-120
828.635	192
828.731	940
828.826	-629
828.922	1012
829.017	11
829.113	620
829.208	-641
829.304	-99
829.399	637
829.495	196
829.590	715
829.685	91
829.781	233
829.876	168
829.971	-299
830.066	130
830.162	-366
830.257	-195
830.352	-344
830.447	1072
830.543	833
830.638	-219
830.733	440
830.828	463
830.923	780
831.018	113
831.113	608
831.208	30
831.303	980
831.398	841
831.493	26
831.588	672
831.683	-89
831.778	219
831.873	146
831.967	1412
832.062	-127
832.157	-842
832.252	1205
832.346	577
832.441	621
832.536	1219
832.631	4273
832.725	3256
832.820	-129
832.914	-127
833.009	-546
833.104	-18
833.198	1234
833.293	-227
833.387	190
833.482	452
833.576	-145
833.670	1833
833.765	-129
833.859	-784
833.954	643
834.048	546
834.142	-469
834.237	293
834.331	262
834.425	751
834.519	-154
834.613	693
834.708	-977
834.802	300
834.896	-1335
834.990	-527
835.084	97
835.178	-440
835.272	142
835.366	-798
835.460	105
835.554	-517
835.648	43
835.742	176
835.836	64
835.930	-1042
836.024	229
836.117	1094
836.211	770
836.305	2479
836.399	3763
836.493	169
836.586	216
836.680	-266
836.774	-789
836.867	931
836.961	-365
837.055	-737
837.148	-228
837.242	-188
837.335	-222
837.429	362
837.522	-18
837.616	1240
837.709	3892
837.803	2084
837.896	1136
837.989	1214
838.083	2278
838.176	7429
838.269	5601
838.363	1513
838.456	-138
838.549	840
838.642	2338
838.735	5116
838.829	2725
838.922	108
839.015	-136
839.108	-1003
839.201	552
839.294	720
839.387	250
839.480	253
839.573	2333
839.666	2941
839.759	235
839.852	-55
839.945	69
840.038	-401
840.131	-1047
840.223	930
840.316	874
840.409	114
840.502	-1064
840.594	94
840.687	-758
840.780	-87
840.873	236
840.965	821
841.058	2433
841.150	5897
841.243	3253
841.336	1081
841.428	222
841.521	136
841.613	556
841.706	1170
841.798	79
841.890	457
841.983	-765
842.075	547
842.167	-27
842.260	1062
842.352	2122
842.444	3248
842.537	6981
842.629	10249
842.721	1369
842.813	28
842.905	-687
842.997	1028
843.090	1037
843.182	3372
843.274	7261
843.366	18191
843.458	33526
843.550	19654
843.642	1768
843.734	1317
843.826	1872
843.918	610
844.009	826
844.101	219
844.193	-577
844.285	-508
844.377	172
844.469	782
844.560	-108
844.652	10
844.744	338
844.835	264
844.927	395
845.019	1186
845.110	634
845.202	500
845.293	-144
845.385	443
845.476	-59
845.568	768
845.659	82
845.751	1062
845.842	-819
845.934	-11
846.025	-376
846.116	-490
846.208	258
846.299	31
846.390	-198
846.482	892
846.573	1353
846.664	2049
846.755	2151
846.846	2077
846.937	-1078
847.029	-297
847.120	51
847.211	-420
847.302	575
847.393	-836
847.484	772
847.575	-325
847.666	-442
847.757	-316
847.847	372
847.938	350
848.029	-219
848.120	-230
848.211	346
848.302	282
848.392	-595
848.483	185
848.574	-1095
848.664	-318
848.755	170
848.846	-45
848.936	-812
849.027	385
849.118	-11
849.208	5
849.299	467
849.389	1060
849.480	1397
849.570	1051
849.661	309
849.751	927
849.841	-102
849.932	-433
850.022	-390
850.112	-229
850.203	-1333
850.293	-134
850.383	-326
850.474	-438
850.564	80
850.654	230
850.744	-14
850.834	139
850.924	-393
851.014	386
851.104	53
851.194	424
851.284	-77
851.374	1092
851.464	-307
851.554	561
851.644	504
851.734	2685
851.824	1164
851.914	-151
852.004	-646
852.094	488
852.183	703
852.273	25
852.363	0
852.452	-142
852.542	-181
852.632	405
852.721	367
852.811	-64
852.901	-316
852.990	-433
853.080	-1043
853.169	-82
853.259	114
853.348	-480
853.438	-144
853.527	331
853.617	-707
853.706	1027
853.795	268
853.885	2262
853.974	3012
854.063	5421
854.152	7139
854.242	2442
854.331	-495
854.420	-310
854.509	147
854.598	62
854.687	1204
854.777	92
854.866	34
854.955	53
855.044	-382
855.133	113
855.222	174
855.311	18
855.400	13
855.488	-226
855.577	82
855.666	1904
855.755	3808
855.844	6080
855.933	6880
856.021	2186
856.110	494
856.199	-667
856.288	-323
856.376	-248
856.465	-600
856.554	770
856.642	-709
856.731	-514
856.819	-147
856.908	-406
856.996	-505
857.085	-868
857.173	0
857.262	-23
857.350	-273
857.438	461
857.527	-237
857.615	-1258
857.703	-371
857.792	-701
857.880	-1025
857.968	-567
858.056	-103
858.145	170
858.233	-510
858.321	-191
858.409	-108
858.497	-666
858.585	-1214
858.673	-227
858.761	-900
858.849	-504
858.937	-710
859.025	-200
859.113	543
859.201	-351
859.289	-244
859.377	-566
859.465	-433
859.552	-164
859.640	-1193
859.728	489
859.816	-670
859.903	145
859.991	-1425
860.079	-322
860.166	-640
860.254	-797
860.342	-241
860.429	457
860.517	-1370
860.604	690
860.692	-57
860.779	-601
860.867	-670
860.954	-495
861.042	-262
861.129	-126
861.216	-825
861.304	-136
861.391	-561
861.478	385
861.565	178
861.653	617
861.740	-963
861.827	677
861.914	-263
862.001	-359
862.089	-298
862.176	-301
862.263	-354
862.350	440
862.437	-1066
862.524	-1500
862.611	-463
862.698	-12
862.785	-875
862.871	-307
862.958	-1286
863.045	-497
863.132	-663
863.219	-505
863.306	-1856
863.392	899
863.479	-1305
863.566	-387
863.652	-567
863.739	-430
863.826	-749
863.912	-911
863.999	-1360
864.086	-377
864.172	-978
864.259	-437
864.345	-390
864.432	-37
864.518	-1008
864.604	-805
864.691	-1514
864.777	-221
864.863	-1171
864.950	-807
865.036	-1515
865.122	-560
865.209	-752
865.295	-423
865.381	-1193
865.467	-214
865.553	-319
865.639	-764
865.726	-673
865.812	523
865.898	1189
865.984	2233
866.070	5014
866.156	4966
866.242	-86
866.328	-130
866.414	-708
866.499	-618
866.585	-490
866.671	-884
866.757	-647
866.843	-516
866.928	-1385
867.014	-636
867.100	-252
867.186	-1291
867.271	-124
867.357	1759
867.442	1331
867.528	100
867.614	142
867.699	-809
867.785	-220
867.870	-669
867.956	-592
868.041	110
868.127	598
868.212	695
868.297	-707
868.383	-807
868.468	479
868.553	1631
868.639	1824
868.724	5419
868.809	3224
868.894	-476
868.979	-465
869.065	-319
869.150	-825
869.235	-886
869.320	-1277
869.405	-603
869.490	-1090
869.575	-709
869.660	-857
869.745	-388
869.830	-1070
869.915	-1289
870.000	-276
870.085	-1110
870.169	-748
870.254	-1050
870.339	-2325
870.424	-741
870.509	-960
870.593	-1259
870.678	-1670
870.763	-485
870.847	-311
870.932	-848
871.016	-1082
871.101	-964
871.186	-971
871.270	15
871.355	-1373
871.439	-7
871.523	-773
871.608	-905
871.692	-1290
871.777	-313
871.861	-569
871.945	-1479
872.030	-364
872.114	-581
872.198	-664
872.282	-796
872.367	-1241
872.451	-1183
872.535	-1214
872.619	-694
872.703	-1769
872.787	-565
872.871	-1364
872.955	-752
873.039	-958
873.123	-832
873.207	-418
873.291	-843
873.375	-1319
873.459	-961
873.543	-1554
873.627	-1281
873.711	-501
873.794	-656
873.878	-1116
873.962	-1441
874.045	-1004
874.129	-1403
874.137	-1329
874.213	-591
874.245	-550
874.296	-493
874.352	-1740
874.380	-2350
874.460	-752
874.464	-689
874.547	-1655
874.568	-1400
874.631	-644
874.676	-822
874.714	-980
874.784	-417
874.798	-302
874.881	83
874.892	-49
874.965	-951
874.999	-786
875.048	-590
875.107	-812
875.131	-897
875.215	-989
875.215	-989
875.298	-1377
875.323	-1253
875.381	-921
875.430	-838
875.465	-745
875.538	-475
875.548	-455
875.631	-568
875.646	-649
875.714	-1005
875.753	-914
875.798	-808
875.861	-827
875.881	-829
875.964	-487
875.968	-497
876.047	-682
876.076	-516
876.130	-225
876.183	-131
876.213	-62
876.291	-276
876.296	-295
876.379	-564
876.398	-431
876.462	87
876.506	-17
876.545	-128
876.613	-210
876.628	-243
876.711	-925
876.721	-802
876.794	127
876.828	-326
876.877	-866
876.935	-551
876.960	-429
877.043	-631
877.043	-631
877.125	-487
877.150	-526
877.208	-652
877.258	-398
877.291	-166
877.365	-728
877.374	-803
877.456	-336
877.472	-289
877.539	-56
877.579	-310
877.622	-506
877.687	-274
877.704	-246
877.787	-154
877.794	-180
877.869	-431
877.901	-403
877.952	-314
878.008	-191
878.034	-173
878.115	-71
878.117	-68
878.199	-613
878.222	-635
878.282	-514
878.329	-77
878.364	151
878.437	143
878.447	146
878.529	-242
878.544	-308
878.611	-536
878.651	-440
878.694	-364
878.758	111
878.776	210
878.858	-306
878.865	-369
878.941	-722
878.972	-520
879.023	-406
879.078	-321
879.105	-156
879.185	-188
879.187	-195
879.269	350
879.292	139
879.351	-310
879.399	-419
879.433	-510
879.506	-214
879.516	-145
879.598	-120
879.613	-26
879.680	123
879.720	186
879.762	414
879.827	-65
879.844	-275
879.926	-323
879.933	-333
880.007	-165
880.040	-28
880.089	259
880.147	431
880.171	487
880.253	1694
880.254	1700
880.335	2822
880.360	3184
880.417	4624
880.467	7233
880.499	8987
880.574	10259
880.580	10059
880.662	3694
880.680	2772
880.744	935
880.787	227
880.825	-69
880.893	237
880.907	216
880.989	-361
881.000	-370
881.070	166
881.106	-95
881.152	-441
881.213	128
881.233	230
881.315	-54
881.319	-58
881.396	114
881.426	13
881.478	-226
881.532	-155
881.559	-128
881.639	-724
881.641	-731
881.722	28
881.745	66
881.803	167
881.852	4
881.885	-127
881.958	126
881.966	154
882.047	799
882.064	709
882.129	428
882.171	623
882.210	1048
882.277	1722
882.291	1737
882.372	775
882.383	740
882.454	202
882.489	-123
882.535	-132
882.596	-177
882.616	-236
882.697	-47
882.702	-74
882.778	-78
882.808	80
882.859	-75
882.914	-337
882.940	-263
883.020	-330
883.021	-327
883.102	-305
883.127	-285
883.183	-389
883.233	-511
883.264	-234
883.339	725
883.345	756
883.426	633
883.445	587
883.507	448
883.551	207
883.587	-172
883.657	-189
883.668	-53
883.749	289
883.763	359
883.830	-81
883.869	-333
883.910	-215
883.975	64
883.991	99
884.072	277
884.081	257
884.152	119
884.187	192
884.233	350
884.292	486
884.314	516
884.394	583
884.398	563
884.475	109
884.504	215
884.555	207
884.610	-220
884.636	-70
884.716	336
884.716	338
884.797	104
884.821	-102
884.877	268
884.927	609
884.958	418
885.033	-145
885.038	-139
885.118	38
885.139	24
885.199	-73
885.244	136
885.279	308
885.350	225
885.359	214
885.439	460
885.456	382
885.520	109
885.561	339
885.600	578
885.667	401
885.680	391
885.760	765
885.773	767
885.840	222
885.878	48
885.920	315
885.984	446
886.000	382
886.080	344
886.089	328
886.160	543
886.195	553
886.240	405
886.300	332
886.320	326
886.400	377
886.406	369
886.480	343
886.511	421
886.560	657
886.616	620
886.640	535
886.720	278
886.722	270
886.800	486
886.827	618
886.879	553
886.932	142
886.959	97
887.038	534
887.039	543
887.119	484
887.143	550
887.198	762
887.248	893
887.278	830
887.354	694
887.358	722
887.437	1097
887.459	1217
887.517	1085
887.564	885
887.596	703
887.669	311
887.676	347
887.755	773
887.774	877
887.835	531
887.880	268
887.914	395
887.985	587
887.994	576
888.073	433
888.090	401
888.153	566
888.195	688
888.232	545
888.300	318
888.311	340
888.391	407
888.405	415
888.470	929
888.510	1214
888.549	1142
888.615	1112
888.628	1015
888.708	303
888.720	192
888.787	708
888.825	1003
888.866	840
888.930	559
888.945	565
889.024	620
889.035	623
889.103	1175
889.140	1465
889.182	1286
889.245	993
889.261	914
889.340	527
889.349	483
889.419	831
889.454	998
889.498	1004
889.559	1005
889.577	941
889.656	660
889.664	632
889.735	1008
889.768	1184
889.814	1071
889.873	917
889.978	1095
890.083	1568
890.187	692
890.292	1071
890.397	1556
890.501	1131
890.606	859
890.710	501
890.815	1109
890.919	-47
891.024	1043
891.128	1111
891.233	808
891.337	1170
891.442	878
891.546	-110
891.650	162
891.755	224
891.859	758
891.963	739
892.068	1267
892.172	348
892.276	399
892.380	1852
892.484	325
892.589	14
892.693	1264
892.797	389
892.901	828
893.005	819
893.109	432
893.213	492
893.317	1154
893.421	844
893.525	107
893.629	-237
893.733	1329
893.837	200
893.941	654
894.045	1192
894.148	1388
894.252	337
894.356	1149
894.460	874
894.564	768
894.667	229
894.771	125
894.875	213
894.978	772
895.082	310
895.186	1350
895.289	1279
895.393	371
895.496	448
895.600	555
895.703	426
895.807	155
895.910	305
896.014	579
896.117	65
896.221	1049
896.324	203
896.427	524
896.531	583
896.634	389
896.737	752
896.840	1169
896.944	384
897.047	85
897.150	293
897.253	851
897.356	915
897.460	461
897.563	917
897.666	17
897.769	614
897.872	570
897.975	969
898.078	659
898.181	1018
898.284	249
898.387	570
898.490	538
898.593	372
898.695	599
898.798	796
898.901	1174
899.004	998
899.107	930
899.209	513
899.312	-23
899.415	860
899.518	401
899.620	992
899.723	628
899.826	882
899.928	3020
900.031	1087
900.133	309
900.236	796
900.338	893
900.441	736
900.543	648
900.646	617
900.748	1036
900.851	133
900.953	233
901.055	630
901.158	658
901.260	929
901.362	648
901.465	355
901.567	197
901.669	868
901.771	42
901.873	-149
901.976	350
902.078	551
902.180	1084
902.282	259
902.384	425
902.486	856
902.588	1194
902.690	1801
902.792	1154
902.894	378
902.996	608
903.098	573
903.200	-36
903.302	1054
903.404	1085
903.505	558
903.607	756
903.709	1171
903.811	424
903.913	530
904.014	-373
904.116	1096
904.218	748
904.319	123
904.421	1115
904.523	-125
904.624	490
904.726	662
904.827	325
904.929	-168
905.030	244
905.132	152
905.233	-437
905.335	481
905.436	352
905.537	226
905.639	1066
905.740	712
905.841	758
905.943	876
906.044	420
906.145	-46
906.247	184
906.348	-58
906.449	-116
906.550	-300
906.651	983
906.752	1005
906.854	541
906.955	457
907.056	966
907.157	462
907.258	84
907.359	443
907.460	537
907.561	183
907.662	-584
907.762	637
907.863	1097
907.964	34
908.065	878
908.166	-194
908.267	794
908.367	382
908.468	556
908.569	-116
908.670	1366
908.770	1386
908.871	1009
908.971	759
909.072	1457
909.173	332
909.273	-21
909.374	-59
909.474	515
909.575	147
909.675	-41
909.776	959
909.876	153
909.977	794
910.077	876
910.177	302
910.278	1051
910.378	-151
910.478	862
910.579	-238
910.679	510
910.779	-6
910.879	1080
910.980	784
911.080	755
911.180	-285
911.280	201
911.380	1223
911.480	208
911.580	962
911.680	281
911.780	1094
911.880	768
911.980	466
912.080	158
912.180	-161
912.280	443
912.380	527
912.480	577
912.580	761
912.679	416
912.779	373
912.879	357
912.979	352
913.078	84
913.178	186
913.278	-201
913.377	553
913.477	363
913.577	890
913.676	859
913.776	229
913.875	374
913.975	1108
914.074	736
914.174	387
914.273	-480
914.373	1249
914.472	593
914.572	185
914.671	984
914.770	874
914.870	713
914.969	212
915.068	-188
915.167	954
915.267	751
915.366	-563
915.465	803
915.564	-69
915.663	79
915.763	303
915.862	948
915.961	120
916.060	640
916.159	111
916.258	-337
916.357	449
916.456	704
916.555	687
916.654	332
916.752	997
916.851	747
916.950	851
917.049	746
917.148	-28
917.247	550
917.345	943
917.444	-173
917.543	171
917.642	947
917.740	708
917.839	952
917.937	876
918.036	1639
918.135	-659
918.233	569
918.332	-39
918.430	815
918.529	-239
918.627	657
918.726	478
918.824	435
918.923	5
919.021	-260
919.119	-3
919.218	139
919.316	381
919.414	663
919.512	-99
919.611	523
919.709	-7
919.807	-108
919.905	659
920.003	627
920.102	437
920.200	565
920.298	303
920.396	495
920.494	136
920.592	184
920.690	94
920.788	1238
920.886	-359
920.984	464
921.082	62
921.180	1066
921.277	194
921.375	592
921.473	-183
921.571	568
921.669	-100
921.766	-6
921.864	516
921.962	595
922.060	-16
922.157	418
922.255	17
922.352	-178
922.450	702
922.548	626
922.645	437
922.743	295
922.840	487
922.938	770
923.035	143
923.133	-226
923.230	756
923.327	-29
923.425	694
923.522	498
923.619	1149
923.717	194
923.814	680
923.911	199
924.008	350
924.106	323
924.203	228
924.300	-278
924.397	804
924.494	716
924.591	246
924.688	623
924.786	-33
924.883	471
924.979	185
925.077	685
925.173	680
925.270	705
925.367	326
925.464	798
925.561	762
925.658	-16
925.755	128
925.852	1158
925.948	856
926.045	476
926.142	316
926.239	527
926.335	1029
926.432	280
926.529	1119
926.625	434
926.722	-102
926.818	625
926.915	427
927.011	239
927.108	848
927.204	812
927.301	219
927.397	-596
927.494	489
927.590	-112
927.687	679
927.783	86
927.879	188
927.976	768
928.072	218
928.168	966
928.264	452
928.361	-289
928.457	555
928.553	644
928.649	878
928.745	-5
928.841	-50
928.937	358
929.033	-29
929.129	143
929.225	443
929.321	9
929.417	-122
929.513	832
929.609	41
929.705	445
929.801	-641
929.897	-355
929.993	-52
930.089	131
930.184	308
930.280	478
930.376	502
930.471	-337
930.567	207
930.663	-112
930.758	-203
930.854	-354
930.950	-306
931.045	264
931.141	200
931.236	863
931.332	-249
931.427	-328
931.523	383
931.618	661
931.714	456
931.809	703
931.905	-375
932.000	-112
932.095	-155
932.191	134
932.286	-215
932.381	-422
932.476	485
932.572	363
932.667	157
932.762	-340
932.857	570
932.952	-49
933.047	64
933.142	291
933.237	232
933.332	-255
933.427	253
933.522	1184
933.617	384
933.712	730
933.807	40
933.902	-180
933.997	-366
934.092	-126
934.187	-54
934.282	-117
934.376	-283
934.471	-23
934.566	335
934.661	212
934.755	27
934.850	-451
934.945	227
935.039	-20
935.134	844
935.228	-351
935.323	923
935.417	-291
935.512	622
935.606	496
935.701	-339
935.795	379
935.890	318
935.984	64
936.079	-40
936.173	-120
936.267	304
936.362	-581
936.456	-761
936.550	487
936.644	-130
936.738	101
936.833	274
936.927	2242
937.021	2173
937.115	533
937.209	-787
937.303	298
937.397	-255
937.491	577
937.585	445
937.679	-323
937.773	638
937.867	297
937.961	742
938.055	-647
938.149	315
938.243	114
938.337	-246
938.430	-449
938.524	-437
938.618	-301
938.712	-65
938.805	-182
938.899	-75
938.993	-598
939.086	522
939.180	-1
939.274	-245
939.367	-267
939.461	-720
939.554	-562
939.648	-107
939.741	-14
939.835	-341
939.928	-172
940.022	-125
940.115	301
940.208	-102
940.302	400
940.395	93
940.488	-1152
940.582	883
940.675	-209
940.768	386
940.861	-797
940.954	300
941.048	527
941.141	364
941.234	-802
941.327	-427
941.420	453
941.513	-29
941.606	-135
941.699	538
941.792	-496
941.885	-339
941.978	377
942.071	-395
942.164	-216
942.257	62
942.349	-123
942.442	-202
942.535	508
942.628	-395
942.721	352
942.813	-198
942.906	682
942.999	-483
943.091	-587
943.184	-1003
943.277	-370
943.369	-282
943.462	-243
943.554	83
943.647	-288
943.739	311
943.832	-239
943.924	-404
944.017	-7
944.109	-1527
944.201	141
944.294	315
944.386	280
944.478	-438
944.571	1000
944.663	-670
944.755	-118
944.847	-438
944.940	-289
945.032	-855
945.124	-143
945.216	597
945.308	229
945.400	97
945.492	474
945.584	-237
945.676	-132
945.768	-642
945.860	928
945.952	-738
946.044	496
946.136	-532
946.228	-513
946.320	-848
946.412	-895
946.503	-483
946.595	147
946.687	-668
946.779	-70
946.870	-720
946.962	-81
947.054	-357
947.145	-167
947.237	238
947.329	-150
947.420	-578
947.512	-397
947.603	-542
947.695	-225
947.786	-964
947.878	-713
947.969	216
948.061	-612
948.152	-394
948.243	211
948.335	-274
948.426	-579
948.517	-742
948.609	163
948.700	-81
948.791	-799
948.882	-107
948.973	-561
949.065	-539
949.156	473
949.247	-909
949.338	-121
949.429	-973
949.520	-123
949.611	-1282
949.702	213
949.793	471
949.884	-251
949.975	-147
950.066	-542
950.157	-523
950.247	697
950.338	-410
950.429	-189
950.520	-503
950.611	-43
950.701	348
950.792	-537
950.883	224
950.973	-306
951.064	-378
951.155	-498
951.245	-38
951.336	-184
951.427	-1262
951.517	258
951.608	223
951.698	-710
951.788	-172
951.879	-465
951.969	-420
952.060	375
952.150	-828
952.240	-278
952.331	-1404
952.421	1240
952.511	-1008
952.602	-279
952.692	731
952.782	318
952.872	-823
952.962	-140
953.052	-439
953.143	-1244
953.233	-992
953.323	554
953.413	-674
953.503	-106
953.593	-207
953.683	-300
953.773	-814
953.863	-58
953.953	-82
954.042	399
954.132	-305
954.222	-204
954.312	581
954.402	-184
954.492	702
954.581	2239
954.671	43
954.761	-650
954.850	514
954.940	-287
955.030	-25
955.119	-505
955.209	190
955.298	-919
955.388	180
955.477	880
955.567	71
955.656	758
955.746	-366
955.835	121
955.925	-482
956.014	-307
956.103	-667
956.193	-460
956.282	-508
956.371	489
956.461	-798
956.550	-148
956.639	217
956.728	-86
956.817	-695
956.906	168
956.995	231
957.085	-555
957.174	-219
957.263	-544
957.352	-509
957.441	758
957.530	-206
957.619	258
957.708	364
957.796	878
957.885	874
957.974	-231
958.063	352
958.152	-248
958.241	425
958.329	776
958.418	270
958.507	-6
958.596	844
958.684	-308
958.773	201
958.861	839
958.950	1109
959.039	1032
959.127	-47
959.216	1091
959.304	284
959.393	1009
959.481	958
959.570	1223
959.658	1640
959.746	1278
959.835	2514
959.923	3557
960.011	1726
960.100	658
960.188	80
960.276	292
960.365	688
960.453	1301
960.541	-730
960.629	680
960.717	393
960.805	293
960.893	-39
960.981	-753
961.069	-370
961.158	256
961.245	314
961.333	74
961.421	199
961.509	829
961.597	149
961.685	-262
961.773	169
961.861	-211
961.949	-356
962.036	-770
962.124	59
962.212	-210
962.299	-324
962.387	-633
962.475	-256
962.562	-190
962.650	56
962.738	-145
962.825	375
962.913	-78
963.000	-797
963.088	-813
963.175	-1263
963.263	222
963.350	-839
963.438	279
963.525	903
963.612	2827
963.700	6448
963.787	17736
963.874	7246
963.962	879
964.049	-10
964.136	56
964.223	-300
964.310	430
964.398	436
964.485	592
964.572	147
964.659	2257
964.746	1755
964.833	-450
964.920	54
965.007	-326
965.094	-797
965.181	-23
965.268	-946
965.355	222
965.441	-357
965.528	-1478
965.615	-303
965.702	-109
965.789	-447
965.875	-665
965.962	-498
966.049	-458
966.136	-627
966.222	-756
966.309	-154
966.395	-404
966.482	-963
966.569	-97
966.655	-801
966.742	-829
966.828	-255
966.915	-1089
967.001	-931
967.087	-183
967.174	-256
967.260	929
967.347	2274
967.433	5276
967.519	11977
967.605	2640
967.692	-323
967.778	-534
967.864	-531
967.950	-693
968.036	-1268
968.123	-434
968.209	-1134
968.295	-817
968.381	703
968.467	231
968.553	-1779
968.639	446
968.725	-368
968.811	1488
968.897	384
968.983	-720
969.069	-927
969.154	-532
969.240	221
969.326	-840
969.412	-984
969.497	-564
969.583	-1249
969.669	669
969.755	-365
969.840	-50
969.926	-520
970.012	-653
970.097	-469
970.183	-1085
970.268	515
970.354	841
970.439	2188
970.525	7579
970.610	1021
970.696	21
970.781	-724
970.866	-1674
970.952	-735
971.037	-746
971.122	-1127
971.208	-161
971.293	-214
971.378	-2131
971.463	371
971.549	-67
971.634	-393
971.719	-369
971.804	-383
971.889	888
971.974	-551
972.059	-1045
972.144	-34
972.229	-40
972.314	-1049
972.399	-338
972.484	-392
972.569	-267
972.654	-639
972.739	2815
972.824	2746
972.908	-160
972.993	-1489
973.078	-428
973.163	-612
973.247	-1008
973.332	-1238
973.417	-479
973.501	-1334
973.586	-1234
973.671	-876
973.755	-1091
973.840	-96
973.924	-240
974.009	-518
974.093	-1711
974.178	442
974.262	1626
974.346	2142
974.431	-1060
974.515	-1745
974.600	-615
974.684	-151
974.768	-441
974.852	-726
974.937	-1888
975.021	-972
975.105	-691
975.189	-432
975.273	-1251
975.358	-1784
975.442	-852
975.526	-263
975.610	-1775
975.694	-1764
975.778	176
975.862	-489
975.946	-2753
976.030	864
976.114	-1150
976.198	-319
976.281	-896
976.365	-777
976.449	-1305
976.533	-145
976.617	-848
976.700	-863
976.784	-9
976.868	-975
976.951	1127
977.035	202
977.119	-861
977.202	-773
977.286	-896
977.369	-1044
977.453	-915
977.536	-672
977.620	-1483
977.703	-1102
977.787	-837
977.870	-450
977.953	-53
978.037	-2030
978.120	946
978.203	447
978.287	2862
978.370	589
978.453	-1139
978.536	-530
978.620	-356
978.703	1205
978.786	172
978.869	-1527
978.952	-2016
979.035	594
979.118	-374
979.201	-2081
979.284	-470
979.367	-1086
979.450	-769
979.533	-2377
979.616	-643
979.699	-1061
979.782	-519
979.865	-399
979.948	-1900
980.030	-1062
980.113	-1414
980.196	-1289
980.279	-1004
980.361	-842
980.444	-839
980.526	-542
980.609	-1414
980.692	-1933
980.774	-529
980.857	-1716
980.939	-67
981.022	-2317
981.104	-2136
981.187	-1244
981.269	-198
981.352	-1067
981.434	-1709
981.516	-1870
981.599	-444
981.681	-1376
981.763	-429
981.846	-1259
981.928	-741
982.010	-363
982.092	-1208
982.174	-392
982.256	-1082
982.339	-2426
982.421	-282
982.503	-748
982.585	-1475
982.667	-1844
982.749	-1378
982.831	-414
982.913	-2368
982.995	-823
983.077	-1373
983.158	77
983.240	-1741
983.322	-412
983.404	-11
983.486	-1505
983.568	-1087
983.649	-1195
983.731	-1123
983.813	-2188
983.894	-547
983.976	-1979
984.058	-1069
984.139	-396
984.221	-2292
984.302	-732
984.384	-809
984.465	-1894
984.547	-420
984.628	-1271
984.710	-724
984.791	-1051
984.872	-1763
984.954	-2133
985.035	-152
985.116	-1615
985.198	-2218
985.279	564
985.360	-1415
985.441	-1224
985.522	-1000
985.604	-1039
985.685	-3446
985.766	-658
985.847	-357
985.928	-1495
986.009	-1167
986.090	-1539
986.171	-677
986.252	-1512
986.333	-1068
986.414	-1448
986.495	-162
986.576	-1137
986.656	-568
986.737	-533
986.818	-1315
986.899	-1806
986.980	-1201
987.060	-954
987.141	-1530
987.222	-1120
987.302	-728
987.383	-602
987.464	-1298
987.544	-1340
987.625	-1292
987.705	-741
987.786	-1043
987.866	-584
987.947	-1098
988.027	-1259
988.108	-1455
988.188	-1177
988.268	-564
988.349	-709
988.429	-1188
988.509	-1265
988.589	-1310
988.670	-2410
988.750	-428
988.830	-1479
988.910	-1342
988.990	-969
989.070	-1668
989.151	-694
989.231	-1896
989.311	-1086
989.391	-894
989.471	-1225
989.551	-1129
989.631	-1582
989.711	-965
989.791	-1768
989.870	-1461
989.950	63
990.030	-1777
990.110	-1564
990.190	-1919
990.269	-1289
990.349	-783
990.429	-1162
990.509	-949
990.588	-1257
990.668	-1116
990.747	-1239
990.827	-1719
990.907	-400
990.986	-2401
991.066	-1146
991.145	-426
991.225	-251
991.304	-1639
991.383	-1088
991.463	-606
991.542	-1021
991.622	-1439
991.701	-896
991.780	-1649
991.859	-1165
991.939	-1630
992.018	-460
992.097	-1313
992.176	-827
992.256	-1664
992.335	-2114
992.414	-672
992.493	-574
992.572	-906
992.651	-972
992.730	-1260
992.809	-161
992.888	-1456
992.967	-1856
993.046	-851
993.125	-1904
993.203	-2179
993.282	-1174
993.361	-1469
993.440	-1024
993.519	-2144
993.597	-500
993.676	-1332
993.755	-975
993.834	-248
993.912	-2021
993.991	-182
994.069	-2039
994.148	-1517
994.226	-1252
994.305	-1030
994.384	-1076
994.462	38
994.540	-1657
994.619	-1570
994.697	-800
994.776	-1212
994.854	-1008
994.932	-829
995.011	-587
995.089	-729
995.167	-569
995.245	-1212
995.324	-2117
995.402	42
995.480	-1569
995.558	-1350
995.636	-1717
995.714	-1197
995.792	-319
995.870	-2050
995.948	-952
996.026	-957
996.104	-2545
996.182	-336
996.260	-1769
996.338	-1544
996.416	-2092
996.494	-1611
996.572	-216
996.649	-2001
996.727	-2433
996.805	-1385
996.883	-1634
996.960	-1289
997.038	-1726
997.116	-1185
997.193	-1549
997.271	-815
997.348	-1793
997.426	-1496
997.504	-2465
997.581	-253
997.658	-989
997.736	-1732
997.813	-1899
997.891	-786
997.968	-1058
998.046	-1745
998.123	-1810
998.200	-1430
998.277	-1864
998.355	-973
998.432	-1904
998.509	-1455
998.586	-1003
998.663	-1052
998.741	-2307
998.818	-1149
998.895	-1224
998.972	-1161
999.049	-2058
999.126	-1757
999.203	-1332
999.280	-1532
999.357	-1035
999.434	-1387
999.511	-1516
999.587	-643
999.664	-1370
999.741	-1136
999.818	-854
999.895	-2482
999.971	-1963
1000.048	-1643
1000.125	-582
1000.202	-1775
1000.278	-1450
1000.355	-732
1000.431	-1522
1000.508	-1296
1000.584	-1522
1000.661	-1342
1000.738	-1135
1000.814	-1353
1000.890	-1421
1000.967	-1650
1001.043	-1742
1001.120	-1591
1001.196	-682
1001.272	-1436
1001.349	-1129
1001.425	-1244
1001.501	-1773
1001.577	-1658
1001.654	-583
1001.730	-1425
1001.806	-1672
1001.882	-1756
1001.958	-1171
1002.034	-1128
1002.110	-1113
1002.186	-2136
1002.262	-1614
1002.338	-1998
1002.414	-1827
1002.490	-1269
1002.566	-1053
1002.642	-2335
1002.718	-1293
1002.794	-1478
1002.870	-1920
1002.945	-1962
1003.021	-1738
1003.097	-1776
1003.173	-1331
1003.248	-1427
1003.324	-1841
1003.400	-572
1003.475	-2018
1003.551	-1135
1003.626	-1212
1003.702	-2104
1003.777	-1381
1003.853	-1967
1003.928	-2048
1004.004	-1461
1004.079	-917
1004.155	-1275
1004.230	-2391
1004.305	-1530
1004.381	-2184
1004.456	-1493
1004.531	-1199
1004.607	-1639
1004.682	-816
1004.757	-2472
1004.832	-1625
1004.907	-1391
1004.982	-1155
1005.057	-1813
1005.133	-1615
1005.208	-1958
1005.283	-1772
1005.358	-750
1005.433	-1580
1005.508	-1973
1005.583	-2288
1005.657	-2072
1005.732	-1782
1005.807	-1559
1005.882	-1306
1005.957	-1681
1006.032	-1339
1006.106	-1340
1006.181	-1627
1006.256	-1381
1006.331	-1879
1006.405	-2473
1006.480	-1924
1006.554	-1603
1006.629	-1549
1006.704	-1692
1006.778	-2080
1006.853	-1297
1006.927	-2469
1007.002	-1897
1007.076	-1838
1007.150	-2001
1007.225	-1760
1007.299	-1686
1007.373	-1709
1007.448	-1915
1007.522	-556
1007.596	-1455
1007.671	-2336
1007.745	-1746
1007.819	-1632
1007.893	-1482
1007.967	-2019
1008.041	-2672
1008.115	-481
1008.190	-2372
1008.264	-2114
1008.338	-2700
1008.412	-1431
1008.486	-1786
1008.560	-1939
1008.633	-2363
1008.707	-2209
1008.781	-1272
1008.855	-1689
1008.929	-2128
1009.003	-2362
1009.076	-2579
1009.150	-1912
1009.224	-1830
1009.298	-1965
1009.371	-2136
1009.445	-2209
1009.519	-2106
1009.592	-2443
1009.666	-2284
1009.739	-1813
1009.813	-2197
1009.886	-1252
1009.960	-2535
1010.033	-1435
1010.107	-1458
1010.180	-2319
1010.253	-2174
1010.327	-2361
1010.400	-1941
1010.473	-1358
1010.547	-1475
1010.620	-2030
1010.693	-1428
1010.766	-1820
1010.840	-2218
1010.913	-1760
1010.986	-2848
1011.059	-2435
1011.132	-2361
1011.205	-1499
1011.278	-1731
1011.351	-2377
1011.424	-1436
1011.497	-2404
1011.570	-2070
1011.643	-2138
1011.716	-2322
1011.789	-2246
1011.862	-1705
1011.934	-1523
1012.007	-2548
1012.080	-1780
1012.153	-2192
1012.225	-1931
1012.298	-2280
1012.371	-2715
1012.443	-1082
1012.516	-2934
1012.588	-1678
1012.661	-1749
1012.733	-1783
1012.806	-1097
1012.879	-2422
1012.951	-1910
1013.023	-2423
1013.096	-1693
1013.168	-2223
1013.241	-1570
1013.313	-2360
1013.385	-1962
1013.458	-2413
1013.530	-1681
1013.602	-1750
1013.674	-757
1013.746	-2785
1013.819	-2455
1013.891	-2082
1013.963	-2517
1014.035	-1673
1014.107	-1512
1014.179	-993
1014.251	-2449
1014.323	-2683
1014.395	-1415
1014.467	-2035
1014.539	-1915
1014.611	-2472
1014.683	-1775
1014.754	-2295
1014.826	-2871
1014.898	-1895
1014.970	-3069
1015.042	-1293
1015.113	-1935
1015.185	-2040
1015.257	-3292
1015.328	-2162
1015.400	-2551
1015.471	-2261
1015.543	-1926
1015.615	-1694
1015.686	-2182
1015.757	-2626
1015.829	-2440
1015.901	-2837
1015.972	-1496
1016.043	-1802
1016.115	-1876
1016.186	-2395
1016.257	-3108
1016.328	-2060
1016.400	-1677
1016.471	-2838
1016.542	-2628
1016.613	-1900
1016.685	-2060
1016.756	-2227
1016.827	-2587
1016.898	-2829
1016.969	-1707
1017.040	-2635
1017.111	-2390
1017.182	-2133
1017.253	-1803
1017.324	-2614
1017.395	-2164
1017.466	-1527
1017.537	-2078
1017.608	-2204
1017.678	-2281
1017.749	-2147
1017.820	-3270
1017.891	-2952
1017.961	-2208
1018.032	-1796
1018.103	-2216
1018.173	-2425
1018.244	-2348
1018.315	-2599
1018.385	-1623
1018.456	-1291
1018.526	-2428
1018.597	-2444
1018.667	-1849
1018.738	-2326
1018.808	-2472
1018.878	-2174
1018.949	-2707
1019.019	-2246
1019.089	-1376
1019.160	-2108
1019.230	-2430
1019.300	-1861
1019.371	-2910
1019.441	-1467
1019.511	-2281
1019.581	-2468
1019.651	-1696
1019.721	-2789
1019.791	-2394
1019.861	-2355
1019.931	-2230
1020.001	-2093
1020.071	-1689
1020.141	-2115
1020.211	-2380
1020.281	-3188
1020.351	-3022
1020.421	-2321
1020.491	-1989
1020.560	-2762
1020.630	-1894
1020.700	-2217
1020.770	-2848
1020.839	-2533
1020.909	-1710
1020.979	-1689
1021.048	-2786
1021.118	-2192
1021.187	-2595
1021.257	-2624
1021.326	-2452
1021.396	-1831
1021.465	-1755
1021.535	-2363
1021.604	-3218
1021.674	-1985
1021.743	-2655
1021.812	-2077
1021.882	-2355
1021.951	-2723
1022.020	-2593
1022.089	-1884
1022.159	-3961
1022.228	-1928
1022.297	-2752
1022.366	-2931
1022.435	-2329
1022.504	-2741
1022.573	-2503
1022.642	-1730
1022.711	-3188
1022.781	-2914
1022.849	-2484
1022.918	-2494
1022.987	-2575
1023.056	-2659
1023.125	-2649
1023.194	-2802
1023.263	-2230
1023.331	-2813
1023.400	-2402
1023.469	-2686
1023.538	-2698
1023.606	-2611
1023.675	-2318
1023.744	-2635
1023.812	-2052
1023.881	-2232
1023.949	-2191
1024.018	-2235
1024.086	-3336
1024.155	-1907
1024.223	-2599
1024.292	-1761
1024.360	-2124
1024.429	-1836
1024.497	-3219
1024.565	-2435
1024.634	-2771
1024.702	-2075
1024.770	-2991
1024.838	-2614
1024.907	-1994
1024.975	-1900
1025.043	-2419
1025.111	-2281
1025.179	-2524
1025.247	-2347
1025.315	-1925
1025.383	-1856
1025.451	-1852
1025.519	-2003
1025.587	-3268
1025.655	-2864
1025.723	-2308
1025.791	-2017
1025.859	-1787
1025.927	-2363
1025.995	-3248
1026.062	-2171
1026.130	-3229
1026.198	-2546
1026.266	-2702
1026.333	-2625
1026.401	-1999
1026.469	-2739
1026.536	-2829
1026.604	-2245
1026.671	-2986
1026.739	-2436
1026.806	-3082
1026.874	-2598
1026.941	-2183
1027.009	-2066
1027.076	-2776
1027.144	-1688
1027.211	-2591
1027.278	-2073
1027.345	-2197
1027.413	-2139
1027.480	-2693
1027.547	-1748
1027.614	-2198
1027.682	-1992
1027.749	-2863
1027.816	-2508
1027.883	-2775
1027.950	-2269
1028.017	-2896
1028.084	-2300
1028.151	-3281
1028.218	-3095
1028.285	-1995
1028.352	-2308
1028.419	-2291
1028.486	-2964
1028.553	-2202
1028.619	-2803
1028.686	-3003
1028.753	-2417
1028.820	-3185
1028.886	-2646
1028.953	-1748
1029.020	-2437
1029.086	-1871
1029.153	-2757
1029.220	-2539
1029.286	-2336
1029.353	-2127
1029.419	-2520
1029.486	-3556
1029.552	-1975
1029.619	-2156
1029.685	-2159
1029.751	-2143
1029.818	-1791
1029.884	-2490
1029.951	-1461
1030.017	-1918
1030.083	-2140
1030.149	-2705
1030.216	-3041
1030.282	-1942
1030.348	-2677
1030.414	-2439
1030.480	-1320
1030.546	-2823
1030.612	-2585
1030.678	-2762
1030.744	-2173
1030.810	-1442
1030.876	-2065
1030.942	-2730
1031.008	-1858
1031.074	-3174
1031.140	-2663
1031.206	-1220
1031.272	-2665
1031.337	-2891
1031.403	-1678
1031.469	-2483
1031.534	-2614
1031.600	-1914
1031.666	-2987
1031.731	-2410
1031.797	-1738
1031.863	-2814
1031.928	-1760
1031.994	-2790
1032.059	-2182
1032.125	-1714
1032.190	-2690
1032.256	-2499
1032.321	-2289
1032.386	-2791
1032.452	-2502
1032.517	-2551
1032.582	-2057
1032.647	-1834
1032.713	-2603
1032.778	-1918
1032.843	-2228
1032.908	-2126
1032.974	-2303
1033.039	-2254
1033.104	-2060
1033.169	-2962
1033.234	-2464
1033.299	-1997
1033.364	-2068
1033.429	-2104
1033.494	-2052
1033.559	-2560
1033.624	-2012
1033.688	-2399
1033.753	-2419
1033.818	-2281
1033.883	-1725
1033.948	-2170
1034.013	-2104
1034.077	-2310
1034.142	-2112
1034.207	-2385
1034.271	-1686
1034.336	-1981
1034.400	-2003
1034.465	-2092
1034.530	-1510
1034.594	-3107
1034.658	-2174
1034.723	-3017
1034.787	-1600
1034.852	-1800
1034.916	-2381
1034.981	-2556
1035.045	-1876
1035.109	-2191
1035.173	-1815
1035.238	-2331
1035.302	-2194
1035.366	-2373
1035.430	-2705
1035.495	-2199
1035.559	-1286
1035.623	-2203
1035.687	-2294
1035.751	-2805
1035.815	-2340
1035.879	-2804
1035.943	-2467
1036.007	-2518
1036.071	-2524
1036.135	-1895
1036.198	-1647
1036.262	-2430
1036.326	-2610
1036.390	-2454
1036.454	-2150
1036.517	-1256
1036.581	-2087
1036.645	-1449
1036.709	-1333
1036.772	-2632
1036.836	-2068
1036.900	-2795
1036.963	-2993
1037.026	-2058
1037.090	-2153
1037.154	-2509
1037.217	-3055
1037.280	-1942
1037.344	-1884
1037.407	-2490
1037.471	-1556
1037.534	-3270
1037.597	-2397
1037.661	-2528
1037.724	-2123
1037.787	-2097
1037.850	-2074
1037.913	-1644
1037.977	-2445
1038.040	-1587
1038.103	-2967
1038.166	-2767
1038.229	-2461
1038.292	-2542
1038.355	-1555
1038.418	-2888
1038.481	-1960
1038.544	-2194
1038.607	-1995
1038.670	-1893
1038.732	-2875
1038.795	-2893
1038.858	-1986
1038.921	-1886
1038.984	-2069
1039.046	-2332
1039.109	-2737
1039.172	-2174
1039.234	-1784
1039.297	-2583
1039.360	-2010
1039.422	-2495
1039.485	-2869
1039.547	-2734
1039.610	-2200
1039.672	-2597
1039.734	-1840
1039.797	-2269
1039.859	-1604
1039.922	-2269
1039.984	-2313
1040.046	-2203
1040.109	-2549
1040.171	-2264
1040.233	-1809
1040.295	-2169
1040.358	-2568
1040.420	-2590
1040.482	-2021
1040.544	-3305
1040.606	-2128
1040.668	-2830
1040.730	-2044
1040.792	-1843
1040.854	-1690
1040.916	-1958
1040.978	-3019
1041.040	-1810
1041.102	-2514
1041.164	-2547
1041.225	-2625
1041.287	-2519
1041.349	-2452
1041.411	-3123
1041.472	-2188
1041.534	-2853
1041.596	-1998
1041.657	-1816
1041.719	-1646
1041.781	-2619
1041.842	-2548
1041.904	-2877
1041.965	-2870
1042.027	-1787
1042.088	-2051
1042.150	-2375
1042.211	-2108
1042.272	-2468
1042.334	-2972
1042.395	-2414
1042.456	-1938
1042.518	-2696
1042.579	-1879
1042.640	-2165
1042.701	-2345
1042.763	-2640
1042.824	-2275
1042.885	-2113
1042.946	-2643
1043.007	-2388
1043.068	-2885
1043.129	-1693
1043.190	-1544
1043.251	-2163
1043.312	-2615
1043.373	-2373
1043.434	-2716
1043.495	-2145
1043.556	-997
1043.616	-1887
1043.677	-1923
1043.738	-2038
1043.799	-3018
1043.859	-2558
1043.920	-2219
1043.981	-2259
1044.041	-2153
1044.102	-1885
1044.162	-1762
1044.223	-2148
1044.284	-1895
1044.344	-1721
1044.405	-2728
1044.465	-1826
1044.525	-2766
1044.586	-1490
1044.646	-2256
1044.707	-2287
1044.767	-1475
1044.827	-2308
1044.887	-2010
1044.948	-2707
1045.008	-1952
1045.068	-2911
1045.128	-2137
1045.188	-1531
1045.249	-2581
1045.309	-2169
1045.369	-1665
1045.429	-2020
1045.489	-1785
1045.549	-2225
1045.609	-1978
1045.669	-2407
1045.729	-3208
1045.789	-2215
1045.848	-2203
1045.908	-1966
1045.968	-1612
1046.028	-2559
1046.088	-1665
1046.147	-1378
1046.207	-1717
1046.267	-1640
1046.326	-2324
1046.386	-2161
1046.446	-1376
1046.505	-1725
1046.565	-1016
1046.624	-1188
1046.684	-1250
1046.743	-771
1046.803	-1386
1046.862	-632
1046.922	0
