'Start Wavelength	183.907
'End Wavelength	1046.922
'Gate Delay	5.000
'Gate Width (ms)	1.050
'Laser Output Level	0.000
'X Position	0.000
'Y Position	0.000
'Z Position	0.000
'Grid Point Number	1.000
'Shot Number	100.000
183.907	516.000
183.977	164.000
184.047	681
184.116	562
184.186	229
184.256	86
184.325	-214
184.395	-608
184.465	817
184.534	-109
184.604	-264
184.674	161
184.743	199
184.813	231
184.883	257
184.952	-12
185.022	49
185.092	949
185.161	249
185.231	865
185.301	729
185.370	333
185.440	262
185.509	418
185.579	-274
185.649	568
185.718	771
185.788	223
185.857	-756
185.927	235
185.996	-211
186.066	-333
186.136	232
186.205	456
186.275	156
186.344	211
186.414	514
186.483	-121
186.553	1340
186.622	1792
186.692	1169
186.761	98
186.831	302
186.900	802
186.970	1031
187.039	727
187.109	1307
187.178	1186
187.248	773
187.317	803
187.387	-200
187.456	850
187.526	882
187.595	1297
187.664	-133
187.734	1399
187.803	377
187.873	733
187.942	1384
188.012	369
188.081	857
188.150	822
188.220	1304
188.289	1428
188.358	870
188.428	1007
188.497	357
188.567	641
188.636	121
188.705	45
188.775	-138
188.844	752
188.913	910
188.983	735
189.052	867
189.121	495
189.191	949
189.260	1555
189.329	956
189.399	788
189.468	717
189.537	-72
189.606	724
189.676	1658
189.745	923
189.814	861
189.883	198
189.953	967
190.022	815
190.091	2167
190.161	3770
190.230	2092
190.299	557
190.368	1041
190.437	71
190.507	753
190.576	639
190.645	1239
190.714	272
190.783	142
190.853	1283
190.922	1287
190.991	1350
191.060	1510
191.129	-530
191.198	415
191.268	443
191.337	889
191.406	1172
191.475	600
191.544	64
191.613	1305
191.682	327
191.752	725
191.821	570
191.890	705
191.959	495
192.028	1324
192.097	1166
192.166	1358
192.235	81
192.304	1413
192.373	738
192.442	491
192.511	476
192.580	277
192.650	665
192.719	809
192.788	823
192.857	857
192.926	775
192.995	919
193.064	1251
193.133	1639
193.202	2951
193.271	2225
193.340	2263
193.409	2670
193.478	2468
193.547	4412
193.615	3591
193.684	4365
193.753	2805
193.822	2669
193.891	1206
193.960	1840
194.029	1013
194.098	1873
194.167	464
194.236	1631
194.305	930
194.374	956
194.443	796
194.512	1828
194.580	964
194.649	1252
194.718	1864
194.787	1116
194.856	374
194.925	1307
194.994	1425
195.062	1621
195.131	1361
195.200	1911
195.269	2639
195.338	970
195.407	1109
195.475	1075
195.544	2718
195.613	1671
195.682	1504
195.751	2898
195.819	2535
195.888	2516
195.957	2669
196.026	2352
196.094	1910
196.163	1796
196.232	2002
196.301	2478
196.369	1314
196.438	2147
196.507	1761
196.576	1513
196.644	1010
196.713	1078
196.782	1370
196.850	1269
196.919	774
196.988	1694
197.056	1450
197.125	1158
197.194	2051
197.262	1076
197.331	440
197.400	1064
197.468	747
197.537	241
197.606	1946
197.674	2663
197.743	3686
197.812	1944
197.880	3216
197.949	2893
198.017	3113
198.086	2957
198.155	1349
198.223	1683
198.292	3557
198.360	2569
198.429	292
198.497	1916
198.566	2817
198.635	4358
198.703	2507
198.772	2270
198.840	3790
198.909	5673
198.977	2527
199.046	2043
199.114	730
199.183	2046
199.251	1523
199.320	1768
199.388	1035
199.457	1175
199.525	1459
199.594	2129
199.662	1706
199.731	1622
199.799	1286
199.867	1844
199.936	1137
200.004	1833
200.073	1530
200.141	1106
200.210	1461
200.278	1575
200.346	1264
200.415	2022
200.483	3189
200.552	2779
200.620	1645
200.688	2379
200.757	1606
200.825	1352
200.893	959
200.962	2506
201.030	915
201.098	1734
201.167	2641
201.235	1621
201.303	2279
201.372	2038
201.440	1831
201.508	2957
201.577	2110
201.645	2221
201.713	1618
201.781	1693
201.850	3060
201.918	2517
201.986	2136
202.055	2353
202.123	1189
202.191	2408
202.259	1509
202.327	1801
202.396	1996
202.464	2384
202.532	3123
202.600	8763
202.669	5911
202.737	2790
202.805	1619
202.873	2151
202.941	1944
203.009	1580
203.078	1280
203.146	2392
203.214	1323
203.282	1371
203.350	2021
203.418	1929
203.487	1855
203.555	2057
203.623	1492
203.691	1464
203.759	854
203.827	544
203.895	2256
203.963	2327
204.031	1604
204.099	2227
204.168	1699
204.236	1923
204.304	1956
204.372	2324
204.440	1554
204.508	1693
204.576	1355
204.644	2190
204.712	1617
204.780	1915
204.848	1829
204.916	1610
204.984	1848
205.052	2184
205.120	1737
205.188	2687
205.256	1017
205.324	1644
205.392	1552
205.460	2827
205.528	2162
205.596	1941
205.664	1532
205.732	1343
205.799	4717
205.867	8627
205.935	2295
206.003	3115
206.071	2075
206.139	2350
206.207	2184
206.275	2228
206.343	2199
206.411	2783
206.478	1737
206.546	2103
206.614	2015
206.682	2117
206.750	1747
206.818	3545
206.885	4031
206.953	1740
207.021	2542
207.089	2111
207.157	1409
207.225	2655
207.292	1386
207.360	2919
207.428	2720
207.496	1830
207.563	2486
207.631	1873
207.699	1717
207.767	2743
207.834	1679
207.902	2511
207.970	2717
208.038	1604
208.105	2604
208.173	1782
208.241	2780
208.309	3668
208.376	3472
208.444	5301
208.512	3717
208.579	2184
208.647	3187
208.715	4663
208.782	2873
208.850	2578
208.918	2719
208.985	2818
209.053	2761
209.120	2477
209.188	1951
209.256	2553
209.323	2088
209.391	3768
209.459	3790
209.526	2817
209.594	2667
209.661	2599
209.729	2688
209.796	2680
209.864	3294
209.932	2565
209.999	3209
210.067	3944
210.134	3466
210.202	3054
210.269	4885
210.337	5075
210.404	3414
210.472	2335
210.539	2499
210.607	2428
210.674	3673
210.742	3436
210.809	2325
210.877	3705
210.944	4577
211.012	3249
211.079	5141
211.146	2713
211.214	3395
211.281	4691
211.349	4375
211.416	4475
211.484	4373
211.551	2892
211.618	3459
211.686	3483
211.753	2193
211.821	3983
211.888	2024
211.955	3168
212.023	4006
212.090	3404
212.157	2926
212.225	3793
212.292	5459
212.359	9832
212.427	23415
212.494	12962
212.561	4926
212.629	4568
212.696	3570
212.763	4290
212.831	2338
212.898	3654
212.965	2484
213.032	3447
213.100	4100
213.167	3564
213.234	5489
213.301	4190
213.369	2935
213.436	3617
213.503	3275
213.570	4644
213.638	2604
213.705	2929
213.772	2307
213.839	3968
213.906	4976
213.973	4165
214.041	3552
214.108	3339
214.175	3638
214.242	3086
214.309	3230
214.376	4532
214.444	3274
214.511	4121
214.578	4274
214.645	4872
214.712	4094
214.779	4300
214.846	3451
214.913	4230
214.980	5093
215.048	5671
215.115	5607
215.182	5722
215.249	4383
215.316	4548
215.383	3795
215.450	3850
215.517	4136
215.584	4407
215.651	3523
215.718	3840
215.785	4823
215.852	4512
215.919	5298
215.986	5451
216.053	4074
216.120	2510
216.187	3515
216.254	4422
216.321	3769
216.388	4566
216.455	4547
216.522	4238
216.589	5717
216.656	8697
216.722	9398
216.789	6675
216.856	6451
216.923	6241
216.990	4632
217.057	5916
217.124	6437
217.191	5980
217.258	6978
217.324	8145
217.391	8500
217.458	7460
217.525	5580
217.592	5620
217.659	3556
217.725	6018
217.792	7257
217.859	7099
217.926	3359
217.993	3823
218.059	3237
218.126	3664
218.193	2084
218.260	2992
218.327	2716
218.393	3465
218.460	3213
218.527	2367
218.594	3326
218.660	7610
218.727	7612
218.794	3460
218.860	3000
218.927	3334
218.994	2651
219.061	2944
219.127	4272
219.194	6900
219.261	3685
219.327	2503
219.394	3457
219.461	1666
219.527	2560
219.594	5371
219.661	4331
219.727	2167
219.794	3610
219.860	2519
219.927	4203
219.994	5031
220.060	11153
220.127	9139
220.193	5613
220.260	6172
220.326	7108
220.393	10710
220.460	13045
220.526	9072
220.593	6756
220.659	6889
220.726	7271
220.792	14469
220.859	13807
220.925	17499
220.992	20945
221.058	19278
221.125	18505
221.191	14947
221.258	7417
221.324	6212
221.391	4704
221.457	4197
221.524	4032
221.590	5760
221.657	15166
221.723	11593
221.789	9657
221.856	9759
221.922	5127
221.989	4426
222.055	3704
222.121	3164
222.188	5695
222.254	4367
222.321	3304
222.387	2232
222.453	2600
222.520	2749
222.586	2536
222.652	3802
222.719	1925
222.785	2841
222.851	2105
222.918	2640
222.984	2978
223.050	2320
223.116	1719
223.183	3163
223.249	1561
223.315	2163
223.382	1480
223.448	2927
223.514	2313
223.580	1401
223.647	1709
223.713	1611
223.779	2566
223.845	2327
223.911	3045
223.978	1847
224.044	1944
224.110	2362
224.176	2470
224.242	2357
224.309	1315
224.375	2925
224.441	1599
224.507	2435
224.573	2087
224.639	3169
224.705	555
224.772	2650
224.838	2229
224.904	3844
224.970	1834
225.036	2257
225.102	2148
225.168	3486
225.234	3645
225.300	2564
225.366	2040
225.432	3167
225.499	2941
225.565	3401
225.631	3297
225.697	3127
225.763	3911
225.829	4455
225.895	5246
225.961	7230
226.027	6276
226.093	5994
226.159	7252
226.225	10773
226.291	22556
226.357	34721
226.423	21774
226.489	13198
226.554	8616
226.620	7952
226.686	10126
226.752	15592
226.818	22154
226.884	43182
226.950	39881
227.016	17451
227.082	11970
227.148	9310
227.214	9282
227.279	7122
227.345	6575
227.411	6323
227.477	8209
227.543	15030
227.609	17044
227.674	10601
227.740	6814
227.806	5463
227.872	3881
227.938	4898
228.003	6959
228.069	4190
228.135	3536
228.201	3786
228.267	3520
228.332	4522
228.398	6119
228.464	4745
228.530	3050
228.595	3345
228.661	2745
228.727	6870
228.792	6037
228.858	3899
228.924	2533
228.990	5847
229.055	4133
229.121	5052
229.187	2702
229.252	5021
229.318	3146
229.384	3914
229.449	5042
229.515	2215
229.581	516
229.646	4729
229.712	3990
229.777	9608
229.843	10589
229.909	7083
229.974	7170
230.040	6844
230.105	4728
230.171	6280
230.236	6128
230.302	8772
230.368	8461
230.433	4848
230.499	4378
230.564	6313
230.630	3775
230.695	4040
230.761	4194
230.826	1958
230.892	7023
230.957	3861
231.023	3058
231.088	3449
231.154	2823
231.219	3812
231.284	5568
231.350	7221
231.415	3042
231.481	3427
231.546	2649
231.612	3338
231.677	2102
231.742	1648
231.808	4795
231.873	2574
231.939	1764
232.004	6774
232.069	7423
232.135	3150
232.200	2905
232.265	2845
232.331	1899
232.396	2305
232.461	1434
232.527	2408
232.592	2844
232.657	2516
232.723	5777
232.788	4510
232.853	2754
232.918	3651
232.984	1696
233.049	2328
233.114	4647
233.179	5761
233.245	7803
233.310	9328
233.375	2836
233.440	4359
233.506	3987
233.571	2838
233.636	2501
233.701	3114
233.766	5145
233.832	8188
233.897	4405
233.962	4279
234.027	6093
234.092	4944
234.157	4157
234.222	4608
234.288	5316
234.353	17996
234.418	15982
234.483	10622
234.548	7802
234.613	5965
234.678	5725
234.743	5197
234.808	17949
234.873	14136
234.938	7661
235.004	5444
235.069	4376
235.134	3991
235.199	3509
235.264	3453
235.329	2341
235.394	4856
235.459	5413
235.524	4421
235.589	4804
235.654	3985
235.719	2912
235.784	4523
235.849	5146
235.913	9278
235.978	9800
236.043	13177
236.108	5685
236.173	5037
236.238	6512
236.303	4593
236.368	4032
236.433	7479
236.498	12648
236.563	9770
236.627	17649
236.692	55367
236.757	50928
236.822	22019
236.887	15146
236.952	12894
237.017	9118
237.081	11556
237.146	13681
237.211	26735
237.276	53487
237.341	89472
237.405	49489
237.470	21673
237.535	14545
237.600	10061
237.664	7513
237.729	6936
237.794	7159
237.859	17105
237.923	12771
237.988	7850
238.053	9168
238.118	10391
238.182	22830
238.247	23412
238.312	11245
238.376	8860
238.441	6403
238.506	8168
238.570	3493
238.635	5749
238.700	4207
238.764	3875
238.829	10972
238.893	14064
238.958	8271
239.023	8408
239.087	5376
239.152	5565
239.216	3596
239.281	4280
239.346	4005
239.410	4249
239.475	6435
239.539	21528
239.604	19786
239.668	8378
239.733	5614
239.797	10224
239.862	25623
239.926	27261
239.991	11743
240.055	5802
240.120	5329
240.184	5654
240.249	4289
240.313	4665
240.378	3946
240.442	12836
240.507	22448
240.571	7916
240.635	9910
240.700	14532
240.764	6342
240.829	4511
240.893	3367
240.957	4269
241.022	11827
241.086	22847
241.151	11418
241.215	5510
241.279	6369
241.344	12799
241.408	7035
241.472	5015
241.537	5844
241.601	5505
241.665	3661
241.730	3922
241.794	6642
241.858	5223
241.922	4903
241.987	5298
242.051	5226
242.115	3082
242.179	5224
242.244	4711
242.308	5055
242.372	5695
242.436	6044
242.501	6206
242.565	3975
242.629	4201
242.693	4810
242.757	4159
242.822	4397
242.886	5328
242.950	5345
243.014	5354
243.078	5310
243.142	6450
243.206	5009
243.271	6214
243.335	5433
243.399	8990
243.463	24385
243.527	70551
243.591	26906
243.655	12445
243.719	7231
243.783	8441
243.847	11425
243.911	14949
243.975	18878
244.040	14841
244.104	9052
244.168	5732
244.232	9636
244.296	13704
244.360	13680
244.424	8691
244.488	7660
244.552	7795
244.615	3503
244.679	5328
244.743	6297
244.807	8101
244.871	5823
244.935	5828
244.999	3910
245.063	5726
245.127	6250
245.191	8819
245.255	9424
245.319	9100
245.383	8071
245.446	7656
245.510	5265
245.574	6036
245.638	6875
245.702	5108
245.766	16650
245.829	10639
245.893	7102
245.957	6443
246.021	7608
246.085	7400
246.149	8290
246.212	22672
246.276	34445
246.340	16403
246.404	11787
246.467	10809
246.531	16656
246.595	10143
246.659	9162
246.722	9028
246.786	10988
246.850	11344
246.913	15329
246.977	7751
247.041	7407
247.104	9021
247.168	8694
247.232	21112
247.295	44534
247.359	23569
247.423	10165
247.486	19276
247.550	13159
247.614	9596
247.677	12417
247.741	9247
247.804	7189
247.868	9430
247.932	18073
247.995	42392
248.059	18301
248.122	9356
248.186	12129
248.249	19680
248.313	65785
248.376	73821
248.440	48207
248.503	19224
248.567	15555
248.630	19627
248.694	27573
248.757	35199
248.821	72933
248.884	47390
248.948	38514
249.011	56799
249.075	84641
249.138	76092
249.202	30949
249.265	18273
249.328	21222
249.392	16719
249.455	13941
249.519	10961
249.582	12849
249.645	21655
249.709	16587
249.772	10296
249.835	10141
249.899	12709
249.962	10434
250.025	10296
250.089	25781
250.152	37780
250.215	18064
250.279	13687
250.342	13595
250.405	12576
250.468	10751
250.532	15050
250.595	21930
250.658	64956
250.721	114468
250.785	46136
250.848	25020
250.911	15607
250.974	14272
251.038	19688
251.101	42946
251.164	23037
251.227	22226
251.290	20556
251.354	25266
251.417	90227
251.480	97622
251.543	63632
251.606	162184
251.669	135832
251.732	54205
251.795	58074
251.859	57606
251.922	106469
251.985	71682
252.048	28291
252.111	22056
252.174	20106
252.237	37826
252.300	86057
252.363	81882
252.426	142454
252.489	70839
252.552	35783
252.615	24930
252.678	26294
252.741	60561
252.804	72885
252.867	142544
252.930	98934
252.993	56645
253.056	33540
253.119	25479
253.182	18820
253.245	26260
253.308	23922
253.371	22756
253.434	22611
253.497	20301
253.559	38720
253.622	29787
253.685	34449
253.748	38890
253.811	18660
253.874	21268
253.937	21497
254.000	16356
254.062	27939
254.125	45030
254.188	36199
254.251	36066
254.314	17449
254.376	28776
254.439	35194
254.502	28507
254.565	29607
254.628	53382
254.690	32831
254.753	18648
254.816	15183
254.878	17331
254.941	29874
255.004	34046
255.067	15170
255.129	16314
255.192	9655
255.255	8249
255.317	11387
255.380	8352
255.443	7017
255.505	7259
255.568	6879
255.631	6913
255.693	7939
255.756	6413
255.819	7052
255.881	6224
255.944	6075
256.006	5666
256.069	5992
256.132	5219
256.194	9035
256.257	20312
256.319	16656
256.382	14617
256.444	10843
256.507	7320
256.569	7739
256.632	6903
256.694	12317
256.757	29363
256.819	91592
256.882	41824
256.944	17397
257.007	14766
257.069	15994
257.132	10074
257.194	8857
257.257	8365
257.319	8006
257.381	9356
257.444	24046
257.506	95914
257.569	118825
257.631	52114
257.693	32383
257.756	15740
257.818	14515
257.880	9980
257.943	9024
258.005	7850
258.067	8263
258.130	7486
258.192	10191
258.254	18791
258.317	13476
258.379	8458
258.441	20512
258.503	23795
258.566	23117
258.628	33093
258.690	9664
258.753	10157
258.815	18563
258.877	12252
258.939	7673
259.001	6928
259.064	7087
259.126	8377
259.188	11955
259.250	7583
259.312	9492
259.375	17473
259.437	14739
259.499	7340
259.561	6387
259.623	8292
259.685	8182
259.747	7229
259.809	20857
259.872	44049
259.934	61739
259.996	62467
260.058	19157
260.120	9608
260.182	8024
260.244	6938
260.306	6574
260.368	7027
260.430	6251
260.492	13402
260.554	22311
260.616	15846
260.678	32775
260.740	47692
260.802	14202
260.864	11310
260.926	9346
260.988	8623
261.050	8002
261.112	19072
261.174	45831
261.236	36591
261.298	13238
261.359	19430
261.421	29782
261.483	9693
261.545	8503
261.607	6463
261.669	7040
261.731	12737
261.793	32873
261.854	16912
261.916	11152
261.978	8777
262.040	9729
262.102	7869
262.164	12168
262.225	11459
262.287	6912
262.349	19923
262.411	18024
262.472	7940
262.534	12556
262.596	27705
262.658	10880
262.719	7115
262.781	9663
262.843	26265
262.904	14163
262.966	10135
263.028	12333
263.090	42190
263.151	115844
263.213	42804
263.275	24787
263.336	12872
263.398	9821
263.459	7059
263.521	7653
263.583	18484
263.644	14925
263.706	8005
263.767	5757
263.829	5898
263.891	4469
263.952	4637
264.014	4484
264.075	8329
264.137	22230
264.198	12675
264.260	5392
264.321	5898
264.383	14078
264.444	36073
264.506	12933
264.567	8011
264.629	12999
264.690	27712
264.752	12811
264.813	8450
264.875	5861
264.936	6375
264.998	5796
265.059	4962
265.120	6767
265.182	9881
265.243	44520
265.305	53184
265.366	14182
265.427	9022
265.489	6727
265.550	4695
265.611	7973
265.673	8010
265.734	6085
265.795	5419
265.857	5701
265.918	6145
265.979	14678
266.040	71615
266.102	71500
266.163	22081
266.224	17461
266.286	10996
266.347	6806
266.408	7839
266.469	8082
266.530	6017
266.592	5232
266.653	13303
266.714	24795
266.775	8792
266.836	6897
266.898	5047
266.959	9899
267.020	7871
267.081	5876
267.142	5756
267.203	5543
267.264	4984
267.326	7307
267.387	5470
267.448	4391
267.509	5159
267.570	4816
267.631	4204
267.692	4649
267.753	4834
267.814	4832
267.875	10775
267.936	28133
267.997	13515
268.058	12096
268.119	7976
268.180	7258
268.241	5702
268.302	5603
268.363	4504
268.424	5669
268.485	7257
268.546	5404
268.607	3982
268.668	4777
268.729	4083
268.790	5183
268.851	6340
268.912	16336
268.972	22273
269.033	12202
269.094	5832
269.155	5398
269.216	4796
269.277	6545
269.338	5219
269.398	4925
269.459	6731
269.520	8941
269.581	13234
269.642	15525
269.702	10210
269.763	8099
269.824	6402
269.885	8766
269.945	15039
270.006	6920
270.067	4797
270.128	5243
270.188	3937
270.249	5003
270.310	3498
270.370	5082
270.431	5362
270.492	4699
270.553	5112
270.613	14351
270.674	27737
270.734	12745
270.795	6950
270.856	11130
270.916	9429
270.977	6246
271.038	7451
271.098	9899
271.159	12677
271.219	14964
271.280	5948
271.340	6378
271.401	6465
271.462	16208
271.522	10849
271.583	7368
271.643	8411
271.704	7497
271.764	8939
271.825	20177
271.885	62036
271.946	92817
272.006	33152
272.066	38161
272.127	70355
272.187	26283
272.248	14486
272.308	13622
272.369	43569
272.429	28764
272.489	20765
272.550	22549
272.610	21031
272.671	18819
272.731	13633
272.791	22230
272.852	15513
272.912	13927
272.972	8023
273.033	7712
273.093	12223
273.153	13642
273.214	9953
273.274	11160
273.334	30727
273.394	68129
273.455	31792
273.515	26157
273.575	59441
273.635	28225
273.696	30462
273.756	64944
273.816	28995
273.876	16424
273.936	26983
273.997	47978
274.057	15626
274.117	13317
274.177	18486
274.237	75678
274.297	71945
274.358	44797
274.418	51964
274.478	43221
274.538	17375
274.598	13495
274.658	36503
274.718	51438
274.778	22492
274.838	13206
274.898	22062
274.958	66375
275.018	65639
275.078	45545
275.138	19444
275.198	11988
275.258	9189
275.318	10805
275.378	21680
275.438	23466
275.498	15718
275.558	29746
275.618	66042
275.678	48455
275.738	28252
275.798	24312
275.858	14108
275.918	9201
275.978	10588
276.038	10919
276.098	7855
276.157	16217
276.217	48362
276.277	25429
276.337	17213
276.397	10285
276.457	12345
276.517	10259
276.576	6900
276.636	8185
276.696	13406
276.756	28579
276.815	23957
276.875	11692
276.935	11896
276.995	11407
277.055	7502
277.114	8008
277.174	11493
277.234	37475
277.293	18630
277.353	11831
277.413	8532
277.472	9047
277.532	10063
277.592	10886
277.651	32528
277.711	70153
277.771	25690
277.830	74708
277.890	67943
277.950	43850
278.009	120599
278.069	52319
278.128	46874
278.188	73550
278.248	32975
278.307	74156
278.367	50444
278.426	17180
278.486	12422
278.545	9913
278.605	9012
278.664	8546
278.724	9589
278.783	23741
278.843	64296
278.902	23234
278.962	13623
279.021	15374
279.081	18592
279.140	18608
279.199	16190
279.259	14218
279.318	15173
279.378	19440
279.437	32816
279.496	101859
279.556	276492
279.615	251028
279.675	77572
279.734	43815
279.793	56722
279.853	80713
279.912	34896
279.971	20652
280.031	17670
280.090	27907
280.149	51954
280.208	49005
280.268	185800
280.327	217084
280.386	60326
280.445	42009
280.505	41304
280.564	21204
280.623	16811
280.682	22520
280.742	36356
280.801	14868
280.860	10222
280.919	10056
280.978	9167
281.037	8769
281.097	7436
281.156	8367
281.215	7849
281.274	10928
281.333	39379
281.392	34781
281.451	10106
281.510	8219
281.569	8285
281.628	7732
281.688	5741
281.747	8939
281.806	7754
281.865	6790
281.924	5856
281.983	7242
282.042	5582
282.101	6059
282.160	5374
282.219	6682
282.278	6857
282.337	24623
282.396	20560
282.454	8610
282.513	11210
282.572	37002
282.631	25618
282.690	8784
282.749	7622
282.808	10774
282.867	10034
282.926	10642
282.985	7264
283.043	6546
283.102	7038
283.161	8857
283.220	18687
283.279	42912
283.338	15338
283.396	9981
283.455	10032
283.514	11084
283.573	16508
283.631	13761
283.690	9506
283.749	8623
283.808	17873
283.866	23366
283.925	10292
283.984	9708
284.043	12252
284.101	14870
284.160	9952
284.219	13230
284.277	12816
284.336	19134
284.395	52142
284.453	48071
284.512	20209
284.570	25812
284.629	24345
284.688	22488
284.746	24878
284.805	29226
284.863	36723
284.922	46153
284.981	56180
285.039	81797
285.098	137112
285.156	268184
285.215	392265
285.273	393043
285.332	309676
285.390	180200
285.449	114058
285.507	78488
285.566	56682
285.624	43346
285.683	34130
285.741	28659
285.799	23659
285.858	21202
285.916	20106
285.975	16203
286.033	13414
286.091	12939
286.150	11063
286.208	12077
286.267	12976
286.325	13800
286.383	19099
286.442	17252
286.500	10500
286.558	9151
286.616	9498
286.675	12497
286.733	11283
286.791	10370
286.850	11248
286.908	13900
286.966	24070
287.024	12047
287.083	7851
287.141	7786
287.199	8085
287.257	12668
287.315	10496
287.374	10611
287.432	23742
287.490	18147
287.548	10839
287.606	9193
287.664	8566
287.723	11414
287.781	15168
287.839	9180
287.897	10488
287.955	12829
288.013	17664
288.071	37498
288.129	126335
288.187	343611
288.245	177432
288.303	58653
288.361	34283
288.419	26098
288.477	18336
288.535	13299
288.593	10182
288.651	9892
288.709	7106
288.767	8133
288.825	8010
288.883	6899
288.941	6469
288.999	6411
289.057	6087
289.115	5668
289.173	5924
289.231	6951
289.289	6896
289.346	7030
289.404	8820
289.462	14275
289.520	15038
289.578	8364
289.636	5740
289.694	5196
289.751	3881
289.809	5506
289.867	5186
289.925	6688
289.983	9549
290.040	4785
290.098	5130
290.156	6723
290.214	8630
290.271	6613
290.329	4934
290.387	5225
290.444	5139
290.502	3670
290.560	4326
290.617	4796
290.675	5053
290.733	6067
290.790	6492
290.848	5480
290.906	7391
290.963	6972
291.021	6509
291.078	6476
291.136	7812
291.194	18611
291.251	44429
291.309	15685
291.366	7328
291.424	6996
291.481	7003
291.539	7207
291.596	6587
291.654	4709
291.711	4170
291.769	7098
291.826	15045
291.884	10097
291.941	5965
291.999	5887
292.056	7096
292.114	8451
292.171	5410
292.228	6434
292.286	8309
292.343	15499
292.401	20328
292.458	13766
292.515	8049
292.573	9743
292.630	9699
292.687	9685
292.745	7232
292.802	10455
292.859	23431
292.917	45990
292.974	30147
293.031	10561
293.089	7614
293.146	6877
293.203	5661
293.260	4898
293.318	6531
293.375	10012
293.432	7069
293.489	6836
293.546	6198
293.604	10705
293.661	27020
293.718	73581
293.775	40134
293.832	19397
293.889	15313
293.947	13742
294.004	9453
294.061	11468
294.118	20966
294.175	43764
294.232	49610
294.289	24412
294.346	12726
294.403	12538
294.460	10664
294.517	8494
294.574	7846
294.631	7969
294.688	9461
294.745	22709
294.802	74124
294.859	85616
294.916	33016
294.973	17223
295.030	16377
295.087	14685
295.144	10472
295.201	8924
295.258	8538
295.315	12015
295.372	28602
295.429	59513
295.486	28936
295.542	16064
295.599	31536
295.656	56076
295.713	39784
295.770	57264
295.827	25178
295.883	12375
295.940	12235
295.997	18301
296.054	19981
296.111	10255
296.167	7757
296.224	7331
296.281	6323
296.338	6941
296.394	5669
296.451	9235
296.508	23865
296.564	50149
296.621	34324
296.678	62277
296.734	97517
296.791	37974
296.848	20579
296.904	20764
296.961	43396
297.018	63232
297.074	50916
297.131	20289
297.187	14145
297.244	21911
297.301	57358
297.357	113318
297.414	45356
297.470	19140
297.527	12738
297.583	11104
297.640	11444
297.696	9738
297.753	7904
297.809	7440
297.866	5855
297.922	7186
297.979	5254
298.035	8076
298.092	14136
298.148	35493
298.204	38568
298.261	19993
298.317	28434
298.374	76409
298.430	50829
298.486	22915
298.543	17403
298.599	15713
298.656	17715
298.712	25310
298.768	53086
298.824	41722
298.881	15904
298.937	10806
298.993	10200
299.050	11978
299.106	11059
299.162	9012
299.218	10358
299.275	9033
299.331	10900
299.387	20883
299.443	66110
299.500	85443
299.556	39915
299.612	19097
299.668	18460
299.724	25493
299.780	30164
299.837	17454
299.893	20686
299.949	59987
300.005	82033
300.061	62465
300.117	102938
300.173	55414
300.229	25700
300.285	26630
300.341	32385
300.397	19192
300.453	11916
300.510	11104
300.566	13318
300.622	18397
300.678	46435
300.734	85061
300.790	66958
300.845	75945
300.901	53207
300.957	72726
301.013	58585
301.069	23626
301.125	16755
301.181	17139
301.237	14043
301.293	9653
301.349	8803
301.405	8355
301.461	8979
301.516	12086
301.572	13261
301.628	20784
301.684	20680
301.740	26081
301.796	43650
301.851	31649
301.907	45927
301.963	53219
302.019	72331
302.074	183348
302.130	195440
302.186	94606
302.242	40016
302.297	26249
302.353	24827
302.409	42042
302.464	41115
302.520	33226
302.576	67560
302.631	84670
302.687	51334
302.743	23409
302.798	13786
302.854	11579
302.910	12050
302.965	13982
303.021	24662
303.076	25571
303.132	29292
303.187	37559
303.243	20530
303.299	10949
303.354	9221
303.410	9383
303.465	7640
303.521	8269
303.576	8113
303.632	12112
303.687	20500
303.743	57253
303.798	55246
303.853	22929
303.909	13522
303.964	12809
304.020	17586
304.075	28419
304.130	24739
304.186	42870
304.241	45171
304.297	36749
304.352	20464
304.358	19585
304.407	12456
304.449	11133
304.463	10699
304.518	11954
304.539	11628
304.573	11104
304.629	12416
304.630	12534
304.684	18638
304.720	34882
304.739	42953
304.794	72508
304.811	62607
304.850	38633
304.902	19033
304.905	17799
304.960	12247
304.992	11720
305.015	11336
305.071	12987
305.083	12250
305.126	9635
305.173	7404
305.181	7053
305.236	7044
305.264	7428
305.292	7863
305.347	11121
305.354	11293
305.402	12203
305.445	11613
305.457	11481
305.512	14959
305.535	15382
305.567	15954
305.622	16759
305.626	17251
305.678	29687
305.716	53033
305.733	60870
305.788	76178
305.807	66435
305.843	50299
305.897	59764
305.898	59812
305.953	65465
305.988	44639
306.008	33445
306.063	21120
306.078	19157
306.118	14872
306.168	11010
306.173	10693
306.228	8080
306.259	7770
306.283	7596
306.338	6525
306.349	6699
306.393	7674
306.440	9415
306.448	9659
306.503	9667
306.530	10349
306.558	13549
306.613	28750
306.620	31273
306.668	48073
306.711	63077
306.723	64199
306.778	54007
306.801	41529
306.833	27641
306.888	13790
306.892	13403
306.943	11239
306.982	9270
306.997	8524
307.052	8446
307.072	8309
307.107	9109
307.162	11660
307.163	11714
307.217	17645
307.253	20799
307.272	21324
307.327	23227
307.343	21748
307.381	18396
307.434	17154
307.436	17641
307.491	32997
307.524	49093
307.546	53541
307.600	57447
307.614	52032
307.655	33078
307.704	17169
307.710	16484
307.765	18109
307.795	21373
307.819	25383
307.874	40532
307.885	41043
307.929	33266
307.975	23742
307.984	23908
308.038	33066
308.065	41709
308.093	71176
308.148	147484
308.156	164695
308.202	255717
308.246	321848
308.257	315867
308.312	180309
308.336	127414
308.366	95934
308.421	62936
308.426	59897
308.475	38543
308.517	27454
308.530	25467
308.585	21523
308.607	20529
308.639	20415
308.694	21539
308.697	21758
308.748	36723
308.787	52753
308.803	52368
308.857	42202
308.877	36135
308.912	31036
308.967	28207
308.967	28244
309.021	39730
309.058	50073
309.076	62899
309.130	111585
309.148	130845
309.185	228642
309.238	388962
309.239	390096
309.293	431378
309.328	408145
309.348	357087
309.402	179871
309.418	135000
309.457	95062
309.508	60604
309.511	59713
309.566	56616
309.598	57569
309.620	67537
309.674	99081
309.688	107828
309.729	104011
309.778	87856
309.783	85859
309.837	59698
309.868	47043
309.892	52644
309.946	71280
309.959	77889
310.001	98288
310.049	116792
310.055	113035
310.109	67173
310.139	40820
310.163	32210
310.218	20224
310.229	18370
310.272	15293
310.319	12446
310.326	12077
310.381	10525
310.409	9895
310.435	9679
310.489	8863
310.499	8850
310.543	9069
310.589	9195
310.598	9113
310.652	9213
310.679	8975
310.706	8041
310.760	6106
310.769	5835
310.814	5670
310.859	5733
310.868	5808
310.923	6231
310.948	6507
310.977	7448
311.031	9291
311.038	9587
311.085	8863
311.128	7553
311.139	7476
311.193	7478
311.218	7441
311.247	6868
311.301	5943
311.308	5816
311.356	6075
311.398	6462
311.410	6304
311.464	5506
311.488	5148
311.518	5553
311.572	6367
311.578	6480
311.626	9361
311.668	11892
311.680	11673
311.734	10417
311.758	9881
311.788	10003
311.842	10293
311.847	10321
311.896	12394
311.937	14274
311.950	14118
312.004	13368
312.027	13002
312.058	11083
312.112	7699
312.117	7371
312.165	6757
312.207	6262
312.297	7871
312.386	7460
312.476	7990
312.566	19607
312.656	9406
312.745	5607
312.835	6590
312.925	7535
313.015	7586
313.104	7770
313.194	6616
313.284	6487
313.374	9201
313.463	9099
313.553	6405
313.643	6161
313.732	4625
313.822	5293
313.912	6081
314.001	8680
314.091	9004
314.180	10620
314.270	10958
314.360	11641
314.449	10439
314.539	6209
314.628	5789
314.718	7464
314.808	9584
314.897	6588
314.987	6510
315.076	10391
315.166	12374
315.255	11450
315.345	11700
315.434	11360
315.524	10279
315.613	13183
315.703	19901
315.792	36053
315.881	128841
315.971	43542
316.060	24358
316.150	31314
316.239	30901
316.328	11574
316.418	7404
316.507	8168
316.597	11219
316.686	10114
316.775	15280
316.865	32960
316.954	8911
317.043	5782
317.133	7279
317.222	6429
317.311	6686
317.400	6705
317.490	11994
317.579	15222
317.668	12982
317.757	24129
317.847	60519
317.936	227088
318.025	77772
318.114	45888
318.203	24248
318.293	23155
318.382	42037
318.471	32044
318.560	39154
318.649	62851
318.738	15673
318.828	13416
318.917	14794
319.006	16553
319.095	38352
319.184	81641
319.273	53463
319.362	29949
319.451	11116
319.540	11019
319.629	25864
319.718	42772
319.807	17392
319.896	31567
319.985	105438
320.074	41080
320.163	11373
320.252	21110
320.341	13870
320.430	12939
320.519	21074
320.608	11995
320.697	9786
320.786	10363
320.875	15036
320.964	19347
321.053	31137
321.142	44002
321.230	45445
321.319	32462
321.408	74290
321.497	30999
321.586	31182
321.675	34081
321.764	31080
321.852	21048
321.941	42575
322.030	28743
322.119	29847
322.207	78079
322.296	48463
322.385	26161
322.474	32651
322.562	97472
322.651	46796
322.740	33988
322.829	44654
322.917	44548
323.006	27677
323.095	22943
323.183	17403
323.272	26492
323.361	46133
323.449	135035
323.538	44395
323.626	90520
323.715	53208
323.804	23349
323.892	84767
323.981	47480
324.069	15564
324.158	43089
324.246	42119
324.335	15879
324.424	26365
324.512	9798
324.601	11218
324.689	13168
324.778	18379
324.866	29501
324.954	9674
325.043	10074
325.131	19786
325.220	32202
325.308	38345
325.397	28425
325.485	17356
325.574	6498
325.662	5908
325.750	7885
325.839	6416
325.927	5411
326.015	8848
326.104	13559
326.192	20896
326.280	6520
326.369	6783
326.457	10696
326.545	21940
326.634	9354
326.722	5006
326.810	6928
326.898	6277
326.987	7968
327.075	20426
327.163	20469
327.251	9108
327.340	7168
327.428	8409
327.516	5694
327.604	7388
327.692	7612
327.781	8281
327.869	15240
327.957	9852
328.045	10504
328.133	6124
328.221	8317
328.309	6975
328.397	6529
328.485	9135
328.574	15654
328.662	49449
328.750	27183
328.838	9444
328.926	5669
329.014	5311
329.102	9587
329.190	22189
329.278	16051
329.366	4455
329.454	4017
329.542	4029
329.630	3282
329.718	4472
329.806	8083
329.893	6129
329.981	5456
330.069	6659
330.157	21990
330.245	58958
330.333	28276
330.421	8535
330.509	14342
330.597	59385
330.684	36085
330.772	11069
330.860	13331
330.948	15237
331.036	8378
331.123	4047
331.211	4579
331.299	6203
331.387	13291
331.475	25605
331.562	9204
331.650	5014
331.738	6649
331.825	9142
331.913	4365
332.001	4925
332.089	7892
332.176	15817
332.264	40640
332.352	30874
332.439	9639
332.527	7166
332.614	6301
332.702	9194
332.790	8257
332.877	19819
332.965	41462
333.052	13569
333.140	15053
333.228	35758
333.315	9509
333.403	8531
333.490	23966
333.578	24348
333.665	44703
333.753	20151
333.840	7292
333.928	9325
334.015	26427
334.103	38091
334.190	111252
334.278	30099
334.365	16127
334.452	13151
334.540	8872
334.627	11352
334.715	17226
334.802	34317
334.889	159309
334.977	158379
335.064	25447
335.151	10735
335.239	10215
335.326	14573
335.413	51905
335.501	66360
335.588	12315
335.675	9544
335.762	11231
335.850	17143
335.937	17961
336.024	43714
336.111	165220
336.199	71265
336.286	17741
336.373	9664
336.460	6362
336.547	6808
336.635	8208
336.722	7614
336.809	7770
336.896	12402
336.983	33973
337.070	75653
337.157	108933
337.245	97101
337.332	68181
337.419	9684
337.506	6227
337.593	7394
337.680	23018
337.767	63175
337.854	21214
337.941	23216
338.028	33568
338.115	11891
338.202	13576
338.289	25841
338.376	98818
338.463	29960
338.550	39565
338.637	38895
338.724	18851
338.811	28557
338.898	6690
338.984	5654
339.071	6184
339.158	9403
339.245	27233
339.332	15770
339.419	20425
339.506	18386
339.593	4237
339.679	5955
339.766	5203
339.853	7785
339.940	20164
340.027	6200
340.113	6741
340.200	10374
340.287	7394
340.374	9867
340.460	18483
340.547	7586
340.634	15246
340.720	58787
340.807	31926
340.894	6230
340.980	6908
341.067	5854
341.154	7486
341.240	11809
341.327	28045
341.414	8034
341.500	7130
341.587	6283
341.674	6944
341.760	17717
341.847	22868
341.933	7328
342.020	2561
342.106	3451
342.193	7019
342.279	14151
342.366	10208
342.452	19207
342.539	10588
342.625	26125
342.712	62855
342.798	23785
342.885	10130
342.971	3357
343.058	3593
343.144	3980
343.230	5576
343.317	5093
343.403	3716
343.490	3697
343.576	3281
343.662	5896
343.749	6628
343.835	9567
343.921	21323
344.008	113370
344.094	247248
344.180	52047
344.267	21534
344.353	69263
344.439	69790
344.525	28860
344.612	10527
344.698	9638
344.784	6674
344.870	5597
344.957	5693
345.043	11191
345.129	7968
345.215	16527
345.301	8521
345.387	5412
345.474	3395
345.560	3883
345.646	5956
345.732	4945
345.818	6032
345.904	6075
345.990	7230
346.076	7131
346.162	12517
346.249	6240
346.335	4778
346.421	6827
346.507	29775
346.593	99631
346.679	20605
346.765	5985
346.851	6594
346.937	5868
347.023	5282
347.108	7587
347.194	5533
347.280	5851
347.366	9083
347.452	31901
347.538	123639
347.624	84977
347.710	65540
347.796	10526
347.882	4956
347.967	4126
348.053	6949
348.139	4465
348.225	5038
348.311	3911
348.397	4188
348.482	7020
348.568	9259
348.654	4907
348.740	8900
348.825	9948
348.911	13992
348.997	56352
349.083	106894
349.168	16352
349.254	6687
349.340	5373
349.425	4737
349.511	8559
349.597	9186
349.682	20942
349.768	67734
349.854	29555
349.939	6808
350.025	4850
350.110	3953
350.196	3743
350.282	2580
350.367	3361
350.453	9603
350.538	10122
350.624	7547
350.709	7160
350.795	4082
350.880	5809
350.966	5199
351.051	9325
351.137	7234
351.222	6108
351.308	21390
351.393	57131
351.479	13314
351.564	4520
351.649	5790
351.735	4142
351.820	4151
351.906	5147
351.991	8575
352.076	37952
352.162	53879
352.247	11085
352.332	7583
352.418	13287
352.503	19951
352.588	82902
352.673	64985
352.759	14823
352.844	7520
352.929	8336
353.014	11622
353.100	7666
353.185	10238
353.270	20064
353.355	21507
353.441	6005
353.526	7622
353.611	20773
353.696	23076
353.781	12696
353.866	6052
353.952	7508
354.037	19909
354.122	45209
354.207	41116
354.292	13371
354.377	6079
354.462	5236
354.547	9191
354.632	6707
354.717	7851
354.802	8884
354.887	4928
354.972	4579
355.057	3647
355.142	3699
355.227	7344
355.312	12718
355.397	31187
355.482	72403
355.567	32994
355.652	24153
355.737	27630
355.822	79761
355.907	63186
355.991	10450
356.076	6205
356.161	5215
356.246	4707
356.331	6811
356.416	20347
356.501	130367
356.585	129478
356.670	18126
356.755	12530
356.840	17419
356.924	86658
357.009	310116
357.094	109824
357.179	25998
357.263	16953
357.348	16024
357.433	15429
357.517	13401
357.602	11368
357.687	8800
357.771	13624
357.856	40389
357.941	26521
358.025	69926
358.110	292996
358.195	126947
358.279	20863
358.364	16255
358.448	56792
358.533	148676
358.617	104930
358.702	104518
358.787	37475
358.871	20909
358.956	17080
359.040	6241
359.125	4666
359.209	6237
359.294	19726
359.378	31341
359.462	17749
359.547	9908
359.631	6420
359.716	4358
359.800	4766
359.885	8977
359.969	7188
360.053	6297
360.138	6060
360.222	11424
360.306	20872
360.391	15800
360.475	26860
360.559	59249
360.644	58842
360.728	41012
360.812	70619
360.896	191523
360.981	74986
361.065	37442
361.149	12026
361.233	11454
361.318	8805
361.402	12349
361.486	9358
361.570	7268
361.654	10707
361.739	30938
361.823	130401
361.907	186398
361.991	31578
362.075	20131
362.159	44022
362.243	31279
362.327	32343
362.411	39794
362.495	20689
362.580	10871
362.664	7965
362.748	7982
362.832	10865
362.916	22020
363.000	70648
363.084	184909
363.168	232802
363.252	52854
363.336	18935
363.420	25088
363.503	73705
363.587	79587
363.671	17460
363.755	13970
363.839	21513
363.923	11185
364.007	23823
364.091	27132
364.175	34301
364.258	123639
364.342	105375
364.426	141847
364.510	73418
364.594	31144
364.677	40013
364.761	170612
364.845	112761
364.929	38781
365.013	29927
365.096	26157
365.180	30105
365.264	32641
365.347	112032
365.431	44261
365.515	12753
365.598	8308
365.682	7295
365.766	10926
365.849	12980
365.933	9092
366.017	10923
366.100	6765
366.184	4634
366.267	6003
366.351	5504
366.435	4674
366.518	4471
366.602	3857
366.685	5666
366.769	8083
366.852	11784
366.936	22235
367.019	14001
367.103	8663
367.186	14480
367.270	6077
367.353	4163
367.436	5653
367.520	5049
367.603	8268
367.687	14223
367.770	26624
367.853	14284
367.937	49440
368.020	78869
368.104	17793
368.187	19928
368.270	26295
368.353	21555
368.437	29548
368.520	64761
368.603	40109
368.687	59202
368.770	104872
368.853	25183
368.936	22454
369.020	19314
369.103	9461
369.186	5859
369.269	6346
369.352	16503
369.436	22458
369.519	15105
369.602	6468
369.685	8201
369.768	8802
369.851	7196
369.934	4470
370.018	8213
370.101	20669
370.184	16235
370.267	10085
370.350	20689
370.433	31837
370.516	94281
370.599	129084
370.682	43571
370.765	56871
370.848	69761
370.931	133285
371.014	45090
371.097	10013
371.180	7163
371.263	4434
371.346	2566
371.429	4420
371.511	5804
371.594	12572
371.677	19133
371.760	17934
371.843	19724
371.926	102582
372.009	229654
372.091	65149
372.174	50101
372.257	122363
372.340	42329
372.423	28408
372.505	27509
372.588	14679
372.671	40776
372.754	132691
372.836	59530
372.919	34257
373.002	61421
373.085	21697
373.167	21368
373.250	56916
373.332	122559
373.415	159059
373.498	324476
373.580	114719
373.663	189343
373.746	232916
373.828	48899
373.911	19920
373.993	20192
374.076	62958
374.159	56031
374.241	34130
374.324	109957
374.406	69183
374.489	97683
374.571	267183
374.654	102018
374.736	52672
374.819	165925
374.901	233178
374.983	229492
375.066	38434
375.148	13789
375.231	52682
375.313	93821
375.395	35473
375.478	10967
375.560	9347
375.643	13703
375.725	50160
375.807	212091
375.890	150684
375.972	61838
376.054	33675
376.136	53008
376.219	23399
376.301	59994
376.383	180649
376.465	62140
376.548	44398
376.630	52345
376.712	152979
376.794	64407
376.877	9010
376.959	4698
377.041	7031
377.123	12068
377.205	12369
377.287	3556
377.369	4471
377.452	6785
377.534	5174
377.616	5815
377.698	5046
377.780	3487
377.862	5799
377.944	6711
378.026	2320
378.108	4650
378.190	4124
378.272	3586
378.354	2451
378.436	2975
378.518	8790
378.600	29336
378.682	28808
378.764	73660
378.846	55263
378.928	15571
379.010	21278
379.091	11306
379.173	5944
379.255	5507
379.337	9743
379.419	37007
379.501	107338
379.583	38176
379.664	10141
379.746	27636
379.828	73772
379.910	99688
379.991	82976
380.073	13109
380.155	9550
380.237	6618
380.318	4297
380.400	6450
380.482	16496
380.564	25651
380.645	21234
380.727	20104
380.809	13183
380.890	8688
380.972	5742
381.053	6256
381.135	9652
381.217	25670
381.298	77010
381.380	34988
381.461	32869
381.543	154229
381.624	179061
381.706	30886
381.787	15949
381.869	19344
381.951	66775
382.032	250435
382.113	145439
382.195	30419
382.276	20973
382.358	46483
382.439	136627
382.521	150311
382.602	234137
382.684	101915
382.765	199369
382.846	226246
382.928	350865
383.009	184863
383.090	136717
383.172	493583
383.253	701020
383.334	231510
383.416	222398
383.497	109526
383.578	60041
383.659	116474
383.741	424918
383.822	1012257
383.903	491008
383.984	175261
384.066	263291
384.147	154455
384.228	34769
384.309	26753
384.390	19283
384.471	13349
384.553	14943
384.634	20884
384.715	21797
384.796	11227
384.877	17208
384.958	69731
385.039	79560
385.120	27068
385.201	13528
385.282	14585
385.363	14904
385.444	15295
385.525	29349
385.606	107981
385.687	85561
385.768	19176
385.849	24441
385.930	113190
386.011	187557
386.092	46333
386.173	11643
386.254	9105
386.335	9631
386.416	11442
386.496	44037
386.577	70875
386.658	22789
386.739	14271
386.820	11704
386.901	9097
386.981	9404
387.062	7780
387.143	18213
387.224	73756
387.304	63645
387.385	22790
387.466	12623
387.547	16694
387.627	13029
387.708	29292
387.789	131712
387.869	155079
387.950	38614
388.031	8383
388.111	5893
388.192	16284
388.273	23765
388.353	14959
388.434	10820
388.514	26531
388.595	123522
388.676	151541
388.756	68502
388.837	67691
388.917	39135
388.998	8011
389.078	7860
389.159	7862
389.239	6672
389.320	13862
389.400	10476
389.480	27402
389.561	75721
389.641	34175
389.722	12705
389.802	21210
389.883	31585
389.963	92031
390.043	51633
390.124	14695
390.204	27363
390.284	83379
390.365	50228
390.445	48628
390.525	138734
390.605	123162
390.686	38813
390.766	15172
390.846	8532
390.927	6052
391.007	6204
391.087	8143
391.167	10935
391.247	7351
391.328	12872
391.408	16502
391.488	10034
391.568	5360
391.648	10333
391.728	15415
391.808	14536
391.888	17365
391.969	42235
392.049	65397
392.129	27118
392.209	34644
392.289	89548
392.369	44209
392.449	30294
392.529	22719
392.609	22957
392.689	31874
392.769	94355
392.849	77782
392.929	56536
393.009	132242
393.089	114628
393.169	132338
393.248	401980
393.328	1193893
393.408	1214085
393.488	395238
393.568	123089
393.648	59571
393.728	37609
393.807	27158
393.887	22572
393.967	19290
394.047	20248
394.127	22950
394.206	32429
394.286	108762
394.366	481281
394.446	485863
394.525	103449
394.605	27498
394.685	23013
394.764	40234
394.844	69001
394.924	48791
395.003	19233
395.083	14430
395.163	12759
395.242	12673
395.322	12893
395.402	8426
395.481	12908
395.561	31660
395.640	83086
395.720	73130
395.799	86463
395.879	62803
395.958	44674
396.038	156365
396.117	630804
396.197	651825
396.276	171718
396.356	57586
396.435	44009
396.515	39566
396.594	54502
396.673	111253
396.753	403846
396.832	1086773
396.912	790043
396.991	202821
397.070	60192
397.150	33274
397.229	24012
397.308	31430
397.388	48879
397.467	24083
397.546	11870
397.625	8436
397.705	13691
397.784	13613
397.863	6592
397.942	6170
398.022	6244
398.101	24519
398.180	64941
398.259	30647
398.338	9347
398.417	8359
398.497	4635
398.576	6851
398.655	3757
398.734	4366
398.813	4975
398.892	20800
398.971	71436
399.050	32227
399.129	3988
399.208	3422
399.287	3833
399.366	2796
399.445	2907
399.524	4254
399.603	3037
399.682	10084
399.761	29678
399.840	80858
399.919	55560
399.998	8002
400.077	1905
400.156	1089
400.235	4931
400.313	2513
400.392	6055
400.471	36836
400.550	61043
400.629	14106
400.708	6477
400.786	5151
400.865	13529
400.944	15029
401.023	9133
401.102	2047
401.180	2234
401.259	2206
401.338	3096
401.416	6914
401.495	5119
401.574	3842
401.652	3337
401.731	5395
401.810	3562
401.888	2774
401.967	1090
402.046	3567
402.124	5509
402.203	7670
402.281	5379
402.360	7552
402.438	17918
402.517	10801
402.596	3704
402.674	3229
402.753	1821
402.831	2201
402.910	3838
402.988	14756
403.066	45102
403.145	23879
403.223	14472
403.302	33675
403.380	23650
403.459	21227
403.537	8331
403.615	3882
403.694	1014
403.772	2422
403.850	1654
403.929	1581
404.007	2011
404.085	5782
404.164	5125
404.242	3099
404.320	6383
404.398	16974
404.477	41809
404.555	189370
404.633	153084
404.711	23578
404.789	7602
404.868	2440
404.946	1057
405.024	1904
405.102	1266
405.180	1280
405.258	1321
405.336	3071
405.415	2206
405.493	6820
405.571	5341
405.649	888
405.727	1588
405.805	4593
405.883	4147
405.961	3937
406.039	4984
406.117	2940
406.195	8389
406.273	43454
406.351	161715
406.429	84546
406.507	10325
406.585	3453
406.663	5594
406.740	7661
406.818	5923
406.896	2056
406.974	4034
407.052	12266
407.130	94785
407.208	125828
407.285	20373
407.363	2981
407.441	2815
407.519	2875
407.596	4296
407.674	8788
407.752	15526
407.830	18336
407.907	9425
407.985	3135
408.063	2326
408.141	1230
408.218	4934
408.296	3309
408.373	2985
408.451	5755
408.529	4407
408.606	1649
408.684	1852
408.762	664
408.839	650
408.917	449
408.994	1380
409.072	1661
409.149	1946
409.227	6245
409.304	8894
409.382	6440
409.459	7134
409.537	11563
409.614	9762
409.692	6450
409.769	6633
409.846	13254
409.924	16850
410.001	10574
410.079	7106
410.156	4722
410.233	5295
410.311	3981
410.388	2972
410.465	4828
410.543	4210
410.620	2774
410.697	3869
410.775	5140
410.852	1932
410.929	6126
411.006	8378
411.083	4747
411.161	11222
411.238	10016
411.315	4601
411.392	2815
411.469	5645
411.547	5633
411.624	1473
411.701	1966
411.778	4571
411.855	12521
411.932	5476
412.009	1932
412.086	2137
412.163	3238
412.240	2812
412.317	5145
412.394	3844
412.471	969
412.548	547
412.625	1820
412.702	3855
412.779	9338
412.856	4887
412.933	1243
413.010	1513
413.087	5858
413.164	36212
413.241	47317
413.318	10403
413.395	7194
413.471	10293
413.548	3583
413.625	2153
413.702	2758
413.779	1909
413.855	77
413.932	387
414.009	-397
414.086	703
414.162	1236
414.239	6389
414.316	34639
414.393	77169
414.469	23872
414.546	2988
414.623	939
414.699	896
414.776	2434
414.853	1772
414.929	2121
415.006	1228
415.082	3217
415.159	1917
415.236	2265
415.312	2314
415.389	7948
415.465	10409
415.542	4095
415.618	1910
415.695	7367
415.771	3561
415.848	2766
415.924	2381
416.000	1251
416.077	1652
416.153	-14
416.230	-568
416.306	-365
416.383	295
416.459	1515
416.535	-366
416.612	478
416.688	1453
416.764	1778
416.841	1157
416.917	1516
416.993	1122
417.069	2686
417.146	4637
417.222	5172
417.298	3485
417.374	1621
417.451	2495
417.527	4003
417.603	4925
417.679	3283
417.755	2607
417.831	426
417.908	1046
417.984	190
418.060	842
418.136	9238
418.212	12558
418.288	3404
418.364	1661
418.440	1071
418.516	4430
418.592	5678
418.668	13979
418.744	23832
418.820	16346
418.896	2955
418.972	552
419.048	2317
419.124	9998
419.200	6505
419.276	405
419.352	219
419.428	657
419.504	2058
419.579	4124
419.655	2704
419.731	2737
419.807	15655
419.883	29099
419.959	18111
420.034	4782
420.110	10666
420.186	47623
420.262	33788
420.337	5155
420.413	4681
420.489	2705
420.565	1371
420.640	1227
420.716	2752
420.792	300
420.867	2622
420.943	2033
421.019	6898
421.094	4705
421.170	2148
421.245	690
421.321	1872
421.397	2440
421.472	4344
421.548	7726
421.623	7957
421.699	4886
421.774	5660
421.850	5883
421.925	11263
422.001	10236
422.076	7665
422.152	10586
422.227	17123
422.302	20869
422.378	31034
422.453	60312
422.529	149016
422.604	389354
422.679	566933
422.755	377698
422.830	141172
422.905	56961
422.981	31412
423.056	19907
423.131	14971
423.207	11015
423.282	11674
423.357	17775
423.432	12169
423.508	10889
423.583	25922
423.658	19059
423.733	6023
423.808	7390
423.883	9710
423.959	7383
424.034	6485
424.109	5610
424.184	3498
424.259	2467
424.334	1462
424.409	931
424.484	2881
424.559	2941
424.634	3195
424.709	5464
424.784	6145
424.859	3706
424.934	6640
425.009	34213
425.084	53927
425.159	17704
425.234	2250
425.309	1013
425.384	8179
425.459	12567
425.534	4070
425.609	1321
425.683	944
425.758	243
425.833	1888
425.908	3429
425.983	20459
426.058	59794
426.132	21665
426.207	3048
426.282	4927
426.357	3696
426.431	1281
426.506	1174
426.581	1077
426.655	1531
426.730	1468
426.805	933
426.879	1364
426.954	1397
427.029	8562
427.103	55770
427.178	136686
427.253	50971
427.327	4336
427.402	6094
427.476	15396
427.551	6446
427.625	2079
427.700	2149
427.774	1019
427.849	2210
427.923	1086
427.998	884
428.072	1684
428.147	9482
428.221	48320
428.296	137725
428.370	64305
428.444	7523
428.519	6946
428.593	12930
428.667	10756
428.742	13651
428.816	18168
428.890	84868
428.965	125239
429.039	33755
429.113	15558
429.188	4993
429.262	1876
429.336	7006
429.410	25116
429.485	14224
429.559	10454
429.633	7564
429.707	3445
429.781	15575
429.855	88861
429.930	126538
430.004	52666
430.078	66726
430.152	71776
430.226	181638
430.300	161438
430.374	25224
430.448	7921
430.522	22767
430.596	64243
430.670	48138
430.744	154835
430.818	205373
430.892	39332
430.966	6507
431.040	2608
431.114	577
431.188	865
431.262	1027
431.336	744
431.410	6602
431.484	19446
431.557	12580
431.631	2052
431.705	3814
431.779	28389
431.853	122473
431.927	74601
432.000	8167
432.074	2404
432.148	2278
432.222	1820
432.295	1134
432.369	1419
432.443	5561
432.516	52271
432.590	132239
432.664	42950
432.737	3738
432.811	-417
432.885	-512
432.958	416
433.032	-282
433.106	-774
433.179	-249
433.253	647
433.326	-321
433.400	-1046
433.473	216
433.547	-864
433.620	-21
433.694	4062
433.767	4468
433.841	24
433.914	167
433.988	-410
434.061	548
434.134	-8
434.208	-1237
434.281	-840
434.355	-994
434.428	341
434.501	-591
434.575	-375
434.648	-160
434.721	-367
434.795	-750
434.868	-198
434.941	-692
435.014	-230
435.088	-146
435.161	2528
435.234	5772
435.307	7309
435.381	3493
435.454	2522
435.527	5604
435.600	5555
435.673	3979
435.746	1514
435.819	1216
435.892	1337
435.966	317
436.039	-71
436.112	470
436.185	-240
436.258	-748
436.331	-1117
436.404	-342
436.477	-1119
436.550	-1162
436.623	-523
436.696	-939
436.769	779
436.842	-413
436.915	338
436.987	1698
437.060	419
437.133	-1202
437.206	-755
437.279	-710
437.352	-427
437.425	-596
437.498	1087
437.570	4966
437.643	4238
437.716	320
437.789	-114
437.861	4462
437.934	15144
438.007	5705
438.080	-148
438.152	1464
438.225	7628
438.298	70137
438.370	185636
438.443	69867
438.516	15652
438.588	2078
438.661	-33
438.734	303
438.806	430
438.879	1958
438.951	3024
439.024	6750
439.096	1958
439.169	158
439.241	-315
439.314	-390
439.386	991
439.459	3975
439.531	8227
439.604	1920
439.676	-375
439.749	-711
439.821	-872
439.893	-434
439.966	589
440.038	860
440.110	1518
440.183	-43
440.255	379
440.327	3236
440.400	25147
440.472	115338
440.544	68610
440.617	8247
440.689	5399
440.761	7573
440.833	12732
440.905	7695
440.978	360
441.050	-621
441.122	352
441.194	-540
441.266	-385
441.338	-897
441.411	4057
441.483	34450
441.555	50731
441.627	9499
441.699	3633
441.771	2703
441.843	924
441.915	-287
441.987	275
442.059	-120
442.131	1391
442.203	4061
442.275	4696
442.347	4978
442.419	11152
442.491	61929
442.563	144386
442.635	57888
442.706	23164
442.778	15917
442.850	3959
442.922	1468
442.994	2436
443.066	4640
443.137	3193
443.209	3027
443.281	6238
443.353	18673
443.425	78840
443.496	267373
443.568	246207
443.640	87535
443.711	16569
443.783	5451
443.855	3571
443.926	1852
443.998	1892
444.070	2472
444.141	2499
444.213	5735
444.285	6562
444.356	5946
444.428	4556
444.499	1559
444.571	-288
444.642	438
444.714	1902
444.785	5030
444.857	5667
444.928	10751
445.000	7650
445.071	8636
445.143	10579
445.214	8120
445.285	15639
445.357	46343
445.428	178611
445.500	379358
445.571	233046
445.642	124386
445.714	43026
445.785	25538
445.856	9805
445.928	8188
445.999	6614
446.070	4990
446.141	4295
446.213	5961
446.284	2564
446.355	2149
446.426	1648
446.497	798
446.569	3317
446.640	7608
446.711	6567
446.782	693
446.853	2970
446.924	3523
446.995	1878
447.066	1170
447.138	2962
447.209	2046
447.280	-1271
447.351	-1189
447.422	-484
447.493	123
447.564	2793
447.635	5576
447.706	2034
447.777	-450
447.847	-1375
447.918	-713
447.989	1414
448.060	2939
448.131	7023
448.202	7531
448.273	5336
448.344	553
448.414	821
448.485	375
448.556	-324
448.627	-1255
448.698	218
448.768	-1001
448.839	-714
448.910	2708
448.981	2609
449.051	-345
449.122	-261
449.193	-1539
449.263	-1024
449.334	-288
449.405	1238
449.475	7094
449.546	4143
449.616	4287
449.687	3127
449.758	410
449.828	-566
449.899	-489
449.969	163
450.040	-840
450.110	958
450.181	1305
450.251	-184
450.322	-96
450.392	-120
450.463	741
450.533	-269
450.604	-22
450.674	-832
450.744	-263
450.815	-136
450.885	354
450.955	-20
451.026	-291
451.096	-186
451.166	386
451.237	3936
451.307	11382
451.377	4018
451.447	-325
451.518	-708
451.588	7
451.658	686
451.728	1541
451.799	11649
451.869	13557
451.939	3160
452.009	-786
452.079	-38
452.149	305
452.219	3014
452.289	13743
452.360	11949
452.430	2205
452.500	2278
452.570	3622
452.640	6275
452.710	19069
452.780	24084
452.850	19547
452.920	17499
452.990	5934
453.060	2807
453.129	3844
453.199	5106
453.269	17890
453.339	39584
453.409	61322
453.479	59130
453.549	84738
453.619	85924
453.688	35682
453.758	5763
453.828	1220
453.898	645
453.968	-30
454.037	680
454.087	236
454.107	9
454.168	475
454.177	496
454.247	9
454.249	48
454.316	-42
454.330	254
454.386	1150
454.411	3659
454.456	6819
454.492	9275
454.525	11333
454.574	5704
454.595	3330
454.655	1074
454.665	762
454.734	2193
454.736	2423
454.804	6929
454.817	9235
454.873	15554
454.898	16654
454.943	17744
454.979	12276
455.013	7913
455.060	4722
455.082	4032
455.141	6318
455.152	6504
455.221	15864
455.222	16299
455.291	29914
455.303	31621
455.360	35690
455.384	46732
455.430	59989
455.465	46403
455.499	34557
455.546	23558
455.569	17864
455.627	11293
455.638	10419
455.707	3579
455.708	3622
455.777	2268
455.789	2283
455.846	2215
455.869	2165
455.916	2124
455.950	2566
455.985	2600
456.031	2670
456.054	2751
456.112	2637
456.124	2566
456.193	2300
456.193	2254
456.262	2732
456.274	3145
456.332	4400
456.355	4755
456.401	4972
456.436	4108
456.470	3196
456.516	2793
456.540	2681
456.597	2522
456.609	2429
456.678	2386
456.678	2347
456.747	1633
456.759	1713
456.817	2223
456.840	2424
456.886	2671
456.920	3010
456.955	3492
457.001	3885
457.024	4180
457.082	5155
457.093	5249
457.162	6878
457.163	6943
457.232	7568
457.243	7376
457.301	5973
457.324	5047
457.370	3873
457.405	4301
457.439	5007
457.485	5222
457.508	5195
457.566	6111
457.577	6579
457.646	9397
457.647	9489
457.715	20416
457.727	22927
457.784	39600
457.808	48234
457.853	56165
457.889	63654
457.922	57268
457.969	38778
457.991	43558
458.050	61668
458.060	65128
458.129	100689
458.130	101906
458.198	83128
458.211	75555
458.267	41804
458.292	27372
458.336	21167
458.372	20110
458.405	29580
458.453	45448
458.474	60925
458.533	111985
458.543	115532
458.611	159520
458.614	160873
458.680	83441
458.694	63633
458.749	32892
458.775	21719
458.818	14055
458.855	11190
458.887	9912
458.936	8787
458.955	8430
459.016	7986
459.024	8015
459.093	8557
459.097	8599
459.162	9275
459.177	9663
459.230	11264
459.257	11958
459.299	12821
459.338	13694
459.368	14277
459.418	15647
459.437	14320
459.499	9350
459.505	9243
459.574	7685
459.579	7664
459.643	7247
459.659	7132
459.711	7654
459.740	7830
459.780	8172
459.820	9215
459.849	9416
459.900	9281
459.917	9134
459.981	8931
459.986	8903
460.054	8510
460.061	8422
460.123	8645
460.141	8964
460.191	11360
460.222	12940
460.260	13756
460.302	15181
460.328	13613
460.382	9075
460.397	9001
460.462	8139
460.465	8093
460.534	9052
460.543	9182
460.602	15327
460.623	17555
460.671	23294
460.703	27909
460.739	25483
460.783	21033
460.808	17927
460.864	9278
460.876	8908
460.944	9057
460.945	9059
461.013	10042
461.024	10118
461.081	10561
461.104	11216
461.150	10976
461.184	10575
461.218	10666
461.264	10043
461.286	9980
461.345	10682
461.355	10634
461.423	10331
461.425	10318
461.491	10620
461.505	10797
461.559	18770
461.585	22441
461.628	36397
461.665	49336
461.696	52828
461.745	60734
461.764	51984
461.825	17719
461.832	17348
461.901	13195
461.905	13135
461.969	12634
461.985	12556
462.037	11807
462.065	11094
462.105	12008
462.145	13252
462.173	18367
462.225	27946
462.241	30715
462.305	42862
462.310	41654
462.378	22689
462.385	20226
462.446	14755
462.465	13303
462.514	13032
462.545	13283
462.582	13013
462.625	12429
462.650	12387
462.705	12626
462.718	12824
462.785	13808
462.786	13896
462.854	18342
462.865	19121
462.922	22282
462.945	23821
462.990	18731
463.025	13821
463.058	12624
463.104	11300
463.126	11191
463.184	10990
463.194	11252
463.262	12976
463.264	13047
463.330	12276
463.344	11966
463.398	13189
463.424	13768
463.466	13867
463.504	14338
463.533	14685
463.583	14767
463.601	15370
463.663	17307
463.669	17663
463.737	22061
463.743	22448
463.805	31308
463.823	33848
463.873	50404
463.903	60487
463.940	62849
463.982	66121
464.008	53019
464.062	23315
464.076	21897
464.142	13922
464.144	13906
464.211	14363
464.221	14449
464.279	15838
464.301	16260
464.347	17385
464.381	18460
464.414	19592
464.461	20878
464.482	21789
464.540	24184
464.550	23763
464.617	20561
464.620	20413
464.685	20845
464.699	20989
464.753	23369
464.779	24375
464.820	25352
464.859	26236
464.888	25949
464.938	25327
464.956	25546
465.018	26419
465.023	26149
465.091	21667
465.098	21181
465.158	21592
465.177	21757
465.226	22102
465.257	22094
465.293	22378
465.336	22741
465.361	24853
465.416	29504
465.428	30956
465.495	38552
465.496	38765
465.563	61780
465.575	65672
465.631	78869
465.654	84549
465.698	53346
465.734	26684
465.765	23612
465.813	18936
465.833	18988
465.893	19500
465.900	19478
465.968	19026
465.972	18958
466.035	19833
466.052	20008
466.102	20900
466.131	21364
466.170	21686
466.210	21951
466.237	22022
466.290	21936
466.304	21895
466.369	21531
466.372	21652
466.439	23907
466.449	24180
466.506	26472
466.528	27275
466.573	36272
466.607	42920
466.641	63572
466.687	92133
466.708	101945
466.766	128668
466.775	119097
466.842	45087
466.845	41478
466.909	31701
466.925	29349
466.977	27773
467.004	26903
467.044	28030
467.083	29059
467.111	30866
467.163	34080
467.178	35237
467.242	39668
467.245	39554
467.312	35373
467.321	34739
467.379	35891
467.400	36195
467.446	38994
467.480	40869
467.559	35053
467.638	30827
467.717	31105
467.796	35541
467.875	41160
467.955	37006
468.034	49926
468.113	108414
468.192	158136
468.271	51942
468.350	41608
468.429	51716
468.508	54524
468.588	40195
468.667	33755
468.746	31059
468.825	30826
468.904	28105
468.983	33132
469.062	47711
469.141	57027
469.220	28435
469.299	27268
469.378	28571
469.456	32497
469.535	31880
469.614	30130
469.693	31267
469.772	40026
469.851	51762
469.930	38573
470.009	30094
470.088	31695
470.166	36824
470.245	54687
470.324	66813
470.403	49372
470.482	35363
470.560	31250
470.639	33424
470.718	38372
470.797	29499
470.875	31585
470.954	43093
471.033	46178
471.111	24062
471.190	23919
471.269	22170
471.347	24370
471.426	25970
471.505	28591
471.583	30060
471.662	27683
471.740	25486
471.819	25564
471.898	24585
471.976	24720
472.055	24224
472.133	27039
472.212	34042
472.290	36650
472.369	25014
472.447	23192
472.526	22027
472.604	23784
472.683	26793
472.761	29118
472.839	27543
472.918	25969
472.996	25640
473.075	28445
473.153	27925
473.231	24478
473.310	28904
473.388	29234
473.466	26529
473.545	30861
473.623	40816
473.701	41335
473.780	26838
473.858	23607
473.936	26358
474.014	25267
474.093	28537
474.171	38091
474.249	51791
474.327	36823
474.405	24003
474.484	23136
474.562	24469
474.640	23789
474.718	24684
474.796	22987
474.874	22062
474.952	21409
475.030	22263
475.108	22570
475.187	23437
475.265	24196
475.343	31742
475.421	33155
475.499	24473
475.577	25576
475.655	31593
475.733	58830
475.811	97802
475.889	88584
475.966	60910
476.044	24055
476.122	26380
476.200	31250
476.278	26826
476.356	22177
476.434	23890
476.512	25447
476.590	32567
476.667	29526
476.745	21844
476.823	24067
476.901	23240
476.979	23486
477.056	23292
477.134	24047
477.212	24123
477.290	24051
477.367	20096
477.445	21862
477.523	21282
477.601	21598
477.678	21310
477.756	26398
477.834	29464
477.911	22397
477.989	21349
478.066	22104
478.144	24006
478.222	24978
478.299	33036
478.377	29755
478.454	19521
478.532	20077
478.609	24584
478.687	25413
478.764	20071
478.842	23130
478.919	25411
478.997	24152
479.074	19275
479.152	24226
479.229	30541
479.307	20861
479.384	17554
479.461	19045
479.539	20382
479.616	24036
479.694	21101
479.771	23217
479.848	23385
479.926	31620
480.003	33818
480.080	20260
480.157	19481
480.235	19098
480.312	19605
480.389	22613
480.467	34598
480.544	43105
480.621	25962
480.698	24278
480.775	27821
480.853	26510
480.930	21069
481.007	22005
481.084	23586
481.161	25037
481.238	24307
481.315	19293
481.392	19884
481.470	19590
481.547	20981
481.624	20460
481.701	20999
481.778	23252
481.855	25333
481.932	34395
482.009	57271
482.086	41369
482.163	24508
482.240	30635
482.317	42107
482.393	34475
482.470	23832
482.547	24127
482.624	21555
482.701	24839
482.778	23074
482.855	20219
482.932	19602
483.009	19982
483.085	25815
483.162	31180
483.239	29782
483.316	25151
483.393	23951
483.469	23338
483.546	24855
483.623	26841
483.699	21827
483.776	22949
483.853	26795
483.930	34847
484.006	83062
484.083	139512
484.160	70057
484.236	88423
484.313	70276
484.389	55648
484.466	49917
484.543	50143
484.619	54401
484.696	57407
484.772	56384
484.849	56101
484.925	45630
485.002	44823
485.078	50905
485.155	52869
485.231	43848
485.308	42795
485.384	44015
485.461	52805
485.537	84738
485.614	100725
485.690	44627
485.766	41898
485.843	44996
485.919	67406
485.995	72588
486.072	40094
486.148	38338
486.224	38174
486.301	40955
486.377	49461
486.453	55199
486.530	46743
486.606	56043
486.682	61532
486.758	73934
486.835	86776
486.911	70319
486.987	111283
487.063	133524
487.139	175898
487.215	119575
487.292	59177
487.368	51820
487.444	63297
487.520	85785
487.596	88534
487.672	140426
487.748	413083
487.824	649130
487.900	224291
487.976	80319
488.052	66512
488.128	79145
488.204	60611
488.280	46750
488.356	53906
488.432	98125
488.508	150784
488.584	57257
488.660	42012
488.736	42498
488.812	44376
488.888	56016
488.964	72910
489.039	163846
489.115	258153
489.191	147102
489.267	43443
489.343	39009
489.418	34379
489.494	32600
489.570	31432
489.646	35858
489.722	35075
489.797	35216
489.873	50901
489.949	111946
490.024	94640
490.100	35606
490.176	34707
490.251	43923
490.327	58994
490.403	35352
490.478	31488
490.554	26602
490.629	28675
490.705	28148
490.781	31290
490.856	30800
490.932	36432
491.007	37208
491.083	34886
491.158	31389
491.234	40280
491.309	83795
491.385	86340
491.460	33036
491.536	35394
491.611	33391
491.686	37905
491.762	50321
491.837	106510
491.913	175875
491.988	243565
492.063	313529
492.139	81914
492.214	45248
492.289	27210
492.365	27590
492.440	34879
492.515	32791
492.590	31545
492.666	25656
492.741	35561
492.816	52115
492.891	32597
492.967	27443
493.042	25932
493.117	29302
493.192	32924
493.267	53355
493.342	182022
493.418	251707
493.493	45828
493.568	22774
493.643	24573
493.718	30371
493.793	46196
493.868	55479
493.943	36776
494.018	26188
494.093	23168
494.168	23605
494.243	21610
494.318	21169
494.393	20003
494.468	21074
494.543	21486
494.618	26448
494.693	22698
494.768	21943
494.842	23252
494.917	19107
494.992	22819
495.067	21199
495.142	21008
495.217	24070
495.292	23691
495.366	29961
495.441	38275
495.516	47506
495.591	62982
495.665	216636
495.740	543852
495.815	213411
495.890	38893
495.964	27371
496.039	30255
496.114	25618
496.188	27826
496.263	27495
496.338	25719
496.412	28931
496.487	34245
496.561	38173
496.636	39373
496.710	28605
496.785	31322
496.860	36317
496.934	28423
497.009	28929
497.083	28514
497.158	27009
497.232	33310
497.307	42533
497.381	35557
497.455	39229
497.530	51460
497.604	37667
497.679	37931
497.753	60203
497.827	77136
497.902	69174
497.976	78236
498.050	165753
498.125	688595
498.199	695396
498.273	111179
498.348	77080
498.422	60866
498.496	61286
498.570	56549
498.645	41847
498.719	42174
498.793	51652
498.867	78162
498.941	95297
499.016	265581
499.090	761487
499.164	257392
499.238	36696
499.312	31707
499.386	44563
499.460	38050
499.534	36041
499.609	44056
499.683	64247
499.757	59878
499.831	116914
499.905	493939
499.979	458517
500.053	75027
500.127	75457
500.201	60626
500.275	37461
500.349	36399
500.422	42963
500.496	63350
500.570	128035
500.644	283786
500.718	523727
500.792	112916
500.866	34863
500.940	44635
501.013	38005
501.087	40215
501.161	73182
501.235	87644
501.309	153679
501.382	455612
501.456	390056
501.530	91061
501.603	149733
501.677	58454
501.751	27704
501.825	33654
501.898	59410
501.972	180987
502.046	110613
502.119	36094
502.193	78954
502.266	198574
502.340	91709
502.413	82024
502.487	163087
502.561	93619
502.634	33481
502.708	30073
502.781	26997
502.855	22142
502.928	18338
503.002	20665
503.075	18916
503.149	22039
503.222	22687
503.295	26549
503.369	32405
503.442	40838
503.516	126236
503.589	334112
503.662	214681
503.736	70829
503.809	159345
503.882	132858
503.956	198233
504.029	203017
504.102	231597
504.175	326019
504.249	119903
504.322	55649
504.395	39912
504.468	27190
504.542	24969
504.615	20395
504.688	19174
504.761	18268
504.834	24422
504.907	30826
504.980	52508
505.053	26494
505.127	35125
505.200	36346
505.273	30987
505.346	20468
505.419	16523
505.492	15910
505.565	13620
505.638	14393
505.711	14299
505.784	13671
505.857	13988
505.930	16933
506.003	15555
506.076	19948
506.149	23388
506.221	29360
506.294	27470
506.367	65526
506.440	241153
506.513	123549
506.586	32470
506.659	19451
506.731	16949
506.804	22629
506.877	34059
506.950	22374
507.022	16589
507.095	20878
507.168	27466
507.241	17793
507.313	15237
507.386	18070
507.459	26953
507.531	16985
507.604	15090
507.677	14609
507.749	12333
507.822	21020
507.894	40048
507.967	45661
508.040	24317
508.112	23104
508.185	22466
508.257	21437
508.330	36312
508.402	22338
508.475	19774
508.547	21632
508.620	20940
508.692	34600
508.765	22712
508.837	15443
508.909	15307
508.982	16109
509.054	20886
509.127	16861
509.199	15668
509.271	14559
509.344	14948
509.416	14381
509.488	15457
509.560	17077
509.633	18227
509.705	21767
509.777	20101
509.849	32473
509.922	21626
509.994	15571
510.066	16655
510.138	18085
510.210	33524
510.283	30085
510.355	25262
510.427	22028
510.499	21057
510.571	20888
510.643	22351
510.715	39675
510.787	35431
510.859	22898
510.931	26491
511.003	38864
511.076	34590
511.148	19446
511.219	20204
511.291	32071
511.363	36514
511.435	19565
511.507	16635
511.579	18365
511.651	18596
511.723	18154
511.795	17637
511.867	18549
511.939	21805
512.010	45771
512.082	36290
512.154	19689
512.226	19867
512.298	29969
512.369	43291
512.441	33036
512.513	34004
512.585	25024
512.656	26790
512.728	30196
512.800	22258
512.871	21732
512.943	21326
513.015	19470
513.086	22880
513.158	24936
513.230	23931
513.301	38056
513.373	42854
513.444	24438
513.516	21391
513.588	21353
513.659	24669
513.731	31027
513.802	27554
513.874	57086
513.945	108008
514.016	35054
514.088	21829
514.159	24204
514.231	32910
514.302	40631
514.374	27592
514.445	26975
514.516	52512
514.588	38465
514.659	27214
514.730	47275
514.802	37619
514.873	26529
514.944	26636
515.016	25760
515.087	30797
515.158	37640
515.229	48241
515.301	24837
515.372	30005
515.443	22280
515.514	20839
515.585	17949
515.656	19843
515.728	20475
515.799	19184
515.870	23243
515.941	24058
516.012	24132
516.083	31377
516.154	34532
516.225	47491
516.296	46996
516.367	44322
516.438	53752
516.509	69197
516.580	94722
516.651	277310
516.722	1063865
516.793	451127
516.864	98163
516.935	89649
517.006	101844
517.077	134580
517.148	291301
517.219	1067483
517.289	1664804
517.360	426525
517.431	122345
517.502	46859
517.573	41909
517.643	39484
517.714	43435
517.785	47419
517.856	50282
517.926	62590
517.997	78278
518.068	101875
518.138	136947
518.209	192298
518.280	657203
518.350	2289072
518.421	985420
518.492	138404
518.562	80884
518.633	80229
518.703	86239
518.774	148789
518.845	376078
518.915	361038
518.986	116821
519.056	73764
519.127	100449
519.197	137683
519.268	276147
519.338	163002
519.408	48719
519.479	62613
519.549	45314
519.620	29727
519.690	23358
519.760	24966
519.831	26033
519.901	25852
519.971	22535
520.042	24671
520.112	28512
520.182	33129
520.253	37516
520.323	26395
520.393	36196
520.463	57503
520.534	38383
520.604	81384
520.674	37324
520.744	37892
520.814	93378
520.885	79551
520.955	76619
521.025	295036
521.095	109361
521.165	26216
521.235	23664
521.305	19764
521.375	20683
521.445	24584
521.515	32058
521.585	38886
521.655	35121
521.725	28916
521.795	24064
521.865	18583
521.935	30384
522.005	26341
522.075	18349
522.145	21470
522.215	24394
522.285	32829
522.355	42959
522.424	79913
522.494	68666
522.564	39180
522.634	77211
522.704	250549
522.774	89743
522.843	25957
522.913	24180
522.983	32370
523.053	25019
523.122	25075
523.192	34542
523.262	129216
523.331	125887
523.401	27246
523.471	18089
523.540	20197
523.610	15345
523.680	14908
523.749	16994
523.819	20818
523.888	21022
523.958	15565
524.027	17716
524.097	19275
524.166	17903
524.236	21703
524.305	20120
524.375	16758
524.444	16140
524.514	19447
524.583	17817
524.653	23133
524.722	25705
524.791	17935
524.861	20081
524.930	16742
524.999	19750
525.069	28118
525.138	20918
525.207	26427
525.277	20580
525.346	20919
525.415	21141
525.484	22597
525.554	26737
525.623	27061
525.692	27235
525.761	34077
525.830	39616
525.900	52797
525.969	77814
526.038	127057
526.107	250942
526.176	758893
526.245	607919
526.314	192108
526.383	388345
526.452	513149
526.522	814998
526.591	808285
526.660	211269
526.729	119369
526.797	122941
526.867	206957
526.935	817843
527.004	1646845
527.073	925577
527.142	107376
527.211	46945
527.280	39058
527.349	36348
527.418	21854
527.487	21868
527.555	18897
527.624	18002
527.693	16175
527.762	18505
527.831	16392
527.899	16543
527.968	15368
528.037	16345
528.106	20914
528.174	40829
528.243	31053
528.312	43325
528.380	59180
528.449	19891
528.518	15808
528.586	12063
528.655	13493
528.723	12983
528.792	13323
528.861	15397
528.929	13585
528.998	14285
529.066	16257
529.135	21341
529.203	19185
529.272	24939
529.340	29022
529.409	27255
529.477	24831
529.545	28112
529.614	32587
529.682	36292
529.751	40852
529.819	41736
529.887	40697
529.956	33169
530.024	32069
530.092	28682
530.161	32096
530.229	46500
530.297	36950
530.365	33759
530.434	33068
530.502	32411
530.570	29638
530.638	27085
530.707	29618
530.775	29497
530.843	26211
530.911	30055
530.979	29266
531.047	31937
531.115	31184
531.183	29362
531.252	27676
531.320	26932
531.388	27205
531.456	30186
531.524	30089
531.592	33250
531.660	37121
531.728	31366
531.796	30744
531.864	31772
531.932	31740
532.000	32338
532.067	35879
532.135	38000
532.203	41695
532.271	44142
532.339	57188
532.407	122240
532.475	79855
532.542	50151
532.610	50551
532.678	62311
532.746	192775
532.814	475151
532.881	127951
532.949	45141
533.017	37645
533.084	34402
533.152	33195
533.220	33652
533.287	37672
533.355	34454
533.423	34358
533.490	34273
533.558	33353
533.625	33487
533.693	33479
533.761	32954
533.828	33832
533.896	33164
533.963	52391
534.031	60368
534.098	79381
534.166	44871
534.233	32944
534.300	34043
534.368	34706
534.435	32929
534.503	36222
534.570	42326
534.637	42998
534.705	47370
534.772	52796
534.840	81620
534.907	334140
534.974	418766
535.041	63161
535.109	39426
535.176	29522
535.243	29100
535.310	30943
535.378	29912
535.445	25755
535.512	25529
535.579	25989
535.646	25337
535.714	25334
535.781	28829
535.848	27677
535.915	29562
535.982	29011
536.049	27805
536.116	28279
536.183	25141
536.250	25822
536.317	26163
536.384	28838
536.451	39393
536.518	40651
536.585	31929
536.652	38356
536.719	50428
536.786	41341
536.853	35321
536.920	45411
536.987	66849
537.053	64277
537.120	233757
537.187	195315
537.254	32927
537.321	26820
537.388	26739
537.454	22542
537.521	21921
537.588	21351
537.654	24413
537.721	25525
537.788	25907
537.855	22263
537.921	24562
537.988	24954
538.055	25044
538.121	22277
538.188	25326
538.254	34230
538.321	63480
538.388	41751
538.454	23313
538.521	23234
538.587	22813
538.654	21676
538.720	21497
538.787	21193
538.853	22845
538.920	25859
538.986	26320
539.053	23172
539.119	23666
539.185	24456
539.252	28081
539.318	42520
539.385	32750
539.451	27971
539.517	28242
539.583	31949
539.650	68265
539.716	175544
539.782	48828
539.849	24283
539.915	23524
539.981	24804
540.047	29539
540.114	26319
540.180	27910
540.246	27252
540.312	36084
540.378	64234
540.444	62802
540.510	69449
540.576	198240
540.643	58446
540.709	23630
540.775	22868
540.841	22421
540.907	27794
540.973	41527
541.039	37241
541.105	39427
541.171	25430
541.237	23210
541.303	23576
541.369	27823
541.435	32934
541.500	55669
541.566	35267
541.632	22331
541.698	19409
541.764	20226
541.830	19742
541.896	19445
541.961	20709
542.027	20809
542.093	21562
542.159	23726
542.224	24832
542.290	34254
542.356	53268
542.421	60794
542.487	30638
542.553	22948
542.618	25459
542.684	23770
542.750	25235
542.815	28966
542.881	44120
542.947	165410
543.012	115802
543.078	24696
543.143	20868
543.209	22438
543.274	22681
543.340	27929
543.405	64031
543.471	100944
543.536	26311
543.602	21024
543.667	19983
543.732	20069
543.798	18424
543.863	20075
543.928	18696
543.994	17883
544.059	19749
544.124	19827
544.190	20725
544.255	22074
544.320	22632
544.386	23424
544.451	31900
544.516	35411
544.581	36322
544.646	101999
544.712	155897
544.777	33836
544.842	26951
544.907	26114
544.972	23866
545.037	23290
545.102	26011
545.168	26221
545.233	27340
545.298	29733
545.363	32825
545.428	35990
545.493	60634
545.558	137362
545.623	54226
545.688	27828
545.753	26557
545.818	26856
545.883	27114
545.947	26512
546.012	29482
546.077	30132
546.142	30160
546.207	31421
546.272	37804
546.337	39678
546.401	34226
546.466	32504
546.531	30705
546.596	34812
546.661	36776
546.725	35487
546.790	33538
546.855	36975
546.919	37157
546.984	42322
547.049	45880
547.113	52343
547.178	53819
547.243	60465
547.307	69126
547.372	78124
547.436	81058
547.501	74779
547.565	82356
547.630	82498
547.695	80338
547.759	81207
547.823	76799
547.888	72965
547.952	75975
548.017	78297
548.081	82200
548.146	89439
548.210	87464
548.274	85428
548.339	82136
548.403	77177
548.468	72729
548.532	72363
548.596	72943
548.660	73114
548.725	81615
548.789	93068
548.853	89747
548.917	82476
548.982	87688
549.046	82097
549.110	66529
549.174	67396
549.238	75845
549.303	81206
549.367	85466
549.431	80995
549.495	75735
549.559	75515
549.623	87007
549.687	101425
549.751	109669
549.815	114466
549.879	111503
549.943	105890
550.007	112380
550.071	112362
550.135	110308
550.199	98416
550.263	94061
550.327	90512
550.391	100780
550.455	100817
550.519	105507
550.582	112437
550.646	139406
550.710	140330
550.774	126528
550.838	126841
550.901	131531
550.965	141460
551.029	147500
551.093	163057
551.156	186424
551.220	246566
551.284	282588
551.347	189210
551.411	193644
551.475	189606
551.538	136752
551.602	124595
551.666	116045
551.729	106937
551.793	104792
551.856	103779
551.920	102533
551.983	102856
552.047	100629
552.110	99282
552.174	99901
552.237	103224
552.301	95139
552.364	92551
552.428	88837
552.491	92715
552.554	95938
552.618	96621
552.681	100451
552.745	101301
552.808	128534
552.871	157035
552.934	118842
552.998	100578
553.061	97529
553.124	91596
553.187	91571
553.251	94709
553.314	96446
553.377	97629
553.440	113402
553.503	186348
553.567	248909
553.630	110208
553.693	95375
553.756	93843
553.819	90951
553.882	85667
553.945	86409
554.008	85619
554.071	86886
554.134	88608
554.197	81903
554.260	78697
554.323	82949
554.386	85029
554.449	86128
554.512	86753
554.575	81715
554.638	81955
554.701	81538
554.764	79781
554.827	77753
554.889	73959
554.952	69424
555.015	69119
555.078	69997
555.141	70609
555.203	69079
555.266	69625
555.329	70634
555.391	66023
555.454	67555
555.517	67444
555.580	62518
555.642	60126
555.705	60735
555.768	60855
555.830	59165
555.893	54801
555.955	53672
556.018	54462
556.080	54575
556.143	56189
556.206	55210
556.268	55342
556.330	55749
556.393	54767
556.455	53568
556.518	61380
556.580	59098
556.643	48669
556.705	47167
556.767	46663
556.830	48244
556.892	50423
556.955	64497
557.017	52502
557.079	45371
557.142	43804
557.204	48733
557.266	77217
557.328	63537
557.391	41280
557.453	38758
557.515	40462
557.577	47032
557.639	47532
557.701	42642
557.764	41728
557.826	45610
557.888	49356
557.950	53777
558.012	57104
558.074	75409
558.136	182700
558.198	467493
558.260	154631
558.322	62572
558.384	64195
558.446	73156
558.508	85000
558.570	105381
558.632	147659
558.694	199809
558.756	243034
558.818	728185
558.880	1745528
558.942	585122
559.003	502527
559.065	235570
559.127	96829
559.189	94482
559.251	105073
559.312	145307
559.374	353995
559.436	1215353
559.498	580888
559.559	114691
559.621	97221
559.683	106026
559.744	175127
559.806	586361
559.868	868969
559.929	167264
559.991	100014
560.052	152127
560.114	446820
560.176	270150
560.237	250748
560.299	409672
560.360	85673
560.422	38992
560.483	32298
560.545	28995
560.606	27736
560.667	26496
560.729	25578
560.790	24290
560.852	24664
560.913	23342
560.974	23387
561.036	23840
561.097	24173
561.158	24318
561.220	24986
561.281	23241
561.342	25126
561.403	28608
561.465	35507
561.526	77164
561.587	98462
561.648	30276
561.709	23298
561.771	22652
561.832	21811
561.893	21864
561.954	21321
562.015	21408
562.076	20934
562.137	20878
562.198	21171
562.259	21610
562.320	21506
562.381	24262
562.442	34378
562.503	28603
562.564	20563
562.625	20816
562.686	20791
562.747	24122
562.808	21569
562.869	20358
562.930	23791
562.991	23181
563.051	21055
563.112	20276
563.173	19420
563.234	19634
563.294	19692
563.355	20077
563.416	20843
563.477	19217
563.537	19394
563.598	21562
563.659	20183
563.720	20805
563.780	21763
563.841	22025
563.901	20496
563.962	20102
564.023	20187
564.083	20023
564.144	20422
564.204	19319
564.265	19772
564.325	22114
564.386	39406
564.446	34763
564.507	19210
564.567	19405
564.628	19835
564.688	18227
564.749	18380
564.809	20985
564.869	23408
564.930	20221
564.990	19145
565.050	18587
565.111	18916
565.171	18244
565.231	17424
565.292	18991
565.352	17371
565.412	18463
565.472	19185
565.532	20736
565.593	19244
565.653	18784
565.713	19542
565.773	20775
565.833	24101
565.893	29955
565.953	19923
566.013	18643
566.074	18506
566.134	24562
566.194	35166
566.254	37637
566.314	25353
566.374	19247
566.434	18492
566.494	18747
566.554	18716
566.614	20273
566.673	19766
566.733	19925
566.793	22065
566.853	21963
566.913	20444
566.973	21035
567.033	23489
567.092	26071
567.152	24068
567.212	23635
567.272	22155
567.331	22416
567.391	22462
567.451	23803
567.511	30962
567.570	30093
567.630	22118
567.690	21127
567.749	20580
567.809	21614
567.868	23794
567.928	25395
567.988	28214
568.047	28441
568.107	32305
568.166	38997
568.226	56528
568.285	75690
568.345	64089
568.404	52003
568.464	45564
568.523	42004
568.582	42511
568.642	48984
568.701	56924
568.761	76470
568.820	120117
568.879	116323
568.939	86704
568.998	62181
569.057	47534
569.116	40430
569.176	34526
569.235	30061
569.294	28069
569.353	25171
569.413	24403
569.472	23111
569.531	20708
569.590	20383
569.649	20685
569.708	18823
569.767	22389
569.827	27095
569.886	24349
569.945	18938
570.004	20495
570.063	18831
570.122	20340
570.181	21359
570.240	22201
570.299	24466
570.358	26412
570.417	18714
570.475	18206
570.534	19093
570.593	20296
570.652	22197
570.711	22793
570.770	18752
570.829	20584
570.887	20328
570.946	22795
571.005	18419
571.064	17951
571.122	21158
571.181	22457
571.240	18223
571.299	16763
571.357	17950
571.416	18725
571.475	19698
571.533	21497
571.592	18058
571.650	18624
571.709	17027
571.768	18799
571.826	18375
571.885	16793
571.943	15479
572.002	16853
572.060	16662
572.119	14838
572.177	15179
572.236	15070
572.294	14005
572.352	15750
572.411	16177
572.469	15243
572.528	15722
572.586	14974
572.644	18183
572.703	26509
572.761	17583
572.819	14818
572.877	14223
572.936	12875
572.994	14622
573.052	15070
573.110	16573
573.169	15197
573.227	14350
573.285	14259
573.343	14507
573.401	15062
573.459	14554
573.517	14305
573.576	15183
573.634	14494
573.692	16393
573.750	15427
573.808	14076
573.866	15442
573.924	18466
573.982	17412
574.040	14923
574.098	14296
574.155	13264
574.213	13825
574.271	13774
574.329	15916
574.387	15180
574.445	12448
574.503	11962
574.560	12047
574.618	12506
574.676	12049
574.734	12625
574.792	13005
574.849	13395
574.907	12251
574.965	10616
575.022	11117
575.080	11710
575.138	11608
575.195	11655
575.253	12645
575.311	14661
575.368	12161
575.426	11880
575.483	11983
575.541	11502
575.598	11307
575.656	12353
575.713	12635
575.771	12324
575.828	12608
575.886	11952
575.943	13228
576.001	12946
576.058	13260
576.115	14196
576.173	15353
576.230	17271
576.287	19771
576.345	16093
576.402	13527
576.459	13454
576.517	13890
576.574	13763
576.631	15143
576.688	13179
576.746	12235
576.803	11853
576.860	11978
576.917	12302
576.974	12184
577.031	12649
577.089	12524
577.146	12587
577.203	13037
577.260	13092
577.317	13595
577.374	14076
577.431	14828
577.488	13411
577.545	12048
577.602	12602
577.659	13359
577.716	13283
577.773	14256
577.830	13784
577.886	12688
577.943	11909
578.000	11861
578.057	12000
578.114	12828
578.171	13537
578.227	14128
578.284	13827
578.341	12593
578.398	13397
578.454	14157
578.511	15010
578.568	15973
578.625	13813
578.681	12523
578.738	11292
578.794	12419
578.851	11868
578.908	12445
578.964	13053
579.021	13299
579.077	12333
579.134	11908
579.190	11339
579.247	12814
579.303	11248
579.360	10866
579.416	11398
579.473	11017
579.529	10751
579.586	12187
579.642	11657
579.698	11845
579.755	12769
579.811	12301
579.867	11956
579.924	11852
579.980	11723
580.036	13295
580.093	14343
580.149	16116
580.205	16688
580.261	14024
580.317	14640
580.374	14180
580.430	16918
580.486	15820
580.542	13940
580.598	14168
580.619	14206
580.654	14289
580.692	13806
580.710	13601
580.765	13641
580.767	13659
580.823	14040
580.838	13972
580.879	13861
580.911	13782
580.935	13754
580.984	13623
580.991	13633
581.047	13586
581.057	13607
581.103	13751
581.130	13676
581.159	13631
581.203	14252
581.215	14440
581.270	14448
581.276	14444
581.326	14506
581.349	14595
581.382	14788
581.422	14549
581.438	14484
581.494	14697
581.494	14675
581.550	13866
581.567	14426
581.606	15596
581.640	15224
581.661	15031
581.713	15325
581.717	15362
581.773	14864
581.786	14905
581.829	15167
581.859	14427
581.885	13835
581.932	14488
581.940	14601
581.996	14324
582.004	14395
582.052	14865
582.077	14577
582.107	14310
582.150	14175
582.163	14133
582.219	14881
582.223	14828
582.274	14247
582.296	14690
582.330	15480
582.368	15095
582.386	14966
582.441	14969
582.441	14975
582.497	14054
582.514	14448
582.552	15639
582.587	16486
582.608	16916
582.659	15974
582.663	15911
582.719	15140
582.732	15290
582.774	15891
582.805	15973
582.830	15948
582.877	15836
582.885	15856
582.941	16751
582.950	16811
582.996	16978
583.023	18003
583.052	19247
583.095	19221
583.107	19185
583.162	19398
583.168	19315
583.218	18490
583.240	17843
583.273	16967
583.313	16473
583.328	16268
583.384	15911
583.385	15884
583.439	15127
583.458	15031
583.494	14917
583.531	14544
583.549	14331
583.603	14642
583.605	14650
583.660	13486
583.676	13889
583.715	14887
583.748	14876
583.770	14907
583.820	14699
583.825	14658
583.881	14160
583.893	14033
583.936	13652
583.965	13676
583.991	13725
584.038	14091
584.046	14166
584.101	14606
584.110	14613
584.156	14223
584.183	14315
584.211	14609
584.255	14482
584.266	14448
584.321	14804
584.328	14885
584.376	15179
584.400	14978
584.431	14880
584.472	14973
584.486	14907
584.541	15241
584.545	15245
584.596	15434
584.617	15532
584.651	15853
584.689	16637
584.706	16771
584.761	16481
584.762	16490
584.816	16690
584.834	16890
584.871	17116
584.906	16995
584.926	17097
584.978	17900
584.980	17897
585.035	19451
585.051	19685
585.090	20562
585.123	21712
585.145	22527
585.195	23973
585.200	24144
585.254	28159
585.267	29337
585.309	32756
585.340	36476
585.364	39161
585.412	40733
585.419	40928
585.473	45518
585.484	47162
585.528	56021
585.556	67229
585.583	85250
585.628	137822
585.637	153498
585.692	326062
585.700	357877
585.747	488805
585.772	385627
585.801	229802
585.845	87136
585.856	63733
585.910	38663
585.917	36638
585.965	29399
585.989	27126
586.019	24644
586.061	22462
586.074	21937
586.128	21229
586.133	21318
586.183	22041
586.205	22029
586.237	21864
586.277	20881
586.292	20544
586.346	19882
586.349	19929
586.401	19933
586.421	19978
586.455	20467
586.493	21109
586.509	21824
586.564	25567
586.565	25821
586.618	37149
586.637	37058
586.672	32034
586.709	26413
586.727	24703
586.781	24418
586.781	24382
586.835	20725
586.853	20177
586.889	19440
586.925	18139
586.944	17551
586.996	18258
586.998	18253
587.052	18464
587.068	18397
587.106	18224
587.140	18175
587.161	18168
587.212	19485
587.215	19530
587.269	20098
587.284	20374
587.323	20609
587.356	20741
587.377	20933
587.427	21641
587.431	21644
587.485	21927
587.499	21985
587.539	22148
587.571	22626
587.593	23008
587.643	24479
587.648	24593
587.702	24977
587.715	25472
587.755	26562
587.786	27264
587.810	27934
587.858	29120
587.864	29198
587.917	31399
587.930	31976
587.971	34334
588.001	36137
588.025	37382
588.073	39475
588.079	39766
588.133	44236
588.145	45334
588.187	48933
588.217	52172
588.241	55478
588.288	63626
588.295	64692
588.348	74949
588.360	77557
588.402	86942
588.431	94894
588.456	102119
588.503	117413
588.510	119621
588.564	143724
588.575	149802
588.617	174843
588.646	195022
588.671	216729
588.718	269067
588.725	280855
588.778	398812
588.789	430874
588.832	651379
588.861	833360
588.886	1061873
588.932	1500073
588.939	1523556
588.993	1549031
589.004	1545468
589.047	1167686
589.075	848774
589.100	658691
589.147	377060
589.154	356754
589.207	266881
589.218	253444
589.261	233835
589.290	230222
589.314	237982
589.361	266714
589.368	278285
589.421	404294
589.433	439792
589.475	712008
589.504	933955
589.528	1115423
589.576	1401386
589.582	1365394
589.635	913997
589.647	801880
589.689	459027
589.718	263629
589.742	206723
589.790	130716
589.795	125727
589.849	94905
589.861	89523
589.902	78552
589.932	70792
589.955	64205
590.004	52295
590.009	51305
590.062	43896
590.075	42415
590.115	39204
590.146	37181
590.168	36056
590.218	33931
590.222	33677
590.275	32142
590.289	31790
590.328	30526
590.360	29528
590.381	28934
590.431	27979
590.435	27797
590.488	26038
590.503	25630
590.541	25151
590.574	24970
590.594	24771
590.645	24218
590.647	24105
590.700	22870
590.716	22566
590.753	22051
590.787	21645
590.806	21554
590.859	21731
590.859	21666
590.912	21091
590.930	21038
590.965	20590
591.001	20205
591.018	20079
591.071	19908
591.072	19965
591.124	20072
591.143	20218
591.177	19641
591.214	19135
591.230	19574
591.283	21430
591.285	21548
591.336	22571
591.356	23091
591.389	22519
591.427	21687
591.442	20888
591.495	18222
591.498	18084
591.547	18423
591.569	18726
591.600	18435
591.640	18073
591.653	18002
591.706	18012
591.711	18081
591.759	19259
591.782	19922
591.811	20082
591.853	20455
591.864	20155
591.917	18715
591.924	18578
591.969	18647
591.995	18836
592.022	18581
592.066	18235
592.075	18368
592.127	19703
592.137	20015
592.180	21425
592.208	22362
592.233	21131
592.279	18948
592.285	18780
592.338	18002
592.350	17891
592.390	17894
592.421	18016
592.443	18091
592.491	18454
592.495	18395
592.548	18416
592.562	18494
592.600	18269
592.633	18178
592.653	18008
592.704	17664
592.705	17771
592.775	18206
592.846	18776
592.916	19935
592.987	20735
593.058	20240
593.128	18263
593.199	18212
593.270	17459
593.341	18087
593.411	20364
593.482	20074
593.553	19751
593.623	18944
593.694	19754
593.764	20095
593.835	19245
593.906	19716
593.976	19700
594.047	20644
594.117	23947
594.188	22835
594.258	20699
594.329	20325
594.399	21337
594.470	21160
594.540	21870
594.611	22334
594.681	21655
594.751	21841
594.822	24392
594.892	25548
594.963	25237
595.033	24471
595.103	25627
595.174	26256
595.244	32073
595.314	35266
595.384	27088
595.455	27462
595.525	27640
595.595	28791
595.665	29718
595.736	27579
595.806	28794
595.876	27920
595.946	29301
596.016	29775
596.087	30510
596.157	31037
596.227	30592
596.297	32405
596.367	34575
596.437	36677
596.507	41651
596.577	43625
596.647	37514
596.717	38081
596.787	39209
596.857	37579
596.927	39063
596.997	37755
597.067	40293
597.137	40927
597.207	42485
597.277	39961
597.347	39250
597.417	37192
597.487	40467
597.557	40669
597.626	40441
597.696	42428
597.766	43844
597.836	44717
597.906	37859
597.975	36069
598.045	36391
598.115	38500
598.185	41430
598.254	45068
598.324	49681
598.394	51511
598.464	48725
598.533	46858
598.603	43525
598.672	43948
598.742	45125
598.812	44190
598.881	45600
598.951	44221
599.020	44859
599.090	46773
599.159	48146
599.229	45895
599.299	45040
599.368	46624
599.437	45598
599.507	42115
599.576	43791
599.646	41949
599.715	42316
599.785	40695
599.854	41728
599.924	41071
599.993	40758
600.062	40659
600.132	42025
600.201	44129
600.270	52992
600.340	53733
600.409	51409
600.478	50680
600.547	52288
600.617	48083
600.686	40968
600.755	39074
600.824	39442
600.894	36240
600.963	36626
601.032	37035
601.101	35562
601.170	34585
601.239	34110
601.308	35018
601.378	35170
601.447	34895
601.516	35798
601.585	36419
601.654	38231
601.723	37701
601.792	38078
601.861	40950
601.930	45339
601.999	45818
602.068	42316
602.137	43580
602.206	44195
602.275	45028
602.343	49040
602.412	48542
602.481	44371
602.550	44141
602.619	45519
602.688	47129
602.756	46004
602.825	46174
602.894	47386
602.963	47277
603.032	48619
603.100	47357
603.169	48159
603.238	48153
603.307	47958
603.375	48637
603.444	49715
603.513	47794
603.581	48975
603.650	51771
603.719	47490
603.787	47600
603.856	48579
603.924	50437
603.993	51256
604.061	52459
604.130	55280
604.198	56474
604.267	57214
604.335	57195
604.404	57894
604.472	58657
604.541	60330
604.609	61167
604.678	61963
604.746	61990
604.815	65170
604.883	64244
604.951	63897
605.020	64902
605.088	63689
605.156	63746
605.225	63949
605.293	62903
605.361	64965
605.429	64883
605.498	67527
605.566	69878
605.634	71296
605.702	72566
605.771	74402
605.839	73313
605.907	71307
605.975	70885
606.043	69968
606.111	67861
606.180	69915
606.248	68114
606.316	67822
606.384	68089
606.452	68030
606.520	70710
606.588	66828
606.656	64767
606.724	62088
606.792	58936
606.860	52956
606.928	48400
606.996	46971
607.064	47301
607.132	48522
607.200	50695
607.267	52249
607.335	52677
607.403	55012
607.471	52477
607.539	51588
607.607	51870
607.674	45513
607.742	45236
607.810	47158
607.878	45934
607.946	46227
608.013	48432
608.081	49410
608.149	50785
608.216	50423
608.284	53568
608.352	52566
608.419	51178
608.487	54956
608.555	50257
608.622	52905
608.690	55180
608.757	58973
608.825	61521
608.893	60750
608.960	59128
609.028	57680
609.095	58772
609.163	54107
609.230	48586
609.298	43863
609.365	46979
609.432	50172
609.500	53930
609.567	61975
609.635	72246
609.702	76250
609.769	71608
609.837	57732
609.904	48425
609.971	51035
610.039	62101
610.106	89500
610.173	187766
610.241	441625
610.308	207676
610.375	65911
610.442	53673
610.509	49672
610.577	50628
610.644	49576
610.711	52198
610.778	54014
610.845	56016
610.912	59635
610.980	63405
611.047	65405
611.114	62538
611.181	58583
611.248	57849
611.315	62893
611.382	62285
611.449	65752
611.516	66443
611.583	66116
611.650	66965
611.717	67873
611.784	71224
611.851	76142
611.918	87096
611.984	106345
612.051	171805
612.118	388534
612.185	974072
612.252	512171
612.319	118692
612.386	92756
612.452	82243
612.519	78318
612.586	78447
612.653	76777
612.719	78042
612.786	73868
612.853	68650
612.919	66556
612.986	67984
613.053	63972
613.120	58541
613.186	56851
613.253	59982
613.319	58380
613.386	59231
613.453	61374
613.519	63349
613.586	68713
613.652	77129
613.719	69533
613.785	65952
613.852	61569
613.918	60950
613.985	64739
614.051	75559
614.118	105083
614.184	94664
614.250	61612
614.317	61839
614.383	59903
614.449	60776
614.516	61429
614.582	61931
614.648	59574
614.715	60052
614.781	57852
614.847	58106
614.914	57613
614.980	55669
615.046	57337
615.112	57387
615.179	57797
615.245	59353
615.311	59907
615.377	66209
615.443	66090
615.509	64126
615.575	65826
615.642	63475
615.708	67828
615.774	71964
615.840	79332
615.906	91494
615.972	126445
616.038	217528
616.104	497917
616.170	1216615
616.236	883260
616.302	186848
616.368	130396
616.434	90511
616.500	83598
616.565	96088
616.631	119329
616.697	93030
616.763	101753
616.829	166830
616.895	306162
616.961	266415
617.026	103728
617.092	69203
617.158	64857
617.224	62362
617.289	57354
617.355	53392
617.421	52276
617.487	52698
617.552	50174
617.618	49052
617.684	47865
617.749	50041
617.815	46656
617.880	45847
617.946	46767
618.012	46528
618.077	47963
618.143	46728
618.208	45744
618.274	49245
618.339	50095
618.405	39914
618.470	41283
618.536	40929
618.601	40063
618.667	37388
618.732	35860
618.798	35277
618.863	34481
618.928	34556
618.994	37645
619.059	40584
619.124	48838
619.190	38605
619.255	34517
619.320	34124
619.386	34947
619.451	33786
619.516	32991
619.581	34553
619.647	34223
619.712	34168
619.777	32052
619.842	33006
619.907	35343
619.972	34258
620.038	33888
620.103	32949
620.168	32412
620.233	33626
620.298	33062
620.363	33656
620.428	34583
620.493	35315
620.558	35549
620.623	35734
620.688	36018
620.753	36104
620.818	36121
620.883	36235
620.948	36388
621.013	35566
621.078	35614
621.143	35331
621.207	39092
621.272	36617
621.337	36246
621.402	36934
621.467	38679
621.532	38820
621.596	36325
621.661	34710
621.726	33582
621.791	34186
621.855	35506
621.920	36013
621.985	35994
622.049	37429
622.114	36928
622.179	36833
622.243	36336
622.308	37525
622.373	39965
622.437	38101
622.502	36046
622.566	34639
622.631	34267
622.695	36573
622.760	36960
622.824	37600
622.889	38001
622.953	39104
623.018	53018
623.082	49329
623.147	39281
623.211	38441
623.276	37731
623.340	34777
623.404	34371
623.469	34305
623.533	34862
623.597	33541
623.662	34228
623.726	30539
623.790	28257
623.854	27463
623.919	29956
623.983	29468
624.047	30927
624.111	30219
624.176	31804
624.240	33271
624.304	36043
624.368	30270
624.432	31469
624.496	32134
624.560	37398
624.625	38507
624.689	34845
624.753	34566
624.817	33563
624.881	32054
624.945	29712
625.009	28610
625.073	29758
625.137	31529
625.201	39385
625.265	37635
625.329	30886
625.393	32185
625.456	31723
625.520	32931
625.584	34467
625.648	37554
625.712	46499
625.776	69800
625.839	71709
625.903	36057
625.967	28265
626.031	39312
626.095	51488
626.158	32072
626.222	23075
626.286	22645
626.349	20313
626.413	18431
626.477	22389
626.540	19517
626.604	19164
626.668	20215
626.731	19222
626.795	19428
626.858	19641
626.922	18369
626.986	19329
627.049	17371
627.113	20725
627.176	18931
627.240	18334
627.303	18294
627.366	18308
627.430	19235
627.493	18346
627.557	17531
627.620	19952
627.684	19937
627.747	19902
627.810	17340
627.874	16643
627.937	15266
628.000	18560
628.064	16164
628.127	12678
628.190	14754
628.253	14561
628.317	13131
628.380	13080
628.443	12708
628.506	13411
628.569	11940
628.632	11446
628.696	11933
628.759	11878
628.822	10289
628.885	9981
628.948	10615
629.011	10954
629.074	11011
629.137	10340
629.200	9972
629.263	12595
629.326	9738
629.389	9695
629.452	10311
629.515	10919
629.578	9794
629.641	11922
629.704	9955
629.767	10811
629.830	10555
629.892	10077
629.955	8996
630.018	12165
630.081	12364
630.144	14973
630.207	10313
630.269	12785
630.332	10375
630.395	9600
630.458	9118
630.520	8128
630.583	10366
630.646	9049
630.708	9096
630.771	8536
630.834	10350
630.896	9394
630.959	9151
631.021	9016
631.084	9268
631.146	10906
631.209	11121
631.272	8529
631.334	10037
631.397	9827
631.459	10315
631.522	11992
631.584	11286
631.646	13094
631.709	14664
631.771	16768
631.834	13623
631.896	12094
631.958	9744
632.021	10110
632.083	9028
632.145	10209
632.208	8981
632.270	10589
632.332	9161
632.395	8479
632.457	9012
632.519	8458
632.581	10105
632.643	7452
632.706	8905
632.768	7679
632.830	9008
632.892	8364
632.954	8081
633.016	9550
633.078	8192
633.141	8393
633.203	7901
633.265	9601
633.327	8590
633.389	8834
633.451	11484
633.513	11890
633.575	11947
633.637	12518
633.698	11766
633.760	9611
633.822	11029
633.884	11138
633.946	9926
634.008	11359
634.070	12385
634.132	13459
634.193	14380
634.255	16596
634.317	15366
634.379	16499
634.441	14096
634.502	11205
634.564	11079
634.626	10710
634.687	10933
634.749	10276
634.811	9645
634.873	7947
634.934	8267
634.996	9645
635.057	8350
635.119	8253
635.181	9249
635.242	10385
635.304	7373
635.365	10837
635.427	8719
635.488	9664
635.550	7947
635.611	9978
635.673	7129
635.734	12080
635.796	11168
635.857	13576
635.918	13390
635.980	15295
636.041	16794
636.102	17928
636.164	18547
636.225	17409
636.286	12689
636.348	12719
636.409	10591
636.470	9561
636.531	10092
636.593	9322
636.654	9678
636.715	8481
636.776	7526
636.838	7304
636.899	8150
636.960	6866
637.021	7079
637.082	6560
637.143	7312
637.204	5992
637.265	6784
637.326	6834
637.387	6730
637.448	5311
637.509	6900
637.570	7056
637.631	6885
637.692	5147
637.753	5418
637.814	5799
637.875	5625
637.936	6856
637.997	5885
638.058	6750
638.119	6314
638.179	5977
638.240	5459
638.301	5153
638.362	4751
638.423	4217
638.483	6566
638.544	3896
638.605	5524
638.666	3769
638.726	5528
638.787	6394
638.848	4476
638.908	5515
638.969	5158
639.030	5402
639.090	4020
639.151	4975
639.211	6988
639.272	9553
639.332	14832
639.393	7738
639.453	5274
639.514	6259
639.574	5687
639.635	4594
639.695	5732
639.756	4457
639.816	5807
639.877	7918
639.937	15001
639.997	18428
640.058	6050
640.118	5211
640.178	4967
640.239	4424
640.299	5010
640.359	4027
640.420	5585
640.480	7044
640.540	7852
640.600	8424
640.661	6391
640.721	6233
640.781	9133
640.841	3974
640.901	6119
640.961	6189
641.021	6495
641.082	8169
641.142	11243
641.202	7285
641.262	3002
641.322	4744
641.382	3636
641.442	5207
641.502	4081
641.562	5739
641.622	5331
641.682	6401
641.742	7207
641.802	6433
641.861	6701
641.921	4796
641.981	6805
642.041	6626
642.101	7957
642.161	4416
642.221	5114
642.280	4297
642.340	4681
642.400	2651
642.460	4550
642.519	4515
642.579	3745
642.639	4474
642.698	1993
642.758	6748
642.818	4617
642.877	4110
642.937	5414
642.997	7305
643.056	9704
643.116	5259
643.175	5992
643.235	5054
643.294	6462
643.354	6220
643.414	8057
643.473	10336
643.532	13360
643.592	20845
643.651	37867
643.711	72562
643.770	153229
643.830	392005
643.889	757662
643.948	145335
644.008	24214
644.067	14130
644.126	10217
644.186	8216
644.245	7224
644.304	5523
644.363	7332
644.423	4128
644.482	5513
644.541	6221
644.600	5353
644.659	9533
644.719	11565
644.778	19617
644.837	37150
644.896	83039
644.955	181547
645.014	49969
645.073	11364
645.132	6525
645.191	6640
645.250	5841
645.309	7481
645.368	6975
645.427	11276
645.486	19409
645.545	31444
645.604	8191
645.663	6580
645.722	5057
645.781	6496
645.840	9680
645.898	12727
645.957	19815
646.016	33414
646.075	67021
646.134	138071
646.192	394493
646.251	506622
646.310	62792
646.369	16133
646.427	13505
646.486	8381
646.545	7072
646.603	6000
646.662	5316
646.721	5549
646.779	4835
646.838	4507
646.896	8920
646.955	11395
647.014	20960
647.072	42723
647.131	115191
647.189	45590
647.248	6084
647.306	5052
647.365	4105
647.423	2004
647.481	4934
647.540	2113
647.598	3526
647.657	2608
647.715	3528
647.773	2499
647.832	3590
647.890	2033
647.948	2246
648.007	3929
648.065	2120
648.123	3003
648.181	4802
648.240	3308
648.298	3274
648.356	2233
648.414	3109
648.472	2232
648.531	3732
648.589	2421
648.647	3000
648.705	2862
648.763	3565
648.821	3492
648.879	3721
648.937	5126
648.995	6290
649.053	8919
649.111	15813
649.169	27873
649.227	53146
649.285	117035
649.343	329412
649.401	130077
649.459	31540
649.516	18178
649.574	12116
649.632	24379
649.690	27490
649.748	12724
649.806	16114
649.863	31600
649.921	81207
649.979	45538
650.037	6477
650.094	2246
650.152	3624
650.210	1685
650.268	2681
650.325	2072
650.383	2946
650.440	955
650.498	2836
650.556	1882
650.613	2014
650.671	1491
650.728	2274
650.786	2514
650.843	2890
650.901	181
650.958	1745
651.016	1498
651.073	1824
651.131	1462
651.188	1536
651.246	1544
651.303	928
651.360	1967
651.418	1413
651.475	1628
651.532	302
651.590	1596
651.647	1418
651.704	1566
651.762	1713
651.819	1622
651.876	394
651.933	1005
651.990	2247
652.048	190
652.105	1220
652.162	2411
652.219	1322
652.276	1042
652.333	1680
652.390	583
652.448	1463
652.505	782
652.562	1259
652.619	1973
652.676	3108
652.733	3492
652.790	1394
652.847	-73
652.904	2019
652.961	-606
653.017	1226
653.074	2028
653.131	2043
653.188	-164
653.245	1036
653.302	724
653.359	1590
653.415	1158
653.472	325
653.529	2080
653.586	-240
653.642	453
653.699	1358
653.756	1690
653.813	589
653.869	1140
653.926	483
653.983	1037
654.039	1388
654.096	1299
654.152	1800
654.209	-214
654.266	1842
654.322	253
654.379	2098
654.435	2074
654.492	1817
654.548	3689
654.605	6073
654.661	2536
654.717	1688
654.774	1380
654.830	1218
654.887	1068
654.943	1655
655.000	1256
655.056	1521
655.112	1454
655.168	722
655.225	1546
655.281	1765
655.337	2342
655.394	3976
655.450	2588
655.506	3010
655.562	4029
655.618	2959
655.675	140
655.731	1059
655.787	907
655.843	2114
655.899	63
655.955	2188
656.011	2011
656.067	1020
656.123	2514
656.179	2096
656.235	3367
656.291	1448
656.347	3209
656.403	1617
656.459	1771
656.515	2886
656.571	1532
656.627	1603
656.683	1759
656.739	1165
656.795	1817
656.850	2032
656.906	2606
656.962	2513
657.018	578
657.074	1215
657.129	2274
657.185	3250
657.241	7229
657.297	3922
657.352	1860
657.408	802
657.464	2423
657.519	1419
657.575	-159
657.630	715
657.686	905
657.742	334
657.797	527
657.853	391
657.908	1471
657.964	448
658.019	1110
658.075	166
658.130	1945
658.186	-277
658.241	694
658.297	-236
658.352	479
658.407	773
658.463	192
658.518	1669
658.573	276
658.629	444
658.684	337
658.739	1682
658.795	737
658.850	669
658.905	718
658.960	424
659.016	-198
659.071	423
659.126	303
659.181	1360
659.236	5195
659.291	5044
659.346	1983
659.401	2290
659.457	1228
659.512	1348
659.567	1198
659.622	376
659.677	450
659.732	139
659.787	655
659.842	1257
659.897	1108
659.952	1207
660.007	225
660.061	469
660.116	130
660.171	-200
660.226	275
660.281	1550
660.336	357
660.391	1559
660.445	-498
660.500	1058
660.555	653
660.610	372
660.664	914
660.719	306
660.774	1238
660.828	813
660.883	944
660.938	2018
660.992	-767
661.047	1510
661.101	867
661.156	687
661.211	-146
661.265	878
661.320	-371
661.374	334
661.429	-20
661.483	1241
661.538	-589
661.592	843
661.647	294
661.701	1020
661.755	20
661.810	491
661.864	-778
661.919	-188
661.973	898
662.027	508
662.081	598
662.136	-49
662.190	538
662.244	971
662.299	167
662.353	1051
662.407	644
662.461	708
662.515	546
662.569	1071
662.624	900
662.678	-35
662.732	463
662.786	670
662.840	-25
662.894	1460
662.948	179
663.002	794
663.056	354
663.110	385
663.164	203
663.218	831
663.272	772
663.326	1864
663.380	1242
663.434	556
663.488	204
663.542	1384
663.595	511
663.649	546
663.703	403
663.757	1072
663.811	-286
663.864	-296
663.918	620
663.972	427
664.026	-124
664.079	132
664.133	1395
664.187	990
664.240	656
664.294	-241
664.348	633
664.401	164
664.455	395
664.508	688
664.562	573
664.615	-135
664.669	-88
664.722	645
664.776	263
664.829	1171
664.883	173
664.936	358
664.990	388
665.043	1004
665.097	520
665.150	1626
665.203	114
665.257	433
665.310	1556
665.363	1589
665.417	714
665.470	829
665.523	1567
665.576	577
665.630	418
665.683	586
665.736	885
665.789	723
665.842	76
665.895	735
665.949	922
666.002	570
666.055	538
666.108	1700
666.161	235
666.214	1844
666.267	1850
666.320	2431
666.373	1018
666.426	978
666.479	312
666.532	914
666.585	1665
666.638	1980
666.691	1330
666.744	2398
666.796	809
666.849	1510
666.902	1410
666.955	430
667.008	530
667.060	513
667.113	883
667.166	1177
667.219	913
667.271	1457
667.324	363
667.377	1457
667.430	1164
667.482	1173
667.535	1156
667.587	1627
667.640	1513
667.693	2915
667.745	4259
667.798	4757
667.850	1470
667.903	1336
667.955	825
668.008	1341
668.060	1040
668.113	616
668.165	966
668.218	1864
668.270	453
668.322	1300
668.375	1060
668.427	793
668.479	880
668.532	1445
668.584	977
668.636	1177
668.689	1231
668.741	696
668.793	768
668.845	784
668.898	608
668.950	1093
669.002	1105
669.054	880
669.106	1144
669.158	1742
669.211	970
669.263	1234
669.315	1915
669.367	1921
669.419	1269
669.471	2599
669.523	1628
669.575	3945
669.627	2162
669.679	1664
669.731	902
669.783	1846
669.835	2106
669.886	1428
669.938	721
669.990	1456
670.042	1194
670.094	472
670.146	621
670.197	1833
670.249	891
670.301	1108
670.353	1672
670.404	1663
670.456	1921
670.508	3144
670.560	4677
670.611	6409
670.663	11771
670.715	31085
670.766	47217
670.818	13737
670.869	2049
670.921	1477
670.972	2448
671.024	1385
671.075	1169
671.127	1507
671.178	998
671.230	1138
671.281	1563
671.333	1596
671.384	1679
671.436	3026
671.487	3551
671.538	6337
671.590	9439
671.641	15307
671.692	31286
671.744	60367
671.795	35051
671.846	10517
671.897	4372
671.949	3851
672.000	1718
672.051	1693
672.102	1823
672.153	933
672.204	1476
672.256	1200
672.307	1307
672.358	474
672.409	322
672.460	1005
672.511	743
672.562	1394
672.613	909
672.664	1149
672.715	1897
672.766	815
672.817	641
672.868	1277
672.919	566
672.970	1102
673.021	517
673.071	1095
673.122	201
673.173	1100
673.224	756
673.275	836
673.326	-233
673.376	770
673.427	432
673.478	1031
673.528	1066
673.579	1213
673.630	643
673.680	1673
673.731	702
673.782	507
673.832	743
673.883	727
673.934	374
673.984	405
674.035	99
674.085	1378
674.136	1340
674.186	818
674.237	1477
674.287	2650
674.338	1087
674.388	1138
674.438	965
674.489	1365
674.539	1120
674.589	1423
674.640	914
674.690	848
674.740	100
674.791	1012
674.841	1037
674.891	841
674.942	886
674.992	1364
675.042	61
675.092	919
675.142	242
675.193	593
675.243	591
675.293	966
675.343	865
675.393	881
675.443	671
675.493	1332
675.543	-159
675.593	1241
675.643	1054
675.693	563
675.743	287
675.793	741
675.843	-367
675.893	581
675.943	581
675.993	984
676.043	490
676.093	858
676.142	836
676.192	1108
676.242	920
676.292	-117
676.341	362
676.391	1161
676.441	-12
676.491	1109
676.540	391
676.590	1128
676.640	124
676.689	853
676.739	186
676.789	623
676.838	18
676.888	200
676.937	-38
676.987	713
677.037	106
677.086	738
677.136	55
677.185	442
677.235	-156
677.284	1219
677.333	-164
677.383	-428
677.432	-62
677.482	554
677.531	383
677.580	-286
677.630	-360
677.679	133
677.728	1
677.778	585
677.827	856
677.876	722
677.925	47
677.975	423
678.024	373
678.073	1030
678.122	378
678.171	1177
678.220	216
678.269	1089
678.319	1388
678.368	659
678.417	496
678.466	1317
678.515	653
678.564	-199
678.613	77
678.662	783
678.711	306
678.760	-159
678.809	-171
678.857	-146
678.906	1067
678.955	-32
679.004	994
679.053	-266
679.102	137
679.151	762
679.199	347
679.248	127
679.297	590
679.346	504
679.394	745
679.443	1112
679.492	-227
679.540	424
679.589	336
679.638	-8
679.686	1338
679.735	579
679.784	-131
679.832	1067
679.881	260
679.929	751
679.978	268
680.026	470
680.075	968
680.123	526
680.172	141
680.220	297
680.268	437
680.317	-109
680.365	-6
680.414	384
680.462	212
680.510	1861
680.559	133
680.607	832
680.655	308
680.703	662
680.752	-94
680.800	416
680.848	-147
680.896	-134
680.945	-693
680.993	537
681.041	-41
681.089	749
681.137	519
681.185	-291
681.233	127
681.258	14
681.281	-103
681.329	-64
681.377	253
681.380	243
681.425	-152
681.473	428
681.502	651
681.521	783
681.569	1009
681.617	126
681.624	116
681.665	-37
681.713	846
681.745	1095
681.761	1200
681.809	-220
681.857	1187
681.867	950
681.904	107
681.952	990
681.989	732
682.000	635
682.048	247
682.096	461
682.111	513
682.143	577
682.191	-11
682.233	1308
682.239	1501
682.286	-158
682.334	347
682.354	276
682.382	157
682.430	742
682.476	22
682.477	-4
682.525	50
682.572	-340
682.598	111
682.620	522
682.667	559
682.715	1317
682.720	1230
682.763	272
682.810	789
682.841	406
682.857	182
682.905	882
682.952	994
682.963	969
683.000	830
683.047	268
683.085	1372
683.095	1668
683.142	137
683.190	1240
683.206	944
683.237	356
683.284	1380
683.328	810
683.332	758
683.379	990
683.426	507
683.449	933
683.473	1361
683.521	1276
683.568	1126
683.571	1089
683.615	483
683.662	1166
683.693	1673
683.709	1925
683.757	1010
683.804	1454
683.814	1275
683.851	660
683.898	1536
683.936	1118
683.945	1016
683.992	1281
684.039	1479
684.057	1263
684.086	888
684.133	1765
684.179	1418
684.180	1393
684.227	2003
684.274	1469
684.300	1732
684.321	1975
684.368	1138
684.415	2061
684.422	1892
684.462	772
684.509	837
684.543	794
684.556	790
684.603	1639
684.649	621
684.665	862
684.696	1421
684.743	1138
684.786	1437
684.790	1450
684.837	974
684.883	1737
684.908	1663
684.930	1578
684.977	2126
685.023	1823
685.029	1834
685.070	1904
685.117	1186
685.150	1916
685.164	2172
685.210	2079
685.257	1952
685.272	1802
685.303	1579
685.350	1845
685.393	1718
685.396	1708
685.443	2636
685.490	2744
685.514	2804
685.536	2656
685.583	2112
685.629	2895
685.636	2805
685.675	2443
685.722	2090
685.757	2147
685.768	2146
685.815	1494
685.861	2544
685.878	2547
685.908	2627
685.954	1605
686.000	2575
686.000	2590
686.047	2475
686.093	2708
686.121	3025
686.139	3043
686.185	2627
686.232	1983
686.242	1912
686.278	1760
686.324	1895
686.363	1965
686.370	2000
686.416	2340
686.463	2247
686.484	2354
686.509	2483
686.555	1641
686.601	2183
686.606	2216
686.647	2416
686.693	2097
686.727	2087
686.739	2103
686.785	1783
686.831	2189
686.848	2350
686.877	2570
686.923	2380
686.969	1858
686.969	1856
687.015	1893
687.061	2610
687.090	2688
687.107	2665
687.153	2214
687.199	2233
687.211	2213
687.245	2222
687.291	2247
687.332	2195
687.336	2206
687.382	2875
687.428	2921
687.453	3031
687.474	2900
687.520	2028
687.565	2377
687.574	2253
687.611	2143
687.657	2296
687.695	2213
687.702	2177
687.748	2240
687.794	2661
687.816	2954
687.839	3183
687.885	2083
687.931	1709
687.937	1793
687.976	2465
688.022	2367
688.058	2453
688.067	2444
688.113	3011
688.158	2127
688.179	2554
688.204	3187
688.249	2633
688.295	2752
688.300	2836
688.340	3314
688.386	3141
688.421	3021
688.431	2990
688.477	3277
688.522	3131
688.542	3155
688.567	3213
688.613	3060
688.658	3415
688.663	3387
688.703	3038
688.749	3196
688.784	2715
688.794	2569
688.839	2741
688.884	2379
688.905	2343
688.930	2491
688.975	2143
689.020	2706
689.026	2720
689.065	2762
689.110	2708
689.146	3069
689.155	3113
689.201	2776
689.246	2548
689.267	2463
689.291	2565
689.336	2654
689.381	2935
689.388	2906
689.426	2571
689.471	2639
689.509	2775
689.516	2834
689.561	2497
689.606	2629
689.630	2922
689.651	3103
689.696	2363
689.741	2574
689.750	2600
689.785	2802
689.830	2500
689.871	2749
689.875	2788
689.920	2765
689.965	2839
689.992	3149
690.010	3324
690.054	3171
690.099	3318
690.112	3168
690.144	2755
690.189	2994
690.233	2820
690.233	2826
690.278	3274
690.323	3031
690.354	3219
690.367	3317
690.412	3768
690.457	3485
690.474	3541
690.501	3517
690.546	3626
690.590	3395
690.595	3354
690.635	3183
690.680	3242
690.716	3679
690.724	3817
690.769	3461
690.813	3899
690.836	3757
690.857	3675
690.902	4387
690.946	4893
690.957	4874
690.991	5310
691.035	6423
691.077	7320
691.080	7323
691.124	6676
691.168	6990
691.198	6575
691.213	6251
691.257	5690
691.301	4597
691.318	4404
691.346	4382
691.390	3889
691.434	3753
691.439	3720
691.478	3760
691.522	3722
691.559	3627
691.567	3643
691.611	4246
691.655	4198
691.680	4141
691.699	3937
691.743	3974
691.787	3543
691.800	3458
691.831	3652
691.875	4032
691.919	4432
691.921	4427
691.964	4190
692.008	4047
692.041	3900
692.052	3910
692.096	3813
692.139	4076
692.162	4157
692.183	4210
692.227	4024
692.271	3857
692.282	3844
692.315	3974
692.359	4204
692.402	4325
692.403	4336
692.447	4170
692.490	4301
692.523	4371
692.534	4404
692.578	4391
692.622	4207
692.643	4174
692.666	4079
692.709	3867
692.753	3703
692.763	3661
692.797	3672
692.840	3634
692.884	3629
692.884	3642
692.928	3611
692.971	4057
693.004	4325
693.015	4374
693.059	4401
693.102	4617
693.124	4544
693.146	4409
693.189	4374
693.233	4190
693.245	4174
693.276	4351
693.320	4529
693.363	4389
693.365	4381
693.407	4581
693.450	4803
693.485	4825
693.493	4878
693.537	5452
693.580	5453
693.605	5898
693.624	6321
693.667	6637
693.710	7275
693.725	7442
693.753	8794
693.797	11071
693.840	13581
693.845	13763
693.883	12774
693.926	11602
693.966	10712
693.970	10551
694.013	8636
694.056	7193
694.086	5883
694.099	5827
694.142	5566
694.185	5292
694.206	5298
694.229	5531
694.272	5649
694.315	5647
694.326	5760
694.358	6116
694.401	6284
694.444	6525
694.446	6510
694.487	6302
694.530	6085
694.566	6162
694.573	6105
694.616	5170
694.659	4474
694.686	4019
694.702	3996
694.745	4118
694.787	3901
694.806	3820
694.830	3801
694.873	3928
694.916	3880
694.926	3865
694.959	3946
695.002	4061
695.044	4291
695.046	4285
695.087	4670
695.130	4776
695.166	5086
695.172	5109
695.215	5172
695.258	5005
695.286	5018
695.301	4984
695.343	4796
695.386	4640
695.406	4481
695.428	4393
695.471	4444
695.514	4428
695.526	4355
695.556	4491
695.599	5071
695.641	5065
695.646	5080
695.684	5035
695.726	4958
695.766	5016
695.769	5046
695.811	5063
695.854	5151
695.886	5230
695.896	5240
695.938	5113
695.981	4932
696.005	4983
696.023	5087
696.065	5077
696.108	5121
696.125	5095
696.150	5086
696.192	5153
696.235	5320
696.245	5304
696.277	5475
696.319	5647
696.361	5900
696.365	5906
696.404	5633
696.446	5199
696.485	4941
696.488	4996
696.530	5387
696.572	5689
696.604	6055
696.614	6038
696.656	5819
696.698	5516
696.724	5324
696.740	5261
696.783	5148
696.825	5052
696.844	4948
696.867	5117
696.909	5395
696.951	5730
696.964	5803
696.992	5617
697.034	5411
697.076	5083
697.083	5027
697.118	5529
697.160	6003
697.202	6493
697.203	6488
697.244	6146
697.286	5760
697.323	5272
697.327	5306
697.369	5615
697.411	5714
697.442	5924
697.453	6003
697.494	6111
697.536	6367
697.562	6405
697.578	6387
697.620	6384
697.661	6341
697.682	6308
697.703	6508
697.744	6857
697.786	7295
697.801	7387
697.828	7445
697.869	7553
697.911	7649
697.921	7656
697.952	7212
697.994	6502
698.035	5883
698.040	5789
698.077	5782
698.118	5768
698.160	5673
698.160	5653
698.201	5960
698.243	6146
698.279	6387
698.284	6415
698.325	6463
698.367	6505
698.399	6503
698.408	6554
698.449	6703
698.491	6861
698.518	6937
698.532	6907
698.573	6774
698.614	6619
698.638	6519
698.656	6519
698.697	6473
698.738	6411
698.757	6364
698.779	6389
698.820	6410
698.862	6440
698.877	6429
698.903	6681
698.944	7051
698.985	7421
698.996	7506
699.026	7266
699.067	6903
699.116	6455
699.235	6068
699.354	6724
699.474	6286
699.593	6775
699.713	7559
699.832	7044
699.951	7536
700.070	8095
700.190	7004
700.309	7328
700.428	7026
700.547	6740
700.667	6808
700.786	6926
700.905	5906
701.024	6262
701.143	6476
701.262	6028
701.381	6523
701.500	5958
701.619	7526
701.738	6324
701.857	5320
701.976	5703
702.095	6250
702.214	7116
702.333	7252
702.452	6893
702.571	5694
702.690	6027
702.809	5563
702.928	5259
703.047	6242
703.165	6223
703.284	5969
703.403	6349
703.522	5945
703.640	5999
703.759	8127
703.878	10289
703.997	5612
704.115	5681
704.234	5463
704.353	5462
704.471	5157
704.590	4048
704.708	4907
704.827	5023
704.946	4830
705.064	5876
705.183	4679
705.301	5584
705.420	6759
705.538	7150
705.656	5768
705.775	6157
705.893	11875
706.012	12240
706.130	5359
706.249	6787
706.367	6227
706.485	6681
706.604	5472
706.722	6887
706.840	7923
706.958	6547
707.077	5243
707.195	5746
707.313	5322
707.431	5877
707.549	4913
707.668	4582
707.786	5969
707.904	5163
708.022	5188
708.140	5046
708.258	4469
708.376	5407
708.494	5040
708.612	6073
708.730	8179
708.848	6781
708.966	6928
709.084	6397
709.202	6432
709.320	6033
709.438	5777
709.556	6044
709.674	5465
709.791	6184
709.909	5780
710.027	5633
710.145	5918
710.263	6293
710.380	5563
710.498	5645
710.616	5555
710.733	5450
710.851	6117
710.969	6476
711.086	5817
711.204	5675
711.322	4755
711.439	6316
711.557	5928
711.674	5283
711.792	5542
711.909	5714
712.027	5505
712.144	5147
712.262	5365
712.379	6650
712.497	8399
712.614	7501
712.732	6385
712.849	6348
712.966	8231
713.084	9888
713.201	7027
713.318	7488
713.436	6589
713.553	6488
713.670	7082
713.787	8319
713.905	7314
714.022	6786
714.139	7680
714.256	10961
714.373	16089
714.490	30069
714.608	92799
714.725	401440
714.842	309814
714.959	20212
715.076	10255
715.193	8215
715.310	7476
715.427	6138
715.544	5985
715.661	7204
715.778	6342
715.895	6812
716.011	6496
716.128	5860
716.245	6013
716.362	9209
716.479	8201
716.596	5763
716.713	5860
716.829	4798
716.946	5418
717.063	4468
717.180	4735
717.296	4982
717.413	4968
717.530	5764
717.646	4496
717.763	5364
717.880	4609
717.996	4934
718.113	4701
718.229	5143
718.346	4989
718.462	5700
718.579	9659
718.695	18093
718.812	9044
718.928	7414
719.045	5010
719.161	3971
719.277	4454
719.394	5188
719.510	4634
719.626	6411
719.743	7684
719.859	11029
719.975	25549
720.092	115350
720.208	213661
720.324	18253
720.440	6952
720.557	7695
720.673	13684
720.789	14701
720.905	24742
721.021	6886
721.137	4193
721.253	4693
721.369	4697
721.486	6070
721.602	6742
721.718	4636
721.834	4071
721.950	4319
722.066	4210
722.181	3192
722.297	4771
722.413	3740
722.529	3665
722.645	4525
722.761	4031
722.877	3555
722.993	3989
723.108	5353
723.224	4252
723.340	4078
723.456	3464
723.571	3591
723.687	3711
723.803	3648
723.918	3702
724.034	3444
724.150	3384
724.265	4388
724.381	9100
724.497	9712
724.612	2657
724.728	2168
724.843	4223
724.959	4541
725.074	9300
725.190	8723
725.305	4046
725.421	3861
725.536	3113
725.651	3443
725.767	2800
725.882	2982
725.997	2566
726.113	3954
726.228	2104
726.343	2625
726.459	2876
726.574	2558
726.689	2757
726.804	3259
726.920	2585
727.035	2595
727.150	2946
727.265	2773
727.380	3262
727.495	4273
727.610	2849
727.725	2967
727.841	3292
727.956	7012
728.071	4687
728.186	3380
728.301	1742
728.416	2822
728.531	3108
728.645	2875
728.760	3017
728.875	4362
728.990	3289
729.105	3253
729.220	3641
729.335	2238
729.449	2800
729.564	3295
729.679	2032
729.794	2139
729.908	3548
730.023	2526
730.138	2597
730.253	2432
730.367	2512
730.482	2312
730.596	2641
730.711	2949
730.826	3045
730.940	2632
731.055	3511
731.169	2248
731.284	1934
731.398	1749
731.513	3129
731.627	3157
731.742	4136
731.856	4652
731.970	3818
732.085	5177
732.199	7203
732.313	14860
732.428	44240
732.542	130875
732.656	60037
732.771	9151
732.885	5097
732.999	4458
733.113	3994
733.227	4002
733.342	3644
733.456	2706
733.570	3115
733.684	3274
733.798	2927
733.912	2725
734.026	3074
734.140	2830
734.254	3684
734.368	5368
734.482	6338
734.596	2590
734.710	3362
734.824	1791
734.938	2132
735.052	2675
735.166	3338
735.280	3746
735.393	1663
735.507	3306
735.621	4154
735.735	7024
735.849	2839
735.962	3085
736.076	2234
736.190	3415
736.303	4370
736.417	4937
736.531	3361
736.644	3274
736.758	2692
736.872	2407
736.985	2513
737.099	2309
737.212	2273
737.326	3114
737.439	3091
737.553	2542
737.666	2390
737.780	1467
737.893	2261
738.007	2387
738.120	1983
738.233	2992
738.347	2378
738.460	2596
738.573	3405
738.687	3557
738.800	3098
738.913	4258
739.026	2707
739.140	2647
739.253	2018
739.366	1795
739.479	1602
739.592	1916
739.705	3161
739.818	2052
739.932	2375
740.045	3202
740.158	2185
740.271	2349
740.384	2184
740.497	3134
740.610	3023
740.723	3476
740.836	2624
740.949	3852
741.062	4110
741.174	3420
741.287	2099
741.400	2626
741.513	2969
741.626	3600
741.739	2423
741.851	2653
741.964	2052
742.077	2309
742.189	2949
742.302	4881
742.415	4010
742.527	2086
742.640	2408
742.753	2015
742.865	1465
742.978	1216
743.090	2741
743.203	2565
743.316	2039
743.428	1156
743.541	1629
743.653	1207
743.766	1774
743.878	2677
743.990	2888
744.103	4524
744.215	4526
744.327	2971
744.440	4055
744.552	6545
744.664	2481
744.777	1268
744.889	1668
745.001	2136
745.113	1488
745.226	1258
745.338	1326
745.450	1571
745.562	1235
745.674	2385
745.786	1172
745.898	1324
746.010	1447
746.122	1651
746.234	2299
746.347	1733
746.459	1342
746.570	1411
746.682	2778
746.794	6238
746.906	3080
747.018	1644
747.130	1337
747.242	2478
747.354	1156
747.466	1516
747.577	1333
747.689	2561
747.801	1253
747.913	1660
748.024	506
748.136	1128
748.248	770
748.359	1146
748.471	1873
748.583	694
748.694	812
748.806	1779
748.918	2110
749.029	1759
749.141	2520
749.252	2429
749.364	2332
749.475	7255
749.587	2916
749.698	1317
749.809	1541
749.921	1200
750.032	1228
750.144	754
750.255	174
750.366	64
750.478	1446
750.589	970
750.700	1959
750.811	2181
750.923	2404
751.034	8721
751.145	7491
751.256	1389
751.367	1351
751.479	1514
751.590	810
751.701	1510
751.812	882
751.923	878
752.034	742
752.145	1150
752.256	1659
752.367	1129
752.478	848
752.589	2070
752.700	699
752.811	595
752.922	859
753.032	1333
753.143	2196
753.254	600
753.365	975
753.476	1919
753.586	1283
753.697	1084
753.808	1155
753.919	1104
754.029	936
754.140	856
754.251	1745
754.361	449
754.472	573
754.582	835
754.693	1670
754.804	1154
754.914	1179
755.025	734
755.135	1105
755.246	578
755.356	560
755.466	1197
755.577	616
755.687	1078
755.798	747
755.908	996
756.018	238
756.129	308
756.239	893
756.349	726
756.460	1091
756.570	1250
756.680	822
756.790	326
756.900	1862
757.011	453
757.121	358
757.231	1186
757.341	1651
757.451	1029
757.561	-130
757.671	736
757.781	-177
757.891	1935
758.001	1009
758.111	1223
758.221	1475
758.331	2719
758.441	1847
758.551	3668
758.661	2148
758.771	1141
758.880	2102
758.990	996
759.100	1445
759.210	1468
759.320	1549
759.429	886
759.539	1065
759.649	1455
759.758	2265
759.868	2844
759.978	1543
760.087	3144
760.197	2557
760.307	1576
760.416	1914
760.526	1445
760.635	2059
760.745	2211
760.854	2543
760.964	2158
761.073	2660
761.182	2739
761.292	2285
761.401	2155
761.511	1189
761.620	1411
761.729	1634
761.839	1618
761.948	1828
762.057	1047
762.166	1510
762.276	-124
762.385	1753
762.494	1510
762.603	678
762.712	2510
762.822	1113
762.931	1339
763.040	828
763.149	490
763.258	1237
763.367	1736
763.476	662
763.585	1601
763.694	1408
763.803	1500
763.912	1227
764.021	2129
764.130	2080
764.238	1872
764.347	1764
764.456	1696
764.565	2001
764.674	1879
764.783	2105
764.891	1157
765.000	2317
765.109	2698
765.217	2384
765.326	4138
765.435	4349
765.543	5572
765.652	4871
765.761	7553
765.869	10635
765.978	17835
766.086	32879
766.195	67261
766.303	177233
766.412	411530
766.520	292789
766.629	85868
766.737	34690
766.846	19083
766.954	12408
767.062	11100
767.171	7940
767.279	6183
767.387	4867
767.496	3924
767.604	3040
767.712	3290
767.820	3312
767.928	2881
768.037	2436
768.145	2429
768.253	3082
768.361	2467
768.469	2409
768.577	2389
768.685	3475
768.793	2576
768.901	3717
769.009	3588
769.117	2713
769.225	5367
769.333	7233
769.441	12441
769.549	24238
769.657	62234
769.765	197954
769.873	312839
769.981	99610
770.088	25868
770.196	12639
770.304	8214
770.412	6471
770.519	4692
770.627	3880
770.735	3720
770.842	3791
770.950	2328
771.058	3083
771.165	3412
771.273	1825
771.380	2440
771.488	3018
771.595	2357
771.703	2284
771.810	2897
771.918	1840
772.025	2670
772.133	1768
772.240	2174
772.348	2367
772.455	2031
772.562	1799
772.670	1731
772.777	1948
772.884	2064
772.991	1301
773.099	1904
773.206	1076
773.313	1255
773.420	2260
773.528	834
773.635	1378
773.742	3266
773.849	1211
773.956	1887
774.063	1971
774.170	1868
774.277	2062
774.384	1029
774.491	1552
774.598	951
774.705	2104
774.812	2798
774.919	1730
775.026	2087
775.133	1460
775.239	1490
775.346	589
775.453	1311
775.560	1353
775.667	1517
775.773	1277
775.880	3205
775.987	138
776.093	2331
776.200	796
776.307	284
776.413	1818
776.520	1642
776.627	1286
776.733	1501
776.840	-203
776.946	3804
777.053	4652
777.159	11415
777.266	5826
777.372	9644
777.478	7673
777.585	4399
777.691	1575
777.798	1574
777.904	1946
778.010	3995
778.117	2215
778.223	1197
778.329	128
778.435	1383
778.542	970
778.648	437
778.754	-24
778.860	1579
778.966	981
779.072	664
779.178	670
779.284	1291
779.391	546
779.497	687
779.603	2525
779.708	-209
779.815	1871
779.920	2574
780.026	3718
780.132	832
780.238	520
780.344	189
780.450	1092
780.556	116
780.661	834
780.767	1515
780.873	622
780.979	1404
781.085	190
781.190	970
781.296	683
781.402	623
781.507	-22
781.613	799
781.719	369
781.824	912
781.930	1179
782.035	586
782.141	1075
782.246	116
782.352	1312
782.457	142
782.563	243
782.668	432
782.773	705
782.879	17
782.984	1000
783.090	1508
783.195	3785
783.300	1943
783.405	1008
783.511	1141
783.616	1698
783.721	-170
783.826	25
783.932	1851
784.037	865
784.142	601
784.247	729
784.352	1096
784.457	1316
784.562	-260
784.667	987
784.772	-186
784.877	88
784.982	979
785.087	160
785.192	1127
785.297	191
785.402	236
785.507	-567
785.611	370
785.716	561
785.821	465
785.926	558
786.031	843
786.135	1227
786.240	1588
786.345	-1052
786.450	1191
786.554	759
786.659	760
786.763	-986
786.868	1336
786.973	1010
787.077	539
787.182	73
787.286	485
787.391	783
787.495	74
787.600	-123
787.704	385
787.809	175
787.913	268
788.017	406
788.122	441
788.226	345
788.330	255
788.435	499
788.539	247
788.643	-20
788.747	-401
788.852	498
788.956	-325
789.060	854
789.164	-94
789.268	-441
789.372	1030
789.476	350
789.580	-152
789.684	-853
789.788	850
789.892	-373
789.996	445
790.100	-158
790.204	674
790.308	-778
790.412	-175
790.516	-52
790.620	408
790.724	5
790.828	19
790.931	68
791.035	1189
791.139	-40
791.242	-238
791.346	1212
791.450	709
791.554	-547
791.657	-795
791.761	1073
791.864	966
791.968	328
792.072	467
792.175	468
792.279	-203
792.382	-69
792.486	-296
792.589	296
792.693	508
792.796	-533
792.899	887
793.003	371
793.106	-998
793.209	-17
793.313	1323
793.416	-1070
793.519	1883
793.623	2698
793.726	2690
793.829	544
793.932	728
794.035	-919
794.138	1576
794.242	516
794.345	303
794.448	1067
794.551	1602
794.654	3179
794.757	3425
794.860	1132
794.963	488
795.066	386
795.169	834
795.272	-282
795.375	812
795.477	-139
795.580	81
795.683	-491
795.786	555
795.889	-1054
795.991	1461
796.094	1408
796.197	-1043
796.300	948
796.402	-525
796.505	-455
796.608	-811
796.710	12
796.813	-7
796.915	-201
797.018	303
797.120	419
797.223	-388
797.326	1232
797.428	-7
797.530	245
797.633	613
797.735	1164
797.838	654
797.940	626
798.042	-377
798.145	-662
798.247	741
798.349	-768
798.452	314
798.554	-150
798.656	-430
798.758	643
798.860	-706
798.962	8
799.065	239
799.167	-1079
799.269	1808
799.371	163
799.473	654
799.575	-36
799.677	669
799.779	2282
799.881	590
799.983	986
800.085	478
800.187	680
800.289	-676
800.390	-343
800.492	380
800.594	1304
800.696	41
800.798	-50
800.899	-53
801.001	-1264
801.103	-119
801.205	-215
801.306	23
801.408	-700
801.509	-55
801.611	-499
801.713	-184
801.814	-379
801.916	245
802.017	277
802.119	-1677
802.220	-338
802.322	-1135
802.423	915
802.525	-1063
802.626	414
802.727	137
802.829	-15
802.930	-2771
803.031	1649
803.133	-488
803.234	-736
803.335	-240
803.436	-1639
803.538	520
803.639	-254
803.740	663
803.841	-689
803.942	297
804.043	417
804.144	-1085
804.245	-220
804.346	-1143
804.447	-254
804.548	2087
804.649	1825
804.750	-542
804.851	160
804.952	-807
805.053	371
805.154	-500
805.255	185
805.355	0
805.456	-468
805.557	-752
805.658	-1056
805.758	43
805.859	-353
805.960	-389
806.061	-412
806.161	-456
806.262	173
806.362	17
806.463	-552
806.564	391
806.664	-616
806.765	-114
806.865	463
806.966	-1181
807.066	-896
807.166	33
807.267	782
807.367	-133
807.468	171
807.568	-1894
807.668	-307
807.769	428
807.869	-1091
807.969	-90
808.069	-626
808.170	-686
808.270	-240
808.370	-82
808.470	1395
808.570	-264
808.670	769
808.770	469
808.870	68
808.970	-95
809.070	-599
809.170	-392
809.271	-373
809.370	-669
809.470	320
809.570	-296
809.670	-341
809.770	73
809.870	371
809.970	-674
810.070	-104
810.169	70
810.269	-1295
810.369	386
810.469	-493
810.568	31
810.668	-352
810.768	-779
810.867	54
810.967	-739
811.066	-849
811.166	-247
811.265	1059
811.365	-1487
811.464	-527
811.564	581
811.663	157
811.763	-1884
811.862	77
811.962	48
812.061	-672
812.160	-1176
812.260	4
812.359	-278
812.458	-260
812.557	-59
812.657	-94
812.756	-723
812.855	-383
812.954	-937
813.053	512
813.153	314
813.252	-1315
813.351	-338
813.450	-25
813.549	-1041
813.648	-219
813.747	-811
813.846	109
813.945	-578
814.044	-265
814.143	-338
814.242	77
814.341	-1342
814.439	-605
814.538	-193
814.637	-675
814.736	-488
814.835	-19
814.933	-808
815.032	-491
815.131	64
815.229	370
815.328	656
815.427	263
815.525	677
815.624	-278
815.722	17
815.821	74
815.919	-753
816.018	-405
816.116	664
816.215	247
816.313	502
816.412	10
816.510	902
816.609	1720
816.707	537
816.805	214
816.904	218
817.002	373
817.100	1124
817.198	1478
817.296	68
817.395	995
817.493	1604
817.591	1308
817.689	2496
817.787	1937
817.885	5409
817.983	9310
818.081	20682
818.179	53263
818.277	128795
818.375	86157
818.473	21204
818.571	8569
818.669	6114
818.767	5425
818.865	5468
818.963	6113
819.061	10429
819.158	18285
819.256	44549
819.354	110931
819.452	226694
819.549	113894
819.647	27683
819.745	10049
819.842	7490
819.940	5132
820.038	3240
820.135	2399
820.233	2902
820.330	1281
820.428	976
820.525	2326
820.623	1324
820.720	417
820.818	952
820.915	1144
821.012	1730
821.110	-416
821.207	1079
821.304	530
821.402	1567
821.499	3003
821.596	4526
821.693	1834
821.791	1959
821.888	1858
821.985	5093
822.082	2550
822.179	1390
822.276	1842
822.373	757
822.470	654
822.567	634
822.664	-109
822.761	866
822.858	-292
822.955	1177
823.052	257
823.149	-446
823.246	227
823.343	-1026
823.440	535
823.536	212
823.633	-133
823.730	97
823.827	292
823.923	599
824.020	341
824.117	690
824.213	680
824.310	661
824.407	260
824.503	122
824.600	329
824.696	-119
824.793	1219
824.889	-711
824.986	11
825.082	-429
825.179	1186
825.275	-257
825.371	-1031
825.468	232
825.564	-626
825.660	482
825.757	-434
825.853	837
825.949	-1007
826.045	329
826.142	-579
826.238	457
826.334	806
826.430	-791
826.526	-183
826.622	669
826.718	633
826.814	-436
826.910	376
827.006	-867
827.102	-1113
827.198	331
827.294	-500
827.390	77
827.486	-323
827.582	-1091
827.678	-802
827.774	-110
827.869	-1145
827.965	1588
828.061	-1074
828.157	302
828.252	-703
828.348	-477
828.444	-34
828.539	-1783
828.635	-39
828.731	428
828.826	-237
828.922	760
829.017	94
829.113	877
829.208	-642
829.304	-718
829.399	1284
829.495	277
829.590	287
829.685	-778
829.781	-220
829.876	594
829.971	-767
830.066	-379
830.162	-27
830.257	-294
830.352	-464
830.447	282
830.543	-67
830.638	-469
830.733	493
830.828	-493
830.923	159
831.018	444
831.113	481
831.208	-277
831.303	7
831.398	-677
831.493	-250
831.588	606
831.683	-1332
831.778	-855
831.873	-230
831.967	1712
832.062	-516
832.157	-456
832.252	642
832.346	-56
832.441	104
832.536	1402
832.631	2810
832.725	2160
832.820	-560
832.914	59
833.009	-209
833.104	-300
833.198	1485
833.293	-147
833.387	34
833.482	463
833.576	-666
833.670	-284
833.765	-1066
833.859	-380
833.954	389
834.048	37
834.142	238
834.237	-643
834.331	-241
834.425	-49
834.519	-1033
834.613	665
834.708	-975
834.802	-569
834.896	-1283
834.990	-30
835.084	-212
835.178	-343
835.272	-693
835.366	-649
835.460	-283
835.554	-59
835.648	-1200
835.742	-875
835.836	264
835.930	-1243
836.024	268
836.117	-56
836.211	-1429
836.305	159
836.399	505
836.493	-824
836.586	271
836.680	-461
836.774	-1215
836.867	369
836.961	-1335
837.055	-1040
837.148	-774
837.242	71
837.335	-820
837.429	-1104
837.522	-1383
837.616	-415
837.709	602
837.803	-529
837.896	-562
837.989	-1232
838.083	492
838.176	989
838.269	313
838.363	426
838.456	-42
838.549	1068
838.642	917
838.735	4299
838.829	1156
838.922	-273
839.015	-941
839.108	-1312
839.201	176
839.294	-81
839.387	95
839.480	-721
839.573	-583
839.666	-758
839.759	-597
839.852	-651
839.945	-274
840.038	-935
840.131	-472
840.223	-626
840.316	-262
840.409	-1397
840.502	-1160
840.594	232
840.687	-1702
840.780	-446
840.873	-435
840.965	-693
841.058	827
841.150	1235
841.243	-112
841.336	-155
841.428	-514
841.521	-842
841.613	-929
841.706	388
841.798	-275
841.890	-283
841.983	-1461
842.075	239
842.167	-638
842.260	1077
842.352	310
842.444	-622
842.537	1657
842.629	2189
842.721	-170
842.813	-229
842.905	-1240
842.997	-174
843.090	-246
843.182	-471
843.274	544
843.366	4821
843.458	7168
843.550	4135
843.642	197
843.734	-675
843.826	-516
843.918	377
844.009	8
844.101	-361
844.193	-750
844.285	-355
844.377	528
844.469	1385
844.560	1423
844.652	2282
844.744	69
844.835	-161
844.927	-494
845.019	73
845.110	-238
845.202	160
845.293	-1025
845.385	-958
845.476	-788
845.568	-588
845.659	-685
845.751	-164
845.842	-536
845.934	-1433
846.025	-884
846.116	-576
846.208	-662
846.299	-408
846.390	-492
846.482	-620
846.573	-189
846.664	941
846.755	715
846.846	855
846.937	-1225
847.029	-917
847.120	-506
847.211	-929
847.302	149
847.393	-735
847.484	-173
847.575	-1156
847.666	-684
847.757	-655
847.847	-737
847.938	801
848.029	-647
848.120	-865
848.211	-676
848.302	-1259
848.392	-535
848.483	-481
848.574	-614
848.664	-902
848.755	-2
848.846	-803
848.936	-521
849.027	-479
849.118	300
849.208	-271
849.299	1315
849.389	2928
849.480	6935
849.570	16916
849.661	33836
849.751	53223
849.841	14954
849.932	1386
850.022	-345
850.112	-137
850.203	-100
850.293	-505
850.383	-249
850.474	-1544
850.564	-428
850.654	-138
850.744	-88
850.834	-838
850.924	76
851.014	-38
851.104	-760
851.194	281
851.284	283
851.374	-343
851.464	-931
851.554	-298
851.644	259
851.734	609
851.824	-73
851.914	-969
852.004	95
852.094	-642
852.183	-1115
852.273	71
852.363	43
852.452	-315
852.542	-352
852.632	-896
852.721	-525
852.811	-819
852.901	-463
852.990	207
853.080	-99
853.169	332
853.259	918
853.348	466
853.438	2077
853.527	2206
853.617	4519
853.706	10925
853.795	21388
853.885	49337
853.974	93295
854.063	177802
854.152	247709
854.242	79535
854.331	13354
854.420	5371
854.509	3376
854.598	3224
854.687	1459
854.777	790
854.866	1848
854.955	613
855.044	589
855.133	308
855.222	208
855.311	-652
855.400	-176
855.488	151
855.577	-604
855.666	281
855.755	343
855.844	355
855.933	-735
856.021	-501
856.110	-287
856.199	-459
856.288	-769
856.376	-131
856.465	-1094
856.554	451
856.642	-915
856.731	-95
856.819	49
856.908	-731
856.996	-190
857.085	-417
857.173	-668
857.262	-350
857.350	-73
857.438	-830
857.527	-549
857.615	-472
857.703	-431
857.792	-666
857.880	-81
857.968	-1195
858.056	-859
858.145	33
858.233	-29
858.321	-507
858.409	-202
858.497	-1677
858.585	-541
858.673	-380
858.761	-1569
858.849	-1235
858.937	-824
859.025	-177
859.113	276
859.201	-407
859.289	515
859.377	-541
859.465	-472
859.552	-890
859.640	-314
859.728	-582
859.816	-508
859.903	-169
859.991	-1190
860.079	-681
860.166	-295
860.254	-609
860.342	-192
860.429	-1463
860.517	-925
860.604	-147
860.692	-561
860.779	-381
860.867	-527
860.954	-129
861.042	136
861.129	272
861.216	77
861.304	-1030
861.391	-868
861.478	-136
861.565	224
861.653	-55
861.740	-985
861.827	-564
861.914	-245
862.001	-1132
862.089	-753
862.176	-458
862.263	-698
862.350	-59
862.437	-509
862.524	-1164
862.611	-311
862.698	-783
862.785	79
862.871	843
862.958	-664
863.045	-898
863.132	317
863.219	-421
863.306	-1079
863.392	-36
863.479	-7
863.566	-900
863.652	134
863.739	-1009
863.826	177
863.912	334
863.999	-444
864.086	-610
864.172	-1001
864.259	-717
864.345	-510
864.432	-739
864.518	-507
864.604	263
864.691	-276
864.777	-271
864.863	506
864.950	1340
865.036	617
865.122	1380
865.209	2076
865.295	1582
865.381	1113
865.467	1948
865.553	3887
865.639	5211
865.726	10840
865.812	24713
865.898	47942
865.984	70110
866.070	138878
866.156	131028
866.242	29915
866.328	6507
866.414	2373
866.499	2410
866.585	2374
866.671	1683
866.757	1702
866.843	1235
866.928	281
867.014	-255
867.100	1345
867.186	1092
867.271	812
867.357	949
867.442	1060
867.528	953
867.614	611
867.699	1345
867.785	1808
867.870	2417
867.956	3856
868.041	3053
868.127	1076
868.212	3000
868.297	2022
868.383	1610
868.468	2318
868.553	2291
868.639	2745
868.724	6472
868.809	4251
868.894	424
868.979	759
869.065	300
869.150	16
869.235	-107
869.320	-619
869.405	868
869.490	71
869.575	-240
869.660	46
869.745	495
869.830	186
869.915	272
870.000	684
870.085	559
870.169	770
870.254	979
870.339	-305
870.424	252
870.509	282
870.593	-59
870.678	239
870.763	628
870.847	696
870.932	1024
871.016	95
871.101	71
871.186	520
871.270	-395
871.355	-61
871.439	-80
871.523	17
871.608	-547
871.692	-39
871.777	1363
871.861	708
871.945	672
872.030	393
872.114	-86
872.198	-699
872.282	-35
872.367	-228
872.451	319
872.535	-226
872.619	47
872.703	-60
872.787	-118
872.871	-552
872.955	-1050
873.039	-705
873.123	113
873.207	437
873.291	355
873.375	5
873.459	-425
873.543	-286
873.627	51
873.711	574
873.794	1300
873.878	-651
873.962	-123
874.045	414
874.129	-75
874.137	-76
874.213	-90
874.245	-24
874.296	84
874.352	-404
874.380	-646
874.460	327
874.464	366
874.547	215
874.568	-1
874.631	-645
874.676	-256
874.714	75
874.784	351
874.798	398
874.881	449
874.892	379
874.965	-39
874.999	-66
875.048	-149
875.107	-162
875.131	-165
875.215	-452
875.215	-452
875.298	-10
875.323	-28
875.381	-47
875.430	-36
875.465	-31
875.538	-248
875.548	-281
875.631	83
875.646	-52
875.714	-810
875.753	-206
875.798	598
875.861	40
875.881	-179
875.964	282
875.968	234
876.047	-482
876.076	-281
876.130	63
876.183	179
876.213	277
876.291	524
876.296	532
876.379	-38
876.398	-12
876.462	72
876.506	-432
876.545	-902
876.613	374
876.628	701
876.711	149
876.721	165
876.794	6
876.828	185
876.877	531
876.935	440
876.960	384
877.043	369
877.043	370
877.125	1044
877.150	1096
877.208	1075
877.258	197
877.291	-279
877.365	280
877.374	305
877.456	1022
877.472	915
877.539	619
877.579	326
877.622	193
877.687	222
877.704	135
877.787	577
877.794	545
877.869	347
877.901	362
877.952	447
878.008	614
878.034	614
878.115	175
878.117	174
878.199	624
878.222	803
878.282	1115
878.329	1291
878.364	1477
878.437	1061
878.447	961
878.529	-15
878.544	-51
878.611	116
878.651	137
878.694	167
878.758	525
878.776	615
878.858	718
878.865	707
878.941	441
878.972	475
879.023	484
879.078	590
879.105	804
879.185	876
879.187	876
879.269	966
879.292	942
879.351	508
879.399	59
879.433	-34
879.506	1000
879.516	1115
879.598	117
879.613	227
879.680	672
879.720	382
879.762	203
879.827	-133
879.844	-201
879.926	862
879.933	878
880.007	657
880.040	566
880.089	890
880.147	1987
880.171	2286
880.253	3561
880.254	3566
880.335	5104
880.360	5717
880.417	8272
880.467	12179
880.499	15399
880.574	19428
880.580	18947
880.662	6393
880.680	4701
880.744	2324
880.787	1028
880.825	553
880.893	474
880.907	506
880.989	406
881.000	443
881.070	901
881.106	865
881.152	527
881.213	295
881.233	223
881.315	54
881.319	35
881.396	649
881.426	815
881.478	706
881.532	897
881.559	959
881.639	682
881.641	676
881.722	325
881.745	277
881.803	794
881.852	1106
881.885	983
881.958	1326
881.966	1370
882.047	1003
882.064	993
882.129	1274
882.171	1415
882.210	1994
882.277	2984
882.291	2951
882.372	2315
882.383	2196
882.454	1091
882.489	843
882.535	953
882.596	726
882.616	673
882.697	846
882.702	838
882.778	597
882.808	579
882.859	736
882.914	590
882.940	509
883.020	724
883.021	733
883.102	1113
883.127	1245
883.183	1006
883.233	682
883.264	579
883.339	241
883.345	207
883.426	-39
883.445	-161
883.507	255
883.551	760
883.587	1078
883.657	1681
883.668	1677
883.749	1191
883.763	1172
883.830	1106
883.869	826
883.910	666
883.975	648
883.991	701
884.072	1071
884.081	1050
884.152	1186
884.187	1433
884.233	1426
884.292	1465
884.314	1448
884.394	923
884.398	901
884.475	630
884.504	656
884.555	858
884.610	715
884.636	881
884.716	1317
884.716	1323
884.797	1387
884.821	1342
884.877	1353
884.927	1251
884.958	1054
885.033	657
885.038	641
885.118	351
885.139	229
885.199	593
885.244	921
885.279	957
885.350	1123
885.359	1199
885.439	1733
885.456	1809
885.520	1382
885.561	1091
885.600	1000
885.667	995
885.680	1037
885.760	1205
885.773	1238
885.840	1325
885.878	1260
885.920	1180
885.984	937
886.000	930
886.080	1241
886.089	1263
886.160	1418
886.195	1411
886.240	1381
886.300	1452
886.320	1450
886.400	1249
886.406	1236
886.480	1195
886.511	1186
886.560	1527
886.616	1607
886.640	1444
886.720	1357
886.722	1345
886.800	1169
886.827	1090
886.879	1227
886.932	1283
886.959	1287
887.038	1308
887.039	1315
887.119	1304
887.143	1286
887.198	1239
887.248	1170
887.278	1193
887.354	1320
887.358	1319
887.437	1010
887.459	963
887.517	1684
887.564	2108
887.596	1608
887.669	599
887.676	587
887.755	518
887.774	435
887.835	253
887.880	174
887.914	459
887.985	982
887.994	999
888.073	1232
888.090	1242
888.153	1399
888.195	1489
888.232	1149
888.300	573
888.311	628
888.391	972
888.405	1026
888.470	771
888.510	576
888.549	647
888.615	893
888.628	996
888.708	1456
888.720	1524
888.787	1339
888.825	1252
888.866	1245
888.930	1197
888.945	1145
889.024	841
889.035	799
889.103	1284
889.140	1502
889.182	1332
889.245	1151
889.261	1284
889.340	1849
889.349	1909
889.419	1206
889.454	837
889.498	798
889.559	757
889.577	972
889.656	1901
889.664	1989
889.735	1405
889.768	1120
889.814	1397
889.873	1758
889.978	1299
890.083	1947
890.187	1298
890.292	1602
890.397	1556
890.501	1143
890.606	1314
890.710	1569
890.815	1732
890.919	1901
891.024	723
891.128	2037
891.233	965
891.337	2483
891.442	1538
891.546	645
891.650	314
891.755	1139
891.859	2313
891.963	2030
892.068	1371
892.172	2174
892.276	588
892.380	1909
892.484	906
892.589	1566
892.693	1363
892.797	1208
892.901	1086
893.005	822
893.109	805
893.213	2976
893.317	1332
893.421	1178
893.525	1206
893.629	1409
893.733	1677
893.837	921
893.941	1095
894.045	1622
894.148	376
894.252	1083
894.356	770
894.460	2164
894.564	980
894.667	749
894.771	650
894.875	1351
894.978	-92
895.082	807
895.186	1328
895.289	2592
895.393	65
895.496	1299
895.600	282
895.703	828
895.807	1030
895.910	1458
896.014	1519
896.117	986
896.221	1382
896.324	1372
896.427	1253
896.531	617
896.634	824
896.737	983
896.840	1217
896.944	1160
897.047	1334
897.150	600
897.253	153
897.356	920
897.460	455
897.563	913
897.666	730
897.769	1554
897.872	680
897.975	1504
898.078	185
898.181	599
898.284	-191
898.387	1345
898.490	1644
898.593	850
898.695	369
898.798	584
898.901	1608
899.004	1343
899.107	474
899.209	1353
899.312	1471
899.415	1368
899.518	225
899.620	1069
899.723	525
899.826	2387
899.928	3388
900.031	972
900.133	707
900.236	661
900.338	-5
900.441	832
900.543	299
900.646	917
900.748	699
900.851	1234
900.953	418
901.055	881
901.158	414
901.260	1257
901.362	30
901.465	1142
901.567	980
901.669	2035
901.771	300
901.873	541
901.976	1033
902.078	1965
902.180	757
902.282	1244
902.384	454
902.486	1096
902.588	735
902.690	1472
902.792	438
902.894	513
902.996	-29
903.098	1290
903.200	133
903.302	801
903.404	934
903.505	1194
903.607	375
903.709	1501
903.811	1093
903.913	1026
904.014	94
904.116	522
904.218	1180
904.319	1362
904.421	1398
904.523	982
904.624	461
904.726	1072
904.827	1067
904.929	653
905.030	2
905.132	1383
905.233	539
905.335	675
905.436	254
905.537	615
905.639	-134
905.740	794
905.841	1040
905.943	1976
906.044	647
906.145	1140
906.247	477
906.348	1150
906.449	1098
906.550	859
906.651	580
906.752	1487
906.854	-721
906.955	257
907.056	675
907.157	1135
907.258	894
907.359	1085
907.460	552
907.561	738
907.662	653
907.762	237
907.863	1339
907.964	1141
908.065	861
908.166	1177
908.267	561
908.367	729
908.468	1081
908.569	490
908.670	1444
908.770	2381
908.871	1676
908.971	1842
909.072	1988
909.173	880
909.273	1062
909.374	1091
909.474	691
909.575	709
909.675	539
909.776	547
909.876	664
909.977	938
910.077	177
910.177	1061
910.278	1538
910.378	231
910.478	1020
910.579	1463
910.679	170
910.779	1842
910.879	1023
910.980	1677
911.080	502
911.180	1157
911.280	429
911.380	363
911.480	934
911.580	582
911.680	1703
911.780	1354
911.880	996
911.980	627
912.080	799
912.180	870
912.280	746
912.380	1114
912.480	410
912.580	709
912.679	361
912.779	2022
912.879	497
912.979	1513
913.078	140
913.178	-208
913.278	-38
913.377	857
913.477	1244
913.577	578
913.676	1249
913.776	1008
913.875	534
913.975	1161
914.074	-324
914.174	313
914.273	-287
914.373	1103
914.472	1421
914.572	478
914.671	1020
914.770	864
914.870	91
914.969	773
915.068	948
915.167	343
915.267	148
915.366	1824
915.465	567
915.564	582
915.663	698
915.763	1101
915.862	1562
915.961	1209
916.060	92
916.159	1181
916.258	390
916.357	550
916.456	1042
916.555	1404
916.654	714
916.752	690
916.851	861
916.950	164
917.049	737
917.148	860
917.247	978
917.345	1041
917.444	81
917.543	871
917.642	424
917.740	1371
917.839	990
917.937	2081
918.036	812
918.135	636
918.233	541
918.332	446
918.430	433
918.529	967
918.627	979
918.726	1369
918.824	1200
918.923	-61
919.021	635
919.119	897
919.218	161
919.316	840
919.414	100
919.512	1203
919.611	479
919.709	2108
919.807	1075
919.905	1453
920.003	1511
920.102	1126
920.200	795
920.298	1531
920.396	1344
920.494	1269
920.592	-87
920.690	1813
920.788	749
920.886	955
920.984	1795
921.082	1119
921.180	1920
921.277	1814
921.375	600
921.473	2104
921.571	1893
921.669	1691
921.766	1371
921.864	2591
921.962	1548
922.060	2635
922.157	1297
922.255	1698
922.352	1270
922.450	2461
922.548	2302
922.645	2395
922.743	3076
922.840	4256
922.938	4028
923.035	4543
923.133	4496
923.230	4523
923.327	5951
923.425	4564
923.522	5077
923.619	4431
923.717	4285
923.814	4176
923.911	4801
924.008	5625
924.106	3335
924.203	3477
924.300	4234
924.397	4545
924.494	4639
924.591	5255
924.688	4640
924.786	3714
924.883	4299
924.979	4601
925.077	3333
925.173	4518
925.270	4254
925.367	3784
925.464	4590
925.561	4177
925.658	5410
925.755	5283
925.852	5147
925.948	5050
926.045	4100
926.142	4223
926.239	3539
926.335	4007
926.432	3963
926.529	4533
926.625	4518
926.722	3340
926.818	3461
926.915	4670
927.011	3722
927.108	3834
927.204	3879
927.301	3298
927.397	4629
927.494	4378
927.590	2158
927.687	3826
927.783	4768
927.879	3372
927.976	2836
928.072	2593
928.168	3673
928.264	3593
928.361	3531
928.457	3848
928.553	3194
928.649	3995
928.745	2611
928.841	2986
928.937	3502
929.033	3743
929.129	3356
929.225	3096
929.321	2781
929.417	2803
929.513	3127
929.609	2102
929.705	2122
929.801	4294
929.897	2606
929.993	2949
930.089	3672
930.184	3202
930.280	3285
930.376	4272
930.471	2994
930.567	3748
930.663	3131
930.758	2887
930.854	2181
930.950	3225
931.045	2713
931.141	3789
931.236	3468
931.332	3491
931.427	2372
931.523	3160
931.618	2187
931.714	1876
931.809	2569
931.905	3908
932.000	2088
932.095	3294
932.191	2614
932.286	3681
932.381	3062
932.476	2365
932.572	3214
932.667	2974
932.762	2013
932.857	2926
932.952	2171
933.047	2969
933.142	1690
933.237	2461
933.332	2885
933.427	3787
933.522	3055
933.617	2545
933.712	2174
933.807	2833
933.902	2749
933.997	2898
934.092	1996
934.187	3150
934.282	3164
934.376	2876
934.471	2658
934.566	2896
934.661	2075
934.755	3091
934.850	3414
934.945	2951
935.039	2059
935.134	2109
935.228	2686
935.323	3869
935.417	2206
935.512	1594
935.606	1158
935.701	3095
935.795	2337
935.890	2711
935.984	2134
936.079	1657
936.173	2203
936.267	2236
936.362	1830
936.456	2395
936.550	2360
936.644	2803
936.738	1915
936.833	2356
936.927	2876
937.021	1641
937.115	1946
937.209	1276
937.303	2329
937.397	1477
937.491	1805
937.585	2501
937.679	1541
937.773	1650
937.867	1171
937.961	2042
938.055	1941
938.149	3235
938.243	1404
938.337	1607
938.430	1779
938.524	2819
938.618	2218
938.712	1386
938.805	1710
938.899	2655
938.993	2111
939.086	1711
939.180	1668
939.274	2467
939.367	2734
939.461	2234
939.554	2279
939.648	1959
939.741	2054
939.835	2268
939.928	3518
940.022	2808
940.115	1969
940.208	2541
940.302	3016
940.395	2463
940.488	884
940.582	2002
940.675	1335
940.768	2084
940.861	1267
940.954	2788
941.048	1411
941.141	1336
941.234	2177
941.327	2845
941.420	3445
941.513	2703
941.606	1694
941.699	3000
941.792	2792
941.885	2488
941.978	2149
942.071	2051
942.164	1051
942.257	2266
942.349	1664
942.442	2167
942.535	1309
942.628	2013
942.721	1868
942.813	289
942.906	1945
942.999	2126
943.091	623
943.184	1446
943.277	1213
943.369	2099
943.462	979
943.554	1961
943.647	1543
943.739	2450
943.832	1905
943.924	1413
944.017	1011
944.109	1004
944.201	1515
944.294	1550
944.386	1437
944.478	1569
944.571	1757
944.663	1746
944.755	1393
944.847	1827
944.940	1382
945.032	207
945.124	804
945.216	2446
945.308	1635
945.400	1781
945.492	1017
945.584	1753
945.676	1168
945.768	2380
945.860	1474
945.952	2223
946.044	2053
946.136	1146
946.228	966
946.320	998
946.412	1333
946.503	2043
946.595	2029
946.687	1858
946.779	1252
946.870	2093
946.962	1750
947.054	1661
947.145	1819
947.237	2273
947.329	620
947.420	676
947.512	303
947.603	1823
947.695	833
947.786	-40
947.878	935
947.969	1634
948.061	571
948.152	1563
948.243	1323
948.335	1226
948.426	1337
948.517	1618
948.609	1801
948.700	1748
948.791	391
948.882	1061
948.973	912
949.065	1704
949.156	1910
949.247	246
949.338	1561
949.429	540
949.520	158
949.611	730
949.702	2015
949.793	1212
949.884	514
949.975	1204
950.066	75
950.157	857
950.247	647
950.338	944
950.429	796
950.520	1426
950.611	783
950.701	1452
950.792	629
950.883	1495
950.973	1390
951.064	1142
951.155	955
951.245	1749
951.336	497
951.427	1435
951.517	2026
951.608	1468
951.698	821
951.788	959
951.879	496
951.969	976
952.060	1135
952.150	852
952.240	1759
952.331	-598
952.421	757
952.511	846
952.602	1131
952.692	1347
952.782	43
952.872	1289
952.962	576
953.052	866
953.143	298
953.233	1424
953.323	1157
953.413	1039
953.503	677
953.593	1492
953.683	752
953.773	490
953.863	244
953.953	482
954.042	1080
954.132	963
954.222	627
954.312	912
954.402	1411
954.492	1330
954.581	2345
954.671	1309
954.761	789
954.850	1939
954.940	739
955.030	378
955.119	1039
955.209	675
955.298	27
955.388	1200
955.477	1405
955.567	886
955.656	1047
955.746	1124
955.835	544
955.925	971
956.014	-288
956.103	1196
956.193	1077
956.282	1051
956.371	946
956.461	560
956.550	429
956.639	847
956.728	1033
956.817	1443
956.906	1110
956.995	1590
957.085	308
957.174	1527
957.263	445
957.352	1088
957.441	978
957.530	1364
957.619	809
957.708	1022
957.796	488
957.885	207
957.974	270
958.063	1371
958.152	-82
958.241	2174
958.329	510
958.418	-46
958.507	562
958.596	1838
958.684	65
958.773	1423
958.861	95
958.950	1000
959.039	259
959.127	1182
959.216	1547
959.304	807
959.393	467
959.481	1006
959.570	251
959.658	-235
959.746	840
959.835	1841
959.923	2606
960.011	2060
960.100	703
960.188	1215
960.276	421
960.365	867
960.453	330
960.541	135
960.629	1293
960.717	622
960.805	-251
960.893	1078
960.981	208
961.069	1880
961.158	1015
961.245	2059
961.333	757
961.421	466
961.509	286
961.597	709
961.685	324
961.773	-263
961.861	579
961.949	1531
962.036	370
962.124	720
962.212	575
962.299	757
962.387	529
962.475	269
962.562	-496
962.650	1529
962.738	1540
962.825	-304
962.913	200
963.000	1468
963.088	731
963.175	876
963.263	423
963.350	524
963.438	745
963.525	1555
963.612	2590
963.700	5370
963.787	15226
963.874	6502
963.962	559
964.049	1210
964.136	340
964.223	14
964.310	139
964.398	897
964.485	287
964.572	1419
964.659	2121
964.746	2407
964.833	545
964.920	773
965.007	257
965.094	449
965.181	-773
965.268	1044
965.355	547
965.441	433
965.528	-472
965.615	1578
965.702	-613
965.789	115
965.875	45
965.962	659
966.049	258
966.136	776
966.222	689
966.309	1970
966.395	487
966.482	627
966.569	302
966.655	647
966.742	128
966.828	479
966.915	-14
967.001	785
967.087	-432
967.174	1098
967.260	1284
967.347	1991
967.433	3732
967.519	10320
967.605	2730
967.692	678
967.778	65
967.864	211
967.950	381
968.036	-222
968.123	1036
968.209	19
968.295	-611
968.381	1811
968.467	672
968.553	121
968.639	1547
968.725	730
968.811	3269
968.897	2792
968.983	-259
969.069	41
969.154	-77
969.240	624
969.326	-210
969.412	215
969.497	-575
969.583	357
969.669	587
969.755	82
969.840	447
969.926	1124
970.012	965
970.097	3231
970.183	2249
970.268	1040
970.354	1455
970.439	2217
970.525	7030
970.610	2155
970.696	624
970.781	-140
970.866	-587
970.952	-33
971.037	21
971.122	-302
971.208	-27
971.293	115
971.378	-1315
971.463	506
971.549	646
971.634	1166
971.719	766
971.804	684
971.889	711
971.974	35
972.059	83
972.144	592
972.229	682
972.314	177
972.399	-294
972.484	-237
972.569	551
972.654	-333
972.739	3334
972.824	3148
972.908	-653
972.993	796
973.078	-36
973.163	189
973.247	219
973.332	-1428
973.417	1419
973.501	-376
973.586	-452
973.671	513
973.755	-127
973.840	1274
973.924	825
974.009	914
974.093	285
974.178	2213
974.262	2070
974.346	3214
974.431	560
974.515	-516
974.600	111
974.684	916
974.768	-124
974.852	441
974.937	-852
975.021	1049
975.105	549
975.189	-195
975.273	796
975.358	-256
975.442	-1286
975.526	1321
975.610	-397
975.694	-473
975.778	734
975.862	176
975.946	-1917
976.030	1197
976.114	-544
976.198	-84
976.281	-669
976.365	643
976.449	-505
976.533	471
976.617	-1384
976.700	555
976.784	192
976.868	-508
976.951	902
977.035	368
977.119	449
977.202	1238
977.286	13
977.369	354
977.453	1103
977.536	1096
977.620	293
977.703	852
977.787	-796
977.870	1324
977.953	926
978.037	-188
978.120	540
978.203	942
978.287	2847
978.370	1793
978.453	275
978.536	423
978.620	1589
978.703	2197
978.786	613
978.869	27
978.952	-567
979.035	1001
979.118	-211
979.201	-880
979.284	313
979.367	-1250
979.450	727
979.533	70
979.616	354
979.699	264
979.782	292
979.865	495
979.948	-192
980.030	481
980.113	443
980.196	88
980.279	1445
980.361	-61
980.444	-1014
980.526	827
980.609	390
980.692	1067
980.774	468
980.857	-39
980.939	1244
981.022	-836
981.104	158
981.187	408
981.269	819
981.352	-230
981.434	-774
981.516	214
981.599	790
981.681	318
981.763	760
981.846	884
981.928	442
982.010	-291
982.092	590
982.174	1029
982.256	400
982.339	-31
982.421	643
982.503	26
982.585	-529
982.667	780
982.749	343
982.831	487
982.913	-663
982.995	1765
983.077	-781
983.158	1927
983.240	-774
983.322	124
983.404	1028
983.486	617
983.568	144
983.649	751
983.731	540
983.813	590
983.894	1462
983.976	96
984.058	241
984.139	1620
984.221	-440
984.302	809
984.384	476
984.465	-200
984.547	-23
984.628	-277
984.710	1461
984.791	387
984.872	114
984.954	89
985.035	937
985.116	-388
985.198	341
985.279	1194
985.360	110
985.441	-300
985.522	937
985.604	473
985.685	-1503
985.766	1549
985.847	1145
985.928	-61
986.009	-142
986.090	129
986.171	624
986.252	-625
986.333	252
986.414	-92
986.495	135
986.576	1115
986.656	-161
986.737	1381
986.818	708
986.899	399
986.980	526
987.060	380
987.141	-222
987.222	1034
987.302	1197
987.383	1120
987.464	47
987.544	1701
987.625	-496
987.705	1229
987.786	447
987.866	853
987.947	65
988.027	-16
988.108	939
988.188	1033
988.268	648
988.349	804
988.429	759
988.509	419
988.589	173
988.670	-469
988.750	1619
988.830	727
988.910	1183
988.990	579
989.070	1135
989.151	477
989.231	-29
989.311	1121
989.391	166
989.471	631
989.551	-194
989.631	162
989.711	618
989.791	-30
989.870	-456
989.950	1135
990.030	-602
990.110	-326
990.190	-962
990.269	542
990.349	-189
990.429	629
990.509	1268
990.588	617
990.668	610
990.747	551
990.827	-218
990.907	867
990.986	644
991.066	963
991.145	111
991.225	1125
991.304	-335
991.383	1415
991.463	-165
991.542	1687
991.622	-1008
991.701	312
991.780	-1074
991.859	179
991.939	-697
992.018	279
992.097	135
992.176	1018
992.256	636
992.335	-607
992.414	-179
992.493	474
992.572	-99
992.651	2536
992.730	409
992.809	1002
992.888	-764
992.967	-166
993.046	-26
993.125	-901
993.203	778
993.282	665
993.361	-91
993.440	760
993.519	-455
993.597	662
993.676	-363
993.755	1042
993.834	-178
993.912	-416
993.991	487
994.069	451
994.148	-499
994.226	-595
994.305	-28
994.384	-170
994.462	881
994.540	-792
994.619	-468
994.697	812
994.776	-866
994.854	698
994.932	-258
995.011	1408
995.089	-360
995.167	533
995.245	224
995.324	-50
995.402	273
995.480	-216
995.558	740
995.636	-1188
995.714	-563
995.792	658
995.870	-627
995.948	-229
996.026	-701
996.104	-1078
996.182	-26
996.260	-15
996.338	-370
996.416	22
996.494	514
996.572	345
996.649	-570
996.727	-1139
996.805	518
996.883	-34
996.960	-1094
997.038	33
997.116	166
997.193	-133
997.271	-84
997.348	-1016
997.426	-7
997.504	-803
997.581	423
997.658	-147
997.736	-907
997.813	-690
997.891	455
997.968	-463
998.046	-200
998.123	-109
998.200	-413
998.277	-1852
998.355	-688
998.432	-916
998.509	-23
998.586	-237
998.663	-379
998.741	-750
998.818	-488
998.895	-898
998.972	-525
999.049	-169
999.126	-1402
999.203	-590
999.280	-35
999.357	-347
999.434	-228
999.511	-304
999.587	850
999.664	-813
999.741	-792
999.818	205
999.895	-926
999.971	-363
1000.048	-925
1000.125	674
1000.202	-329
1000.278	-312
1000.355	-891
1000.431	-522
1000.508	-1113
1000.584	-766
1000.661	-567
1000.738	-566
1000.814	-494
1000.890	-516
1000.967	-552
1001.043	-1044
1001.120	-1788
1001.196	348
1001.272	-1471
1001.349	-400
1001.425	-702
1001.501	-878
1001.577	-1145
1001.654	-664
1001.730	-648
1001.806	-533
1001.882	-960
1001.958	-96
1002.034	-609
1002.110	-710
1002.186	-739
1002.262	-374
1002.338	-1279
1002.414	-292
1002.490	-650
1002.566	-680
1002.642	-964
1002.718	17
1002.794	-828
1002.870	-1051
1002.945	-941
1003.021	-941
1003.097	-1396
1003.173	-646
1003.248	-1911
1003.324	-831
1003.400	-552
1003.475	-1261
1003.551	-680
1003.626	-909
1003.702	-1834
1003.777	-615
1003.853	-1597
1003.928	-800
1004.004	-1023
1004.079	-46
1004.155	-750
1004.230	-870
1004.305	430
1004.381	-772
1004.456	-38
1004.531	-832
1004.607	-596
1004.682	-1060
1004.757	-621
1004.832	-632
1004.907	-1062
1004.982	-398
1005.057	452
1005.133	-943
1005.208	-1637
1005.283	-992
1005.358	-1029
1005.433	-1510
1005.508	-1086
1005.583	-647
1005.657	-876
1005.732	-254
1005.807	-1512
1005.882	-782
1005.957	-1034
1006.032	-393
1006.106	-208
1006.181	-1003
1006.256	-134
1006.331	-685
1006.405	-745
1006.480	-653
1006.554	-1324
1006.629	-698
1006.704	-1210
1006.778	-1224
1006.853	-993
1006.927	-595
1007.002	-1478
1007.076	-596
1007.150	-1362
1007.225	35
1007.299	-1168
1007.373	-1537
1007.448	-973
1007.522	-985
1007.596	-976
1007.671	-1074
1007.745	-1144
1007.819	-1360
1007.893	-1711
1007.967	-1108
1008.041	-2154
1008.115	-252
1008.190	-1043
1008.264	22
1008.338	-2053
1008.412	-1327
1008.486	-787
1008.560	-1042
1008.633	-614
1008.707	-908
1008.781	-839
1008.855	-452
1008.929	-1668
1009.003	-1846
1009.076	-950
1009.150	-1478
1009.224	-787
1009.298	-782
1009.371	-1027
1009.445	-623
1009.519	-1235
1009.592	-1957
1009.666	-1054
1009.739	-1150
1009.813	-2005
1009.886	-405
1009.960	-2177
1010.033	-505
1010.107	-579
1010.180	-2194
1010.253	-655
1010.327	-1058
1010.400	-1051
1010.473	-1665
1010.547	18
1010.620	-1278
1010.693	-714
1010.766	-1377
1010.840	-993
1010.913	-1255
1010.986	-2117
1011.059	-1097
1011.132	-853
1011.205	-29
1011.278	-965
1011.351	-632
1011.424	-1404
1011.497	-802
1011.570	-1551
1011.643	-1911
1011.716	-1766
1011.789	-296
1011.862	-1438
1011.934	-366
1012.007	-1677
1012.080	-1323
1012.153	-1314
1012.225	-680
1012.298	-2043
1012.371	-1828
1012.443	-1039
1012.516	-1654
1012.588	-1980
1012.661	-459
1012.733	-2542
1012.806	-467
1012.879	-2076
1012.951	-1142
1013.023	-2119
1013.096	-906
1013.168	-1935
1013.241	-470
1013.313	-840
1013.385	-1506
1013.458	-1629
1013.530	-979
1013.602	-2505
1013.674	-46
1013.746	-1998
1013.819	-1662
1013.891	-1360
1013.963	-1411
1014.035	-1039
1014.107	-940
1014.179	-1232
1014.251	-1019
1014.323	-1380
1014.395	-1220
1014.467	-1223
1014.539	-1419
1014.611	-1370
1014.683	-837
1014.754	-1359
1014.826	-1882
1014.898	-1158
1014.970	-1922
1015.042	-307
1015.113	-742
1015.185	-1161
1015.257	-2132
1015.328	-1041
1015.400	-1448
1015.471	-2100
1015.543	-2044
1015.615	-929
1015.686	-1293
1015.757	-1247
1015.829	-703
1015.901	-1248
1015.972	-1635
1016.043	-1446
1016.115	-1080
1016.186	-1750
1016.257	-1187
1016.328	-1382
1016.400	-411
1016.471	-2207
1016.542	-890
1016.613	-1223
1016.685	-1479
1016.756	-1033
1016.827	-1244
1016.898	-2333
1016.969	-398
1017.040	-1508
1017.111	-1412
1017.182	-1407
1017.253	-1458
1017.324	-1273
1017.395	-1341
1017.466	-1693
1017.537	-793
1017.608	-1287
1017.678	-1037
1017.749	-1795
1017.820	-1568
1017.891	-1202
1017.961	-844
1018.032	-932
1018.103	-1585
1018.173	-1296
1018.244	-1671
1018.315	-1709
1018.385	-1588
1018.456	-1126
1018.526	-1146
1018.597	-1572
1018.667	-1692
1018.738	-1691
1018.808	-1443
1018.878	-1381
1018.949	-1029
1019.019	-973
1019.089	-1097
1019.160	-1662
1019.230	-1491
1019.300	-1252
1019.371	-2058
1019.441	-709
1019.511	-1348
1019.581	-1864
1019.651	-1754
1019.721	-1508
1019.791	-1370
1019.861	-1890
1019.931	-1475
1020.001	-1829
1020.071	-1126
1020.141	-1748
1020.211	-2093
1020.281	-1525
1020.351	-1650
1020.421	-413
1020.491	-1059
1020.560	-1454
1020.630	-1307
1020.700	-1619
1020.770	-1183
1020.839	-1687
1020.909	-1671
1020.979	-2394
1021.048	-1705
1021.118	-1776
1021.187	-1586
1021.257	-1636
1021.326	-1231
1021.396	-1438
1021.465	-1790
1021.535	-1579
1021.604	-1991
1021.674	-1785
1021.743	-1281
1021.812	-2431
1021.882	-1485
1021.951	-1500
1022.020	-1935
1022.089	-1712
1022.159	-1353
1022.228	-1890
1022.297	-2480
1022.366	-1474
1022.435	-1377
1022.504	-1919
1022.573	-1771
1022.642	-1153
1022.711	-1913
1022.781	-1475
1022.849	-1966
1022.918	-2062
1022.987	-1177
1023.056	-2488
1023.125	-1834
1023.194	-1029
1023.263	-1621
1023.331	-1356
1023.400	-1403
1023.469	-2565
1023.538	-1793
1023.606	-2411
1023.675	-2208
1023.744	-1637
1023.812	-1661
1023.881	-2153
1023.949	-970
1024.018	-1965
1024.086	-1804
1024.155	-2662
1024.223	-1461
1024.292	-1496
1024.360	-870
1024.429	-1579
1024.497	-1245
1024.565	-1900
1024.634	-1269
1024.702	-1852
1024.770	-1630
1024.838	-2160
1024.907	-411
1024.975	-2108
1025.043	-1334
1025.111	-2062
1025.179	-596
1025.247	-2302
1025.315	-1685
1025.383	-2117
1025.451	-2192
1025.519	-2316
1025.587	-1628
1025.655	-2102
1025.723	-1393
1025.791	-1710
1025.859	-1239
1025.927	-1376
1025.995	-2290
1026.062	-1724
1026.130	-2027
1026.198	-2307
1026.266	-1703
1026.333	-1865
1026.401	-1058
1026.469	-2528
1026.536	-653
1026.604	-2207
1026.671	-1823
1026.739	-1908
1026.806	-1604
1026.874	-1911
1026.941	-1637
1027.009	-1307
1027.076	-1292
1027.144	-1428
1027.211	-2070
1027.278	-2332
1027.345	-1382
1027.413	-1623
1027.480	-1669
1027.547	-2335
1027.614	-1938
1027.682	-1853
1027.749	-1158
1027.816	-1960
1027.883	-1446
1027.950	-1921
1028.017	-2777
1028.084	-1371
1028.151	-2156
1028.218	-1997
1028.285	-1088
1028.352	-1798
1028.419	-1890
1028.486	-2479
1028.553	-1204
1028.619	-1905
1028.686	-1224
1028.753	-1734
1028.820	-1623
1028.886	-2401
1028.953	-1312
1029.020	-2011
1029.086	-1364
1029.153	-2150
1029.220	-1914
1029.286	-1856
1029.353	-1282
1029.419	-2397
1029.486	-1878
1029.552	-2253
1029.619	-1918
1029.685	-2456
1029.751	-2042
1029.818	-974
1029.884	-2120
1029.951	-181
1030.017	-1107
1030.083	-1271
1030.149	-874
1030.216	-1676
1030.282	-1959
1030.348	-2425
1030.414	-2645
1030.480	-1884
1030.546	-1514
1030.612	-1806
1030.678	-2178
1030.744	-1698
1030.810	-1797
1030.876	-1815
1030.942	-1513
1031.008	-2195
1031.074	-1862
1031.140	-2156
1031.206	-1702
1031.272	-2354
1031.337	-1915
1031.403	-1703
1031.469	-1810
1031.534	-2031
1031.600	-1816
1031.666	-2475
1031.731	-2439
1031.797	-1583
1031.863	-2220
1031.928	-2539
1031.994	-1842
1032.059	-1773
1032.125	-2083
1032.190	-1990
1032.256	-2342
1032.321	-2419
1032.386	-1972
1032.452	-1596
1032.517	-1396
1032.582	-2049
1032.647	-1658
1032.713	-2222
1032.778	-2594
1032.843	-2029
1032.908	-1949
1032.974	-1624
1033.039	-1962
1033.104	-2725
1033.169	-2307
1033.234	-1329
1033.299	-828
1033.364	-1154
1033.429	-1314
1033.494	-1231
1033.559	-1189
1033.624	-1778
1033.688	-2402
1033.753	-2134
1033.818	-1539
1033.883	-1726
1033.948	-960
1034.013	-903
1034.077	-771
1034.142	-264
1034.207	1092
1034.271	1551
1034.336	3272
1034.400	1368
1034.465	882
1034.530	-1098
1034.594	-88
1034.658	-1521
1034.723	-1218
1034.787	-1525
1034.852	-1994
1034.916	-1939
1034.981	-1998
1035.045	-2094
1035.109	-1774
1035.173	-1883
1035.238	-1730
1035.302	-1404
1035.366	-1761
1035.430	-2546
1035.495	-1716
1035.559	-1580
1035.623	-1848
1035.687	-2508
1035.751	-1801
1035.815	-1862
1035.879	-1832
1035.943	-2398
1036.007	-2363
1036.071	-1961
1036.135	-2085
1036.198	-2169
1036.262	-2210
1036.326	-1837
1036.390	-1740
1036.454	-1598
1036.517	-1472
1036.581	-831
1036.645	-325
1036.709	-24
1036.772	-1311
1036.836	-1432
1036.900	-1237
1036.963	-2367
1037.026	-1493
1037.090	-2578
1037.154	-1590
1037.217	-1592
1037.280	-2363
1037.344	-1621
1037.407	-2660
1037.471	-1999
1037.534	-2390
1037.597	-2214
1037.661	-1806
1037.724	-1244
1037.787	-2048
1037.850	-2220
1037.913	-1714
1037.977	-2317
1038.040	-1152
1038.103	-2316
1038.166	-1173
1038.229	-2591
1038.292	-2242
1038.355	-1978
1038.418	-1896
1038.481	-2463
1038.544	-2154
1038.607	-2481
1038.670	-2380
1038.732	-2515
1038.795	-2589
1038.858	-2216
1038.921	-1766
1038.984	-1752
1039.046	-2232
1039.109	-1950
1039.172	-2075
1039.234	-2292
1039.297	-2103
1039.360	-1727
1039.422	-2391
1039.485	-3078
1039.547	-1209
1039.610	-2495
1039.672	-2085
1039.734	-1753
1039.797	-1394
1039.859	-1609
1039.922	-1091
1039.984	-2461
1040.046	-2606
1040.109	-2725
1040.171	-1859
1040.233	-1884
1040.295	-2160
1040.358	-1977
1040.420	-847
1040.482	-2452
1040.544	-2208
1040.606	-2070
1040.668	-1380
1040.730	-1952
1040.792	-1388
1040.854	-1367
1040.916	-1629
1040.978	-2534
1041.040	-1412
1041.102	-2304
1041.164	-2130
1041.225	-2144
1041.287	-1715
1041.349	-2247
1041.411	-1812
1041.472	-2514
1041.534	-2171
1041.596	-2892
1041.657	-1592
1041.719	-1748
1041.781	-2630
1041.842	-1882
1041.904	-1862
1041.965	-2235
1042.027	-1825
1042.088	-2030
1042.150	-1707
1042.211	-1887
1042.272	-1910
1042.334	-2380
1042.395	-1858
1042.456	-2657
1042.518	-2235
1042.579	-1906
1042.640	-2112
1042.701	-2143
1042.763	-1949
1042.824	-2307
1042.885	-1483
1042.946	-2008
1043.007	-2265
1043.068	-2233
1043.129	-1437
1043.190	-1762
1043.251	-1797
1043.312	-2301
1043.373	-916
1043.434	-2152
1043.495	-2015
1043.556	-1362
1043.616	-1651
1043.677	-2397
1043.738	-1874
1043.799	-2323
1043.859	-1714
1043.920	-2362
1043.981	-2330
1044.041	-1980
1044.102	-2262
1044.162	-1445
1044.223	-2103
1044.284	-1865
1044.344	-1423
1044.405	-2188
1044.465	-1694
1044.525	-2971
1044.586	-2245
1044.646	-2326
1044.707	-2303
1044.767	-2021
1044.827	-2929
1044.887	-2928
1044.948	-1154
1045.008	-2178
1045.068	-2077
1045.128	-1824
1045.188	-1810
1045.249	-2096
1045.309	-1598
1045.369	-1878
1045.429	-1909
1045.489	-1625
1045.549	-1784
1045.609	-2419
1045.669	-1659
1045.729	-2377
1045.789	-1850
1045.848	-1644
1045.908	-1964
1045.968	-1270
1046.028	-1225
1046.088	-1714
1046.147	-1158
1046.207	-1517
1046.267	-1224
1046.326	-1797
1046.386	-902
1046.446	-1306
1046.505	-759
1046.565	-975
1046.624	-991
1046.684	-1354
1046.743	-1004
1046.803	-487
1046.862	129
1046.922	0
