'Start Wavelength	183.907
'End Wavelength	1046.922
'Gate Delay	5.000
'Gate Width (ms)	1.050
'Laser Output Level	0.000
'X Position	0.000
'Y Position	0.000
'Z Position	0.000
'Grid Point Number	1.000
'Shot Number	100.000
183.907	54.000
183.977	-125.000
184.047	543
184.116	448
184.186	851
184.256	21
184.325	-404
184.395	-429
184.465	1546
184.534	335
184.604	-23
184.674	729
184.743	-687
184.813	865
184.883	28
184.952	557
185.022	-154
185.092	-86
185.161	159
185.231	-176
185.301	436
185.370	688
185.440	-871
185.509	-21
185.579	-73
185.649	166
185.718	86
185.788	258
185.857	-92
185.927	-394
185.996	5
186.066	-257
186.136	-744
186.205	35
186.275	-194
186.344	844
186.414	-641
186.483	-400
186.553	1035
186.622	868
186.692	-138
186.761	324
186.831	-338
186.900	315
186.970	-171
187.039	-57
187.109	1049
187.178	-41
187.248	11
187.317	983
187.387	-140
187.456	276
187.526	487
187.595	-73
187.664	-80
187.734	216
187.803	1033
187.873	572
187.942	86
188.012	306
188.081	429
188.150	131
188.220	234
188.289	739
188.358	-152
188.428	47
188.497	-589
188.567	99
188.636	-374
188.705	-92
188.775	94
188.844	-560
188.913	531
188.983	37
189.052	222
189.121	193
189.191	596
189.260	1463
189.329	1158
189.399	902
189.468	-274
189.537	-495
189.606	-71
189.676	-257
189.745	-34
189.814	80
189.883	-393
189.953	151
190.022	1040
190.091	3469
190.161	5909
190.230	2399
190.299	293
190.368	602
190.437	635
190.507	529
190.576	-606
190.645	66
190.714	129
190.783	209
190.853	463
190.922	452
190.991	315
191.060	517
191.129	-547
191.198	377
191.268	283
191.337	437
191.406	142
191.475	-661
191.544	126
191.613	-220
191.682	-830
191.752	-79
191.821	194
191.890	33
191.959	574
192.028	-38
192.097	-136
192.166	141
192.235	-270
192.304	389
192.373	167
192.442	355
192.511	250
192.580	-58
192.650	-199
192.719	88
192.788	238
192.857	252
192.926	-371
192.995	604
193.064	1041
193.133	904
193.202	-89
193.271	419
193.340	330
193.409	667
193.478	523
193.547	136
193.615	-27
193.684	745
193.753	-112
193.822	989
193.891	452
193.960	575
194.029	241
194.098	391
194.167	-64
194.236	560
194.305	-156
194.374	427
194.443	409
194.512	716
194.580	11
194.649	1163
194.718	993
194.787	604
194.856	266
194.925	428
194.994	568
195.062	928
195.131	196
195.200	768
195.269	446
195.338	1226
195.407	563
195.475	821
195.544	1176
195.613	15
195.682	89
195.751	841
195.819	497
195.888	745
195.957	1095
196.026	684
196.094	140
196.163	222
196.232	155
196.301	531
196.369	-133
196.438	269
196.507	-12
196.576	896
196.644	-82
196.713	-356
196.782	-354
196.850	564
196.919	-449
196.988	165
197.056	-98
197.125	304
197.194	936
197.262	575
197.331	424
197.400	902
197.468	210
197.537	365
197.606	385
197.674	1687
197.743	4847
197.812	2221
197.880	3683
197.949	3256
198.017	3951
198.086	3665
198.155	525
198.223	1808
198.292	4908
198.360	2656
198.429	1075
198.497	1077
198.566	1802
198.635	5539
198.703	1279
198.772	1353
198.840	5464
198.909	6894
198.977	595
199.046	827
199.114	1057
199.183	1279
199.251	468
199.320	1222
199.388	652
199.457	509
199.525	630
199.594	880
199.662	461
199.731	589
199.799	491
199.867	775
199.936	-235
200.004	709
200.073	322
200.141	824
200.210	-168
200.278	371
200.346	615
200.415	835
200.483	274
200.552	375
200.620	-121
200.688	-48
200.757	237
200.825	557
200.893	-169
200.962	489
201.030	750
201.098	426
201.167	454
201.235	59
201.303	785
201.372	854
201.440	844
201.508	8
201.577	153
201.645	297
201.713	457
201.781	441
201.850	1181
201.918	895
201.986	297
202.055	1502
202.123	-570
202.191	1334
202.259	126
202.327	482
202.396	731
202.464	1374
202.532	1007
202.600	3675
202.669	2199
202.737	253
202.805	529
202.873	180
202.941	611
203.009	951
203.078	131
203.146	793
203.214	305
203.282	-104
203.350	152
203.418	142
203.487	592
203.555	645
203.623	-383
203.691	1027
203.759	-304
203.827	-338
203.895	735
203.963	-4
204.031	-151
204.099	348
204.168	623
204.236	664
204.304	738
204.372	1003
204.440	958
204.508	230
204.576	73
204.644	784
204.712	-208
204.780	1007
204.848	391
204.916	479
204.984	582
205.052	1049
205.120	63
205.188	593
205.256	417
205.324	833
205.392	730
205.460	846
205.528	947
205.596	1129
205.664	1699
205.732	1241
205.799	6008
205.867	12036
205.935	2180
206.003	1808
206.071	1310
206.139	1120
206.207	470
206.275	680
206.343	-159
206.411	437
206.478	929
206.546	384
206.614	914
206.682	-125
206.750	488
206.818	1288
206.885	1453
206.953	41
207.021	1664
207.089	959
207.157	465
207.225	1528
207.292	275
207.360	1233
207.428	309
207.496	1342
207.563	-328
207.631	1626
207.699	612
207.767	524
207.834	507
207.902	1577
207.970	117
208.038	1275
208.105	119
208.173	942
208.241	2080
208.309	1602
208.376	1744
208.444	3823
208.512	2384
208.579	42
208.647	1632
208.715	1834
208.782	90
208.850	848
208.918	545
208.985	1205
209.053	931
209.120	1177
209.188	394
209.256	640
209.323	263
209.391	2039
209.459	2269
209.526	1128
209.594	648
209.661	1521
209.729	1267
209.796	955
209.864	1054
209.932	-129
209.999	1882
210.067	2004
210.134	75
210.202	732
210.269	2040
210.337	1734
210.404	919
210.472	1141
210.539	1593
210.607	404
210.674	1401
210.742	1205
210.809	890
210.877	1161
210.944	1705
211.012	-467
211.079	2207
211.146	1408
211.214	137
211.281	1423
211.349	1791
211.416	1480
211.484	1643
211.551	1558
211.618	1548
211.686	1610
211.753	620
211.821	1819
211.888	1475
211.955	1289
212.023	867
212.090	1867
212.157	1330
212.225	2520
212.292	6032
212.359	12256
212.427	32272
212.494	16171
212.561	5130
212.629	2961
212.696	2190
212.763	2632
212.831	1123
212.898	1761
212.965	1150
213.032	1579
213.100	1170
213.167	1009
213.234	2100
213.301	1689
213.369	1483
213.436	1109
213.503	970
213.570	1502
213.638	1777
213.705	1311
213.772	1075
213.839	1974
213.906	3424
213.973	1953
214.041	144
214.108	1415
214.175	1405
214.242	1598
214.309	1050
214.376	1543
214.444	1446
214.511	2080
214.578	1121
214.645	1887
214.712	1503
214.779	2351
214.846	1364
214.913	2445
214.980	1221
215.048	2727
215.115	1958
215.182	1981
215.249	1437
215.316	1105
215.383	1777
215.450	1182
215.517	1468
215.584	1833
215.651	1062
215.718	2366
215.785	2253
215.852	1558
215.919	2052
215.986	2470
216.053	1732
216.120	1373
216.187	1929
216.254	2622
216.321	1235
216.388	2042
216.455	1914
216.522	1523
216.589	2043
216.656	4018
216.722	3462
216.789	2815
216.856	2420
216.923	2139
216.990	2517
217.057	2372
217.124	2316
217.191	1542
217.258	2184
217.324	2516
217.391	2876
217.458	2201
217.525	1414
217.592	1713
217.659	815
217.725	3336
217.792	3596
217.859	4795
217.926	1392
217.993	2460
218.059	2151
218.126	1204
218.193	1827
218.260	1560
218.327	2078
218.393	1615
218.460	2034
218.527	1164
218.594	1497
218.660	3409
218.727	4740
218.794	1908
218.860	1962
218.927	1905
218.994	1204
219.061	1061
219.127	2484
219.194	4090
219.261	2117
219.327	1688
219.394	2624
219.461	714
219.527	1678
219.594	2876
219.661	2123
219.727	799
219.794	2438
219.860	892
219.927	2502
219.994	2676
220.060	4546
220.127	3681
220.193	2450
220.260	1295
220.326	1905
220.393	3091
220.460	3098
220.526	2655
220.593	1733
220.659	3724
220.726	3424
220.792	13534
220.859	7548
220.925	4697
220.992	7830
221.058	12204
221.125	18829
221.191	15341
221.258	5028
221.324	3411
221.391	2833
221.457	1504
221.524	3336
221.590	5145
221.657	18886
221.723	13575
221.789	11520
221.856	11551
221.922	6175
221.989	3674
222.055	2032
222.121	1852
222.188	4341
222.254	2795
222.321	2454
222.387	1815
222.453	2618
222.520	2048
222.586	1756
222.652	2591
222.719	1878
222.785	1444
222.851	924
222.918	1436
222.984	1925
223.050	2370
223.116	272
223.183	2347
223.249	1389
223.315	1525
223.382	768
223.448	1370
223.514	1397
223.580	2033
223.647	749
223.713	1441
223.779	1928
223.845	1978
223.911	1981
223.978	1344
224.044	1933
224.110	1517
224.176	2248
224.242	1370
224.309	765
224.375	1232
224.441	1109
224.507	1362
224.573	132
224.639	2084
224.705	809
224.772	1323
224.838	927
224.904	2187
224.970	906
225.036	1387
225.102	571
225.168	2324
225.234	1359
225.300	1503
225.366	1482
225.432	2286
225.499	1337
225.565	1076
225.631	1858
225.697	2299
225.763	3080
225.829	2106
225.895	3221
225.961	5959
226.027	4750
226.093	2607
226.159	3561
226.225	3339
226.291	5207
226.357	9778
226.423	5539
226.489	3940
226.554	3238
226.620	3362
226.686	3694
226.752	3870
226.818	3748
226.884	12439
226.950	12124
227.016	4100
227.082	3090
227.148	2648
227.214	3270
227.279	2188
227.345	2454
227.411	1943
227.477	1774
227.543	4842
227.609	4556
227.674	3211
227.740	2078
227.806	3351
227.872	3300
227.938	2775
228.003	2446
228.069	2255
228.135	1392
228.201	1846
228.267	2138
228.332	2467
228.398	2914
228.464	2542
228.530	815
228.595	2878
228.661	936
228.727	3578
228.792	3958
228.858	853
228.924	1418
228.990	5526
229.055	2373
229.121	4159
229.187	2280
229.252	2619
229.318	1635
229.384	2383
229.449	2273
229.515	1193
229.581	387
229.646	3170
229.712	2107
229.777	4847
229.843	5888
229.909	4320
229.974	5058
230.040	4528
230.105	3490
230.171	4405
230.236	6682
230.302	13329
230.368	8464
230.433	4524
230.499	4496
230.564	4077
230.630	2916
230.695	3788
230.761	3544
230.826	1241
230.892	3758
230.957	2686
231.023	2350
231.088	2977
231.154	2590
231.219	2746
231.284	2540
231.350	4173
231.415	2043
231.481	2644
231.546	2444
231.612	2345
231.677	1792
231.742	751
231.808	3495
231.873	2180
231.939	189
232.004	4063
232.069	3846
232.135	2214
232.200	2719
232.265	3693
232.331	1868
232.396	2664
232.461	1143
232.527	1969
232.592	1146
232.657	2682
232.723	4077
232.788	2531
232.853	2319
232.918	2172
232.984	1615
233.049	1714
233.114	3558
233.179	3023
233.245	5704
233.310	7820
233.375	1316
233.440	2614
233.506	1272
233.571	1595
233.636	1634
233.701	2129
233.766	3878
233.832	5855
233.897	2884
233.962	2091
234.027	2914
234.092	2509
234.157	1916
234.222	2733
234.288	3557
234.353	14185
234.418	11490
234.483	7149
234.548	4852
234.613	4012
234.678	3400
234.743	3542
234.808	13235
234.873	7980
234.938	5384
235.004	3839
235.069	3504
235.134	2847
235.199	3207
235.264	3085
235.329	1219
235.394	2577
235.459	3657
235.524	3389
235.589	3719
235.654	2961
235.719	1144
235.784	2815
235.849	2563
235.913	7102
235.978	6625
236.043	7702
236.108	3641
236.173	2474
236.238	3801
236.303	1932
236.368	2254
236.433	3976
236.498	7516
236.563	4917
236.627	5620
236.692	18829
236.757	14422
236.822	6908
236.887	6206
236.952	5280
237.017	3602
237.081	5614
237.146	3895
237.211	7248
237.276	15668
237.341	33488
237.405	16200
237.470	6771
237.535	6863
237.600	5111
237.664	3451
237.729	3317
237.794	2330
237.859	5223
237.923	5556
237.988	4989
238.053	5830
238.118	6955
238.182	17377
238.247	18950
238.312	6341
238.376	4722
238.441	3630
238.506	4392
238.570	1753
238.635	3750
238.700	2138
238.764	2755
238.829	7794
238.893	11473
238.958	5497
239.023	3327
239.087	2708
239.152	3728
239.216	1629
239.281	3130
239.346	2891
239.410	2315
239.475	3481
239.539	17577
239.604	14958
239.668	5336
239.733	2652
239.797	3635
239.862	7252
239.926	13187
239.991	6935
240.055	2888
240.120	2860
240.184	2698
240.249	2520
240.313	2505
240.378	2876
240.442	9611
240.507	18585
240.571	6269
240.635	6928
240.700	10388
240.764	3605
240.829	2960
240.893	1583
240.957	3144
241.022	9015
241.086	16511
241.151	7657
241.215	2195
241.279	4608
241.344	8243
241.408	4544
241.472	3270
241.537	5525
241.601	4111
241.665	2770
241.730	3337
241.794	4502
241.858	3803
241.922	3396
241.987	4081
242.051	2961
242.115	2697
242.179	3782
242.244	2830
242.308	4035
242.372	3571
242.436	3797
242.501	3276
242.565	3319
242.629	2862
242.693	3753
242.757	1720
242.822	3403
242.886	3970
242.950	4106
243.014	3531
243.078	4080
243.142	3522
243.206	2869
243.271	5427
243.335	4363
243.399	8245
243.463	32954
243.527	100919
243.591	33993
243.655	11375
243.719	6224
243.783	7487
243.847	11469
243.911	18197
243.975	10046
244.040	6815
244.104	5627
244.168	4095
244.232	4763
244.296	9945
244.360	15594
244.424	6520
244.488	4492
244.552	4870
244.615	2438
244.679	2975
244.743	3425
244.807	3372
244.871	2853
244.935	3472
244.999	1656
245.063	2667
245.127	3787
245.191	10120
245.255	10144
245.319	4957
245.383	3611
245.446	4378
245.510	1662
245.574	2999
245.638	4436
245.702	2052
245.766	8263
245.829	5435
245.893	2019
245.957	2588
246.021	3528
246.085	4301
246.149	4419
246.212	10022
246.276	19054
246.340	7391
246.404	5206
246.467	5132
246.531	6313
246.595	5788
246.659	4987
246.722	3630
246.786	4059
246.850	5530
246.913	6561
246.977	3482
247.041	3484
247.104	3936
247.168	3940
247.232	8835
247.295	24035
247.359	12293
247.423	4331
247.486	7732
247.550	5449
247.614	3440
247.677	4987
247.741	3152
247.804	2698
247.868	4868
247.932	7170
247.995	22364
248.059	7651
248.122	4199
248.186	4533
248.249	8079
248.313	31093
248.376	34847
248.440	23452
248.503	7891
248.567	6948
248.630	8163
248.694	11499
248.757	15185
248.821	36854
248.884	21171
248.948	18172
249.011	28591
249.075	44403
249.138	38911
249.202	13712
249.265	9701
249.328	11408
249.392	8258
249.455	7001
249.519	6071
249.582	7375
249.645	9668
249.709	8794
249.772	5526
249.835	7217
249.899	7270
249.962	6561
250.025	6381
250.089	14172
250.152	21411
250.215	10031
250.279	7884
250.342	7489
250.405	8079
250.468	8098
250.532	11111
250.595	19523
250.658	87104
250.721	158845
250.785	49920
250.848	23720
250.911	14399
250.974	13743
251.038	14089
251.101	28235
251.164	15869
251.227	14531
251.290	15470
251.354	27155
251.417	123812
251.480	133930
251.543	84408
251.606	236802
251.669	188258
251.732	63778
251.795	50388
251.859	56042
251.922	146140
251.985	87674
252.048	28930
252.111	18634
252.174	15465
252.237	21514
252.300	50846
252.363	68331
252.426	181417
252.489	74678
252.552	28676
252.615	18808
252.678	19125
252.741	39388
252.804	71875
252.867	191434
252.930	95131
252.993	40104
253.056	22332
253.119	15662
253.182	14754
253.245	38134
253.308	23000
253.371	12262
253.434	11658
253.497	9776
253.559	22187
253.622	14738
253.685	13320
253.748	13674
253.811	7373
253.874	9718
253.937	8479
254.000	6485
254.062	12825
254.125	23994
254.188	15039
254.251	12585
254.314	6977
254.376	10617
254.439	12754
254.502	10565
254.565	12878
254.628	24752
254.690	11780
254.753	6604
254.816	5726
254.878	6290
254.941	15091
255.004	17648
255.067	5666
255.129	5481
255.192	3347
255.255	2886
255.317	4079
255.380	2972
255.443	2671
255.505	2505
255.568	1770
255.631	2320
255.693	3399
255.756	2032
255.819	2805
255.881	1522
255.944	2023
256.006	2418
256.069	2465
256.132	1536
256.194	3730
256.257	11438
256.319	9439
256.382	8416
256.444	5232
256.507	4280
256.569	3659
256.632	3172
256.694	4892
256.757	9305
256.819	24979
256.882	12896
256.944	6524
257.007	6157
257.069	4814
257.132	3266
257.194	4185
257.257	2511
257.319	3127
257.381	2425
257.444	6501
257.506	29011
257.569	32770
257.631	28269
257.693	14807
257.756	6956
257.818	6216
257.880	3769
257.943	4371
258.005	2920
258.067	2884
258.130	3330
258.192	3881
258.254	8040
258.317	5299
258.379	4170
258.441	10910
258.503	13140
258.566	17596
258.628	26433
258.690	5621
258.753	5380
258.815	8124
258.877	6176
258.939	3491
259.001	4054
259.064	3504
259.126	3954
259.188	6619
259.250	4910
259.312	5759
259.375	17728
259.437	11841
259.499	5567
259.561	3499
259.623	4110
259.685	2983
259.747	4839
259.809	15324
259.872	34379
259.934	48136
259.996	41187
260.058	8807
260.120	5052
260.182	4417
260.244	4193
260.306	3125
260.368	3424
260.430	3218
260.492	3975
260.554	12549
260.616	12580
260.678	18863
260.740	34327
260.802	8587
260.864	6440
260.926	4319
260.988	5001
261.050	3488
261.112	5452
261.174	25424
261.236	28930
261.298	7665
261.359	13271
261.421	21580
261.483	5158
261.545	5222
261.607	3312
261.669	3713
261.731	7313
261.793	19767
261.854	6536
261.916	4871
261.978	2830
262.040	4248
262.102	3672
262.164	6103
262.225	5683
262.287	3352
262.349	7904
262.411	7004
262.472	4541
262.534	7653
262.596	20516
262.658	6483
262.719	3265
262.781	5180
262.843	17893
262.904	8971
262.966	5748
263.028	9261
263.090	48813
263.151	153983
263.213	44029
263.275	13914
263.336	8411
263.398	6256
263.459	3711
263.521	4129
263.583	7933
263.644	5228
263.706	1881
263.767	1725
263.829	1927
263.891	1815
263.952	1528
264.014	1716
264.075	1352
264.137	1766
264.198	2162
264.260	882
264.321	1178
264.383	3834
264.444	6186
264.506	1565
264.567	1596
264.629	3023
264.690	218
264.752	2093
264.813	2099
264.875	1900
264.936	1623
264.998	2115
265.059	1134
265.120	1870
265.182	2185
265.243	9044
265.305	7731
265.366	2603
265.427	1711
265.489	2426
265.550	618
265.611	1846
265.673	494
265.734	1166
265.795	1156
265.857	1161
265.918	856
265.979	3467
266.040	15387
266.102	13275
266.163	4258
266.224	3438
266.286	2210
266.347	736
266.408	1832
266.469	2739
266.530	1172
266.592	1252
266.653	4357
266.714	6756
266.775	2177
266.836	2135
266.898	819
266.959	2565
267.020	1536
267.081	1916
267.142	1456
267.203	1459
267.264	672
267.326	2787
267.387	1158
267.448	1047
267.509	1583
267.570	2807
267.631	1303
267.692	318
267.753	1384
267.814	1549
267.875	4292
267.936	10334
267.997	2948
268.058	2628
268.119	1699
268.180	1636
268.241	1425
268.302	1452
268.363	699
268.424	1871
268.485	1755
268.546	1547
268.607	1096
268.668	1783
268.729	1631
268.790	1823
268.851	1396
268.912	5249
268.972	7598
269.033	2939
269.094	1977
269.155	1216
269.216	1620
269.277	1948
269.338	1155
269.398	1962
269.459	1535
269.520	3244
269.581	4079
269.642	4939
269.702	2611
269.763	3038
269.824	1781
269.885	1872
269.945	5155
270.006	2774
270.067	1320
270.128	2003
270.188	1609
270.249	1904
270.310	1119
270.370	2407
270.431	2134
270.492	772
270.553	1699
270.613	3847
270.674	8821
270.734	4090
270.795	2651
270.856	3091
270.916	2401
270.977	2632
271.038	2479
271.098	2157
271.159	3380
271.219	3653
271.280	1621
271.340	2251
271.401	2086
271.462	8518
271.522	4055
271.583	2190
271.643	2274
271.704	2108
271.764	3040
271.825	6559
271.885	25634
271.946	43717
272.006	11601
272.066	17233
272.127	37788
272.187	10024
272.248	5531
272.308	5335
272.369	24082
272.429	15404
272.489	6812
272.550	6210
272.610	6468
272.671	4997
272.731	5365
272.791	10213
272.852	3520
272.912	4116
272.972	1758
273.033	2973
273.093	4282
273.153	3607
273.214	2168
273.274	3663
273.334	11130
273.394	31083
273.455	10953
273.515	9617
273.575	23118
273.635	9145
273.696	14064
273.756	35555
273.816	12915
273.876	6110
273.936	15532
273.997	31331
274.057	6737
274.117	4445
274.177	6239
274.237	33567
274.297	35087
274.358	21801
274.418	23880
274.478	16683
274.538	5841
274.598	5363
274.658	22893
274.718	31215
274.778	11376
274.838	6191
274.898	11121
274.958	44340
275.018	37161
275.078	23385
275.138	7142
275.198	3920
275.258	3397
275.318	4152
275.378	5617
275.438	6323
275.498	5166
275.558	17840
275.618	41476
275.678	22702
275.738	9319
275.798	7052
275.858	2386
275.918	2261
275.978	4026
276.038	2608
276.098	1135
276.157	5080
276.217	14754
276.277	6788
276.337	4126
276.397	2398
276.457	3108
276.517	2003
276.576	1930
276.636	1444
276.696	2563
276.756	8790
276.815	6330
276.875	2435
276.935	2943
276.995	3354
277.055	1485
277.114	1966
277.174	2690
277.234	12594
277.293	6000
277.353	2878
277.413	2286
277.472	1810
277.532	2210
277.592	3085
277.651	9868
277.711	22190
277.771	6298
277.830	22591
277.890	21490
277.950	15854
278.009	56254
278.069	20814
278.128	14942
278.188	21410
278.248	8507
278.307	21226
278.367	16332
278.426	4745
278.486	2646
278.545	2927
278.605	2668
278.664	2650
278.724	3400
278.783	10658
278.843	35734
278.902	10827
278.962	4810
279.021	4614
279.081	6247
279.140	6479
279.199	3572
279.259	3972
279.318	4819
279.378	6950
279.437	14240
279.496	61208
279.556	179919
279.615	152458
279.675	33594
279.734	18434
279.793	24030
279.853	48445
279.912	18963
279.971	7928
280.031	7807
280.090	15878
280.149	34258
280.208	23577
280.268	113664
280.327	136710
280.386	27422
280.445	17893
280.505	14824
280.564	7181
280.623	5658
280.682	7660
280.742	12776
280.801	4189
280.860	2833
280.919	2814
280.978	1906
281.037	2171
281.097	2006
281.156	2815
281.215	2195
281.274	3942
281.333	18152
281.392	16823
281.451	3852
281.510	1812
281.569	2042
281.628	1286
281.688	2013
281.747	1761
281.806	2082
281.865	1363
281.924	-87
281.983	1930
282.042	1565
282.101	849
282.160	1315
282.219	920
282.278	1193
282.337	7626
282.396	5616
282.454	2009
282.513	1908
282.572	10846
282.631	6671
282.690	1880
282.749	1260
282.808	1560
282.867	1717
282.926	2440
282.985	1049
283.043	925
283.102	340
283.161	1462
283.220	5228
283.279	16044
283.338	3796
283.396	2270
283.455	1939
283.514	2011
283.573	3374
283.631	2665
283.690	1854
283.749	1014
283.808	3466
283.866	5760
283.925	1668
283.984	2434
284.043	1996
284.101	2887
284.160	1567
284.219	1988
284.277	2135
284.336	3912
284.395	15458
284.453	14305
284.512	2705
284.570	4612
284.629	4080
284.688	3244
284.746	3391
284.805	3569
284.863	5790
284.922	6500
284.981	6383
285.039	9374
285.098	18821
285.156	54394
285.215	198810
285.273	196050
285.332	65294
285.390	29677
285.449	18991
285.507	12480
285.566	9060
285.624	6577
285.683	4590
285.741	3830
285.799	2559
285.858	3720
285.916	3111
285.975	2001
286.033	1461
286.091	1957
286.150	2174
286.208	1781
286.267	1866
286.325	1688
286.383	2923
286.442	2941
286.500	1624
286.558	2049
286.616	826
286.675	2175
286.733	2007
286.791	2190
286.850	2383
286.908	3194
286.966	5664
287.024	2490
287.083	1240
287.141	1430
287.199	1961
287.257	3864
287.315	2671
287.374	2042
287.432	6039
287.490	4872
287.548	3151
287.606	2128
287.664	3150
287.723	4079
287.781	4418
287.839	3860
287.897	5879
287.955	8761
288.013	17196
288.071	44340
288.129	170256
288.187	469777
288.245	223646
288.303	69803
288.361	38062
288.419	26240
288.477	17591
288.535	13374
288.593	8707
288.651	5985
288.709	4715
288.767	4187
288.825	2535
288.883	2497
288.941	2570
288.999	2348
289.057	1132
289.115	894
289.173	892
289.231	2309
289.289	1240
289.346	1385
289.404	1067
289.462	2845
289.520	3342
289.578	2259
289.636	591
289.694	344
289.751	1090
289.809	924
289.867	657
289.925	1804
289.983	1425
290.040	1014
290.098	1022
290.156	852
290.214	1045
290.271	421
290.329	891
290.387	148
290.444	76
290.502	1085
290.560	-76
290.617	651
290.675	698
290.733	445
290.790	233
290.848	1388
290.906	566
290.963	732
291.021	703
291.078	677
291.136	263
291.194	2484
291.251	8945
291.309	2251
291.366	790
291.424	1499
291.481	767
291.539	671
291.596	565
291.654	161
291.711	-359
291.769	1018
291.826	2726
291.884	1849
291.941	-277
291.999	1111
292.056	286
292.114	766
292.171	-99
292.228	733
292.286	263
292.343	2857
292.401	2415
292.458	1949
292.515	702
292.573	1808
292.630	1352
292.687	1888
292.745	1468
292.802	411
292.859	2522
292.917	12758
292.974	7920
293.031	2329
293.089	413
293.146	520
293.203	1037
293.260	163
293.318	1333
293.375	1593
293.432	460
293.489	411
293.546	1279
293.604	2830
293.661	9994
293.718	33948
293.775	14305
293.832	5453
293.889	3589
293.947	4304
294.004	3662
294.061	2745
294.118	4460
294.175	9078
294.232	4337
294.289	1293
294.346	1081
294.403	1052
294.460	832
294.517	994
294.574	733
294.631	742
294.688	1825
294.745	6874
294.802	31726
294.859	21520
294.916	7715
294.973	7141
295.030	3765
295.087	3525
295.144	1553
295.201	1893
295.258	1285
295.315	2790
295.372	10702
295.429	27806
295.486	9142
295.542	3259
295.599	2577
295.656	4743
295.713	8281
295.770	20497
295.827	6685
295.883	2882
295.940	1907
295.997	3817
296.054	3156
296.111	1337
296.167	743
296.224	119
296.281	167
296.338	172
296.394	364
296.451	2044
296.508	6564
296.564	15009
296.621	10045
296.678	26235
296.734	43330
296.791	12583
296.848	5311
296.904	5243
296.961	10728
297.018	24122
297.074	20416
297.131	6721
297.187	4272
297.244	8166
297.301	28874
297.357	62950
297.414	20686
297.470	6481
297.527	3180
297.583	3851
297.640	1971
297.696	2035
297.753	868
297.809	43
297.866	691
297.922	693
297.979	539
298.035	1366
298.092	3388
298.148	11053
298.204	13035
298.261	5601
298.317	10637
298.374	37245
298.430	22614
298.486	9008
298.543	5361
298.599	4426
298.656	6038
298.712	14773
298.768	52092
298.824	47417
298.881	12022
298.937	5485
298.993	3085
299.050	3316
299.106	2962
299.162	1319
299.218	1734
299.275	1459
299.331	2247
299.387	7868
299.443	31035
299.500	35045
299.556	10416
299.612	5186
299.668	4007
299.724	3819
299.780	3918
299.837	2388
299.893	5342
299.949	18608
300.005	24258
300.061	19303
300.117	44363
300.173	21051
300.229	6392
300.285	6348
300.341	7819
300.397	4120
300.453	1146
300.510	1561
300.566	1312
300.622	2828
300.678	7960
300.734	18144
300.790	20076
300.845	31515
300.901	16848
300.957	17683
301.013	15480
301.069	5429
301.125	3475
301.181	3464
301.237	2410
301.293	1199
301.349	1405
301.405	1167
301.461	469
301.516	1171
301.572	1140
301.628	3656
301.684	3016
301.740	6182
301.796	10446
301.851	6038
301.907	11435
301.963	15142
302.019	28834
302.074	93137
302.130	93806
302.186	38225
302.242	13553
302.297	8373
302.353	8258
302.409	12016
302.464	12061
302.520	9814
302.576	25487
302.631	33131
302.687	14218
302.743	5578
302.798	2859
302.854	1687
302.910	1909
302.965	1930
303.021	4566
303.076	4668
303.132	5731
303.187	6894
303.243	2208
303.299	1350
303.354	202
303.410	637
303.465	368
303.521	607
303.576	467
303.632	2659
303.687	7258
303.743	29096
303.798	25509
303.853	8310
303.909	2566
303.964	1929
304.020	3076
304.075	5941
304.130	3841
304.186	7311
304.241	9129
304.297	7037
304.352	3041
304.358	2896
304.407	1717
304.449	1426
304.463	1331
304.518	1714
304.539	1701
304.573	1683
304.629	2702
304.630	2755
304.684	5405
304.720	15104
304.739	19952
304.794	35885
304.811	30113
304.850	16449
304.902	5996
304.905	5320
304.960	2950
304.992	2470
305.015	2126
305.071	1983
305.083	1677
305.126	586
305.173	479
305.181	477
305.236	217
305.264	778
305.292	1263
305.347	678
305.354	722
305.402	1056
305.445	1219
305.457	1265
305.512	2060
305.535	1872
305.567	1639
305.622	2830
305.626	3013
305.678	6917
305.716	16190
305.733	19682
305.788	27071
305.807	23044
305.843	16334
305.897	24563
305.898	24645
305.953	28136
305.988	17197
306.008	11167
306.063	5220
306.078	4413
306.118	2747
306.168	1985
306.173	1893
306.228	1220
306.259	1003
306.283	929
306.338	283
306.349	477
306.393	1167
306.440	691
306.448	634
306.503	755
306.530	1051
306.558	1515
306.613	3438
306.620	3850
306.668	7407
306.711	14408
306.723	15672
306.778	14169
306.801	10315
306.833	5753
306.888	2358
306.892	2245
306.943	1195
306.982	900
306.997	831
307.052	1464
307.072	1176
307.107	634
307.162	769
307.163	768
307.217	932
307.253	1351
307.272	1505
307.327	1228
307.343	1232
307.381	1224
307.434	1947
307.436	2045
307.491	4335
307.524	7044
307.546	8234
307.600	11577
307.614	10490
307.655	6363
307.704	2612
307.710	2324
307.765	2122
307.795	2307
307.819	2530
307.874	2856
307.885	2893
307.929	2948
307.975	2792
307.984	2984
308.038	5666
308.065	7774
308.093	16316
308.148	38998
308.156	44721
308.202	68897
308.246	85917
308.257	85602
308.312	40073
308.336	26225
308.366	18047
308.421	11415
308.426	10777
308.475	6517
308.517	4710
308.530	4194
308.585	3790
308.607	3228
308.639	2582
308.694	2423
308.697	2435
308.748	3164
308.787	4477
308.803	4635
308.857	3437
308.877	3154
308.912	3302
308.967	3320
308.967	3337
309.021	5730
309.058	7967
309.076	10897
309.130	22232
309.148	27016
309.185	58820
309.238	114424
309.239	114546
309.293	130227
309.328	106796
309.348	89286
309.402	34101
309.418	22927
309.457	14199
309.508	8418
309.511	8212
309.566	7837
309.598	8136
309.620	9326
309.674	14309
309.688	15535
309.729	14040
309.778	9418
309.783	9154
309.837	6297
309.868	5475
309.892	6532
309.946	10149
309.959	11642
310.001	14997
310.049	17380
310.055	17013
310.109	10412
310.139	6457
310.163	4456
310.218	2351
310.229	1956
310.272	1638
310.319	1989
310.326	1932
310.381	1236
310.409	865
310.435	933
310.489	1339
310.499	1402
310.543	1046
310.589	700
310.598	736
310.652	920
310.679	981
310.706	918
310.760	901
310.769	881
310.814	946
310.859	1189
310.868	1147
310.923	667
310.948	461
310.977	884
311.031	1725
311.038	1840
311.085	1260
311.128	566
311.139	646
311.193	1238
311.218	1454
311.247	1334
311.301	1139
311.308	1116
311.356	968
311.398	788
311.410	830
311.464	925
311.488	1043
311.518	932
311.572	578
311.578	550
311.626	1142
311.668	1632
311.680	1616
311.734	1479
311.758	1401
311.788	1228
311.842	1007
311.847	977
311.896	1192
311.937	1405
311.950	1382
312.004	1269
312.027	1216
312.058	1197
312.112	1171
312.117	1168
312.165	1315
312.207	1443
312.297	-126
312.386	212
312.476	1123
312.566	2445
312.656	1397
312.745	447
312.835	1013
312.925	1146
313.015	623
313.104	1306
313.194	641
313.284	1003
313.374	1411
313.463	840
313.553	1478
313.643	210
313.732	380
313.822	526
313.912	578
314.001	73
314.091	631
314.180	421
314.270	1611
314.360	1655
314.449	1633
314.539	524
314.628	754
314.718	691
314.808	413
314.897	562
314.987	605
315.076	1124
315.166	1758
315.255	1435
315.345	2230
315.434	950
315.524	1444
315.613	2070
315.703	2675
315.792	6225
315.881	22777
315.971	5286
316.060	3260
316.150	2516
316.239	2243
316.328	1107
316.418	497
316.507	1230
316.597	1692
316.686	1025
316.775	1532
316.865	1499
316.954	1291
317.043	786
317.133	719
317.222	429
317.311	1651
317.400	447
317.490	2214
317.579	1315
317.668	2270
317.757	3588
317.847	13206
317.936	38752
318.025	11060
318.114	6206
318.203	2404
318.293	1796
318.382	1960
318.471	2370
318.560	2152
318.649	2295
318.738	1345
318.828	1024
318.917	1811
319.006	605
319.095	1913
319.184	4147
319.273	4982
319.362	2679
319.451	804
319.540	1145
319.629	3904
319.718	3401
319.807	1688
319.896	1211
319.985	5959
320.074	2991
320.163	809
320.252	1297
320.341	1043
320.430	763
320.519	2477
320.608	934
320.697	1772
320.786	775
320.875	2125
320.964	1961
321.053	3346
321.142	4105
321.230	5028
321.319	3863
321.408	7194
321.497	3022
321.586	4274
321.675	2378
321.764	2228
321.852	2196
321.941	4413
322.030	2296
322.119	3143
322.207	8883
322.296	3263
322.385	1755
322.474	3913
322.562	10858
322.651	4530
322.740	4311
322.829	5352
322.917	2158
323.006	2844
323.095	2197
323.183	2142
323.272	1908
323.361	4726
323.449	8287
323.538	4066
323.626	6367
323.715	3385
323.804	1551
323.892	5012
323.981	3055
324.069	1854
324.158	2527
324.246	2182
324.335	1199
324.424	3097
324.512	1084
324.601	1012
324.689	1041
324.778	2345
324.866	1931
324.954	1418
325.043	442
325.131	1249
325.220	2081
325.308	1604
325.397	2204
325.485	1765
325.574	376
325.662	561
325.750	128
325.839	1130
325.927	285
326.015	960
326.104	98
326.192	192
326.280	538
326.369	445
326.457	929
326.545	2650
326.634	779
326.722	1088
326.810	-114
326.898	690
326.987	1110
327.075	1093
327.163	2164
327.251	581
327.340	708
327.428	1199
327.516	137
327.604	982
327.692	422
327.781	511
327.869	315
327.957	753
328.045	1069
328.133	1882
328.221	-179
328.309	934
328.397	512
328.485	1331
328.574	1457
328.662	5758
328.750	1631
328.838	366
328.926	1129
329.014	764
329.102	69
329.190	2096
329.278	426
329.366	360
329.454	649
329.542	205
329.630	-582
329.718	425
329.806	824
329.893	614
329.981	-181
330.069	1594
330.157	4241
330.245	11318
330.333	4939
330.421	1341
330.509	2040
330.597	7703
330.684	2985
330.772	1650
330.860	-52
330.948	1096
331.036	-238
331.123	-180
331.211	-161
331.299	566
331.387	256
331.475	1918
331.562	629
331.650	905
331.738	974
331.825	403
331.913	623
332.001	753
332.089	-48
332.176	-162
332.264	1552
332.352	1337
332.439	231
332.527	437
332.614	63
332.702	1437
332.790	272
332.877	1048
332.965	2223
333.052	877
333.140	1342
333.228	3185
333.315	131
333.403	1264
333.490	1330
333.578	2096
333.665	5283
333.753	2061
333.840	527
333.928	810
334.015	1156
334.103	2636
334.190	4376
334.278	974
334.365	1212
334.452	1734
334.540	595
334.627	359
334.715	868
334.802	2976
334.889	10177
334.977	9712
335.064	2575
335.151	529
335.239	1117
335.326	1007
335.413	2376
335.501	3258
335.588	960
335.675	964
335.762	506
335.850	1204
335.937	1584
336.024	4110
336.111	10295
336.199	7687
336.286	1665
336.373	1085
336.460	44
336.547	820
336.635	1033
336.722	1324
336.809	-393
336.896	1121
336.983	1462
337.070	3607
337.157	5044
337.245	5329
337.332	2818
337.419	692
337.506	-14
337.593	951
337.680	1099
337.767	2039
337.854	993
337.941	1745
338.028	1424
338.115	178
338.202	1526
338.289	2339
338.376	4838
338.463	1794
338.550	1071
338.637	1945
338.724	1308
338.811	1817
338.898	241
338.984	565
339.071	56
339.158	1466
339.245	2338
339.332	2135
339.419	956
339.506	2462
339.593	-1000
339.679	930
339.766	-151
339.853	1465
339.940	2048
340.027	1568
340.113	32
340.200	1436
340.287	1087
340.374	1133
340.460	1681
340.547	220
340.634	1833
340.720	8181
340.807	3277
340.894	1064
340.980	512
341.067	480
341.154	1508
341.240	1436
341.327	3013
341.414	1889
341.500	836
341.587	1475
341.674	592
341.760	2700
341.847	2305
341.933	1420
342.020	-474
342.106	705
342.193	696
342.279	1992
342.366	1326
342.452	3166
342.539	931
342.625	3433
342.712	7170
342.798	3256
342.885	786
342.971	452
343.058	691
343.144	769
343.230	550
343.317	1332
343.403	85
343.490	829
343.576	810
343.662	1405
343.749	1513
343.835	2039
343.921	8055
344.008	46081
344.094	77617
344.180	13679
344.267	4360
344.353	13613
344.439	9952
344.525	3070
344.612	961
344.698	1600
344.784	680
344.870	1157
344.957	230
345.043	2048
345.129	317
345.215	2598
345.301	651
345.387	304
345.474	-593
345.560	-21
345.646	-87
345.732	1248
345.818	781
345.904	1843
345.990	935
346.076	1045
346.162	670
346.249	1567
346.335	676
346.421	1755
346.507	7539
346.593	21525
346.679	2875
346.765	1375
346.851	339
346.937	413
347.023	1043
347.108	997
347.194	718
347.280	946
347.366	1462
347.452	10341
347.538	29510
347.624	17190
347.710	9167
347.796	1881
347.882	756
347.967	1439
348.053	308
348.139	275
348.225	300
348.311	420
348.397	657
348.482	1266
348.568	1109
348.654	347
348.740	957
348.825	847
348.911	2917
348.997	16841
349.083	24654
349.168	3220
349.254	780
349.340	718
349.425	693
349.511	1099
349.597	395
349.682	3778
349.768	12285
349.854	3527
349.939	846
350.025	1412
350.110	96
350.196	663
350.282	-675
350.367	1271
350.453	820
350.538	1125
350.624	580
350.709	1603
350.795	-789
350.880	421
350.966	812
351.051	1510
351.137	1146
351.222	1373
351.308	3128
351.393	8438
351.479	782
351.564	994
351.649	465
351.735	1161
351.820	1047
351.906	652
351.991	1376
352.076	6408
352.162	7060
352.247	2446
352.332	604
352.418	2005
352.503	3298
352.588	12390
352.673	6831
352.759	2158
352.844	36
352.929	972
353.014	740
353.100	1834
353.185	2051
353.270	3265
353.355	2390
353.441	1411
353.526	786
353.611	2942
353.696	2084
353.781	2118
353.866	606
353.952	1380
354.037	2059
354.122	5497
354.207	4125
354.292	2168
354.377	563
354.462	987
354.547	917
354.632	1535
354.717	1401
354.802	2600
354.887	585
354.972	1459
355.057	40
355.142	454
355.227	1407
355.312	1891
355.397	4216
355.482	8721
355.567	3402
355.652	4025
355.737	4587
355.822	14815
355.907	9412
355.991	2840
356.076	438
356.161	810
356.246	403
356.331	2217
356.416	5288
356.501	38979
356.585	28539
356.670	3062
356.755	3655
356.840	5393
356.924	32701
357.009	91678
357.094	24757
357.179	4184
357.263	2185
357.348	2707
357.433	1606
357.517	2716
357.602	1271
357.687	2324
357.771	2770
357.856	4418
357.941	5158
358.025	31445
358.110	114590
358.195	39790
358.279	3895
358.364	2901
358.448	8727
358.533	22325
358.617	14645
358.702	15519
358.787	5074
358.871	3178
358.956	1635
359.040	1520
359.125	500
359.209	1355
359.294	1209
359.378	3102
359.462	1771
359.547	1411
359.631	27
359.716	480
359.800	849
359.885	1864
359.969	439
360.053	1749
360.138	531
360.222	1182
360.306	2004
360.391	2187
360.475	2653
360.559	6075
360.644	7972
360.728	5232
360.812	23185
360.896	49703
360.981	11709
361.065	3717
361.149	2110
361.233	2203
361.318	-397
361.402	1933
361.486	2146
361.570	1034
361.654	1877
361.739	7274
361.823	38284
361.907	51129
361.991	6388
362.075	2688
362.159	4182
362.243	4231
362.327	3244
362.411	7868
362.495	2324
362.580	1858
362.664	789
362.748	760
362.832	1058
362.916	1777
363.000	11898
363.084	46421
363.168	59467
363.252	9532
363.336	2522
363.420	3116
363.503	3987
363.587	3243
363.671	1347
363.755	2031
363.839	3317
363.923	807
364.007	3186
364.091	2474
364.175	723
364.258	8117
364.342	7192
364.426	22035
364.510	9256
364.594	5143
364.677	11859
364.761	48287
364.845	25463
364.929	4902
365.013	2993
365.096	4331
365.180	2812
365.264	2332
365.347	5700
365.431	2030
365.515	522
365.598	559
365.682	1295
365.766	125
365.849	766
365.933	1392
366.017	1575
366.100	228
366.184	333
366.267	1293
366.351	756
366.435	262
366.518	139
366.602	1868
366.685	1233
366.769	968
366.852	537
366.936	2183
367.019	1637
367.103	168
367.186	1812
367.270	247
367.353	-161
367.436	1116
367.520	442
367.603	1600
367.687	986
367.770	2790
367.853	3647
367.937	11777
368.020	13980
368.104	2573
368.187	2961
368.270	2894
368.353	2163
368.437	2683
368.520	3732
368.603	4658
368.687	10460
368.770	17127
368.853	3106
368.936	3458
369.020	1364
369.103	933
369.186	90
369.269	423
369.352	3076
369.436	2646
369.519	1525
369.602	-307
369.685	2488
369.768	864
369.851	689
369.934	681
370.018	807
370.101	1887
370.184	2543
370.267	3069
370.350	1779
370.433	4640
370.516	21842
370.599	25728
370.682	4539
370.765	8899
370.848	14140
370.931	23914
371.014	7073
371.097	1100
371.180	996
371.263	1901
371.346	-679
371.429	1780
371.511	125
371.594	2208
371.677	1897
371.760	2878
371.843	6018
371.926	46105
372.009	85451
372.091	19147
372.174	11349
372.257	29004
372.340	8206
372.423	3360
372.505	3834
372.588	1846
372.671	9231
372.754	23850
372.836	9555
372.919	2613
373.002	3403
373.085	1565
373.167	3896
373.250	12199
373.332	29049
373.415	64102
373.498	118436
373.580	36108
373.663	67599
373.746	72171
373.828	10202
373.911	4258
373.993	1761
374.076	3790
374.159	2198
374.241	6994
374.324	19309
374.406	13619
374.489	37190
374.571	82003
374.654	23180
374.736	17171
374.819	50380
374.901	82683
374.983	75470
375.066	9959
375.148	2615
375.231	3355
375.313	4210
375.395	2366
375.478	1316
375.560	2208
375.643	2557
375.725	18020
375.807	65483
375.890	34435
375.972	4167
376.054	4334
376.136	3262
376.219	3694
376.301	19505
376.383	45171
376.465	13318
376.548	6706
376.630	13200
376.712	34206
376.794	12050
376.877	1840
376.959	-377
377.041	1208
377.123	674
377.205	162
377.287	112
377.369	1699
377.452	154
377.534	1721
377.616	534
377.698	653
377.780	-386
377.862	1192
377.944	1660
378.026	-194
378.108	828
378.190	1350
378.272	1465
378.354	1030
378.436	924
378.518	-161
378.600	2163
378.682	5023
378.764	12584
378.846	8337
378.928	1155
379.010	1698
379.091	1889
379.173	1058
379.255	405
379.337	1812
379.419	6990
379.501	19038
379.583	5368
379.664	2363
379.746	3320
379.828	12491
379.910	15543
379.991	12921
380.073	1896
380.155	2061
380.237	839
380.318	575
380.400	990
380.482	2472
380.564	3102
380.645	3273
380.727	3241
380.809	2253
380.890	471
380.972	252
381.053	1014
381.135	1574
381.217	4251
381.298	12652
381.380	5615
381.461	8310
381.543	39637
381.624	38390
381.706	4875
381.787	2422
381.869	4740
381.951	30057
382.032	96475
382.113	43006
382.195	3674
382.276	5278
382.358	11414
382.439	34694
382.521	48576
382.602	73670
382.684	23679
382.765	37752
382.846	28570
382.928	40990
383.009	17028
383.090	14383
383.172	66752
383.253	95764
383.334	33824
383.416	49430
383.497	18546
383.578	5578
383.659	10259
383.741	58959
383.822	162076
383.903	65693
383.984	27078
384.066	49482
384.147	23241
384.228	4931
384.309	2017
384.390	2463
384.471	1758
384.553	2387
384.634	2571
384.715	3320
384.796	1551
384.877	2436
384.958	12639
385.039	11501
385.120	2682
385.201	2513
385.282	1317
385.363	2035
385.444	1658
385.525	8188
385.606	27289
385.687	18575
385.768	3464
385.849	6371
385.930	46773
386.011	68454
386.092	11564
386.173	2905
386.254	1522
386.335	2431
386.416	1211
386.496	7767
386.577	10583
386.658	2674
386.739	920
386.820	2319
386.901	201
386.981	2153
387.062	1909
387.143	3180
387.224	11022
387.304	8892
387.385	3397
387.466	406
387.547	1973
387.627	1327
387.708	5569
387.789	26643
387.869	29432
387.950	7261
388.031	1219
388.111	-828
388.192	1443
388.273	2900
388.353	1713
388.434	1754
388.514	9150
388.595	41155
388.676	36014
388.756	10926
388.837	10089
388.917	4474
388.998	330
389.078	2334
389.159	1644
389.239	249
389.320	3248
389.400	145
389.480	5290
389.561	13621
389.641	5758
389.722	2947
389.802	2597
389.883	8263
389.963	20271
390.043	8066
390.124	746
390.204	4842
390.284	13319
390.365	9349
390.445	32751
390.525	137885
390.605	96517
390.686	12385
390.766	3437
390.846	2730
390.927	533
391.007	650
391.087	1663
391.167	744
391.247	-344
391.328	2092
391.408	1532
391.488	1410
391.568	-361
391.648	1874
391.728	2897
391.808	2936
391.888	2648
391.969	8266
392.049	9270
392.129	4824
392.209	6260
392.289	17945
392.369	6683
392.449	2555
392.529	1657
392.609	3826
392.689	6805
392.769	19034
392.849	12566
392.929	10938
393.009	23525
393.089	18752
393.169	25023
393.248	124475
393.328	494792
393.408	430097
393.488	79286
393.568	18648
393.648	8457
393.728	5294
393.807	3167
393.887	4619
393.967	3465
394.047	3752
394.127	3548
394.206	7228
394.286	43355
394.366	189574
394.446	145745
394.525	19160
394.605	3901
394.685	3668
394.764	3944
394.844	4155
394.924	3144
395.003	2327
395.083	2281
395.163	2823
395.242	1472
395.322	2109
395.402	3
395.481	3621
395.561	2266
395.640	7901
395.720	7656
395.799	5538
395.879	4318
395.958	8776
396.038	57564
396.117	239721
396.197	188060
396.276	28402
396.356	6368
396.435	5144
396.515	4973
396.594	7745
396.673	24963
396.753	147198
396.832	434531
396.912	230604
396.991	34696
397.070	10843
397.150	4391
397.229	5478
397.308	4924
397.388	6093
397.467	3412
397.546	2413
397.625	-878
397.705	3051
397.784	1621
397.863	1466
397.942	937
398.022	1069
398.101	1206
398.180	3231
398.259	824
398.338	1938
398.417	-38
398.497	-240
398.576	709
398.655	188
398.734	951
398.813	1343
398.892	1364
398.971	3237
399.050	252
399.129	-603
399.208	-383
399.287	842
399.366	-318
399.445	902
399.524	603
399.603	-1121
399.682	931
399.761	3039
399.840	4099
399.919	2163
399.998	130
400.077	-517
400.156	-658
400.235	3087
400.313	126
400.392	727
400.471	6714
400.550	8471
400.629	817
400.708	1659
400.786	-436
400.865	856
400.944	-329
401.023	2597
401.102	20
401.180	774
401.259	-528
401.338	154
401.416	846
401.495	201
401.574	747
401.652	375
401.731	1198
401.810	-635
401.888	0
401.967	516
402.046	286
402.124	872
402.203	-34
402.281	374
402.360	-227
402.438	1572
402.517	-1412
402.596	1064
402.674	-85
402.753	220
402.831	915
402.910	1180
402.988	5592
403.066	18515
403.145	9525
403.223	6792
403.302	13702
403.380	10360
403.459	9014
403.537	3397
403.615	548
403.694	117
403.772	66
403.850	335
403.929	-561
404.007	133
404.085	1364
404.164	1015
404.242	-363
404.320	1610
404.398	1602
404.477	12055
404.555	53232
404.633	35582
404.711	3219
404.789	1351
404.868	1026
404.946	261
405.024	100
405.102	-172
405.180	-583
405.258	-642
405.336	917
405.415	-662
405.493	826
405.571	1264
405.649	-105
405.727	-676
405.805	1136
405.883	775
405.961	691
406.039	63
406.117	-1030
406.195	1627
406.273	10219
406.351	34709
406.429	15111
406.507	1688
406.585	-835
406.663	625
406.740	320
406.818	-345
406.896	-363
406.974	1499
407.052	2914
407.130	20050
407.208	21133
407.285	3442
407.363	-652
407.441	355
407.519	-65
407.596	1223
407.674	2032
407.752	8266
407.830	6156
407.907	1597
407.985	-265
408.063	976
408.141	-409
408.218	454
408.296	-423
408.373	149
408.451	339
408.529	763
408.606	-775
408.684	-234
408.762	-2
408.839	-136
408.917	-351
408.994	-273
409.072	-1503
409.149	435
409.227	1106
409.304	1072
409.382	772
409.459	748
409.537	1558
409.614	784
409.692	-318
409.769	809
409.846	1283
409.924	2398
410.001	-1800
410.079	-293
410.156	730
410.233	1461
410.311	531
410.388	-556
410.465	-456
410.543	-380
410.620	-74
410.697	1002
410.775	22
410.852	-1777
410.929	494
411.006	1914
411.083	-396
411.161	-127
411.238	57
411.315	223
411.392	171
411.469	678
411.547	204
411.624	-987
411.701	72
411.778	725
411.855	1095
411.932	-160
412.009	-667
412.086	839
412.163	-800
412.240	-774
412.317	-27
412.394	15
412.471	-31
412.548	-362
412.625	-727
412.702	-319
412.779	498
412.856	-212
412.933	-1266
413.010	-264
413.087	455
413.164	4244
413.241	5818
413.318	1139
413.395	383
413.471	1606
413.548	-23
413.625	945
413.702	-1139
413.779	69
413.855	-477
413.932	-850
414.009	-1151
414.086	-418
414.162	-438
414.239	490
414.316	4855
414.393	11995
414.469	1327
414.546	134
414.623	-36
414.699	23
414.776	-770
414.853	-773
414.929	147
415.006	-175
415.082	-256
415.159	-933
415.236	-443
415.312	267
415.389	174
415.465	935
415.542	-99
415.618	-992
415.695	63
415.771	16
415.848	-197
415.924	672
416.000	-1024
416.077	840
416.153	-2106
416.230	-1360
416.306	-414
416.383	-1049
416.459	-631
416.535	-74
416.612	-555
416.688	-344
416.764	-950
416.841	-685
416.917	-787
416.993	372
417.069	-264
417.146	-527
417.222	-57
417.298	-67
417.374	-1143
417.451	612
417.527	-1264
417.603	-142
417.679	-181
417.755	224
417.831	-1173
417.908	-129
417.984	-785
418.060	-574
418.136	496
418.212	1113
418.288	65
418.364	232
418.440	-1013
418.516	-269
418.592	-214
418.668	863
418.744	2274
418.820	1305
418.896	-54
418.972	-658
419.048	-833
419.124	1692
419.200	-1150
419.276	-530
419.352	-868
419.428	-249
419.504	-1316
419.579	-3
419.655	-898
419.731	-162
419.807	330
419.883	3333
419.959	688
420.034	591
420.110	1021
420.186	6325
420.262	4099
420.337	-495
420.413	-624
420.489	476
420.565	-218
420.640	-689
420.716	-1
420.792	-1199
420.867	-735
420.943	-858
421.019	311
421.094	-420
421.170	-619
421.245	-454
421.321	-210
421.397	31
421.472	990
421.548	3454
421.623	1387
421.699	320
421.774	61
421.850	-12
421.925	143
422.001	651
422.076	46
422.152	54
422.227	1160
422.302	2304
422.378	3636
422.453	7988
422.529	29427
422.604	128024
422.679	212877
422.755	88752
422.830	20054
422.905	7400
422.981	3665
423.056	1841
423.131	1487
423.207	769
423.282	-227
423.357	2209
423.432	388
423.508	1352
423.583	2118
423.658	891
423.733	229
423.808	326
423.883	126
423.959	-55
424.034	-141
424.109	751
424.184	-672
424.259	-213
424.334	-1438
424.409	-1284
424.484	-1433
424.559	-708
424.634	-970
424.709	-226
424.784	-162
424.859	-3
424.934	-993
425.009	4571
425.084	6310
425.159	1292
425.234	800
425.309	-782
425.384	6
425.459	-701
425.534	-808
425.609	-973
425.683	-1190
425.758	-714
425.833	-780
425.908	541
425.983	1686
426.058	7015
426.132	1633
426.207	-697
426.282	-463
426.357	-1012
426.431	-929
426.506	-594
426.581	-954
426.655	-498
426.730	-892
426.805	-1262
426.879	-126
426.954	-741
427.029	615
427.103	10914
427.178	26205
427.253	7638
427.327	-162
427.402	-515
427.476	-894
427.551	-378
427.625	-1647
427.700	-912
427.774	-1515
427.849	-40
427.923	-2163
427.998	-822
428.072	-1727
428.147	716
428.221	8565
428.296	27780
428.370	11311
428.444	1103
428.519	-997
428.593	-770
428.667	-1050
428.742	93
428.816	1451
428.890	14398
428.965	20157
429.039	3431
429.113	-415
429.188	-523
429.262	-1669
429.336	185
429.410	1946
429.485	104
429.559	-1142
429.633	-1386
429.707	-1040
429.781	1306
429.855	12006
429.930	18660
430.004	4130
430.078	2175
430.152	10990
430.226	51352
430.300	42422
430.374	3093
430.448	-136
430.522	431
430.596	947
430.670	6253
430.744	33680
430.818	40389
430.892	6071
430.966	-95
431.040	-748
431.114	-1180
431.188	-1054
431.262	-727
431.336	-621
431.410	-855
431.484	-521
431.557	-65
431.631	-1261
431.705	-370
431.779	4699
431.853	25673
431.927	14314
432.000	486
432.074	-749
432.148	-660
432.222	-2071
432.295	-1026
432.369	-1436
432.443	493
432.516	10977
432.590	26938
432.664	6728
432.737	-504
432.811	-938
432.885	-874
432.958	-708
433.032	-1330
433.106	-2243
433.179	-833
433.253	-1245
433.326	-1300
433.400	-2177
433.473	-933
433.547	-2305
433.620	-542
433.694	-1119
433.767	-1043
433.841	-2500
433.914	-1504
433.988	-1829
434.061	-899
434.134	-2308
434.208	-1371
434.281	-1820
434.355	-1514
434.428	-1459
434.501	-1605
434.575	-1593
434.648	-1365
434.721	-1298
434.795	-1860
434.868	-2032
434.941	-1300
435.014	-1533
435.088	-1363
435.161	-1212
435.234	-714
435.307	-1419
435.381	-399
435.454	-1447
435.527	780
435.600	-379
435.673	-408
435.746	-1759
435.819	-767
435.892	-1894
435.966	-1255
436.039	-1601
436.112	-910
436.185	-1828
436.258	-1511
436.331	-2702
436.404	-1220
436.477	-2302
436.550	-1403
436.623	-894
436.696	-924
436.769	-1465
436.842	-1724
436.915	-1383
436.987	-300
437.060	-1550
437.133	-1828
437.206	-1765
437.279	-856
437.352	-1698
437.425	-1899
437.498	-1583
437.570	533
437.643	-1333
437.716	-1419
437.789	-1332
437.861	-887
437.934	-1839
438.007	-971
438.080	-1518
438.152	-664
438.225	1713
438.298	22025
438.370	50167
438.443	15705
438.516	86
438.588	-1298
438.661	-2113
438.734	-1494
438.806	-1392
438.879	-1019
438.951	-1653
439.024	-897
439.096	-2340
439.169	-832
439.241	-2089
439.314	-1711
439.386	-1834
439.459	-1097
439.531	-1597
439.604	-1240
439.676	-850
439.749	-1380
439.821	-1611
439.893	-858
439.966	-2096
440.038	-1905
440.110	-2306
440.183	-2042
440.255	-1801
440.327	-341
440.400	4939
440.472	22533
440.544	12154
440.617	-12
440.689	-634
440.761	-692
440.833	-941
440.905	-1030
440.978	-1895
441.050	-1581
441.122	-1397
441.194	-1395
441.266	-1562
441.338	-1190
441.411	-772
441.483	4045
441.555	5831
441.627	1195
441.699	-1563
441.771	-1241
441.843	-1997
441.915	-682
441.987	-2616
442.059	-1451
442.131	-2606
442.203	-1014
442.275	-1178
442.347	-1013
442.419	484
442.491	9941
442.563	24370
442.635	8887
442.706	206
442.778	-363
442.850	-956
442.922	-1706
442.994	-1694
443.066	-1616
443.137	-1294
443.209	-1066
443.281	-975
443.353	479
443.425	13133
443.496	53388
443.568	48382
443.640	14923
443.711	905
443.783	-1127
443.855	-1526
443.926	-644
443.998	-2169
444.070	-872
444.141	-1384
444.213	-298
444.285	-1238
444.356	-1166
444.428	-1358
444.499	-1743
444.571	-2138
444.642	-931
444.714	-1273
444.785	-101
444.857	-1380
444.928	-772
445.000	-1166
445.071	-322
445.143	-1204
445.214	225
445.285	482
445.357	5096
445.428	37272
445.500	88596
445.571	48075
445.642	21189
445.714	3941
445.785	636
445.856	-1025
445.928	163
445.999	-1057
446.070	-1302
446.141	-911
446.213	-624
446.284	-1929
446.355	-1730
446.426	-2144
446.497	-1110
446.569	-1838
446.640	-855
446.711	-1155
446.782	-1060
446.853	-1417
446.924	-761
446.995	-2158
447.066	-1457
447.138	-1648
447.209	-850
447.280	-2378
447.351	-1676
447.422	-1699
447.493	-2113
447.564	-1368
447.635	-970
447.706	-1717
447.777	-1798
447.847	-1828
447.918	-1540
447.989	-1929
448.060	-1438
448.131	-1341
448.202	-1942
448.273	-1674
448.344	-1619
448.414	-2077
448.485	-1387
448.556	-1737
448.627	-1383
448.698	-688
448.768	-1911
448.839	-2186
448.910	-1515
448.981	-1776
449.051	-1542
449.122	-2599
449.193	-1598
449.263	-1489
449.334	-1571
449.405	-1539
449.475	-950
449.546	-1420
449.616	-1137
449.687	-1390
449.758	-1450
449.828	-1671
449.899	-1357
449.969	-2160
450.040	-1410
450.110	-1039
450.181	-1089
450.251	-2208
450.322	-1061
450.392	-1644
450.463	-1114
450.533	-1776
450.604	-1945
450.674	-2181
450.744	-1311
450.815	-1710
450.885	-1175
450.955	-1630
451.026	-1308
451.096	-2140
451.166	-1359
451.237	-2535
451.307	-1927
451.377	-1543
451.447	-1728
451.518	-2193
451.588	-2268
451.658	-2037
451.728	-1798
451.799	-1613
451.869	-1161
451.939	-1750
452.009	-1263
452.079	-2084
452.149	-1382
452.219	-1996
452.289	-612
452.360	-2058
452.430	-1887
452.500	-1466
452.570	-667
452.640	-242
452.710	1828
452.780	1684
452.850	1282
452.920	295
452.990	-758
453.060	-845
453.129	-908
453.199	-2274
453.269	-974
453.339	-242
453.409	489
453.479	79
453.549	67
453.619	-158
453.688	-997
453.758	-1434
453.828	-1069
453.898	-1859
453.968	-1086
454.037	-1517
454.087	-1690
454.107	-1771
454.168	-2140
454.177	-2210
454.247	-1555
454.249	-1575
454.316	-2462
454.330	-2481
454.386	-2597
454.411	-2519
454.456	-2513
454.492	-1754
454.525	-1067
454.574	-1432
454.595	-1621
454.655	-1426
454.665	-1391
454.734	-1442
454.736	-1420
454.804	-1251
454.817	-1361
454.873	-1939
454.898	-1486
454.943	-716
454.979	-1406
455.013	-2067
455.060	-1149
455.082	-729
455.141	-1484
455.152	-1572
455.221	-109
455.222	-64
455.291	2760
455.303	4033
455.360	8001
455.384	11717
455.430	14943
455.465	11539
455.499	9278
455.546	2798
455.569	58
455.627	-587
455.638	-699
455.707	-1126
455.708	-1111
455.777	-1439
455.789	-1381
455.846	-1036
455.869	-902
455.916	-609
455.950	-784
455.985	-1067
456.031	-1062
456.054	-1052
456.112	-1122
456.124	-1139
456.193	-887
456.193	-898
456.262	-1106
456.274	-964
456.332	-153
456.355	-430
456.401	-1117
456.436	-1122
456.470	-1084
456.516	-850
456.540	-830
456.597	-903
456.609	-877
456.678	-501
456.678	-513
456.747	-1048
456.759	-1119
456.817	-1476
456.840	-1271
456.886	-896
456.920	-1305
456.955	-1568
457.001	-336
457.024	153
457.082	-449
457.093	-583
457.162	-170
457.163	-162
457.232	-1289
457.243	-1125
457.301	-107
457.324	-340
457.370	-1146
457.405	-940
457.439	-504
457.485	-517
457.508	-653
457.566	-363
457.577	-276
457.646	257
457.647	266
457.715	1679
457.727	2216
457.784	5628
457.808	7411
457.853	8816
457.889	9645
457.922	8311
457.969	4444
457.991	5202
458.050	8512
458.060	9097
458.129	16835
458.130	17053
458.198	12035
458.211	10219
458.267	4692
458.292	2392
458.336	1065
458.372	1141
458.405	3307
458.453	6811
458.474	9476
458.533	18134
458.543	18627
458.611	26016
458.614	26220
458.680	12104
458.694	8035
458.749	2608
458.775	1636
458.818	812
458.855	401
458.887	340
458.936	511
458.955	447
459.016	-184
459.024	-231
459.093	783
459.097	766
459.162	197
459.177	238
459.230	703
459.257	686
459.299	350
459.338	514
459.368	688
459.418	651
459.437	479
459.499	85
459.505	110
459.574	-69
459.579	-13
459.643	20
459.659	-130
459.711	-66
459.740	85
459.780	-13
459.820	-109
459.849	-70
459.900	161
459.917	227
459.981	673
459.986	669
460.054	147
460.061	91
460.123	315
460.141	545
460.191	970
460.222	1228
460.260	1569
460.302	1702
460.328	1507
460.382	835
460.397	738
460.462	1124
460.465	1171
460.534	1673
460.543	1789
460.602	6561
460.623	8426
460.671	14369
460.703	19046
460.739	16525
460.783	12093
460.808	9331
460.864	1706
460.876	1365
460.944	600
460.945	590
461.013	551
461.024	513
461.081	438
461.104	633
461.150	1150
461.184	1216
461.218	1039
461.264	812
461.286	732
461.345	306
461.355	217
461.423	428
461.425	416
461.491	331
461.505	413
461.559	676
461.585	737
461.628	1287
461.665	1784
461.696	1847
461.745	1912
461.764	1660
461.825	856
461.832	859
461.901	672
461.905	678
461.969	619
461.985	579
462.037	1110
462.065	1377
462.105	881
462.145	540
462.173	766
462.225	1168
462.241	1187
462.305	828
462.310	806
462.378	992
462.385	1001
462.446	1066
462.465	1035
462.514	1341
462.545	1485
462.582	1355
462.625	1455
462.650	1310
462.705	597
462.718	583
462.785	1295
462.786	1299
462.854	501
462.865	417
462.922	1030
462.945	1443
462.990	1602
463.025	1462
463.058	1448
463.104	1352
463.126	1162
463.184	1063
463.194	1139
463.262	1103
463.264	1113
463.330	1346
463.344	1370
463.398	1880
463.424	2096
463.466	1295
463.504	595
463.533	1061
463.583	1953
463.601	1812
463.663	757
463.669	741
463.737	1511
463.743	1497
463.805	1819
463.823	2072
463.873	2658
463.903	2821
463.940	2255
463.982	1823
464.008	1862
464.062	1737
464.076	1578
464.142	741
464.144	760
464.211	1315
464.221	1437
464.279	1407
464.301	1346
464.347	1476
464.381	1613
464.414	1739
464.461	1736
464.482	1747
464.540	1829
464.550	1822
464.617	1623
464.620	1626
464.685	3290
464.699	3558
464.753	3562
464.779	3615
464.820	4211
464.859	4750
464.888	4075
464.938	2854
464.956	3020
465.018	3456
465.023	3441
465.091	3325
465.098	3302
465.158	3681
465.177	3805
465.226	3390
465.257	3046
465.293	3113
465.336	3223
465.361	3530
465.416	4108
465.428	4068
465.495	4012
465.496	4020
465.563	3642
465.575	3575
465.631	4179
465.654	4447
465.698	3625
465.734	2956
465.765	3031
465.813	2984
465.833	2920
465.893	2862
465.900	2908
465.968	3194
465.972	3199
466.035	2857
466.052	2788
466.102	3659
466.131	4118
466.170	3507
466.210	2783
466.237	3239
466.290	4246
466.304	4115
466.369	3214
466.372	3249
466.439	4246
466.449	4353
466.506	4244
466.528	4217
466.573	4829
466.607	5203
466.641	5597
466.687	6216
466.708	6792
466.766	8253
466.775	7972
466.842	5754
466.845	5634
466.909	4951
466.925	4775
466.977	4797
467.004	4780
467.044	4883
467.083	5003
467.111	5501
467.163	6370
467.178	6562
467.242	7288
467.245	7268
467.312	6524
467.321	6411
467.379	6640
467.400	6700
467.446	5944
467.480	5375
467.559	5989
467.638	4108
467.717	5043
467.796	5738
467.875	6631
467.955	5004
468.034	5709
468.113	6253
468.192	7780
468.271	5786
468.350	6239
468.429	9193
468.508	11101
468.588	6931
468.667	4432
468.746	3660
468.825	3843
468.904	4393
468.983	3996
469.062	4838
469.141	5303
469.220	3756
469.299	5155
469.378	3999
469.456	7683
469.535	5790
469.614	5686
469.693	4966
469.772	5990
469.851	5351
469.930	5815
470.009	5192
470.088	5905
470.166	7084
470.245	9868
470.324	10897
470.403	6780
470.482	4862
470.560	5361
470.639	4898
470.718	6291
470.797	4794
470.875	4805
470.954	3835
471.033	5464
471.111	4065
471.190	3988
471.269	3792
471.347	3622
471.426	3926
471.505	4027
471.583	5702
471.662	5718
471.740	4233
471.819	4757
471.898	3612
471.976	5421
472.055	4105
472.133	4643
472.212	4993
472.290	4567
472.369	3915
472.447	4168
472.526	3086
472.604	4416
472.683	4389
472.761	4673
472.839	4817
472.918	5320
472.996	3327
473.075	4980
473.153	3747
473.231	3062
473.310	4051
473.388	4815
473.466	4705
473.545	5806
473.623	6663
473.701	6971
473.780	3881
473.858	3424
473.936	5041
474.014	5101
474.093	4117
474.171	5304
474.249	4932
474.327	4252
474.405	2888
474.484	4520
474.562	3256
474.640	3762
474.718	3723
474.796	4268
474.874	4180
474.952	3744
475.030	3466
475.108	3877
475.187	3990
475.265	4882
475.343	8311
475.421	9681
475.499	3864
475.577	3820
475.655	4459
475.733	4071
475.811	4972
475.889	4362
475.966	4026
476.044	4216
476.122	5649
476.200	6835
476.278	5221
476.356	3595
476.434	3656
476.512	6009
476.590	6205
476.667	6736
476.745	3713
476.823	4140
476.901	3383
476.979	3693
477.056	3163
477.134	3254
477.212	3009
477.290	4070
477.367	2509
477.445	3198
477.523	3107
477.601	3706
477.678	3216
477.756	3491
477.834	3186
477.911	3906
477.989	3574
478.066	2813
478.144	3498
478.222	5447
478.299	8963
478.377	8101
478.454	3447
478.532	2564
478.609	3040
478.687	4821
478.764	2960
478.842	3824
478.919	3027
478.997	3944
479.074	1838
479.152	3136
479.229	3360
479.307	3096
479.384	2649
479.461	3003
479.539	2273
479.616	2951
479.694	1292
479.771	3598
479.848	2479
479.926	1772
480.003	3901
480.080	3188
480.157	2591
480.235	2216
480.312	3196
480.389	2687
480.467	2351
480.544	3245
480.621	2849
480.698	2979
480.775	2957
480.853	3032
480.930	2139
481.007	2321
481.084	2264
481.161	2376
481.238	3434
481.315	2433
481.392	2314
481.470	1834
481.547	1903
481.624	2829
481.701	1944
481.778	2532
481.855	2188
481.932	3458
482.009	3793
482.086	3789
482.163	3508
482.240	6964
482.317	11403
482.393	8357
482.470	2645
482.547	3652
482.624	2359
482.701	2265
482.778	1735
482.855	3094
482.932	1966
483.009	2590
483.085	2009
483.162	3695
483.239	4217
483.316	3210
483.393	3333
483.469	3482
483.546	2752
483.623	2711
483.699	1888
483.776	1948
483.853	3317
483.930	3832
484.006	4747
484.083	6420
484.160	11164
484.236	21036
484.313	14729
484.389	10281
484.466	9692
484.543	9570
484.619	10364
484.696	12508
484.772	9194
484.849	9832
484.925	9776
485.002	8594
485.078	9651
485.155	8790
485.231	8037
485.308	7733
485.384	7721
485.461	8509
485.537	9027
485.614	9453
485.690	7738
485.766	8078
485.843	8453
485.919	11688
485.995	11292
486.072	7658
486.148	7191
486.224	7652
486.301	7732
486.377	7731
486.453	6351
486.530	9165
486.606	11581
486.682	12125
486.758	10460
486.835	11049
486.911	8668
486.987	13003
487.063	18590
487.139	26873
487.215	19015
487.292	11091
487.368	9658
487.444	10768
487.520	12811
487.596	14061
487.672	24061
487.748	76398
487.824	107908
487.900	25649
487.976	9463
488.052	8477
488.128	9770
488.204	7622
488.280	8355
488.356	7017
488.432	7912
488.508	10443
488.584	7514
488.660	7186
488.736	7556
488.812	8742
488.888	10013
488.964	11940
489.039	24536
489.115	38712
489.191	21653
489.267	7408
489.343	6910
489.418	6842
489.494	5742
489.570	5067
489.646	7202
489.722	6722
489.797	4898
489.873	6896
489.949	8041
490.024	8086
490.100	5295
490.176	6085
490.251	6860
490.327	9513
490.403	5780
490.478	5613
490.554	4544
490.629	5713
490.705	4799
490.781	5564
490.856	4244
490.932	6595
491.007	5851
491.083	6194
491.158	4251
491.234	5222
491.309	6457
491.385	5679
491.460	4700
491.536	6689
491.611	5302
491.686	6183
491.762	8040
491.837	15677
491.913	24237
491.988	33797
492.063	44364
492.139	8504
492.214	5272
492.289	4924
492.365	4507
492.440	5487
492.515	3768
492.590	4059
492.666	4096
492.741	5651
492.816	4637
492.891	4468
492.967	5676
493.042	5285
493.117	6135
493.192	8267
493.267	14912
493.342	59016
493.418	81006
493.493	11058
493.568	4079
493.643	4232
493.718	4304
493.793	5778
493.868	7706
493.943	6331
494.018	4372
494.093	3514
494.168	4359
494.243	3749
494.318	3086
494.393	4080
494.468	3319
494.543	3467
494.618	4480
494.693	3921
494.768	3294
494.842	3244
494.917	2670
494.992	4576
495.067	3040
495.142	3781
495.217	2820
495.292	4833
495.366	3715
495.441	4712
495.516	6617
495.591	8316
495.665	31277
495.740	79867
495.815	27673
495.890	4858
495.964	2073
496.039	5692
496.114	3211
496.188	3718
496.263	4385
496.338	1887
496.412	2678
496.487	3371
496.561	4498
496.636	5433
496.710	4147
496.785	3574
496.860	3597
496.934	3834
497.009	3137
497.083	3669
497.158	2951
497.232	4388
497.307	4498
497.381	4659
497.455	3646
497.530	4528
497.604	3877
497.679	4032
497.753	5726
497.827	7366
497.902	6884
497.976	7935
498.050	10367
498.125	26085
498.199	28548
498.273	15786
498.348	12651
498.422	10315
498.496	7801
498.570	7072
498.645	3944
498.719	2401
498.793	3782
498.867	5646
498.941	5042
499.016	10023
499.090	22925
499.164	9961
499.238	4017
499.312	4139
499.386	4177
499.460	4918
499.534	3299
499.609	4530
499.683	3070
499.757	4656
499.831	5478
499.905	14426
499.979	13455
500.053	3604
500.127	6402
500.201	6638
500.275	4454
500.349	3727
500.422	3375
500.496	6453
500.570	13936
500.644	16258
500.718	15744
500.792	5576
500.866	3667
500.940	3401
501.013	2983
501.087	3130
501.161	6441
501.235	5492
501.309	6793
501.382	11862
501.456	12701
501.530	4679
501.603	4286
501.677	3285
501.751	771
501.825	4846
501.898	2913
501.972	5574
502.046	2354
502.119	3216
502.193	5254
502.266	7020
502.340	3474
502.413	4253
502.487	4896
502.561	3258
502.634	3054
502.708	4446
502.781	1861
502.855	3314
502.928	1032
503.002	2830
503.075	1160
503.149	2215
503.222	1383
503.295	2071
503.369	2605
503.442	1841
503.516	4357
503.589	9068
503.662	4657
503.736	4104
503.809	6145
503.882	6099
503.956	8877
504.029	12868
504.102	37665
504.175	55397
504.249	11488
504.322	4517
504.395	3488
504.468	2903
504.542	1263
504.615	2172
504.688	2345
504.761	796
504.834	4066
504.907	4558
504.980	6179
505.053	3125
505.127	2685
505.200	5538
505.273	1609
505.346	2182
505.419	832
505.492	3369
505.565	1544
505.638	2070
505.711	909
505.784	1527
505.857	1291
505.930	3467
506.003	1070
506.076	2882
506.149	345
506.221	781
506.294	3119
506.367	2294
506.440	6873
506.513	5000
506.586	2616
506.659	2210
506.731	1626
506.804	2228
506.877	3409
506.950	2340
507.022	2609
507.095	287
507.168	2231
507.241	3161
507.313	2123
507.386	2394
507.459	4736
507.531	3199
507.604	844
507.677	3252
507.749	251
507.822	4112
507.894	6956
507.967	8726
508.040	3511
508.112	4582
508.185	4371
508.257	2118
508.330	6431
508.402	3393
508.475	1992
508.547	3555
508.620	2620
508.692	3117
508.765	3262
508.837	3037
508.909	2603
508.982	2732
509.054	4176
509.127	3067
509.199	2653
509.271	2789
509.344	2441
509.416	2799
509.488	2335
509.560	3200
509.633	2842
509.705	3337
509.777	2496
509.849	5844
509.922	1684
509.994	3219
510.066	3591
510.138	2333
510.210	8468
510.283	6462
510.355	6252
510.427	5024
510.499	3787
510.571	4135
510.643	3172
510.715	8355
510.787	4734
510.859	5830
510.931	3591
511.003	6293
511.076	5375
511.148	3062
511.219	3074
511.291	4527
511.363	4539
511.435	3665
511.507	2368
511.579	3754
511.651	4924
511.723	3836
511.795	2718
511.867	4176
511.939	3212
512.010	3399
512.082	4046
512.154	2204
512.226	4031
512.298	7185
512.369	7990
512.441	7727
512.513	6883
512.585	4184
512.656	5320
512.728	4802
512.800	3804
512.871	4847
512.943	4488
513.015	3308
513.086	4594
513.158	5256
513.230	3648
513.301	6333
513.373	8659
513.444	4445
513.516	3655
513.588	3886
513.659	3671
513.731	5703
513.802	3591
513.874	10362
513.945	15625
514.016	5663
514.088	4279
514.159	4119
514.231	5410
514.302	8102
514.374	6051
514.445	3700
514.516	6735
514.588	3659
514.659	4032
514.730	4019
514.802	6367
514.873	3564
514.944	6598
515.016	4650
515.087	4533
515.158	4442
515.229	6073
515.301	4525
515.372	6784
515.443	3372
515.514	4293
515.585	2505
515.656	3552
515.728	4711
515.799	2806
515.870	4526
515.941	4545
516.012	3823
516.083	6156
516.154	5987
516.225	8991
516.296	8787
516.367	6839
516.438	8947
516.509	10156
516.580	12868
516.651	39826
516.722	151663
516.793	57440
516.864	13905
516.935	11525
517.006	15874
517.077	19691
517.148	42356
517.219	183793
517.289	272391
517.360	31224
517.431	11053
517.502	5523
517.573	6268
517.643	5901
517.714	7005
517.785	6811
517.856	7374
517.926	10857
517.997	13573
518.068	16078
518.138	24560
518.209	31026
518.280	119188
518.350	503355
518.421	154478
518.492	16941
518.562	9827
518.633	8827
518.703	8646
518.774	20806
518.845	62947
518.915	58153
518.986	12811
519.056	7985
519.127	12669
519.197	15207
519.268	14445
519.338	7624
519.408	5268
519.479	8041
519.549	5795
519.620	5001
519.690	2492
519.760	3242
519.831	3171
519.901	3196
519.971	3255
520.042	3166
520.112	2851
520.182	4398
520.253	5320
520.323	2110
520.393	2865
520.463	6582
520.534	1214
520.604	6711
520.674	4251
520.744	2541
520.814	6235
520.885	6420
520.955	3960
521.025	8543
521.095	4180
521.165	3394
521.235	2414
521.305	1524
521.375	3731
521.445	4001
521.515	4840
521.585	5532
521.655	3092
521.725	4518
521.795	4233
521.865	36
521.935	4390
522.005	2155
522.075	2531
522.145	2811
522.215	1954
522.285	2816
522.355	2835
522.424	4016
522.494	4492
522.564	4731
522.634	11243
522.704	35895
522.774	11292
522.843	3579
522.913	3462
522.983	4770
523.053	3365
523.122	3568
523.192	4958
523.262	18249
523.331	16762
523.401	3881
523.471	2597
523.540	3181
523.610	1526
523.680	1390
523.749	2836
523.819	2226
523.888	2891
523.958	1441
524.027	2809
524.097	2223
524.166	2310
524.236	1580
524.305	4994
524.375	1739
524.444	766
524.514	3545
524.583	1999
524.653	1679
524.722	3427
524.791	893
524.861	4141
524.930	1204
524.999	2781
525.069	3876
525.138	1870
525.207	2130
525.277	2406
525.346	2191
525.415	3590
525.484	2816
525.554	2624
525.623	2017
525.692	4406
525.761	4786
525.830	6656
525.900	7262
525.969	12121
526.038	18274
526.107	38935
526.176	124894
526.245	92579
526.314	26831
526.383	62249
526.452	77224
526.522	148589
526.591	131282
526.660	29507
526.729	18150
526.797	21967
526.867	33712
526.935	144335
527.004	341401
527.073	163848
527.142	13596
527.211	6011
527.280	6713
527.349	5480
527.418	2319
527.487	4378
527.555	901
527.624	2934
527.693	1486
527.762	3502
527.831	1031
527.899	3214
527.968	2188
528.037	1341
528.106	3552
528.174	5678
528.243	4410
528.312	4550
528.380	6050
528.449	1440
528.518	3327
528.586	931
528.655	2732
528.723	2203
528.792	1776
528.861	1819
528.929	-133
528.998	3034
529.066	1410
529.135	2154
529.203	1109
529.272	910
529.340	1614
529.409	3327
529.477	355
529.545	1359
529.614	3093
529.682	613
529.751	1026
529.819	5641
529.887	2087
529.956	2147
530.024	3084
530.092	1162
530.161	3295
530.229	4489
530.297	2074
530.365	2938
530.434	1429
530.502	1709
530.570	2526
530.638	932
530.707	1606
530.775	3355
530.843	741
530.911	2567
530.979	1574
531.047	2814
531.115	2477
531.183	2201
531.252	2684
531.320	2459
531.388	1419
531.456	2796
531.524	-332
531.592	3060
531.660	4383
531.728	1142
531.796	677
531.864	2632
531.932	1787
532.000	2252
532.067	2147
532.135	2736
532.203	3766
532.271	2156
532.339	5342
532.407	16036
532.475	8932
532.542	5342
532.610	5205
532.678	5840
532.746	26979
532.814	69389
532.881	14531
532.949	4545
533.017	3028
533.084	2178
533.152	1284
533.220	2397
533.287	2314
533.355	2280
533.423	2728
533.490	1606
533.558	2784
533.625	2436
533.693	1531
533.761	2770
533.828	2565
533.896	1601
533.963	4335
534.031	5983
534.098	8784
534.166	3403
534.233	1792
534.300	3329
534.368	3084
534.435	2343
534.503	3176
534.570	3316
534.637	3230
534.705	5848
534.772	5881
534.840	10169
534.907	54968
534.974	64757
535.041	6381
535.109	3629
535.176	2334
535.243	4501
535.310	2904
535.378	2461
535.445	2252
535.512	3099
535.579	2740
535.646	1737
535.714	2268
535.781	3860
535.848	2496
535.915	3878
535.982	2118
536.049	2397
536.116	3176
536.183	2085
536.250	2406
536.317	2742
536.384	2811
536.451	5595
536.518	5431
536.585	1172
536.652	5590
536.719	7033
536.786	4332
536.853	3992
536.920	5908
536.987	8936
537.053	7554
537.120	32328
537.187	26690
537.254	4085
537.321	2374
537.388	4035
537.454	2529
537.521	1946
537.588	2309
537.654	4420
537.721	2972
537.788	4191
537.855	2253
537.921	2928
537.988	2566
538.055	3684
538.121	1918
538.188	3599
538.254	4761
538.321	9867
538.388	6070
538.454	3903
538.521	2597
538.587	2449
538.654	2015
538.720	2866
538.787	2641
538.853	3812
538.920	2793
538.986	3671
539.053	2107
539.119	2986
539.185	2611
539.252	5449
539.318	5154
539.385	5293
539.451	2548
539.517	4902
539.583	4467
539.650	7438
539.716	21962
539.782	6750
539.849	1840
539.915	3907
539.981	3319
540.047	3828
540.114	3673
540.180	5310
540.246	2021
540.312	4108
540.378	8744
540.444	11219
540.510	8918
540.576	27182
540.643	7863
540.709	2713
540.775	2795
540.841	2927
540.907	2836
540.973	4335
541.039	4901
541.105	6447
541.171	3407
541.237	2564
541.303	3587
541.369	5192
541.435	4318
541.500	9057
541.566	4539
541.632	3076
541.698	2320
541.764	4466
541.830	2215
541.896	1303
541.961	3013
542.027	2405
542.093	3223
542.159	3584
542.224	2252
542.290	5331
542.356	7022
542.421	11139
542.487	5377
542.553	2684
542.618	3681
542.684	3444
542.750	3137
542.815	4418
542.881	4761
542.947	21691
543.012	16588
543.078	3211
543.143	2420
543.209	3160
543.274	1738
543.340	3748
543.405	8340
543.471	12275
543.536	3911
543.602	3676
543.667	1326
543.732	4389
543.798	2859
543.863	3510
543.928	2833
543.994	2361
544.059	1939
544.124	2944
544.190	2400
544.255	3424
544.320	3090
544.386	1971
544.451	4505
544.516	5751
544.581	4138
544.646	13341
544.712	21596
544.777	4817
544.842	2483
544.907	2072
544.972	2294
545.037	3455
545.102	3232
545.168	3471
545.233	4244
545.298	4355
545.363	3097
545.428	5157
545.493	8854
545.558	18178
545.623	6566
545.688	2752
545.753	4111
545.818	3182
545.883	3738
545.947	3454
546.012	3574
546.077	3693
546.142	4430
546.207	3344
546.272	5639
546.337	5463
546.401	4558
546.466	5659
546.531	3603
546.596	5270
546.661	5136
546.725	6058
546.790	5071
546.855	5658
546.919	5262
546.984	7568
547.049	6800
547.113	8599
547.178	9098
547.243	10891
547.307	12233
547.372	13586
547.436	12753
547.501	14082
547.565	14523
547.630	16211
547.695	13655
547.759	13960
547.823	12361
547.888	14197
547.952	13595
548.017	13395
548.081	14168
548.146	15630
548.210	14528
548.274	16065
548.339	14639
548.403	14874
548.468	12523
548.532	13012
548.596	13235
548.660	14032
548.725	14225
548.789	16039
548.853	16625
548.917	14614
548.982	13156
549.046	13079
549.110	10698
549.174	11852
549.238	13721
549.303	15801
549.367	17106
549.431	15823
549.495	14018
549.559	14360
549.623	16948
549.687	19294
549.751	19014
549.815	21881
549.879	21421
549.943	19670
550.007	21900
550.071	20550
550.135	19694
550.199	18423
550.263	16104
550.327	16132
550.391	17228
550.455	17955
550.519	19017
550.582	21565
550.646	24185
550.710	25538
550.774	23051
550.838	23343
550.901	24932
550.965	26275
551.029	26022
551.093	30339
551.156	30677
551.220	36258
551.284	48270
551.347	33307
551.411	25768
551.475	24536
551.538	26093
551.602	22426
551.666	21303
551.729	20227
551.793	20304
551.856	18560
551.920	18920
551.983	18812
552.047	18429
552.110	19094
552.174	18181
552.237	19283
552.301	17483
552.364	17393
552.428	16712
552.491	17226
552.554	18987
552.618	17663
552.681	18196
552.745	18173
552.808	22703
552.871	27067
552.934	18863
552.998	17757
553.061	16892
553.124	16691
553.187	16255
553.251	17104
553.314	17382
553.377	17587
553.440	19748
553.503	32875
553.567	39690
553.630	19309
553.693	17392
553.756	17163
553.819	16466
553.882	16026
553.945	15943
554.008	15162
554.071	14815
554.134	16669
554.197	14485
554.260	14206
554.323	14997
554.386	14959
554.449	15220
554.512	15145
554.575	13755
554.638	14573
554.701	13850
554.764	14269
554.827	13581
554.889	13104
554.952	11456
555.015	11962
555.078	11972
555.141	13138
555.203	11532
555.266	11583
555.329	11723
555.391	10991
555.454	11784
555.517	11925
555.580	9968
555.642	9948
555.705	10125
555.768	10489
555.830	9793
555.893	9853
555.955	8345
556.018	9172
556.080	8132
556.143	9937
556.206	9099
556.268	8953
556.330	9042
556.393	9414
556.455	8125
556.518	9057
556.580	7703
556.643	6832
556.705	7174
556.767	6350
556.830	7818
556.892	7953
556.955	10170
557.017	8165
557.079	6399
557.142	7064
557.204	7442
557.266	12483
557.328	9069
557.391	5700
557.453	5224
557.515	5741
557.577	6194
557.639	7522
557.701	5646
557.764	5512
557.826	6849
557.888	7732
557.950	8162
558.012	9314
558.074	12064
558.136	31156
558.198	77171
558.260	21058
558.322	8715
558.384	10314
558.446	13257
558.508	17149
558.570	19898
558.632	28627
558.694	37150
558.756	52075
558.818	181340
558.880	429505
558.942	98411
559.003	85953
559.065	34878
559.127	17049
559.189	16436
559.251	18971
559.312	27245
559.374	73660
559.436	267197
559.498	100491
559.559	15894
559.621	15941
559.683	18336
559.744	30324
559.806	114994
559.868	157553
559.929	21325
559.991	15131
560.052	23542
560.114	74780
560.176	37444
560.237	40308
560.299	62865
560.360	9406
560.422	3814
560.483	3833
560.545	3216
560.606	2864
560.667	1907
560.729	2335
560.790	2091
560.852	2155
560.913	1861
560.974	1871
561.036	2162
561.097	2199
561.158	2312
561.220	2640
561.281	1588
561.342	2610
561.403	2744
561.465	3616
561.526	9692
561.587	14053
561.648	2562
561.709	1903
561.771	2773
561.832	1411
561.893	643
561.954	1951
562.015	1255
562.076	2630
562.137	1388
562.198	1503
562.259	1591
562.320	1639
562.381	2596
562.442	3815
562.503	3158
562.564	1927
562.625	1250
562.686	1667
562.747	1153
562.808	2071
562.869	653
562.930	2188
562.991	1253
563.051	2048
563.112	1415
563.173	968
563.234	613
563.294	2083
563.355	1017
563.416	1334
563.477	1006
563.537	1835
563.598	1628
563.659	1018
563.720	1210
563.780	1343
563.841	770
563.901	1758
563.962	272
564.023	1944
564.083	1089
564.144	1638
564.204	751
564.265	1622
564.325	687
564.386	1538
564.446	1748
564.507	956
564.567	742
564.628	919
564.688	220
564.749	104
564.809	654
564.869	2013
564.930	1333
564.990	1983
565.050	406
565.111	1448
565.171	1305
565.231	1155
565.292	1764
565.352	647
565.412	1488
565.472	1169
565.532	1054
565.593	1510
565.653	1192
565.713	1432
565.773	875
565.833	1886
565.893	3367
565.953	890
566.013	519
566.074	1673
566.134	1086
566.194	1694
566.254	2110
566.314	1156
566.374	1044
566.434	1970
566.494	1125
566.554	1518
566.614	841
566.673	1601
566.733	1760
566.793	1840
566.853	424
566.913	2669
566.973	1414
567.033	2039
567.092	164
567.152	1983
567.212	1562
567.272	1418
567.331	710
567.391	1629
567.451	1807
567.511	2268
567.570	1248
567.630	2057
567.690	2033
567.749	1837
567.809	1556
567.868	2461
567.928	2360
567.988	2373
568.047	3565
568.107	4476
568.166	6378
568.226	12576
568.285	18469
568.345	11128
568.404	8182
568.464	7036
568.523	5412
568.582	5623
568.642	6718
568.701	9228
568.761	15848
568.820	32835
568.879	23656
568.939	12905
568.998	6586
569.057	5522
569.116	3434
569.176	3049
569.235	2200
569.294	2232
569.353	151
569.413	1307
569.472	898
569.531	1498
569.590	670
569.649	1199
569.708	691
569.767	1178
569.827	739
569.886	778
569.945	871
570.004	1417
570.063	1026
570.122	1788
570.181	381
570.240	1316
570.299	846
570.358	1729
570.417	776
570.475	872
570.534	1079
570.593	1747
570.652	933
570.711	524
570.770	409
570.829	3180
570.887	2250
570.946	1952
571.005	358
571.064	705
571.122	1259
571.181	984
571.240	654
571.299	1055
571.357	689
571.416	560
571.475	-437
571.533	951
571.592	119
571.650	517
571.709	425
571.768	965
571.826	535
571.885	1012
571.943	12
572.002	634
572.060	205
572.119	468
572.177	535
572.236	540
572.294	-103
572.352	1848
572.411	448
572.469	575
572.528	410
572.586	1389
572.644	-30
572.703	1541
572.761	581
572.819	25
572.877	-110
572.936	957
572.994	-785
573.052	317
573.110	389
573.169	1162
573.227	1144
573.285	1472
573.343	236
573.401	295
573.459	398
573.517	-368
573.576	188
573.634	890
573.692	65
573.750	935
573.808	-213
573.866	720
573.924	206
573.982	1060
574.040	-159
574.098	460
574.155	734
574.213	839
574.271	247
574.329	1278
574.387	115
574.445	574
574.503	-36
574.560	364
574.618	-905
574.676	620
574.734	-269
574.792	649
574.849	550
574.907	-175
574.965	-686
575.022	76
575.080	-940
575.138	788
575.195	234
575.253	22
575.311	642
575.368	469
575.426	847
575.483	995
575.541	568
575.598	105
575.656	59
575.713	170
575.771	-5
575.828	246
575.886	364
575.943	1181
576.001	-226
576.058	-701
576.115	-105
576.173	113
576.230	422
576.287	1951
576.345	424
576.402	1025
576.459	217
576.517	-317
576.574	183
576.631	260
576.688	-594
576.746	286
576.803	-496
576.860	101
576.917	141
576.974	11
577.031	-345
577.089	556
577.146	-91
577.203	1043
577.260	521
577.317	1486
577.374	-361
577.431	584
577.488	430
577.545	-363
577.602	-96
577.659	174
577.716	-381
577.773	1640
577.830	-531
577.886	696
577.943	-622
578.000	-76
578.057	37
578.114	812
578.171	194
578.227	-166
578.284	-357
578.341	440
578.398	-167
578.454	679
578.511	-720
578.568	360
578.625	-399
578.681	388
578.738	-673
578.794	387
578.851	-245
578.908	161
578.964	-49
579.021	313
579.077	-282
579.134	558
579.190	-85
579.247	378
579.303	-104
579.360	485
579.416	-229
579.473	376
579.529	-722
579.586	29
579.642	56
579.698	635
579.755	91
579.811	682
579.867	-199
579.924	405
579.980	-1034
580.036	915
580.093	-126
580.149	583
580.205	-29
580.261	43
580.317	-390
580.374	508
580.430	-221
580.486	333
580.542	-139
580.598	945
580.619	532
580.654	-188
580.692	120
580.710	275
580.765	449
580.767	453
580.823	520
580.838	561
580.879	669
580.911	408
580.935	214
580.984	-115
580.991	-158
581.047	916
581.057	600
581.103	-776
581.130	-87
581.159	588
581.203	95
581.215	-22
581.270	535
581.276	491
581.326	24
581.349	107
581.382	219
581.422	-235
581.438	-424
581.494	691
581.494	678
581.550	-751
581.567	-248
581.606	799
581.640	5
581.661	-471
581.713	1047
581.717	1169
581.773	315
581.786	408
581.829	640
581.859	448
581.885	324
581.932	247
581.940	230
581.996	380
582.004	335
582.052	66
582.077	-125
582.107	-341
582.150	1031
582.163	1424
582.219	547
582.223	518
582.274	285
582.296	49
582.330	-327
582.368	-198
582.386	-91
582.441	348
582.441	347
582.497	1037
582.514	752
582.552	363
582.587	428
582.608	343
582.659	-77
582.663	-98
582.719	420
582.732	324
582.774	47
582.805	130
582.830	201
582.877	457
582.885	500
582.941	67
582.950	77
582.996	32
583.023	70
583.052	246
583.095	32
583.107	-81
583.162	525
583.168	517
583.218	438
583.240	319
583.273	176
583.313	38
583.328	35
583.384	684
583.385	682
583.439	497
583.458	518
583.494	449
583.531	107
583.549	8
583.603	366
583.605	382
583.660	530
583.676	585
583.715	518
583.748	318
583.770	211
583.820	608
583.825	648
583.881	777
583.893	644
583.936	277
583.965	273
583.991	119
584.038	755
584.046	928
584.101	-14
584.110	113
584.156	501
584.183	484
584.211	507
584.255	688
584.266	805
584.321	584
584.328	625
584.376	376
584.400	204
584.431	181
584.472	333
584.486	398
584.541	360
584.545	389
584.596	616
584.617	355
584.651	328
584.689	872
584.706	886
584.761	740
584.762	736
584.816	764
584.834	826
584.871	801
584.906	639
584.926	575
584.978	581
584.980	586
585.035	1745
585.051	1563
585.090	1189
585.123	2027
585.145	2589
585.195	2595
585.200	2608
585.254	3873
585.267	4263
585.309	5584
585.340	6310
585.364	6715
585.412	6814
585.419	6845
585.473	7842
585.484	8145
585.528	9618
585.556	11654
585.583	16404
585.628	29137
585.637	33150
585.692	75721
585.700	82728
585.747	107020
585.772	81681
585.801	42491
585.845	11369
585.856	7536
585.910	4041
585.917	3756
585.965	3260
585.989	2783
586.019	2224
586.061	2066
586.074	1975
586.128	2384
586.133	2350
586.183	2099
586.205	2085
586.237	2160
586.277	2090
586.292	1959
586.346	1679
586.349	1653
586.401	2008
586.421	2381
586.455	2352
586.493	1980
586.509	2107
586.564	2407
586.565	2422
586.618	3056
586.637	3287
586.672	3310
586.709	3035
586.727	3055
586.781	3883
586.781	3884
586.835	2424
586.853	2576
586.889	2811
586.925	2040
586.944	1694
586.996	2365
586.998	2390
587.052	2299
587.068	2368
587.106	2366
587.140	2362
587.161	2596
587.212	3142
587.215	3139
587.269	2570
587.284	2596
587.323	2857
587.356	2878
587.377	2961
587.427	3575
587.431	3606
587.485	3632
587.499	3627
587.539	3640
587.571	3640
587.593	3763
587.643	4451
587.648	4506
587.702	4189
587.715	4381
587.755	4845
587.786	4764
587.810	4880
587.858	5344
587.864	5370
587.917	5772
587.930	5857
587.971	6675
588.001	7246
588.025	7573
588.073	8196
588.079	8329
588.133	10001
588.145	10457
588.187	11961
588.217	12870
588.241	13844
588.288	15877
588.295	16238
588.348	20074
588.360	20934
588.402	24364
588.431	26990
588.456	29053
588.503	34119
588.510	34961
588.564	41979
588.575	43808
588.617	50850
588.646	56227
588.671	62498
588.718	77002
588.725	80977
588.778	119064
588.789	129610
588.832	216493
588.861	289812
588.886	400794
588.932	643026
588.939	659846
588.993	722802
589.004	714069
589.047	456592
589.075	281892
589.100	201612
589.147	102248
589.154	97047
589.207	72556
589.218	68813
589.261	65769
589.290	65559
589.314	69138
589.361	80503
589.368	85332
589.421	132332
589.433	145386
589.475	265717
589.504	366680
589.528	461615
589.576	638373
589.582	620953
589.635	354186
589.647	296462
589.689	147644
589.718	67468
589.742	52484
589.790	31686
589.795	30497
589.849	21812
589.861	20191
589.902	16723
589.932	14429
589.955	13446
590.004	11571
590.009	11450
590.062	10424
590.075	10242
590.115	8986
590.146	7925
590.168	7795
590.218	7806
590.222	7715
590.275	6334
590.289	6016
590.328	6200
590.360	6288
590.381	6077
590.431	5752
590.435	5732
590.488	5190
590.503	5095
590.541	5012
590.574	4968
590.594	5051
590.645	5146
590.647	5137
590.700	4814
590.716	4771
590.753	4876
590.787	4928
590.806	5107
590.859	5524
590.859	5514
590.912	4479
590.930	4171
590.965	4461
591.001	4726
591.018	4562
591.071	4073
591.072	4065
591.124	4035
591.143	4042
591.177	4363
591.214	4690
591.230	4630
591.283	4374
591.285	4358
591.336	4377
591.356	4455
591.389	4684
591.427	4791
591.442	4671
591.495	4242
591.498	4206
591.547	3862
591.569	3745
591.600	4104
591.640	4443
591.653	4481
591.706	4717
591.711	4727
591.759	4155
591.782	3912
591.811	3836
591.853	3647
591.864	3768
591.917	4402
591.924	4484
591.969	4506
591.995	4555
592.022	4238
592.066	3637
592.075	3720
592.127	4328
592.137	4427
592.180	4138
592.208	3957
592.233	3960
592.279	3979
592.285	4084
592.338	4996
592.350	5196
592.390	4743
592.421	4406
592.443	4464
592.491	4593
592.495	4596
592.548	4647
592.562	4663
592.600	4631
592.633	4613
592.653	4414
592.704	3889
592.705	3925
592.775	4639
592.846	4987
592.916	4379
592.987	5737
593.058	5087
593.128	4178
593.199	5282
593.270	4946
593.341	4699
593.411	5049
593.482	4901
593.553	5103
593.623	5253
593.694	5321
593.764	4376
593.835	5258
593.906	5684
593.976	5236
594.047	4626
594.117	5405
594.188	6022
594.258	6085
594.329	5991
594.399	5215
594.470	6499
594.540	7094
594.611	6011
594.681	6301
594.751	6372
594.822	9257
594.892	8434
594.963	6405
595.033	7768
595.103	7616
595.174	7893
595.244	7994
595.314	8008
595.384	8221
595.455	7590
595.525	9000
595.595	8661
595.665	8063
595.736	7737
595.806	9247
595.876	7489
595.946	9731
596.016	8739
596.087	9295
596.157	8543
596.227	9320
596.297	10255
596.367	10178
596.437	10800
596.507	11645
596.577	11396
596.647	11018
596.717	11679
596.787	11742
596.857	11429
596.927	12726
596.997	11385
597.067	12678
597.137	12699
597.207	12875
597.277	12342
597.347	12186
597.417	12117
597.487	12014
597.557	13109
597.626	12274
597.696	12593
597.766	13123
597.836	11959
597.906	10639
597.975	11531
598.045	11030
598.115	11987
598.185	12072
598.254	14551
598.324	16248
598.394	14940
598.464	15863
598.533	14172
598.603	13487
598.672	13162
598.742	14400
598.812	13459
598.881	14037
598.951	14205
599.020	14478
599.090	13786
599.159	16191
599.229	14832
599.299	13560
599.368	14726
599.437	13390
599.507	12263
599.576	12745
599.646	12877
599.715	12823
599.785	11554
599.854	11333
599.924	11765
599.993	11666
600.062	10843
600.132	12201
600.201	12916
600.270	15892
600.340	14823
600.409	14657
600.478	15260
600.547	15017
600.617	14624
600.686	11008
600.755	10053
600.824	10180
600.894	9410
600.963	9586
601.032	9326
601.101	8955
601.170	7950
601.239	7482
601.308	9124
601.378	9044
601.447	8363
601.516	7970
601.585	9311
601.654	9404
601.723	8203
601.792	8509
601.861	8979
601.930	9049
601.999	10333
602.068	9588
602.137	10396
602.206	9970
602.275	9493
602.343	10496
602.412	11097
602.481	10061
602.550	10221
602.619	11071
602.688	10811
602.756	10382
602.825	10210
602.894	11950
602.963	11136
603.032	10414
603.100	10718
603.169	11137
603.238	11232
603.307	11358
603.375	12368
603.444	12644
603.513	11833
603.581	12303
603.650	12566
603.719	13627
603.787	12294
603.856	13768
603.924	13584
603.993	14078
604.061	15042
604.130	14890
604.198	16183
604.267	16447
604.335	15802
604.404	15927
604.472	16497
604.541	16638
604.609	16701
604.678	17415
604.746	15685
604.815	17884
604.883	18312
604.951	17504
605.020	18518
605.088	19679
605.156	18745
605.225	19974
605.293	19164
605.361	19668
605.429	19282
605.498	20142
605.566	21167
605.634	22432
605.702	23204
605.771	22593
605.839	23617
605.907	22320
605.975	22125
606.043	21184
606.111	21259
606.180	21180
606.248	21180
606.316	21279
606.384	20408
606.452	21665
606.520	22241
606.588	22037
606.656	23462
606.724	21988
606.792	20888
606.860	18089
606.928	16983
606.996	16832
607.064	15814
607.132	16672
607.200	18237
607.267	18218
607.335	17878
607.403	18540
607.471	16853
607.539	18065
607.607	17850
607.674	15609
607.742	16053
607.810	15756
607.878	15147
607.946	16123
608.013	16965
608.081	16195
608.149	16642
608.216	17455
608.284	19618
608.352	18035
608.419	16908
608.487	18654
608.555	16668
608.622	17925
608.690	19636
608.757	21328
608.825	22079
608.893	21641
608.960	19108
609.028	19161
609.095	19719
609.163	18974
609.230	16239
609.298	15802
609.365	15525
609.432	16978
609.500	19514
609.567	22028
609.635	26284
609.702	26654
609.769	26066
609.837	19875
609.904	16588
609.971	16292
610.039	21836
610.106	29089
610.173	61345
610.241	149132
610.308	64389
610.375	21903
610.442	17299
610.509	17892
610.577	18141
610.644	17712
610.711	18207
610.778	18601
610.845	19694
610.912	20497
610.980	21861
611.047	22361
611.114	22841
611.181	20854
611.248	20633
611.315	22295
611.382	22001
611.449	23602
611.516	24010
611.583	23517
611.650	22656
611.717	23624
611.784	25115
611.851	25568
611.918	28266
611.984	35887
612.051	58719
612.118	137995
612.185	364152
612.252	169800
612.319	37457
612.386	31294
612.452	28861
612.519	27741
612.586	27187
612.653	27127
612.719	28475
612.786	26410
612.853	24512
612.919	23615
612.986	25516
613.053	21806
613.120	21285
613.186	19966
613.253	22063
613.319	20766
613.386	20433
613.453	20544
613.519	22132
613.586	21471
613.652	24928
613.719	22817
613.785	22169
613.852	22044
613.918	20240
613.985	23064
614.051	25376
614.118	32924
614.184	29555
614.250	21769
614.317	22736
614.383	21908
614.449	22115
614.516	21916
614.582	22225
614.648	21030
614.715	21012
614.781	20403
614.847	20094
614.914	20101
614.980	19675
615.046	19994
615.112	21415
615.179	19883
615.245	22031
615.311	20678
615.377	23048
615.443	23571
615.509	21357
615.575	22754
615.642	22310
615.708	23103
615.774	24189
615.840	26965
615.906	30837
615.972	41420
616.038	74362
616.104	179933
616.170	476609
616.236	315322
616.302	55263
616.368	39675
616.434	26583
616.500	26560
616.565	32235
616.631	39290
616.697	28366
616.763	31383
616.829	53552
616.895	98526
616.961	79172
617.026	27758
617.092	20706
617.158	21662
617.224	20512
617.289	19579
617.355	17533
617.421	16003
617.487	17858
617.552	15536
617.618	15142
617.684	15116
617.749	17219
617.815	15844
617.880	14782
617.946	14529
618.012	15965
618.077	15979
618.143	14723
618.208	15728
618.274	16781
618.339	16716
618.405	12332
618.470	13026
618.536	13117
618.601	12954
618.667	11989
618.732	11467
618.798	11268
618.863	9897
618.928	10158
618.994	11391
619.059	12424
619.124	13190
619.190	10754
619.255	10472
619.320	10973
619.386	10502
619.451	10754
619.516	10223
619.581	10995
619.647	10583
619.712	10583
619.777	9111
619.842	9885
619.907	10417
619.972	11014
620.038	10802
620.103	10368
620.168	8730
620.233	11653
620.298	10204
620.363	10566
620.428	10223
620.493	10814
620.558	11460
620.623	11332
620.688	11488
620.753	11002
620.818	12032
620.883	11671
620.948	11212
621.013	11966
621.078	10907
621.143	10175
621.207	13622
621.272	11583
621.337	10844
621.402	11400
621.467	11001
621.532	11492
621.596	10380
621.661	10028
621.726	10408
621.791	10643
621.855	10454
621.920	10563
621.985	10004
622.049	10984
622.114	10412
622.179	11845
622.243	10956
622.308	11536
622.373	13804
622.437	12211
622.502	11362
622.566	11752
622.631	8794
622.695	13089
622.760	11969
622.824	11903
622.889	12178
622.953	10619
623.018	15284
623.082	14496
623.147	11036
623.211	11464
623.276	12394
623.340	10480
623.404	10999
623.469	10741
623.533	11205
623.597	10612
623.662	10454
623.726	8955
623.790	7977
623.854	8208
623.919	8594
623.983	8951
624.047	8473
624.111	9442
624.176	9375
624.240	8796
624.304	10639
624.368	9187
624.432	9935
624.496	10845
624.560	11379
624.625	11395
624.689	11300
624.753	11549
624.817	10639
624.881	10202
624.945	8901
625.009	8228
625.073	8915
625.137	8351
625.201	10875
625.265	11341
625.329	8897
625.393	10091
625.456	9975
625.520	10243
625.584	10600
625.648	10392
625.712	10675
625.776	11447
625.839	10761
625.903	7763
625.967	7232
626.031	9625
626.095	11089
626.158	9653
626.222	6408
626.286	7423
626.349	5314
626.413	4596
626.477	6881
626.540	4649
626.604	4839
626.668	6349
626.731	5070
626.795	5117
626.858	4916
626.922	5131
626.986	5757
627.049	4316
627.113	5808
627.176	5868
627.240	5241
627.303	5839
627.366	4913
627.430	5589
627.493	4982
627.557	4660
627.620	5863
627.684	6015
627.747	6559
627.810	3413
627.874	4920
627.937	3284
628.000	6247
628.064	5195
628.127	1657
628.190	4887
628.253	3891
628.317	3266
628.380	3904
628.443	3523
628.506	3053
628.569	3492
628.632	2809
628.696	3410
628.759	3117
628.822	2521
628.885	2721
628.948	3058
629.011	2520
629.074	2592
629.137	2031
629.200	1939
629.263	4067
629.326	2076
629.389	2304
629.452	2506
629.515	2483
629.578	2301
629.641	2334
629.704	1764
629.767	1523
629.830	2619
629.892	1463
629.955	1935
630.018	3896
630.081	2030
630.144	3857
630.207	1497
630.269	4085
630.332	2636
630.395	1647
630.458	2628
630.520	1421
630.583	3258
630.646	2305
630.708	1842
630.771	1321
630.834	2926
630.896	1153
630.959	2598
631.021	2146
631.084	1864
631.146	1578
631.209	3028
631.272	1463
631.334	1789
631.397	1631
631.459	1894
631.522	2536
631.584	2562
631.646	3443
631.709	3278
631.771	3660
631.834	4130
631.896	3183
631.958	1770
632.021	3111
632.083	1766
632.145	2161
632.208	1702
632.270	2923
632.332	1470
632.395	1460
632.457	2788
632.519	1152
632.581	2377
632.643	979
632.706	2132
632.768	1157
632.830	2650
632.892	1969
632.954	940
633.016	3123
633.078	1989
633.141	1866
633.203	2402
633.265	2133
633.327	2565
633.389	1939
633.451	2762
633.513	2109
633.575	2160
633.637	2263
633.698	1938
633.760	3018
633.822	1970
633.884	2038
633.946	3186
634.008	2165
634.070	2507
634.132	3344
634.193	3148
634.255	4441
634.317	3400
634.379	4791
634.441	3337
634.502	1950
634.564	3388
634.626	2928
634.687	2768
634.749	2499
634.811	3272
634.873	1646
634.934	2430
634.996	2985
635.057	910
635.119	1272
635.181	1906
635.242	2386
635.304	895
635.365	4247
635.427	2100
635.488	1536
635.550	1168
635.611	3056
635.673	-15
635.734	3597
635.796	2413
635.857	4532
635.918	2858
635.980	4229
636.041	3193
636.102	5291
636.164	4877
636.225	5440
636.286	2036
636.348	3577
636.409	2215
636.470	1444
636.531	2118
636.593	564
636.654	2526
636.715	1511
636.776	1755
636.838	1515
636.899	2070
636.960	1400
637.021	798
637.082	1501
637.143	1652
637.204	347
637.265	602
637.326	2460
637.387	1192
637.448	379
637.509	2403
637.570	1171
637.631	2200
637.692	434
637.753	906
637.814	2240
637.875	1336
637.936	1581
637.997	105
638.058	1037
638.119	1766
638.179	1401
638.240	884
638.301	1231
638.362	-40
638.423	937
638.483	2003
638.544	-635
638.605	1784
638.666	302
638.726	1278
638.787	1349
638.848	478
638.908	1057
638.969	284
639.030	323
639.090	416
639.151	128
639.211	1781
639.272	1605
639.332	2782
639.393	1087
639.453	232
639.514	1416
639.574	1740
639.635	159
639.695	1570
639.756	99
639.816	1443
639.877	695
639.937	3036
639.997	2909
640.058	386
640.118	437
640.178	2177
640.239	893
640.299	1462
640.359	1261
640.420	1942
640.480	1674
640.540	2739
640.600	675
640.661	1897
640.721	288
640.781	1906
640.841	-580
640.901	1580
640.961	1459
641.021	1625
641.082	647
641.142	1283
641.202	1525
641.262	-952
641.322	860
641.382	-288
641.442	763
641.502	1429
641.562	1259
641.622	568
641.682	546
641.742	1450
641.802	1040
641.861	1587
641.921	295
641.981	1436
642.041	1631
642.101	1298
642.161	-1203
642.221	-349
642.280	243
642.340	148
642.400	57
642.460	1169
642.519	-28
642.579	696
642.639	1343
642.698	-1670
642.758	2455
642.818	210
642.877	-799
642.937	600
642.997	2017
643.056	1454
643.116	-450
643.175	2242
643.235	1
643.294	959
643.354	1888
643.414	1894
643.473	2693
643.532	3209
643.592	4865
643.651	12654
643.711	25576
643.770	57465
643.830	153828
643.889	308512
643.948	49470
644.008	6921
644.067	4277
644.126	2176
644.186	1671
644.245	2044
644.304	-221
644.363	2576
644.423	-102
644.482	1296
644.541	789
644.600	-1114
644.659	1948
644.719	1758
644.778	5326
644.837	10676
644.896	23745
644.955	57816
645.014	13213
645.073	1969
645.132	1104
645.191	853
645.250	-329
645.309	2998
645.368	697
645.427	2967
645.486	3494
645.545	9932
645.604	365
645.663	2088
645.722	14
645.781	1334
645.840	2051
645.898	3009
645.957	6630
646.016	9404
646.075	22932
646.134	49195
646.192	148971
646.251	191707
646.310	16981
646.369	4519
646.427	2974
646.486	585
646.545	1236
646.603	1959
646.662	1116
646.721	1229
646.779	250
646.838	-218
646.896	1584
646.955	2155
647.014	5062
647.072	11404
647.131	34701
647.189	11978
647.248	286
647.306	960
647.365	1105
647.423	-1252
647.481	1539
647.540	-486
647.598	132
647.657	483
647.715	657
647.773	-725
647.832	1275
647.890	-1398
647.948	-783
648.007	1382
648.065	-1483
648.123	-703
648.181	2205
648.240	488
648.298	-918
648.356	-73
648.414	-480
648.472	431
648.531	478
648.589	-518
648.647	-329
648.705	-331
648.763	43
648.821	370
648.879	-286
648.937	653
648.995	841
649.053	1828
649.111	3812
649.169	7836
649.227	16422
649.285	36980
649.343	112053
649.401	39957
649.459	6653
649.516	3446
649.574	823
649.632	5849
649.690	5662
649.748	1968
649.806	1425
649.863	8583
649.921	24012
649.979	11326
650.037	1217
650.094	-834
650.152	-79
650.210	-951
650.268	419
650.325	1123
650.383	-787
650.440	-604
650.498	784
650.556	411
650.613	-583
650.671	-120
650.728	-123
650.786	-310
650.843	294
650.901	-1947
650.958	-416
651.016	-34
651.073	-80
651.131	-1098
651.188	-1298
651.246	-518
651.303	-1214
651.360	-265
651.418	-373
651.475	-431
651.532	-829
651.590	225
651.647	-908
651.704	-1050
651.762	23
651.819	-33
651.876	-1065
651.933	-201
651.990	-258
652.048	-1890
652.105	-1156
652.162	-227
652.219	-812
652.276	-673
652.333	431
652.390	-1517
652.448	-236
652.505	-617
652.562	-1088
652.619	-1078
652.676	-277
652.733	1008
652.790	-928
652.847	-921
652.904	19
652.961	-1448
653.017	-1778
653.074	-266
653.131	-525
653.188	-1561
653.245	-461
653.302	-900
653.359	-649
653.415	-10
653.472	-1176
653.529	-476
653.586	-438
653.642	-1280
653.699	51
653.756	-1621
653.813	-1423
653.869	65
653.926	-1610
653.983	-1205
654.039	-150
654.096	-767
654.152	-365
654.209	-1633
654.266	-711
654.322	-1072
654.379	-337
654.435	-526
654.492	-435
654.548	-168
654.605	-478
654.661	-432
654.717	-830
654.774	-654
654.830	-927
654.887	-1205
654.943	-423
655.000	-134
655.056	-1115
655.112	-577
655.168	-1571
655.225	-405
655.281	-121
655.337	-1246
655.394	-1356
655.450	-418
655.506	-822
655.562	-1108
655.618	-774
655.675	-812
655.731	107
655.787	-664
655.843	648
655.899	-1192
655.955	40
656.011	441
656.067	-1864
656.123	400
656.179	63
656.235	1141
656.291	-954
656.347	929
656.403	-1133
656.459	-831
656.515	-630
656.571	-544
656.627	85
656.683	-912
656.739	-496
656.795	-499
656.850	-1050
656.906	-189
656.962	455
657.018	-2009
657.074	-1042
657.129	-376
657.185	-138
657.241	1052
657.297	-804
657.352	-1271
657.408	-684
657.464	-22
657.519	-1378
657.575	-1551
657.630	-1076
657.686	-1028
657.742	-1553
657.797	-1552
657.853	-1418
657.908	-431
657.964	-1608
658.019	-1113
658.075	-1286
658.130	-586
658.186	-2328
658.241	-596
658.297	-1403
658.352	-1266
658.407	-693
658.463	-1499
658.518	-1274
658.573	-886
658.629	-1562
658.684	-1649
658.739	-695
658.795	-2010
658.850	-1012
658.905	-1401
658.960	-1368
659.016	-1513
659.071	-982
659.126	-983
659.181	-1280
659.236	28
659.291	-29
659.346	-1031
659.401	-631
659.457	-435
659.512	-1737
659.567	-347
659.622	-1353
659.677	-1171
659.732	-2552
659.787	-2120
659.842	-1227
659.897	-1016
659.952	-933
660.007	-1415
660.061	-1205
660.116	-1861
660.171	-1302
660.226	-1178
660.281	-645
660.336	-1724
660.391	-965
660.445	-2019
660.500	-1056
660.555	-1476
660.610	-947
660.664	-925
660.719	-1518
660.774	-753
660.828	-474
660.883	-1479
660.938	-1249
660.992	-1828
661.047	-540
661.101	-1137
661.156	-1557
661.211	-1389
661.265	-1063
661.320	-577
661.374	-1649
661.429	-1086
661.483	-932
661.538	-1967
661.592	-1565
661.647	-1055
661.701	-1860
661.755	-972
661.810	-1272
661.864	-1498
661.919	-1296
661.973	-1069
662.027	-1625
662.081	-1662
662.136	-1756
662.190	-1139
662.244	-1019
662.299	-1301
662.353	-1497
662.407	-1164
662.461	-1430
662.515	-1397
662.569	-1340
662.624	-1228
662.678	-1195
662.732	-1553
662.786	-1897
662.840	-1262
662.894	-529
662.948	-1054
663.002	-1071
663.056	-1299
663.110	-2078
663.164	-1578
663.218	-1059
663.272	-1311
663.326	-719
663.380	-1261
663.434	-1181
663.488	-1960
663.542	-916
663.595	-1246
663.649	-1481
663.703	-1281
663.757	-1734
663.811	-1567
663.864	-1686
663.918	-1096
663.972	-1429
664.026	-1606
664.079	-1788
664.133	-1338
664.187	-1449
664.240	-2037
664.294	-1462
664.348	-1016
664.401	-1594
664.455	-1040
664.508	-1175
664.562	-1427
664.615	-872
664.669	-1848
664.722	-1747
664.776	-1700
664.829	-635
664.883	-1416
664.936	-1748
664.990	-1089
665.043	-1111
665.097	-1583
665.150	-454
665.203	-1881
665.257	-1260
665.310	-692
665.363	-1457
665.417	-1248
665.470	-1328
665.523	-1492
665.576	-1611
665.630	-711
665.683	-1235
665.736	-1634
665.789	-1356
665.842	-1008
665.895	-1192
665.949	-1411
666.002	-909
666.055	-1494
666.108	-1506
666.161	-1057
666.214	-1095
666.267	-1388
666.320	-1081
666.373	-1247
666.426	-999
666.479	-1579
666.532	-1904
666.585	-1817
666.638	-1080
666.691	-1438
666.744	-1155
666.796	-1638
666.849	-2295
666.902	-1256
666.955	-1293
667.008	-1272
667.060	-2012
667.113	-2148
667.166	-2119
667.219	-585
667.271	-1923
667.324	-1465
667.377	-901
667.430	-1903
667.482	-1038
667.535	-1441
667.587	-759
667.640	-1263
667.693	-1661
667.745	-1125
667.798	-831
667.850	-1227
667.903	-1494
667.955	-893
668.008	-2249
668.060	-942
668.113	-1097
668.165	-1228
668.218	-1848
668.270	-1920
668.322	-1213
668.375	-1056
668.427	-1547
668.479	-1571
668.532	-1512
668.584	-1115
668.636	-1391
668.689	-1389
668.741	-1506
668.793	-1042
668.845	-996
668.898	-1459
668.950	-1312
669.002	-2015
669.054	-1391
669.106	-1781
669.158	-1054
669.211	-759
669.263	-1134
669.315	-1196
669.367	-1432
669.419	-1964
669.471	-905
669.523	-1273
669.575	-329
669.627	-623
669.679	-1292
669.731	-1653
669.783	-1308
669.835	-920
669.886	-1739
669.938	-864
669.990	-1273
670.042	-1886
670.094	-628
670.146	-1804
670.197	-960
670.249	-766
670.301	-487
670.353	-531
670.404	-717
670.456	-1053
670.508	191
670.560	1827
670.611	4529
670.663	8582
670.715	26363
670.766	39877
670.818	7943
670.869	467
670.921	-727
670.972	-711
671.024	-1706
671.075	-653
671.127	-1053
671.178	-1614
671.230	-902
671.281	-1406
671.333	-1966
671.384	-2239
671.436	-1273
671.487	-802
671.538	-1445
671.590	1481
671.641	2392
671.692	7353
671.744	16530
671.795	5274
671.846	8
671.897	-1129
671.949	-1191
672.000	-1629
672.051	-1542
672.102	-797
672.153	-993
672.204	-1319
672.256	-1606
672.307	-907
672.358	-963
672.409	-1512
672.460	-1504
672.511	-1554
672.562	-2011
672.613	-1723
672.664	-1774
672.715	-785
672.766	-1278
672.817	-1591
672.868	-1649
672.919	-1093
672.970	-1923
673.021	-1884
673.071	-1569
673.122	-1966
673.173	-1687
673.224	-1497
673.275	-1802
673.326	-1174
673.376	-2031
673.427	-1821
673.478	-2076
673.528	-879
673.579	-1417
673.630	-2240
673.680	-771
673.731	-1744
673.782	-2054
673.832	-1229
673.883	-1201
673.934	-2436
673.984	-1946
674.035	-1374
674.085	-1700
674.136	-1654
674.186	-1558
674.237	-1422
674.287	-1903
674.338	-1367
674.388	-2102
674.438	-1426
674.489	-1964
674.539	-1742
674.589	-972
674.640	-1397
674.690	-1844
674.740	-1815
674.791	-1012
674.841	-1654
674.891	-1554
674.942	-965
674.992	-1815
675.042	-1981
675.092	-1869
675.142	-2024
675.193	-1634
675.243	-2321
675.293	-1556
675.343	-1595
675.393	-2019
675.443	-1212
675.493	-1446
675.543	-1920
675.593	-1791
675.643	-1397
675.693	-1416
675.743	-2010
675.793	-2340
675.843	-1806
675.893	-1357
675.943	-2231
675.993	-2609
676.043	-1574
676.093	-1165
676.142	-2028
676.192	-2368
676.242	-668
676.292	-2345
676.341	-1697
676.391	-1020
676.441	-2094
676.491	-1766
676.540	-2623
676.590	-1327
676.640	-1786
676.689	-1165
676.739	-1994
676.789	-1924
676.838	-1990
676.888	-1753
676.937	-1823
676.987	-1901
677.037	-2332
677.086	-2075
677.136	-2070
677.185	-1900
677.235	-1732
677.284	-2028
677.333	-2284
677.383	-1397
677.432	-2336
677.482	-1714
677.531	-1448
677.580	-2365
677.630	-1770
677.679	-1785
677.728	-1533
677.778	-1296
677.827	-1794
677.876	-1350
677.925	-1798
677.975	-1097
678.024	-2324
678.073	-2083
678.122	-1552
678.171	-1954
678.220	-1730
678.269	-1232
678.319	-1658
678.368	-2524
678.417	-1669
678.466	-1401
678.515	-1549
678.564	-2110
678.613	-1544
678.662	-2611
678.711	-1275
678.760	-1795
678.809	-1945
678.857	-2038
678.906	-1498
678.955	-1737
679.004	-1067
679.053	-2099
679.102	-1129
679.151	-1661
679.199	-1100
679.248	-1508
679.297	-2106
679.346	-2332
679.394	-1925
679.443	-1776
679.492	-1284
679.540	-1149
679.589	-2404
679.638	-1917
679.686	-1586
679.735	-1354
679.784	-1750
679.832	-1789
679.881	-2203
679.929	-1731
679.978	-1886
680.026	-2034
680.075	-1954
680.123	-2575
680.172	-1853
680.220	-1588
680.268	-2056
680.317	-1983
680.365	-1832
680.414	-1902
680.462	-2612
680.510	-1536
680.559	-1311
680.607	-2482
680.655	-1895
680.703	-2255
680.752	-1870
680.800	-2438
680.848	-1790
680.896	-1725
680.945	-1496
680.993	-2093
681.041	-1812
681.089	-1115
681.137	-1730
681.185	-1669
681.233	-1458
681.258	-1948
681.281	-2418
681.329	-1377
681.377	-2685
681.380	-2663
681.425	-2367
681.473	-1976
681.502	-1851
681.521	-1782
681.569	-2456
681.617	-2249
681.624	-2190
681.665	-1826
681.713	-1664
681.745	-1183
681.761	-959
681.809	-2100
681.857	-1308
681.867	-1434
681.904	-1892
681.952	-840
681.989	-2185
682.000	-2597
682.048	-1911
682.096	-2383
682.111	-2266
682.143	-2030
682.191	-2106
682.233	-1295
682.239	-1180
682.286	-1915
682.334	-2292
682.354	-2104
682.382	-1857
682.430	-998
682.476	-1605
682.477	-1622
682.525	-1685
682.572	-1971
682.598	-1927
682.620	-1894
682.667	-1674
682.715	-1563
682.720	-1509
682.763	-1058
682.810	-1719
682.841	-1745
682.857	-1755
682.905	-931
682.952	-1864
682.963	-1795
683.000	-1628
683.047	-919
683.085	-705
683.095	-646
683.142	-1376
683.190	-1479
683.206	-1567
683.237	-1727
683.284	-1369
683.328	-1145
683.332	-1133
683.379	-1094
683.426	-1507
683.449	-1406
683.473	-1275
683.521	-2240
683.568	-1337
683.571	-1321
683.615	-1263
683.662	-1957
683.693	-1668
683.709	-1469
683.757	-1224
683.804	-836
683.814	-852
683.851	-1039
683.898	-1212
683.936	-1385
683.945	-1418
683.992	-1240
684.039	-802
684.057	-837
684.086	-902
684.133	-1386
684.179	-939
684.180	-927
684.227	-775
684.274	-1080
684.300	-918
684.321	-823
684.368	-1625
684.415	-901
684.422	-896
684.462	-834
684.509	-1030
684.543	-1278
684.556	-1378
684.603	-871
684.649	-312
684.665	-647
684.696	-1333
684.743	-1032
684.786	-673
684.790	-647
684.837	-803
684.883	-726
684.908	-839
684.930	-968
684.977	-2031
685.023	-961
685.029	-973
685.070	-1067
685.117	-969
685.150	-1268
685.164	-1375
685.210	-1122
685.257	-840
685.272	-614
685.303	-158
685.350	-1449
685.393	-1174
685.396	-1152
685.443	-1048
685.490	-476
685.514	-845
685.536	-1214
685.583	-234
685.629	-523
685.636	-583
685.675	-830
685.722	-330
685.757	-962
685.768	-1217
685.815	-883
685.861	-842
685.878	-988
685.908	-1207
685.954	-616
686.000	-1152
686.000	-1161
686.047	-675
686.093	-1119
686.121	-972
686.139	-842
686.185	-1012
686.232	-988
686.242	-1099
686.278	-1585
686.324	-301
686.363	-829
686.370	-901
686.416	-968
686.463	78
686.484	-222
686.509	-703
686.555	-964
686.601	-1123
686.606	-1130
686.647	-907
686.693	-577
686.727	-881
686.739	-1018
686.785	-341
686.831	-416
686.848	-338
686.877	-316
686.923	-702
686.969	-967
686.969	-968
687.015	-905
687.061	-1094
687.090	-710
687.107	-490
687.153	-233
687.199	100
687.211	15
687.245	-294
687.291	-156
687.332	-430
687.336	-454
687.382	-250
687.428	-534
687.453	-430
687.474	-392
687.520	-228
687.565	-338
687.574	-348
687.611	-205
687.657	-480
687.695	124
687.702	231
687.748	67
687.794	-206
687.816	-54
687.839	-38
687.885	383
687.931	32
687.937	-36
687.976	-187
688.022	-564
688.058	-150
688.067	-67
688.113	-40
688.158	-333
688.179	-256
688.204	-181
688.249	148
688.295	-43
688.300	-104
688.340	-538
688.386	259
688.421	-64
688.431	-176
688.477	-381
688.522	-251
688.542	-420
688.567	-451
688.613	-92
688.658	-292
688.663	-261
688.703	-291
688.749	100
688.784	-74
688.794	-45
688.839	240
688.884	49
688.905	123
688.930	7
688.975	-557
689.020	-19
689.026	-110
689.065	-579
689.110	-291
689.146	-192
689.155	-164
689.201	20
689.246	-583
689.267	-470
689.291	-309
689.336	-332
689.381	149
689.388	140
689.426	-52
689.471	-156
689.509	-185
689.516	-149
689.561	-28
689.606	-222
689.630	-143
689.651	-161
689.696	-556
689.741	-162
689.750	-191
689.785	-205
689.830	180
689.871	125
689.875	126
689.920	156
689.965	-51
689.992	86
690.010	170
690.054	508
690.099	275
690.112	274
690.144	132
690.189	68
690.233	25
690.233	28
690.278	101
690.323	276
690.354	220
690.367	177
690.412	465
690.457	336
690.474	296
690.501	204
690.546	342
690.590	438
690.595	382
690.635	22
690.680	481
690.716	409
690.724	368
690.769	396
690.813	244
690.836	234
690.857	313
690.902	248
690.946	459
690.957	416
690.991	305
691.035	403
691.077	853
691.080	869
691.124	839
691.168	393
691.198	445
691.213	494
691.257	370
691.301	113
691.318	101
691.346	97
691.390	-327
691.434	-14
691.439	-24
691.478	126
691.522	357
691.559	279
691.567	267
691.611	585
691.655	584
691.680	640
691.699	612
691.743	618
691.787	627
691.800	541
691.831	374
691.875	558
691.919	408
691.921	398
691.964	366
692.008	645
692.041	611
692.052	589
692.096	606
692.139	694
692.162	624
692.183	505
692.227	14
692.271	507
692.282	544
692.315	801
692.359	583
692.402	367
692.403	372
692.447	664
692.490	619
692.523	1013
692.534	1127
692.578	903
692.622	418
692.643	410
692.666	426
692.709	897
692.753	707
692.763	758
692.797	1016
692.840	982
692.884	911
692.884	915
692.928	624
692.971	441
693.004	377
693.015	387
693.059	570
693.102	409
693.124	356
693.146	382
693.189	606
693.233	627
693.245	653
693.276	561
693.320	459
693.363	160
693.365	146
693.407	284
693.450	287
693.485	810
693.493	888
693.537	767
693.580	674
693.605	606
693.624	618
693.667	833
693.710	794
693.725	843
693.753	987
693.797	1061
693.840	1172
693.845	1208
693.883	1418
693.926	1118
693.966	1055
693.970	1028
694.013	873
694.056	706
694.086	332
694.099	319
694.142	673
694.185	775
694.206	866
694.229	905
694.272	814
694.315	902
694.326	915
694.358	1070
694.401	1361
694.444	1440
694.446	1435
694.487	1351
694.530	1330
694.566	1340
694.573	1345
694.616	1432
694.659	1428
694.686	1464
694.702	1452
694.745	1199
694.787	946
694.806	926
694.830	984
694.873	964
694.916	862
694.926	855
694.959	871
695.002	996
695.044	858
695.046	853
695.087	929
695.130	916
695.166	1019
695.172	1041
695.215	939
695.258	895
695.286	937
695.301	999
695.343	957
695.386	1259
695.406	1224
695.428	1170
695.471	1142
695.514	1206
695.526	1196
695.556	1378
695.599	1638
695.641	1940
695.646	1966
695.684	1769
695.726	1395
695.766	1212
695.769	1238
695.811	1404
695.854	1629
695.886	1827
695.896	1834
695.938	1609
695.981	1504
696.005	1455
696.023	1440
696.065	1401
696.108	1355
696.125	1329
696.150	1351
696.192	1345
696.235	1319
696.245	1339
696.277	1595
696.319	1692
696.361	1852
696.365	1868
696.404	1984
696.446	1969
696.485	1990
696.488	2004
696.530	2032
696.572	2024
696.604	2104
696.614	2087
696.656	1870
696.698	1617
696.724	1618
696.740	1738
696.783	1648
696.825	1814
696.844	1817
696.867	1718
696.909	1670
696.951	1431
696.964	1393
696.992	1437
697.034	1541
697.076	1477
697.083	1464
697.118	1592
697.160	1755
697.202	1925
697.203	1921
697.244	1986
697.286	1986
697.323	1965
697.327	1976
697.369	1992
697.411	2043
697.442	2031
697.453	2081
697.494	2264
697.536	2523
697.562	2607
697.578	2658
697.620	2782
697.661	3009
697.682	3093
697.703	3145
697.744	3073
697.786	3211
697.801	3186
697.828	3010
697.869	2806
697.911	2547
697.921	2501
697.952	2573
697.994	2510
698.035	2546
698.040	2535
698.077	2354
698.118	2086
698.160	1884
698.160	1872
698.201	2205
698.243	2410
698.279	2667
698.284	2658
698.325	2422
698.367	2204
698.399	2014
698.408	2081
698.449	2361
698.491	2655
698.518	2804
698.532	2789
698.573	2761
698.614	2712
698.638	2660
698.656	2596
698.697	2473
698.738	2303
698.757	2222
698.779	2289
698.820	2396
698.862	2491
698.877	2524
698.903	2743
698.944	3067
698.985	3389
698.996	3467
699.026	3220
699.067	2861
699.116	2425
699.235	2574
699.354	2277
699.474	3200
699.593	2406
699.713	1954
699.832	3346
699.951	3323
700.070	3231
700.190	2816
700.309	3822
700.428	3003
700.547	1634
700.667	3295
700.786	1783
700.905	2835
701.024	2376
701.143	2329
701.262	2652
701.381	2675
701.500	2092
701.619	2832
701.738	2016
701.857	2586
701.976	2419
702.095	2942
702.214	2178
702.333	2880
702.452	1658
702.571	2992
702.690	2133
702.809	2895
702.928	2267
703.047	2461
703.165	1780
703.284	2802
703.403	2020
703.522	2876
703.640	3025
703.759	2493
703.878	2855
703.997	2536
704.115	1597
704.234	2319
704.353	951
704.471	1465
704.590	1083
704.708	2597
704.827	1648
704.946	2326
705.064	614
705.183	1867
705.301	937
705.420	2054
705.538	1677
705.656	1759
705.775	2409
705.893	3760
706.012	2661
706.130	2053
706.249	2297
706.367	2436
706.485	1077
706.604	1830
706.722	1826
706.840	2693
706.958	2165
707.077	2621
707.195	742
707.313	1815
707.431	1467
707.549	1438
707.668	1003
707.786	2474
707.904	2035
708.022	1833
708.140	1724
708.258	1771
708.376	2141
708.494	1622
708.612	1724
708.730	1917
708.848	1881
708.966	2420
709.084	1930
709.202	2304
709.320	1148
709.438	1357
709.556	1691
709.674	1606
709.791	1333
709.909	1023
710.027	1304
710.145	801
710.263	1432
710.380	1146
710.498	1227
710.616	1963
710.733	294
710.851	1061
710.969	1886
711.086	2005
711.204	1415
711.322	1119
711.439	1621
711.557	1123
711.674	675
711.792	1648
711.909	1292
712.027	1682
712.144	2057
712.262	1453
712.379	600
712.497	1341
712.614	1048
712.732	2383
712.849	643
712.966	1519
713.084	1456
713.201	1090
713.318	580
713.436	1819
713.553	1193
713.670	1724
713.787	1808
713.905	1234
714.022	1234
714.139	871
714.256	2886
714.373	5256
714.490	10797
714.608	37950
714.725	179933
714.842	144730
714.959	7606
715.076	3345
715.193	2167
715.310	2626
715.427	1348
715.544	1908
715.661	1805
715.778	1728
715.895	1137
716.011	1840
716.128	1347
716.245	2219
716.362	2449
716.479	1808
716.596	2236
716.713	1920
716.829	1430
716.946	1499
717.063	1832
717.180	1797
717.296	1195
717.413	1854
717.530	1752
717.646	1199
717.763	1309
717.880	783
717.996	1585
718.113	626
718.229	335
718.346	963
718.462	857
718.579	1780
718.695	2919
718.812	1917
718.928	1251
719.045	1522
719.161	1331
719.277	1888
719.394	2352
719.510	1258
719.626	758
719.743	2178
719.859	3748
719.975	8993
720.092	43815
720.208	91033
720.324	6741
720.440	2044
720.557	1440
720.673	3218
720.789	1644
720.905	1487
721.021	1687
721.137	1954
721.253	1018
721.369	1165
721.486	317
721.602	1082
721.718	1048
721.834	726
721.950	1400
722.066	1248
722.181	536
722.297	1517
722.413	1308
722.529	684
722.645	1243
722.761	1404
722.877	1162
722.993	1260
723.108	1303
723.224	754
723.340	708
723.456	1364
723.571	1425
723.687	955
723.803	1007
723.918	1073
724.034	19
724.150	641
724.265	1121
724.381	1104
724.497	634
724.612	1195
724.728	312
724.843	1046
724.959	924
725.074	1559
725.190	1264
725.305	1083
725.421	356
725.536	688
725.651	1457
725.767	295
725.882	620
725.997	1018
726.113	723
726.228	1126
726.343	399
726.459	-69
726.574	840
726.689	-321
726.804	620
726.920	746
727.035	583
727.150	195
727.265	384
727.380	909
727.495	1167
727.610	1478
727.725	894
727.841	360
727.956	1087
728.071	797
728.186	274
728.301	424
728.416	956
728.531	792
728.645	1056
728.760	1751
728.875	3395
728.990	1901
729.105	2026
729.220	1553
729.335	1187
729.449	611
729.564	822
729.679	162
729.794	690
729.908	547
730.023	560
730.138	1187
730.253	1393
730.367	20
730.482	-125
730.596	914
730.711	458
730.826	1032
730.940	123
731.055	1163
731.169	826
731.284	364
731.398	-189
731.513	662
731.627	777
731.742	767
731.856	1008
731.970	1026
732.085	1201
732.199	2774
732.313	4787
732.428	13158
732.542	51212
732.656	24218
732.771	2590
732.885	1333
732.999	1518
733.113	1372
733.227	1652
733.342	1054
733.456	735
733.570	1098
733.684	576
733.798	842
733.912	-20
734.026	877
734.140	1023
734.254	1029
734.368	1402
734.482	1150
734.596	714
734.710	1331
734.824	573
734.938	1458
735.052	652
735.166	554
735.280	890
735.393	1106
735.507	486
735.621	-17
735.735	293
735.849	1303
735.962	819
736.076	947
736.190	176
736.303	866
736.417	592
736.531	330
736.644	643
736.758	670
736.872	899
736.985	1384
737.099	717
737.212	-374
737.326	521
737.439	1709
737.553	-249
737.666	392
737.780	476
737.893	635
738.007	988
738.120	800
738.233	167
738.347	1022
738.460	900
738.573	979
738.687	819
738.800	888
738.913	1219
739.026	821
739.140	349
739.253	1737
739.366	195
739.479	488
739.592	253
739.705	474
739.818	267
739.932	867
740.045	-35
740.158	894
740.271	1273
740.384	1071
740.497	858
740.610	2407
740.723	1444
740.836	2067
740.949	1112
741.062	2005
741.174	999
741.287	419
741.400	714
741.513	2187
741.626	2373
741.739	1501
741.851	148
741.964	576
742.077	754
742.189	1338
742.302	3379
742.415	2995
742.527	933
742.640	888
742.753	790
742.865	371
742.978	866
743.090	779
743.203	635
743.316	374
743.428	-287
743.541	270
743.653	-270
743.766	36
743.878	345
743.990	559
744.103	934
744.215	948
744.327	145
744.440	1878
744.552	1263
744.664	439
744.777	-261
744.889	152
745.001	197
745.113	462
745.226	541
745.338	947
745.450	-90
745.562	492
745.674	-914
745.786	-377
745.898	142
746.010	764
746.122	-104
746.234	544
746.347	499
746.459	134
746.570	880
746.682	1646
746.794	2208
746.906	1081
747.018	-311
747.130	1267
747.242	569
747.354	282
747.466	180
747.577	-140
747.689	643
747.801	257
747.913	232
748.024	-196
748.136	-381
748.248	-50
748.359	-658
748.471	1035
748.583	559
748.694	-63
748.806	509
748.918	-153
749.029	114
749.141	230
749.252	304
749.364	594
749.475	1345
749.587	634
749.698	-280
749.809	312
749.921	87
750.032	378
750.144	107
750.255	-482
750.366	-44
750.478	672
750.589	-318
750.700	361
750.811	268
750.923	345
751.034	789
751.145	1226
751.256	-498
751.367	291
751.479	393
751.590	164
751.701	-83
751.812	-533
751.923	-805
752.034	271
752.145	156
752.256	132
752.367	-53
752.478	-209
752.589	-313
752.700	-130
752.811	-458
752.922	242
753.032	-442
753.143	718
753.254	-974
753.365	1006
753.476	-696
753.586	-199
753.697	-347
753.808	-351
753.919	-251
754.029	379
754.140	160
754.251	575
754.361	-417
754.472	-147
754.582	-549
754.693	552
754.804	-262
754.914	32
755.025	-405
755.135	212
755.246	-37
755.356	-852
755.466	54
755.577	1113
755.687	396
755.798	-67
755.908	-542
756.018	442
756.129	313
756.239	-632
756.349	1146
756.460	299
756.570	-497
756.680	19
756.790	128
756.900	-112
757.011	-166
757.121	474
757.231	-143
757.341	-78
757.451	-547
757.561	-1057
757.671	-43
757.781	-752
757.891	-480
758.001	-59
758.111	-128
758.221	570
758.331	-319
758.441	627
758.551	-206
758.661	399
758.771	-264
758.880	-1353
758.990	-273
759.100	-596
759.210	-343
759.320	84
759.429	-87
759.539	605
759.649	-289
759.758	343
759.868	681
759.978	245
760.087	335
760.197	108
760.307	285
760.416	365
760.526	-376
760.635	313
760.745	730
760.854	110
760.964	-428
761.073	77
761.182	259
761.292	122
761.401	-86
761.511	-459
761.620	-364
761.729	-620
761.839	-411
761.948	87
762.057	-911
762.166	-185
762.276	-858
762.385	1319
762.494	-470
762.603	-480
762.712	-52
762.822	589
762.931	410
763.040	-393
763.149	-837
763.258	19
763.367	485
763.476	228
763.585	-119
763.694	147
763.803	-955
763.912	309
764.021	196
764.130	-103
764.238	62
764.347	-234
764.456	-619
764.565	-73
764.674	473
764.783	-831
764.891	-879
765.000	479
765.109	-417
765.217	-344
765.326	120
765.435	-714
765.543	-264
765.652	-54
765.761	-724
765.869	1288
765.978	1810
766.086	4005
766.195	9349
766.303	35987
766.412	134349
766.520	74771
766.629	7481
766.737	1783
766.846	744
766.954	498
767.062	1435
767.171	599
767.279	166
767.387	287
767.496	162
767.604	-228
767.712	165
767.820	198
767.928	-556
768.037	-345
768.145	148
768.253	847
768.361	150
768.469	-130
768.577	49
768.685	622
768.793	-754
768.901	-217
769.009	178
769.117	167
769.225	-661
769.333	228
769.441	1118
769.549	2886
769.657	10388
769.765	49535
769.873	97965
769.981	13631
770.088	1486
770.196	587
770.304	890
770.412	573
770.519	-478
770.627	-36
770.735	89
770.842	-691
770.950	-372
771.058	-217
771.165	-168
771.273	-187
771.380	-232
771.488	1100
771.595	2
771.703	-315
771.810	963
771.918	4
772.025	-96
772.133	358
772.240	-55
772.348	-280
772.455	23
772.562	37
772.670	-763
772.777	390
772.884	389
772.991	121
773.099	-256
773.206	12
773.313	188
773.420	-541
773.528	-735
773.635	498
773.742	-375
773.849	-79
773.956	189
774.063	78
774.170	-615
774.277	157
774.384	-271
774.491	-372
774.598	-329
774.705	419
774.812	-821
774.919	689
775.026	-165
775.133	32
775.239	-158
775.346	-683
775.453	-120
775.560	-346
775.667	-33
775.773	-18
775.880	-485
775.987	729
776.093	-348
776.200	-35
776.307	-337
776.413	444
776.520	-62
776.627	19
776.733	759
776.840	-1152
776.946	1810
777.053	2183
777.159	4853
777.266	1589
777.372	5202
777.478	3424
777.585	1139
777.691	-687
777.798	-372
777.904	307
778.010	130
778.117	83
778.223	-943
778.329	-731
778.435	-788
778.542	503
778.648	-320
778.754	-535
778.860	-557
778.966	-71
779.072	-647
779.178	495
779.284	-3
779.391	-289
779.497	-891
779.603	1250
779.708	-1109
779.815	544
779.920	462
780.026	230
780.132	-444
780.238	-459
780.344	-1
780.450	1072
780.556	-292
780.661	-632
780.767	-29
780.873	-789
780.979	-617
781.085	-1400
781.190	-364
781.296	-964
781.402	-674
781.507	-1067
781.613	508
781.719	-545
781.824	-578
781.930	-12
782.035	-616
782.141	-580
782.246	-936
782.352	-410
782.457	-308
782.563	462
782.668	-1049
782.773	-507
782.879	-1107
782.984	-170
783.090	87
783.195	556
783.300	249
783.405	-212
783.511	-1003
783.616	186
783.721	-1202
783.826	-16
783.932	-100
784.037	-286
784.142	-175
784.247	-489
784.352	-13
784.457	-461
784.562	-572
784.667	-129
784.772	-494
784.877	-969
784.982	-29
785.087	-1182
785.192	355
785.297	-568
785.402	-926
785.507	270
785.611	-1023
785.716	-440
785.821	-435
785.926	-456
786.031	-398
786.135	-918
786.240	-494
786.345	-809
786.450	-239
786.554	-890
786.659	-553
786.763	-1837
786.868	-565
786.973	183
787.077	-955
787.182	-786
787.286	-262
787.391	217
787.495	-1186
787.600	-306
787.704	-558
787.809	-184
787.913	-649
788.017	133
788.122	-445
788.226	-838
788.330	-988
788.435	112
788.539	-526
788.643	-430
788.747	-1167
788.852	-591
788.956	-2054
789.060	-153
789.164	-623
789.268	-1277
789.372	-214
789.476	-254
789.580	-1229
789.684	-901
789.788	-14
789.892	-645
789.996	-295
790.100	-1195
790.204	-715
790.308	-612
790.412	-793
790.516	206
790.620	-815
790.724	-320
790.828	-840
790.931	-1239
791.035	917
791.139	-820
791.242	-1702
791.346	-283
791.450	-1172
791.554	-662
791.657	-1485
791.761	456
791.864	-88
791.968	-1298
792.072	-162
792.175	-891
792.279	-796
792.382	-48
792.486	-472
792.589	-876
792.693	84
792.796	-1400
792.899	845
793.003	-282
793.106	-1990
793.209	-1131
793.313	443
793.416	-1255
793.519	35
793.623	73
793.726	-314
793.829	-503
793.932	-372
794.035	-613
794.138	826
794.242	770
794.345	-1162
794.448	-214
794.551	-980
794.654	431
794.757	359
794.860	-611
794.963	-494
795.066	-273
795.169	59
795.272	-707
795.375	-858
795.477	-731
795.580	-665
795.683	-1852
795.786	-766
795.889	-2037
795.991	-575
796.094	-531
796.197	-2181
796.300	-138
796.402	-1245
796.505	-797
796.608	-1129
796.710	379
796.813	-1076
796.915	-906
797.018	-125
797.120	-268
797.223	-1409
797.326	619
797.428	-1100
797.530	-238
797.633	-987
797.735	41
797.838	-1630
797.940	-369
798.042	-1731
798.145	-1125
798.247	-139
798.349	-2044
798.452	-588
798.554	-1210
798.656	-1790
798.758	-41
798.860	-1607
798.962	-863
799.065	-689
799.167	-1172
799.269	60
799.371	203
799.473	-223
799.575	-1341
799.677	-1120
799.779	758
799.881	-1848
799.983	-218
800.085	-180
800.187	-485
800.289	-1814
800.390	-912
800.492	-546
800.594	902
800.696	-1379
800.798	-572
800.899	-1046
801.001	-1618
801.103	-1309
801.205	-1108
801.306	-276
801.408	-1386
801.509	-1287
801.611	-231
801.713	-143
801.814	-312
801.916	-701
802.017	-612
802.119	-1149
802.220	-663
802.322	-2586
802.423	618
802.525	-2702
802.626	-805
802.727	-575
802.829	-47
802.930	-2555
803.031	737
803.133	-1766
803.234	-634
803.335	-1165
803.436	-1565
803.538	-404
803.639	-2028
803.740	-349
803.841	-1268
803.942	-987
804.043	-750
804.144	-2052
804.245	-676
804.346	-1577
804.447	-1957
804.548	-646
804.649	170
804.750	-1175
804.851	-1046
804.952	-1147
805.053	-368
805.154	-1646
805.255	721
805.355	-655
805.456	-1124
805.557	-1348
805.658	-1794
805.758	16
805.859	-1070
805.960	-834
806.061	-1319
806.161	-1743
806.262	-952
806.362	-1016
806.463	-940
806.564	-1301
806.664	-1020
806.765	-344
806.865	-926
806.966	-1842
807.066	-183
807.166	-513
807.267	298
807.367	-1390
807.468	-13
807.568	-2075
807.668	269
807.769	-767
807.869	-1278
807.969	-930
808.069	-729
808.170	-606
808.270	-820
808.370	-1081
808.470	47
808.570	-1783
808.670	-884
808.770	-1561
808.870	-1523
808.970	-528
809.070	-750
809.170	-686
809.271	-566
809.370	-737
809.470	-715
809.570	-1923
809.670	-1839
809.770	-1769
809.870	-82
809.970	-1522
810.070	-708
810.169	-781
810.269	-1237
810.369	-42
810.469	-1067
810.568	-1046
810.668	-1112
810.768	-953
810.867	-766
810.967	-1814
811.066	-347
811.166	-528
811.265	-836
811.365	-2041
811.464	-1375
811.564	-873
811.663	-554
811.763	-2005
811.862	-369
811.962	92
812.061	-672
812.160	-1317
812.260	-1070
812.359	-1657
812.458	-1174
812.557	-770
812.657	-1725
812.756	-1299
812.855	-1221
812.954	-1560
813.053	-259
813.153	-1306
813.252	-1669
813.351	-1086
813.450	-601
813.549	-1758
813.648	-546
813.747	-2003
813.846	-350
813.945	-1830
814.044	-1171
814.143	-300
814.242	46
814.341	-1794
814.439	-1529
814.538	-767
814.637	-752
814.736	-2092
814.835	-931
814.933	-1923
815.032	-468
815.131	-1409
815.229	-817
815.328	-777
815.427	-792
815.525	-27
815.624	-596
815.722	-1017
815.821	113
815.919	-1582
816.018	-1367
816.116	140
816.215	-583
816.313	-1226
816.412	-581
816.510	-1003
816.609	620
816.707	-677
816.805	-845
816.904	-957
817.002	-45
817.100	93
817.198	299
817.296	-2030
817.395	-237
817.493	375
817.591	-1408
817.689	-854
817.787	-782
817.885	837
817.983	2027
818.081	7460
818.179	19189
818.277	55219
818.375	32816
818.473	4377
818.571	1224
818.669	710
818.767	909
818.865	290
818.963	747
819.061	3163
819.158	5221
819.256	17396
819.354	45923
819.452	108161
819.549	41547
819.647	5408
819.745	1313
819.842	1483
819.940	182
820.038	-839
820.135	-490
820.233	1200
820.330	67
820.428	-882
820.525	487
820.623	-362
820.720	-366
820.818	-1032
820.915	61
821.012	-528
821.110	-1304
821.207	36
821.304	-1190
821.402	-445
821.499	211
821.596	732
821.693	-74
821.791	-997
821.888	33
821.985	622
822.082	-711
822.179	380
822.276	-826
822.373	-816
822.470	-1135
822.567	-392
822.664	-1504
822.761	-343
822.858	-1157
822.955	-1051
823.052	-622
823.149	-776
823.246	-481
823.343	-1151
823.440	-101
823.536	-1483
823.633	-1600
823.730	-724
823.827	-414
823.923	-1594
824.020	614
824.117	-322
824.213	-1939
824.310	-759
824.407	-467
824.503	-1341
824.600	-612
824.696	-1024
824.793	-617
824.889	-1006
824.986	-464
825.082	-1197
825.179	-166
825.275	-681
825.371	-2141
825.468	-291
825.564	-1862
825.660	-424
825.757	-724
825.853	-693
825.949	-1834
826.045	-864
826.142	-1175
826.238	-1242
826.334	-398
826.430	-2453
826.526	-614
826.622	-1856
826.718	-634
826.814	-2325
826.910	-181
827.006	-1012
827.102	-1075
827.198	-348
827.294	-1231
827.390	-611
827.486	-483
827.582	-2703
827.678	-1386
827.774	-481
827.869	-1748
827.965	-101
828.061	-1631
828.157	-778
828.252	-961
828.348	-1810
828.444	-113
828.539	-1286
828.635	-1627
828.731	-1020
828.826	-1446
828.922	-1427
829.017	-1176
829.113	-520
829.208	-1485
829.304	-1623
829.399	-518
829.495	-1496
829.590	-84
829.685	-1966
829.781	-844
829.876	-1174
829.971	-1190
830.066	-1581
830.162	-851
830.257	-1656
830.352	-605
830.447	-307
830.543	-998
830.638	-2331
830.733	-376
830.828	-1621
830.923	-75
831.018	-688
831.113	-647
831.208	-2494
831.303	-1471
831.398	-1239
831.493	-1225
831.588	-1093
831.683	-1860
831.778	-630
831.873	-119
831.967	-800
832.062	-729
832.157	-2089
832.252	-240
832.346	-606
832.441	-861
832.536	-818
832.631	-177
832.725	158
832.820	-2244
832.914	-813
833.009	-1111
833.104	-1728
833.198	-1037
833.293	-1883
833.387	-1108
833.482	-1564
833.576	-1364
833.670	-468
833.765	-1544
833.859	-2261
833.954	-1031
834.048	-822
834.142	-974
834.237	-1098
834.331	-1351
834.425	-1645
834.519	-1679
834.613	-570
834.708	-790
834.802	-501
834.896	-1421
834.990	-1602
835.084	-976
835.178	-1454
835.272	-765
835.366	-1526
835.460	-855
835.554	-1037
835.648	-444
835.742	-1486
835.836	-1171
835.930	-2371
836.024	-1316
836.117	-1204
836.211	-1762
836.305	-1569
836.399	-1244
836.493	-2419
836.586	-808
836.680	-1827
836.774	-1552
836.867	-624
836.961	-1340
837.055	-2050
837.148	-704
837.242	-889
837.335	-1360
837.429	-566
837.522	-1556
837.616	-1932
837.709	-419
837.803	-1713
837.896	-1049
837.989	-1273
838.083	-1171
838.176	-1399
838.269	-2250
838.363	-1199
838.456	-855
838.549	-701
838.642	-650
838.735	113
838.829	-578
838.922	-1658
839.015	-1228
839.108	-1806
839.201	-89
839.294	-1255
839.387	-775
839.480	-2342
839.573	-644
839.666	-1638
839.759	-1882
839.852	-1843
839.945	-820
840.038	-1634
840.131	-1263
840.223	-1090
840.316	-772
840.409	-1528
840.502	-1763
840.594	-581
840.687	-1864
840.780	-868
840.873	-2138
840.965	-1552
841.058	-1208
841.150	-1436
841.243	-2128
841.336	-955
841.428	-1276
841.521	-1597
841.613	-1694
841.706	-627
841.798	-1831
841.890	-1343
841.983	-1959
842.075	-536
842.167	-1517
842.260	-1542
842.352	-239
842.444	-1605
842.537	-1052
842.629	-1191
842.721	-1393
842.813	-195
842.905	-1910
842.997	-978
843.090	-1549
843.182	-880
843.274	-1867
843.366	-579
843.458	-1481
843.550	-255
843.642	-1510
843.734	-831
843.826	-1515
843.918	-821
844.009	-1029
844.101	-2297
844.193	-1747
844.285	-1123
844.377	-1084
844.469	-456
844.560	373
844.652	-546
844.744	-1579
844.835	-1487
844.927	-982
845.019	-1975
845.110	-1817
845.202	-1960
845.293	-1202
845.385	-1506
845.476	-1338
845.568	-1182
845.659	-920
845.751	-454
845.842	-1161
845.934	-1861
846.025	-1379
846.116	-1086
846.208	-1171
846.299	-1340
846.390	-636
846.482	-749
846.573	-329
846.664	-964
846.755	-1764
846.846	-1264
846.937	-2291
847.029	-1826
847.120	-1445
847.211	-1444
847.302	-108
847.393	-2275
847.484	-329
847.575	-2350
847.666	-1447
847.757	-1072
847.847	-946
847.938	-1161
848.029	-1890
848.120	-1595
848.211	-649
848.302	-1945
848.392	-815
848.483	-378
848.574	-2044
848.664	-2048
848.755	-1686
848.846	-1157
848.936	-1548
849.027	-1336
849.118	-1286
849.208	-1651
849.299	-429
849.389	778
849.480	3736
849.570	9186
849.661	19807
849.751	32387
849.841	7985
849.932	-1196
850.022	-1067
850.112	-1033
850.203	-1141
850.293	-1157
850.383	-1665
850.474	-2369
850.564	-864
850.654	-1537
850.744	-1305
850.834	-1425
850.924	-913
851.014	-992
851.104	-2000
851.194	-1759
851.284	-1390
851.374	-1624
851.464	-796
851.554	-1699
851.644	-1654
851.734	-1343
851.824	-1560
851.914	-1411
852.004	-323
852.094	-2230
852.183	-1098
852.273	-1582
852.363	-831
852.452	-1260
852.542	-1984
852.632	-2244
852.721	-1361
852.811	-2041
852.901	-1179
852.990	-1341
853.080	-1574
853.169	-1738
853.259	-1197
853.348	-1214
853.438	102
853.527	841
853.617	1067
853.706	4741
853.795	11430
853.885	31109
853.974	59881
854.063	118884
854.152	171496
854.242	49481
854.331	6032
854.420	538
854.509	1435
854.598	235
854.687	140
854.777	57
854.866	-504
854.955	-400
855.044	-852
855.133	-939
855.222	-893
855.311	-1130
855.400	-275
855.488	40
855.577	-1710
855.666	-1785
855.755	-44
855.844	-536
855.933	-1361
856.021	-1198
856.110	-754
856.199	-1428
856.288	-853
856.376	-1838
856.465	-1077
856.554	-993
856.642	-639
856.731	-462
856.819	-1054
856.908	-2056
856.996	-1898
857.085	-1629
857.173	-1258
857.262	-2218
857.350	-539
857.438	-1513
857.527	-1417
857.615	-1290
857.703	-641
857.792	-1656
857.880	-1701
857.968	-1780
858.056	-895
858.145	-1009
858.233	-672
858.321	-1096
858.409	-186
858.497	-1108
858.585	-2156
858.673	-1321
858.761	-1512
858.849	-1289
858.937	-1629
859.025	-1419
859.113	-1155
859.201	-1858
859.289	-1091
859.377	-1631
859.465	-1350
859.552	-1425
859.640	-1213
859.728	-1667
859.816	-1274
859.903	-1637
859.991	-1986
860.079	-1038
860.166	-1149
860.254	-1105
860.342	-1052
860.429	-2682
860.517	-1939
860.604	-1395
860.692	-865
860.779	-1965
860.867	-1201
860.954	-1949
861.042	-1707
861.129	-1273
861.216	-1491
861.304	-1820
861.391	-1175
861.478	-1220
861.565	-893
861.653	-1045
861.740	-1634
861.827	-1550
861.914	-852
862.001	-2192
862.089	-1765
862.176	-1651
862.263	-1151
862.350	-1047
862.437	-1343
862.524	-935
862.611	-1660
862.698	-1406
862.785	-1399
862.871	-1000
862.958	-2207
863.045	-1372
863.132	-607
863.219	-1203
863.306	-2061
863.392	-1565
863.479	-980
863.566	-1240
863.652	-1587
863.739	-1929
863.826	-1024
863.912	-1502
863.999	-1938
864.086	-1881
864.172	-1606
864.259	-814
864.345	-1217
864.432	-300
864.518	-846
864.604	-1935
864.691	-1337
864.777	-1786
864.863	-374
864.950	-451
865.036	-676
865.122	90
865.209	-60
865.295	-824
865.381	84
865.467	407
865.553	865
865.639	1785
865.726	5653
865.812	13643
865.898	29664
865.984	44625
866.070	91171
866.156	87006
866.242	16061
866.328	1326
866.414	-227
866.499	198
866.585	-54
866.671	-90
866.757	-418
866.843	-1176
866.928	-537
867.014	-1384
867.100	-724
867.186	-1086
867.271	-731
867.357	-1405
867.442	-706
867.528	-863
867.614	-1089
867.699	-1004
867.785	252
867.870	-1408
867.956	-65
868.041	-1022
868.127	-503
868.212	-1497
868.297	-698
868.383	-1475
868.468	-515
868.553	231
868.639	91
868.724	-940
868.809	-62
868.894	-814
868.979	-1473
869.065	-1371
869.150	-1546
869.235	-1061
869.320	-1183
869.405	-1842
869.490	-1193
869.575	-1582
869.660	-1170
869.745	-1477
869.830	-1300
869.915	-1550
870.000	-956
870.085	-990
870.169	-981
870.254	-1252
870.339	-1293
870.424	-1179
870.509	-1057
870.593	-1069
870.678	-1304
870.763	-1183
870.847	-1232
870.932	-1657
871.016	-1013
871.101	-1048
871.186	-1267
871.270	-618
871.355	-801
871.439	-1399
871.523	-1165
871.608	-2024
871.692	-389
871.777	-298
871.861	-1240
871.945	-1574
872.030	-868
872.114	-1286
872.198	-344
872.282	-1370
872.367	-1426
872.451	-2406
872.535	-1078
872.619	-996
872.703	-1010
872.787	-1351
872.871	-1309
872.955	-1150
873.039	-1683
873.123	-1165
873.207	-782
873.291	-1718
873.375	-2166
873.459	-1719
873.543	-933
873.627	-1525
873.711	-1507
873.794	-747
873.878	-1537
873.962	-1580
874.045	-1471
874.129	-1252
874.137	-1244
874.213	-1166
874.245	-1066
874.296	-901
874.352	-1291
874.380	-1489
874.460	-1523
874.464	-1524
874.547	-1891
874.568	-1688
874.631	-1094
874.676	-927
874.714	-780
874.784	-285
874.798	-200
874.881	262
874.892	53
874.965	-1336
874.999	-1147
875.048	-872
875.107	-836
875.131	-845
875.215	-1058
875.215	-1058
875.298	-1304
875.323	-1268
875.381	-1158
875.430	-1086
875.465	-1036
875.538	-1117
875.548	-1125
875.631	-1118
875.646	-1038
875.714	-713
875.753	-871
875.798	-1015
875.861	-1459
875.881	-1610
875.964	-998
875.968	-984
876.047	-723
876.076	-711
876.130	-640
876.183	-689
876.213	-747
876.291	-907
876.296	-918
876.379	-691
876.398	-912
876.462	-1581
876.506	-1092
876.545	-665
876.613	-902
876.628	-970
876.711	-460
876.721	-525
876.794	-903
876.828	-1123
876.877	-1440
876.935	-972
876.960	-773
877.043	-581
877.043	-583
877.125	-1057
877.150	-844
877.208	-327
877.258	-607
877.291	-788
877.365	-1063
877.374	-1100
877.456	-742
877.472	-837
877.539	-996
877.579	-695
877.622	-721
877.687	-1048
877.704	-1002
877.787	-1059
877.794	-977
877.869	-331
877.901	-557
877.952	-846
878.008	-606
878.034	-495
878.115	-911
878.117	-918
878.199	-736
878.222	-724
878.282	-863
878.329	-558
878.364	-258
878.437	-1333
878.447	-1500
878.529	-1553
878.544	-1457
878.611	-915
878.651	-819
878.694	-590
878.758	-771
878.776	-882
878.858	-1071
878.865	-1079
878.941	-1061
878.972	-1010
879.023	-1016
879.078	-873
879.105	-727
879.185	-511
879.187	-508
879.269	-732
879.292	-850
879.351	-1101
879.399	-1151
879.433	-1187
879.506	-563
879.516	-501
879.598	-1656
879.613	-1502
879.680	-530
879.720	-419
879.762	-416
879.827	-844
879.844	-945
879.926	-787
879.933	-760
880.007	-683
880.040	-870
880.089	-848
880.147	-128
880.171	139
880.253	77
880.254	76
880.335	-45
880.360	142
880.417	1044
880.467	1876
880.499	2482
880.574	3064
880.580	2961
880.662	404
880.680	-23
880.744	-652
880.787	-674
880.825	-633
880.893	-766
880.907	-749
880.989	-283
881.000	-177
881.070	18
881.106	-414
881.152	-729
881.213	-355
881.233	-277
881.315	-631
881.319	-638
881.396	-463
881.426	-529
881.478	-725
881.532	-586
881.559	-532
881.639	-150
881.641	-135
881.722	-358
881.745	-337
881.803	-385
881.852	-612
881.885	-891
881.958	-621
881.966	-507
882.047	-615
882.064	-441
882.129	-445
882.171	-784
882.210	-736
882.277	109
882.291	205
882.372	-448
882.383	-425
882.454	-337
882.489	-688
882.535	-1074
882.596	-855
882.616	-645
882.697	-225
882.702	-218
882.778	-357
882.808	-299
882.859	-272
882.914	9
882.940	88
883.020	-653
883.021	-653
883.102	-415
883.127	-394
883.183	-713
883.233	-873
883.264	-666
883.339	-314
883.345	-327
883.426	-832
883.445	-876
883.507	-755
883.551	-754
883.587	-755
883.657	-360
883.668	-241
883.749	31
883.763	102
883.830	-249
883.869	-442
883.910	-439
883.975	-614
883.991	-610
884.072	42
884.081	16
884.152	-637
884.187	-814
884.233	-475
884.292	-59
884.314	-140
884.394	-282
884.398	-312
884.475	-446
884.504	-398
884.555	-537
884.610	-709
884.636	-613
884.716	-218
884.716	-213
884.797	-524
884.821	-547
884.877	-776
884.927	-1174
884.958	-1068
885.033	-331
885.038	-311
885.118	-364
885.139	-453
885.199	-449
885.244	-217
885.279	-302
885.350	-510
885.359	-455
885.439	-126
885.456	-74
885.520	-376
885.561	-513
885.600	-267
885.667	-20
885.680	-122
885.760	-448
885.773	-537
885.840	-97
885.878	116
885.920	-262
885.984	-731
886.000	-592
886.080	-11
886.089	54
886.160	70
886.195	71
886.240	62
886.300	-6
886.320	-72
886.400	-202
886.406	-221
886.480	-284
886.511	-343
886.560	-57
886.616	222
886.640	158
886.720	-10
886.722	-18
886.800	-188
886.827	-280
886.879	-268
886.932	-285
886.959	-244
887.038	-222
887.039	-216
887.119	65
887.143	61
887.198	59
887.248	175
887.278	-11
887.354	-587
887.358	-532
887.437	677
887.459	950
887.517	741
887.564	584
887.596	482
887.669	121
887.676	101
887.755	-21
887.774	-101
887.835	184
887.880	524
887.914	422
887.985	-65
887.994	-67
888.073	29
888.090	45
888.153	86
888.195	79
888.232	-10
888.300	-166
888.311	-174
888.391	-256
888.405	-271
888.470	-131
888.510	-86
888.549	-37
888.615	58
888.628	98
888.708	351
888.720	377
888.787	19
888.825	-190
888.866	-141
888.930	-61
888.945	-89
889.024	-272
889.035	-295
889.103	-254
889.140	-232
889.182	316
889.245	1074
889.261	957
889.340	416
889.349	345
889.419	234
889.454	197
889.498	118
889.559	-15
889.577	28
889.656	219
889.664	237
889.735	50
889.768	-36
889.814	342
889.873	841
889.978	-170
890.083	465
890.187	396
890.292	601
890.397	309
890.501	493
890.606	-20
890.710	-210
890.815	706
890.919	-21
891.024	207
891.128	76
891.233	-102
891.337	510
891.442	10
891.546	-421
891.650	-732
891.755	-88
891.859	1425
891.963	-115
892.068	39
892.172	19
892.276	-744
892.380	359
892.484	186
892.589	8
892.693	945
892.797	1038
892.901	-236
893.005	24
893.109	198
893.213	208
893.317	0
893.421	53
893.525	-308
893.629	-872
893.733	155
893.837	-74
893.941	-783
894.045	1019
894.148	285
894.252	158
894.356	-468
894.460	271
894.564	-196
894.667	521
894.771	236
894.875	-151
894.978	791
895.082	265
895.186	317
895.289	454
895.393	47
895.496	555
895.600	-547
895.703	128
895.807	-479
895.910	525
896.014	-7
896.117	-361
896.221	-8
896.324	-29
896.427	-308
896.531	-102
896.634	-418
896.737	847
896.840	433
896.944	94
897.047	156
897.150	338
897.253	-607
897.356	662
897.460	-87
897.563	-538
897.666	-183
897.769	345
897.872	274
897.975	-854
898.078	337
898.181	497
898.284	-66
898.387	565
898.490	-256
898.593	363
898.695	-144
898.798	49
898.901	46
899.004	136
899.107	380
899.209	-61
899.312	-222
899.415	736
899.518	300
899.620	-357
899.723	-182
899.826	48
899.928	746
900.031	-667
900.133	-807
900.236	-578
900.338	-207
900.441	-58
900.543	27
900.646	-431
900.748	262
900.851	-168
900.953	208
901.055	116
901.158	-124
901.260	797
901.362	-864
901.465	402
901.567	455
901.669	109
901.771	-1102
901.873	4
901.976	-157
902.078	105
902.180	-314
902.282	48
902.384	366
902.486	-1
902.588	251
902.690	344
902.792	-748
902.894	1445
902.996	5
903.098	352
903.200	78
903.302	109
903.404	-403
903.505	390
903.607	-121
903.709	705
903.811	-429
903.913	78
904.014	-659
904.116	-230
904.218	245
904.319	416
904.421	385
904.523	68
904.624	-80
904.726	320
904.827	-192
904.929	179
905.030	322
905.132	283
905.233	-660
905.335	323
905.436	40
905.537	-193
905.639	190
905.740	-319
905.841	205
905.943	757
906.044	112
906.145	468
906.247	-97
906.348	368
906.449	-312
906.550	-264
906.651	-668
906.752	70
906.854	-269
906.955	-812
907.056	-1107
907.157	-408
907.258	-341
907.359	298
907.460	-1032
907.561	-562
907.662	-468
907.762	-500
907.863	-608
907.964	310
908.065	245
908.166	-196
908.267	-280
908.367	-696
908.468	-1025
908.569	-31
908.670	425
908.770	-368
908.871	-71
908.971	-415
909.072	-936
909.173	481
909.273	200
909.374	24
909.474	-1586
909.575	-584
909.675	299
909.776	-164
909.876	-537
909.977	-281
910.077	477
910.177	-209
910.278	-150
910.378	-773
910.478	-223
910.579	262
910.679	-612
910.779	-134
910.879	-284
910.980	286
911.080	-687
911.180	-661
911.280	-947
911.380	-357
911.480	-334
911.580	663
911.680	258
911.780	797
911.880	486
911.980	-19
912.080	-980
912.180	21
912.280	-388
912.380	149
912.480	86
912.580	-987
912.679	-507
912.779	387
912.879	-384
912.979	-112
913.078	-767
913.178	-635
913.278	-704
913.377	298
913.477	-678
913.577	-267
913.676	692
913.776	-563
913.875	-644
913.975	798
914.074	-378
914.174	-360
914.273	-1426
914.373	194
914.472	-650
914.572	-704
914.671	-874
914.770	18
914.870	95
914.969	-112
915.068	-14
915.167	352
915.267	-1309
915.366	-662
915.465	-787
915.564	4
915.663	-442
915.763	-330
915.862	-935
915.961	588
916.060	-1344
916.159	-1263
916.258	-892
916.357	-409
916.456	95
916.555	163
916.654	-77
916.752	-573
916.851	-223
916.950	-747
917.049	-1088
917.148	-709
917.247	149
917.345	-258
917.444	-120
917.543	-705
917.642	100
917.740	-38
917.839	-665
917.937	372
918.036	486
918.135	-527
918.233	-607
918.332	-365
918.430	-223
918.529	-480
918.627	-553
918.726	82
918.824	-205
918.923	-1087
919.021	-623
919.119	-1013
919.218	-992
919.316	161
919.414	-737
919.512	-517
919.611	-480
919.709	-763
919.807	-991
919.905	505
920.003	243
920.102	133
920.200	-569
920.298	-399
920.396	-554
920.494	-22
920.592	-511
920.690	34
920.788	-37
920.886	150
920.984	-494
921.082	-1125
921.180	4
921.277	-223
921.375	-586
921.473	-133
921.571	-107
921.669	432
921.766	-348
921.864	117
921.962	-57
922.060	400
922.157	29
922.255	-1
922.352	-349
922.450	-21
922.548	-200
922.645	100
922.743	-1001
922.840	237
922.938	-86
923.035	210
923.133	255
923.230	97
923.327	195
923.425	1274
923.522	864
923.619	282
923.717	153
923.814	133
923.911	184
924.008	709
924.106	-142
924.203	245
924.300	-215
924.397	609
924.494	34
924.591	485
924.688	-600
924.786	490
924.883	325
924.979	-272
925.077	1043
925.173	382
925.270	845
925.367	134
925.464	-136
925.561	478
925.658	740
925.755	736
925.852	838
925.948	222
926.045	355
926.142	673
926.239	1270
926.335	436
926.432	973
926.529	1180
926.625	1136
926.722	-87
926.818	362
926.915	71
927.011	87
927.108	299
927.204	-364
927.301	260
927.397	330
927.494	228
927.590	159
927.687	-506
927.783	-129
927.879	-25
927.976	-669
928.072	323
928.168	-202
928.264	46
928.361	-1393
928.457	126
928.553	-321
928.649	-415
928.745	-593
928.841	17
928.937	-267
929.033	280
929.129	361
929.225	-548
929.321	294
929.417	-412
929.513	-132
929.609	-319
929.705	-562
929.801	511
929.897	-672
929.993	-727
930.089	-446
930.184	13
930.280	-780
930.376	238
930.471	-765
930.567	-399
930.663	-578
930.758	-591
930.854	-708
930.950	-277
931.045	-135
931.141	80
931.236	235
931.332	-760
931.427	-631
931.523	592
931.618	81
931.714	-810
931.809	157
931.905	-398
932.000	-772
932.095	-256
932.191	-782
932.286	-868
932.381	-706
932.476	-85
932.572	-109
932.667	764
932.762	-765
932.857	-503
932.952	-682
933.047	40
933.142	269
933.237	-155
933.332	223
933.427	66
933.522	112
933.617	-210
933.712	-672
933.807	-550
933.902	-132
933.997	-894
934.092	-609
934.187	292
934.282	-27
934.376	-565
934.471	-433
934.566	-172
934.661	-666
934.755	-557
934.850	-1007
934.945	175
935.039	-465
935.134	-208
935.228	-703
935.323	-1200
935.417	-64
935.512	-100
935.606	-128
935.701	-298
935.795	441
935.890	-1057
935.984	-545
936.079	-663
936.173	-372
936.267	-689
936.362	-1462
936.456	553
936.550	-314
936.644	-346
936.738	-342
936.833	147
936.927	-354
937.021	-1056
937.115	-811
937.209	-990
937.303	805
937.397	-338
937.491	-1463
937.585	-840
937.679	-1039
937.773	203
937.867	-180
937.961	-358
938.055	80
938.149	-771
938.243	46
938.337	-481
938.430	-992
938.524	202
938.618	502
938.712	-129
938.805	382
938.899	-646
938.993	-613
939.086	749
939.180	695
939.274	577
939.367	-484
939.461	-204
939.554	-1324
939.648	-496
939.741	-1100
939.835	-413
939.928	-493
940.022	-126
940.115	-1044
940.208	-306
940.302	-637
940.395	178
940.488	-592
940.582	717
940.675	-108
940.768	-124
940.861	-407
940.954	529
941.048	-993
941.141	578
941.234	344
941.327	3221
941.420	2670
941.513	1108
941.606	-778
941.699	547
941.792	-711
941.885	-706
941.978	-666
942.071	-17
942.164	-946
942.257	-490
942.349	-400
942.442	-491
942.535	-747
942.628	-401
942.721	-409
942.813	-1623
942.906	-535
942.999	-1156
943.091	-1910
943.184	-732
943.277	-1326
943.369	-307
943.462	-73
943.554	-85
943.647	-1370
943.739	-384
943.832	-898
943.924	-2027
944.017	-434
944.109	-649
944.201	-707
944.294	153
944.386	-452
944.478	-638
944.571	-472
944.663	-1374
944.755	-459
944.847	-965
944.940	-613
945.032	-1696
945.124	-1152
945.216	-138
945.308	-1393
945.400	-718
945.492	-1326
945.584	-508
945.676	-860
945.768	-768
945.860	-644
945.952	-1018
946.044	-605
946.136	-806
946.228	-491
946.320	-660
946.412	-1484
946.503	-1196
946.595	-290
946.687	-269
946.779	-744
946.870	-280
946.962	-1206
947.054	-1208
947.145	-796
947.237	-1070
947.329	-532
947.420	-319
947.512	-1225
947.603	-1500
947.695	-337
947.786	-2047
947.878	-1233
947.969	-941
948.061	-1144
948.152	-1271
948.243	-862
948.335	-1078
948.426	-1067
948.517	-668
948.609	-911
948.700	-474
948.791	-1047
948.882	-221
948.973	-1232
949.065	-959
949.156	-281
949.247	-1231
949.338	-1391
949.429	-988
949.520	-1048
949.611	-759
949.702	-69
949.793	-819
949.884	-332
949.975	-1377
950.066	-954
950.157	-1999
950.247	-1752
950.338	-237
950.429	-1071
950.520	-1119
950.611	-1040
950.701	-1152
950.792	-1602
950.883	-1019
950.973	-1555
951.064	-777
951.155	-1277
951.245	-418
951.336	-1239
951.427	-1406
951.517	96
951.608	-195
951.698	-1176
951.788	-1246
951.879	-1298
951.969	-833
952.060	-1062
952.150	-1552
952.240	-540
952.331	-2824
952.421	311
952.511	-1592
952.602	-696
952.692	-828
952.782	-1146
952.872	-1478
952.962	-1742
953.052	-1186
953.143	-1991
953.233	-556
953.323	-545
953.413	-1378
953.503	-585
953.593	-1117
953.683	-1719
953.773	-1697
953.863	-1014
953.953	-1128
954.042	-1081
954.132	-943
954.222	-1242
954.312	-1207
954.402	-1010
954.492	-985
954.581	-1275
954.671	-2016
954.761	-1257
954.850	-397
954.940	-1749
955.030	-1229
955.119	-870
955.209	-491
955.298	-1740
955.388	-1362
955.477	-1178
955.567	-949
955.656	-828
955.746	-707
955.835	-1442
955.925	-930
956.014	-1025
956.103	-950
956.193	-1179
956.282	-489
956.371	-726
956.461	-940
956.550	-1449
956.639	-1627
956.728	-2183
956.817	-1441
956.906	-1582
956.995	-471
957.085	-1190
957.174	-941
957.263	-1756
957.352	-729
957.441	-972
957.530	-478
957.619	-543
957.708	-1374
957.796	-1342
957.885	-1079
957.974	-1061
958.063	-71
958.152	-2104
958.241	-353
958.329	-903
958.418	-960
958.507	-2429
958.596	-1104
958.684	-1782
958.773	-677
958.861	-1270
958.950	-911
959.039	-956
959.127	-922
959.216	-1410
959.304	-1316
959.393	-742
959.481	-1581
959.570	-1553
959.658	-1513
959.746	-1555
959.835	-1189
959.923	-1740
960.011	-2188
960.100	-834
960.188	-1523
960.276	-1483
960.365	-1197
960.453	-997
960.541	-1968
960.629	-1463
960.717	-1503
960.805	-1885
960.893	-800
960.981	-1556
961.069	-443
961.158	-1692
961.245	-653
961.333	-977
961.421	-1506
961.509	-1488
961.597	-1372
961.685	-1045
961.773	-1399
961.861	-1614
961.949	-1072
962.036	-1858
962.124	-1336
962.212	-1124
962.299	-1014
962.387	-1747
962.475	-978
962.562	-2713
962.650	-599
962.738	-1298
962.825	-1378
962.913	-1068
963.000	-1787
963.088	-1257
963.175	-1340
963.263	-1243
963.350	-307
963.438	-992
963.525	-1456
963.612	-1112
963.700	-1912
963.787	-855
963.874	-1236
963.962	-762
964.049	-823
964.136	-1511
964.223	-1549
964.310	-1166
964.398	-1199
964.485	-1068
964.572	-1787
964.659	-1213
964.746	-1010
964.833	-1678
964.920	-1504
965.007	-1030
965.094	-1257
965.181	-2247
965.268	-1065
965.355	-1671
965.441	-1024
965.528	-2066
965.615	-409
965.702	-984
965.789	-1911
965.875	-1047
965.962	-1125
966.049	-2106
966.136	-812
966.222	-2088
966.309	-759
966.395	-2098
966.482	-802
966.569	-1415
966.655	-1645
966.742	-1498
966.828	-1428
966.915	-1831
967.001	-708
967.087	-2084
967.174	-1368
967.260	-1257
967.347	-1946
967.433	-1328
967.519	-303
967.605	-2267
967.692	-1548
967.778	-1001
967.864	-562
967.950	-574
968.036	-2298
968.123	-1196
968.209	-1542
968.295	-2481
968.381	-41
968.467	-1429
968.553	-2182
968.639	-497
968.725	-1304
968.811	-1341
968.897	-615
968.983	-1035
969.069	-1454
969.154	-888
969.240	-695
969.326	-1993
969.412	-1715
969.497	-1376
969.583	-1923
969.669	-499
969.755	-1132
969.840	-1421
969.926	-1344
970.012	-1975
970.097	-799
970.183	-2000
970.268	-1336
970.354	-894
970.439	-1746
970.525	-525
970.610	-1826
970.696	-462
970.781	-195
970.866	-2162
970.952	-506
971.037	-1884
971.122	-1317
971.208	-1402
971.293	-1080
971.378	-1910
971.463	-813
971.549	-637
971.634	-1007
971.719	-1277
971.804	-2142
971.889	-1256
971.974	-1053
972.059	-1341
972.144	-1512
972.229	-1480
972.314	-1407
972.399	-994
972.484	-1191
972.569	-1253
972.654	-3123
972.739	-989
972.824	-1817
972.908	-1484
972.993	-1104
973.078	-1541
973.163	-1617
973.247	-844
973.332	-2598
973.417	-426
973.501	-2460
973.586	-1547
973.671	-1440
973.755	-1540
973.840	-727
973.924	-888
974.009	-1385
974.093	-1332
974.178	37
974.262	-1571
974.346	-2304
974.431	-603
974.515	-1820
974.600	-2357
974.684	-1293
974.768	-2014
974.852	-966
974.937	-1849
975.021	-814
975.105	-1203
975.189	-1672
975.273	-1036
975.358	-855
975.442	-1608
975.526	-663
975.610	-2005
975.694	-1513
975.778	-617
975.862	-1182
975.946	-2634
976.030	260
976.114	-2045
976.198	-827
976.281	-563
976.365	-650
976.449	-2050
976.533	-1831
976.617	-1487
976.700	-1086
976.784	-1757
976.868	-1797
976.951	-1000
977.035	-904
977.119	-1401
977.202	-1573
977.286	-975
977.369	-1700
977.453	-337
977.536	-1942
977.620	-2007
977.703	-990
977.787	-2062
977.870	-1198
977.953	-804
978.037	-2738
978.120	-660
978.203	-1198
978.287	-1574
978.370	-1153
978.453	-1656
978.536	-1791
978.620	-1053
978.703	-1241
978.786	-2109
978.869	-1406
978.952	-2745
979.035	52
979.118	-650
979.201	-2124
979.284	-135
979.367	-916
979.450	-1558
979.533	-1584
979.616	-763
979.699	-1256
979.782	-1531
979.865	-1403
979.948	-1683
980.030	-1757
980.113	-1541
980.196	-1842
980.279	-371
980.361	-1480
980.444	-1763
980.526	-1302
980.609	-1857
980.692	-1334
980.774	-819
980.857	-1754
980.939	-849
981.022	-1594
981.104	-1648
981.187	-1757
981.269	-1645
981.352	-1590
981.434	-1916
981.516	-1453
981.599	-868
981.681	-577
981.763	-926
981.846	-1323
981.928	-1691
982.010	-2174
982.092	-2263
982.174	-1272
982.256	-1248
982.339	-802
982.421	-1536
982.503	-1870
982.585	-2166
982.667	-1042
982.749	-1010
982.831	-752
982.913	-2317
982.995	-939
983.077	-2838
983.158	-591
983.240	-2808
983.322	-577
983.404	-1243
983.486	-1194
983.568	-1134
983.649	-1174
983.731	-1691
983.813	-1363
983.894	-1509
983.976	-1758
984.058	-2137
984.139	-784
984.221	-2877
984.302	-609
984.384	-1605
984.465	-2323
984.547	-1135
984.628	-1629
984.710	-1250
984.791	-1536
984.872	-1777
984.954	-1535
985.035	-1414
985.116	-1954
985.198	-2385
985.279	-1397
985.360	-1926
985.441	-1540
985.522	-1204
985.604	-2124
985.685	-3664
985.766	-748
985.847	-967
985.928	-1716
986.009	-1930
986.090	-1479
986.171	-1368
986.252	-1765
986.333	-2263
986.414	-2033
986.495	-1164
986.576	-1414
986.656	-1315
986.737	-1072
986.818	-1381
986.899	-2474
986.980	-2137
987.060	-952
987.141	-2687
987.222	-1160
987.302	-2310
987.383	-1473
987.464	-1065
987.544	-1105
987.625	-2188
987.705	-1271
987.786	-1497
987.866	-1441
987.947	-1909
988.027	-1204
988.108	-1179
988.188	-1044
988.268	-1328
988.349	-1430
988.429	-1361
988.509	-1573
988.589	-1842
988.670	-2858
988.750	-40
988.830	-1486
988.910	-1332
988.990	-1440
989.070	-1547
989.151	-1245
989.231	-2146
989.311	-480
989.391	-1630
989.471	-1787
989.551	-2101
989.631	-2434
989.711	-1071
989.791	-2542
989.870	-2797
989.950	-1430
990.030	-2053
990.110	-1334
990.190	-1190
990.269	-842
990.349	-1915
990.429	-1360
990.509	-1380
990.588	-1753
990.668	-945
990.747	-1009
990.827	-2006
990.907	-1268
990.986	-1703
991.066	-1400
991.145	-1182
991.225	-942
991.304	-1540
991.383	-1459
991.463	-1361
991.542	-300
991.622	-1600
991.701	-2172
991.780	-1400
991.859	-1734
991.939	-2349
992.018	-1468
992.097	-1906
992.176	-1621
992.256	-2107
992.335	-2183
992.414	-1602
992.493	-898
992.572	-1716
992.651	-652
992.730	-2217
992.809	-1481
992.888	-1687
992.967	-1912
993.046	-1375
993.125	-2372
993.203	-1472
993.282	-1053
993.361	-1862
993.440	-1962
993.519	-2157
993.597	-1255
993.676	-2624
993.755	-1551
993.834	-1155
993.912	-2787
993.991	-1176
994.069	-2188
994.148	-1396
994.226	-2044
994.305	-1440
994.384	-1635
994.462	-2076
994.540	-2256
994.619	-2182
994.697	-1194
994.776	-3127
994.854	-1344
994.932	-1781
995.011	-1273
995.089	-2685
995.167	-2245
995.245	-2171
995.324	-2154
995.402	-1739
995.480	-2367
995.558	-1619
995.636	-2398
995.714	-2248
995.792	-1088
995.870	-2776
995.948	-1835
996.026	-1325
996.104	-2378
996.182	-1437
996.260	-2725
996.338	-1676
996.416	-2579
996.494	-1710
996.572	-457
996.649	-1896
996.727	-2345
996.805	-1152
996.883	-2091
996.960	-1925
997.038	-1064
997.116	-2157
997.193	-2303
997.271	-1344
997.348	-2286
997.426	-2124
997.504	-2220
997.581	-743
997.658	-1058
997.736	-2858
997.813	-1501
997.891	-1417
997.968	-2499
998.046	-1781
998.123	-1685
998.200	-2654
998.277	-2856
998.355	-1604
998.432	-1884
998.509	-1972
998.586	-1388
998.663	-1281
998.741	-1373
998.818	-2581
998.895	-2059
998.972	-975
999.049	-1824
999.126	-2098
999.203	-1547
999.280	-1866
999.357	-1857
999.434	-2189
999.511	-2011
999.587	-1314
999.664	-2190
999.741	-1421
999.818	-2685
999.895	-2184
999.971	-2518
1000.048	-3072
1000.125	-1687
1000.202	-1939
1000.278	-1947
1000.355	-2384
1000.431	-1812
1000.508	-2234
1000.584	-1317
1000.661	-1167
1000.738	-1614
1000.814	-2410
1000.890	-901
1000.967	-1887
1001.043	-1722
1001.120	-2437
1001.196	-788
1001.272	-2516
1001.349	-1672
1001.425	-1447
1001.501	-1332
1001.577	-2583
1001.654	-1190
1001.730	-2856
1001.806	-1574
1001.882	-2718
1001.958	-1566
1002.034	-1572
1002.110	-2194
1002.186	-2064
1002.262	-2674
1002.338	-1878
1002.414	-1303
1002.490	-1030
1002.566	-1719
1002.642	-1250
1002.718	-2211
1002.794	-2053
1002.870	-2408
1002.945	-1465
1003.021	-1408
1003.097	-1752
1003.173	-1967
1003.248	-2074
1003.324	-1636
1003.400	-2693
1003.475	-2380
1003.551	-1761
1003.626	-1813
1003.702	-1965
1003.777	-1445
1003.853	-1429
1003.928	-1955
1004.004	-1961
1004.079	-1642
1004.155	-2363
1004.230	-2634
1004.305	-666
1004.381	-2454
1004.456	-1729
1004.531	-1989
1004.607	-1575
1004.682	-1912
1004.757	-1897
1004.832	-1557
1004.907	-2063
1004.982	-1847
1005.057	-1917
1005.133	-1513
1005.208	-2470
1005.283	-2249
1005.358	-2102
1005.433	-2405
1005.508	-2255
1005.583	-2373
1005.657	-1141
1005.732	-1970
1005.807	-1949
1005.882	-1530
1005.957	-2185
1006.032	-1622
1006.106	-1706
1006.181	-1942
1006.256	-2028
1006.331	-2204
1006.405	-2451
1006.480	-1791
1006.554	-1118
1006.629	-1153
1006.704	-2455
1006.778	-1199
1006.853	-2424
1006.927	-2281
1007.002	-2836
1007.076	-1538
1007.150	-2329
1007.225	-1386
1007.299	-2695
1007.373	-1842
1007.448	-1523
1007.522	-1042
1007.596	-1698
1007.671	-2470
1007.745	-1885
1007.819	-2768
1007.893	-1917
1007.967	-825
1008.041	-2770
1008.115	-1820
1008.190	-1699
1008.264	-1033
1008.338	-2821
1008.412	-1560
1008.486	-1938
1008.560	-1429
1008.633	-2416
1008.707	-1625
1008.781	-1047
1008.855	-2159
1008.929	-2064
1009.003	-2690
1009.076	-2582
1009.150	-1936
1009.224	-1953
1009.298	-2310
1009.371	-2676
1009.445	-1085
1009.519	-1722
1009.592	-2433
1009.666	-2575
1009.739	-1632
1009.813	-3511
1009.886	-1148
1009.960	-3262
1010.033	-1134
1010.107	-1638
1010.180	-2587
1010.253	-1771
1010.327	-2008
1010.400	-2091
1010.473	-1794
1010.547	-1018
1010.620	-1512
1010.693	-1606
1010.766	-1759
1010.840	-1614
1010.913	-1481
1010.986	-2489
1011.059	-2077
1011.132	-1305
1011.205	-1486
1011.278	-1469
1011.351	-1869
1011.424	-1677
1011.497	-2012
1011.570	-1775
1011.643	-1978
1011.716	-2327
1011.789	-1454
1011.862	-1556
1011.934	-1225
1012.007	-3027
1012.080	-1326
1012.153	-1703
1012.225	-1776
1012.298	-1987
1012.371	-1742
1012.443	-1339
1012.516	-2098
1012.588	-1827
1012.661	-1066
1012.733	-3147
1012.806	-1270
1012.879	-2309
1012.951	-1061
1013.023	-2836
1013.096	-1604
1013.168	-1961
1013.241	-1040
1013.313	-1404
1013.385	-2702
1013.458	-2307
1013.530	-1195
1013.602	-2780
1013.674	-797
1013.746	-2443
1013.819	-1684
1013.891	-1062
1013.963	-2518
1014.035	-2112
1014.107	-1358
1014.179	-1492
1014.251	-1986
1014.323	-2062
1014.395	-2362
1014.467	-1594
1014.539	-1809
1014.611	-1707
1014.683	-806
1014.754	-1221
1014.826	-2247
1014.898	-2435
1014.970	-2304
1015.042	-1452
1015.113	-1940
1015.185	-1973
1015.257	-2409
1015.328	-1363
1015.400	-2027
1015.471	-2152
1015.543	-3050
1015.615	-2339
1015.686	-1641
1015.757	-2475
1015.829	-1377
1015.901	-2229
1015.972	-1851
1016.043	-1739
1016.115	-1566
1016.186	-1794
1016.257	-1845
1016.328	-1199
1016.400	-855
1016.471	-1978
1016.542	-1806
1016.613	-1288
1016.685	-1676
1016.756	-1776
1016.827	-2070
1016.898	-2086
1016.969	-1959
1017.040	-1886
1017.111	-2124
1017.182	-1475
1017.253	-2140
1017.324	-1878
1017.395	-2567
1017.466	-1715
1017.537	-2427
1017.608	-1877
1017.678	-1230
1017.749	-1746
1017.820	-1597
1017.891	-1744
1017.961	-2432
1018.032	-2022
1018.103	-1784
1018.173	-1368
1018.244	-1825
1018.315	-2371
1018.385	-1629
1018.456	-1881
1018.526	-2316
1018.597	-1801
1018.667	-1347
1018.738	-2963
1018.808	-1483
1018.878	-1795
1018.949	-1949
1019.019	-1936
1019.089	-1680
1019.160	-1343
1019.230	-2058
1019.300	-1536
1019.371	-2947
1019.441	-1491
1019.511	-1405
1019.581	-2614
1019.651	-1613
1019.721	-1779
1019.791	-1852
1019.861	-2064
1019.931	-2120
1020.001	-2775
1020.071	-1242
1020.141	-1961
1020.211	-1755
1020.281	-2544
1020.351	-2057
1020.421	-1747
1020.491	-1657
1020.560	-1660
1020.630	-1918
1020.700	-1387
1020.770	-1447
1020.839	-2651
1020.909	-1619
1020.979	-2112
1021.048	-1890
1021.118	-1862
1021.187	-2135
1021.257	-1659
1021.326	-1727
1021.396	-2402
1021.465	-2074
1021.535	-1970
1021.604	-2989
1021.674	-1502
1021.743	-1947
1021.812	-2529
1021.882	-1929
1021.951	-2099
1022.020	-2904
1022.089	-1872
1022.159	-2318
1022.228	-1507
1022.297	-1810
1022.366	-1688
1022.435	-2561
1022.504	-2266
1022.573	-2322
1022.642	-1796
1022.711	-1880
1022.781	-2054
1022.849	-2026
1022.918	-3102
1022.987	-1604
1023.056	-2204
1023.125	-2254
1023.194	-2031
1023.263	-1994
1023.331	-2249
1023.400	-2252
1023.469	-2797
1023.538	-1092
1023.606	-2484
1023.675	-2208
1023.744	-2948
1023.812	-2299
1023.881	-2509
1023.949	-1691
1024.018	-3093
1024.086	-2343
1024.155	-2270
1024.223	-2025
1024.292	-1535
1024.360	-1867
1024.429	-2453
1024.497	-2709
1024.565	-2131
1024.634	-2185
1024.702	-2542
1024.770	-1685
1024.838	-3102
1024.907	-2210
1024.975	-2302
1025.043	-3164
1025.111	-2143
1025.179	-2352
1025.247	-2059
1025.315	-2868
1025.383	-2990
1025.451	-2156
1025.519	-2659
1025.587	-2341
1025.655	-2532
1025.723	-2553
1025.791	-1967
1025.859	-2064
1025.927	-1907
1025.995	-2437
1026.062	-2595
1026.130	-2275
1026.198	-2270
1026.266	-2499
1026.333	-2484
1026.401	-1973
1026.469	-1810
1026.536	-2903
1026.604	-2608
1026.671	-2175
1026.739	-2302
1026.806	-1980
1026.874	-2219
1026.941	-1994
1027.009	-1126
1027.076	-2196
1027.144	-1853
1027.211	-1673
1027.278	-2435
1027.345	-2193
1027.413	-2329
1027.480	-2739
1027.547	-2062
1027.614	-2781
1027.682	-1708
1027.749	-1517
1027.816	-2400
1027.883	-2642
1027.950	-1790
1028.017	-2292
1028.084	-1768
1028.151	-2572
1028.218	-2486
1028.285	-1691
1028.352	-2467
1028.419	-2285
1028.486	-3019
1028.553	-1646
1028.619	-2840
1028.686	-2426
1028.753	-2884
1028.820	-2443
1028.886	-2617
1028.953	-2459
1029.020	-2488
1029.086	-2481
1029.153	-2626
1029.220	-2186
1029.286	-2572
1029.353	-1351
1029.419	-2584
1029.486	-2051
1029.552	-2231
1029.619	-1953
1029.685	-1811
1029.751	-2424
1029.818	-1438
1029.884	-2088
1029.951	-711
1030.017	-1952
1030.083	-2388
1030.149	-2248
1030.216	-3413
1030.282	-1928
1030.348	-2666
1030.414	-2234
1030.480	-1956
1030.546	-2169
1030.612	-1732
1030.678	-2331
1030.744	-2456
1030.810	-1182
1030.876	-2817
1030.942	-1868
1031.008	-1527
1031.074	-2474
1031.140	-2375
1031.206	-1612
1031.272	-2310
1031.337	-1162
1031.403	-1762
1031.469	-1969
1031.534	-2185
1031.600	-2130
1031.666	-1948
1031.731	-1841
1031.797	-2393
1031.863	-1590
1031.928	-1943
1031.994	-1868
1032.059	-2051
1032.125	-1928
1032.190	-2660
1032.256	-2721
1032.321	-3023
1032.386	-2213
1032.452	-1696
1032.517	-1836
1032.582	-2188
1032.647	-1362
1032.713	-1963
1032.778	-1204
1032.843	-2351
1032.908	-1616
1032.974	-2142
1033.039	-2137
1033.104	-1364
1033.169	-2045
1033.234	-2008
1033.299	-2025
1033.364	-1889
1033.429	-1620
1033.494	-2078
1033.559	-2480
1033.624	-2533
1033.688	-2725
1033.753	-3444
1033.818	-1820
1033.883	-1440
1033.948	-1962
1034.013	-2552
1034.077	-1537
1034.142	-1358
1034.207	-1089
1034.271	-2060
1034.336	-1136
1034.400	-1853
1034.465	-2081
1034.530	-1771
1034.594	-2034
1034.658	-2688
1034.723	-1672
1034.787	-2923
1034.852	-1771
1034.916	-2350
1034.981	-1676
1035.045	-1402
1035.109	-3558
1035.173	-1275
1035.238	-2362
1035.302	-1426
1035.366	-2317
1035.430	-2559
1035.495	-2320
1035.559	-2297
1035.623	-2408
1035.687	-2358
1035.751	-1841
1035.815	-1979
1035.879	-2428
1035.943	-1906
1036.007	-2298
1036.071	-2010
1036.135	-2114
1036.198	-1928
1036.262	-1612
1036.326	-2413
1036.390	-1636
1036.454	-1632
1036.517	-1523
1036.581	-2734
1036.645	-1173
1036.709	-2083
1036.772	-2135
1036.836	-2306
1036.900	-2415
1036.963	-1865
1037.026	-1584
1037.090	-1981
1037.154	-2181
1037.217	-2416
1037.280	-2447
1037.344	-2306
1037.407	-2026
1037.471	-2827
1037.534	-2325
1037.597	-2213
1037.661	-2213
1037.724	-2494
1037.787	-2455
1037.850	-1727
1037.913	-2061
1037.977	-1375
1038.040	-2028
1038.103	-2277
1038.166	-1692
1038.229	-2040
1038.292	-2623
1038.355	-979
1038.418	-1903
1038.481	-1389
1038.544	-1717
1038.607	-2383
1038.670	-2547
1038.732	-1882
1038.795	-1395
1038.858	-1989
1038.921	-1668
1038.984	-1702
1039.046	-1561
1039.109	-2254
1039.172	-2475
1039.234	-2039
1039.297	-1552
1039.360	-2445
1039.422	-2028
1039.485	-2079
1039.547	-2450
1039.610	-2073
1039.672	-2183
1039.734	-1708
1039.797	-1652
1039.859	-2061
1039.922	-1853
1039.984	-1885
1040.046	-2797
1040.109	-1126
1040.171	-2733
1040.233	-2845
1040.295	-1337
1040.358	-2106
1040.420	-2835
1040.482	-1773
1040.544	-1738
1040.606	-1827
1040.668	-2293
1040.730	-2107
1040.792	-1872
1040.854	-1530
1040.916	-2216
1040.978	-2026
1041.040	-1411
1041.102	-1559
1041.164	-1898
1041.225	-2557
1041.287	-1872
1041.349	-1488
1041.411	-2683
1041.472	-1800
1041.534	-1721
1041.596	-2271
1041.657	-2064
1041.719	-1696
1041.781	-1427
1041.842	-1519
1041.904	-1799
1041.965	-2283
1042.027	-2069
1042.088	-2294
1042.150	-1174
1042.211	-2022
1042.272	-1638
1042.334	-2215
1042.395	-2222
1042.456	-2730
1042.518	-1897
1042.579	-1613
1042.640	-2278
1042.701	-1589
1042.763	-2015
1042.824	-2389
1042.885	-2126
1042.946	-2395
1043.007	-2179
1043.068	-2252
1043.129	-1623
1043.190	-2708
1043.251	-1958
1043.312	-2157
1043.373	-1803
1043.434	-2444
1043.495	-1284
1043.556	-2108
1043.616	-1767
1043.677	-1438
1043.738	-1483
1043.799	-2127
1043.859	-2177
1043.920	-1904
1043.981	-1671
1044.041	-2587
1044.102	-2475
1044.162	-1202
1044.223	-2166
1044.284	-1783
1044.344	-2553
1044.405	-1471
1044.465	-2243
1044.525	-1880
1044.586	-1149
1044.646	-1457
1044.707	-1202
1044.767	-1339
1044.827	-1766
1044.887	-2080
1044.948	-1138
1045.008	-1729
1045.068	-1070
1045.128	-1635
1045.188	-1908
1045.249	-1634
1045.309	-1065
1045.369	-1981
1045.429	-1464
1045.489	-2186
1045.549	-1548
1045.609	-1571
1045.669	-2136
1045.729	-1500
1045.789	-2193
1045.848	-2344
1045.908	-1537
1045.968	-1751
1046.028	-1657
1046.088	-1795
1046.147	-1032
1046.207	-2141
1046.267	-1950
1046.326	-1550
1046.386	-1371
1046.446	-332
1046.505	-1082
1046.565	-1037
1046.624	-665
1046.684	-1032
1046.743	-1015
1046.803	-1310
1046.862	-268
1046.922	0
