'Start Wavelength	183.907
'End Wavelength	1046.922
'Gate Delay	5.000
'Gate Width (ms)	1.050
'Laser Output Level	0.000
'X Position	0.000
'Y Position	0.000
'Z Position	0.000
'Grid Point Number	1.000
'Shot Number	100.000
183.907	577.000
183.977	748.000
184.047	580
184.116	580
184.186	966
184.256	209
184.325	214
184.395	-726
184.465	858
184.534	51
184.604	475
184.674	831
184.743	-6
184.813	1412
184.883	110
184.952	510
185.022	844
185.092	755
185.161	767
185.231	272
185.301	1171
185.370	951
185.440	-365
185.509	161
185.579	896
185.649	1002
185.718	419
185.788	1134
185.857	-283
185.927	-255
185.996	916
186.066	1164
186.136	412
186.205	434
186.275	244
186.344	1148
186.414	466
186.483	251
186.553	1581
186.622	3112
186.692	1294
186.761	1359
186.831	933
186.900	869
186.970	1076
187.039	1955
187.109	2458
187.178	1684
187.248	1125
187.317	1835
187.387	862
187.456	1221
187.526	2713
187.595	2026
187.664	1298
187.734	1733
187.803	2967
187.873	1467
187.942	3041
188.012	1106
188.081	1038
188.150	1111
188.220	2582
188.289	3563
188.358	2314
188.428	1536
188.497	698
188.567	1687
188.636	1172
188.705	1247
188.775	869
188.844	1100
188.913	1907
188.983	883
189.052	1509
189.121	1181
189.191	1872
189.260	2079
189.329	2536
189.399	2118
189.468	2165
189.537	872
189.606	2144
189.676	1255
189.745	2809
189.814	2978
189.883	1696
189.953	2039
190.022	2686
190.091	7812
190.161	12479
190.230	4502
190.299	2387
190.368	2563
190.437	2163
190.507	1723
190.576	1638
190.645	1789
190.714	808
190.783	779
190.853	1398
190.922	1979
190.991	1839
191.060	1753
191.129	1447
191.198	2139
191.268	1412
191.337	2373
191.406	2120
191.475	1523
191.544	1373
191.613	1057
191.682	1119
191.752	1085
191.821	1620
191.890	2731
191.959	2302
192.028	2215
192.097	2232
192.166	2291
192.235	1914
192.304	2564
192.373	1800
192.442	1414
192.511	1379
192.580	1714
192.650	1647
192.719	2265
192.788	2472
192.857	2233
192.926	2748
192.995	2798
193.064	4361
193.133	6958
193.202	9177
193.271	7183
193.340	5994
193.409	6369
193.478	7480
193.547	10168
193.615	13426
193.684	13166
193.753	8778
193.822	5057
193.891	4064
193.960	4407
194.029	3356
194.098	4543
194.167	2592
194.236	2627
194.305	2511
194.374	3015
194.443	2274
194.512	4201
194.580	3913
194.649	4837
194.718	5610
194.787	2795
194.856	2481
194.925	3839
194.994	4430
195.062	3539
195.131	5216
195.200	6223
195.269	7483
195.338	4874
195.407	3155
195.475	3412
195.544	5462
195.613	5892
195.682	4498
195.751	6268
195.819	7097
195.888	5534
195.957	5716
196.026	7523
196.094	7311
196.163	7378
196.232	7102
196.301	6271
196.369	5791
196.438	5410
196.507	3926
196.576	3077
196.644	2750
196.713	2904
196.782	2381
196.850	3303
196.919	3397
196.988	4240
197.056	3377
197.125	3650
197.194	3971
197.262	3571
197.331	2474
197.400	3183
197.468	3237
197.537	3997
197.606	3912
197.674	6023
197.743	12862
197.812	6291
197.880	11976
197.949	9153
198.017	9992
198.086	8755
198.155	5017
198.223	6207
198.292	14081
198.360	7824
198.429	4848
198.497	4890
198.566	8879
198.635	14282
198.703	6562
198.772	6303
198.840	14273
198.909	17593
198.977	5707
199.046	5424
199.114	5156
199.183	5555
199.251	4398
199.320	4750
199.388	3938
199.457	4856
199.525	4930
199.594	4944
199.662	4589
199.731	5400
199.799	4847
199.867	5752
199.936	6094
200.004	5248
200.073	5396
200.141	3879
200.210	3847
200.278	4339
200.346	4748
200.415	7364
200.483	6129
200.552	5556
200.620	4374
200.688	5241
200.757	4235
200.825	4427
200.893	4992
200.962	4425
201.030	3623
201.098	4513
201.167	5016
201.235	5033
201.303	5236
201.372	5524
201.440	4667
201.508	5428
201.577	6067
201.645	6244
201.713	5298
201.781	4972
201.850	6404
201.918	5556
201.986	4733
202.055	4895
202.123	5527
202.191	4385
202.259	4612
202.327	5516
202.396	4124
202.464	5415
202.532	6089
202.600	16524
202.669	10124
202.737	5311
202.805	4760
202.873	5123
202.941	4959
203.009	5977
203.078	5598
203.146	5100
203.214	4465
203.282	5112
203.350	5789
203.418	5049
203.487	5680
203.555	4028
203.623	4712
203.691	5965
203.759	4506
203.827	5438
203.895	5324
203.963	5758
204.031	5206
204.099	6215
204.168	4478
204.236	5829
204.304	5535
204.372	5758
204.440	5329
204.508	5438
204.576	5358
204.644	5326
204.712	4701
204.780	5487
204.848	5462
204.916	4649
204.984	5911
205.052	4764
205.120	5822
205.188	5988
205.256	6179
205.324	5543
205.392	5292
205.460	5663
205.528	5607
205.596	6116
205.664	5539
205.732	6686
205.799	17069
205.867	26581
205.935	8365
206.003	6208
206.071	5991
206.139	7552
206.207	6454
206.275	6548
206.343	6435
206.411	6361
206.478	6021
206.546	6645
206.614	6108
206.682	6704
206.750	6250
206.818	8158
206.885	8729
206.953	5725
207.021	6131
207.089	6757
207.157	5587
207.225	6654
207.292	5852
207.360	6521
207.428	7150
207.496	6460
207.563	6483
207.631	6408
207.699	6471
207.767	6990
207.834	6404
207.902	7266
207.970	6824
208.038	7083
208.105	5790
208.173	7728
208.241	9648
208.309	9609
208.376	9326
208.444	15556
208.512	11338
208.579	6011
208.647	8433
208.715	9830
208.782	8026
208.850	7365
208.918	6985
208.985	7429
209.053	7575
209.120	9011
209.188	7248
209.256	8812
209.323	8001
209.391	14130
209.459	9665
209.526	7076
209.594	7387
209.661	7609
209.729	7674
209.796	8230
209.864	7579
209.932	6545
209.999	9296
210.067	9200
210.134	9900
210.202	10015
210.269	13132
210.337	12721
210.404	9512
210.472	8796
210.539	7867
210.607	10163
210.674	12972
210.742	9188
210.809	7913
210.877	11727
210.944	13360
211.012	11450
211.079	12622
211.146	8827
211.214	9053
211.281	12260
211.349	12899
211.416	10236
211.484	11337
211.551	10078
211.618	9072
211.686	9140
211.753	7427
211.821	8994
211.888	8612
211.955	9695
212.023	8677
212.090	9660
212.157	9453
212.225	10190
212.292	17239
212.359	30282
212.427	78177
212.494	38804
212.561	15836
212.629	12358
212.696	11416
212.763	11813
212.831	10079
212.898	10782
212.965	9032
213.032	9414
213.100	12859
213.167	12240
213.234	13776
213.301	9647
213.369	10303
213.436	9359
213.503	10180
213.570	10603
213.638	10695
213.705	8908
213.772	8646
213.839	12250
213.906	12638
213.973	13042
214.041	10631
214.108	10230
214.175	9933
214.242	9756
214.309	9196
214.376	11311
214.444	11850
214.511	13572
214.578	12582
214.645	11013
214.712	12353
214.779	12811
214.846	12036
214.913	13618
214.980	14376
215.048	17811
215.115	18643
215.182	17057
215.249	14364
215.316	12038
215.383	10911
215.450	10809
215.517	10490
215.584	9267
215.651	10250
215.718	9276
215.785	12929
215.852	13365
215.919	13529
215.986	14427
216.053	10212
216.120	9294
216.187	12004
216.254	12700
216.321	10280
216.388	13078
216.455	13836
216.522	11570
216.589	16576
216.656	27776
216.722	28946
216.789	20058
216.856	21547
216.923	18388
216.990	15549
217.057	14707
217.124	19838
217.191	18575
217.258	21539
217.324	28396
217.391	32544
217.458	24785
217.525	17890
217.592	14652
217.659	13510
217.725	14511
217.792	21377
217.859	20503
217.926	10317
217.993	9303
218.059	9129
218.126	8857
218.193	7287
218.260	7779
218.327	6966
218.393	9059
218.460	8160
218.527	7649
218.594	9627
218.660	22703
218.727	23973
218.794	10491
218.860	7886
218.927	8373
218.994	7321
219.061	9481
219.127	12798
219.194	20000
219.261	10894
219.327	7396
219.394	7105
219.461	5747
219.527	6485
219.594	15501
219.661	12151
219.727	6383
219.794	8158
219.860	7583
219.927	8496
219.994	13724
220.060	28111
220.127	17820
220.193	13195
220.260	12749
220.326	18698
220.393	32499
220.460	47511
220.526	31064
220.593	17542
220.659	17628
220.726	19026
220.792	42457
220.859	41866
220.925	53900
220.992	77258
221.058	68069
221.125	62001
221.191	47291
221.258	21574
221.324	15565
221.391	16596
221.457	11899
221.524	11043
221.590	14019
221.657	45870
221.723	34345
221.789	30877
221.856	28991
221.922	16095
221.989	12481
222.055	9970
222.121	8934
222.188	14923
222.254	10966
222.321	7959
222.387	6209
222.453	7010
222.520	6588
222.586	5996
222.652	6794
222.719	5698
222.785	7193
222.851	6456
222.918	6552
222.984	5405
223.050	5116
223.116	6138
223.183	7867
223.249	5003
223.315	4430
223.382	6399
223.448	6467
223.514	5754
223.580	4716
223.647	5045
223.713	3831
223.779	5016
223.845	6101
223.911	5275
223.978	4506
224.044	6286
224.110	5719
224.176	5515
224.242	6750
224.309	8781
224.375	6501
224.441	5525
224.507	5439
224.573	6275
224.639	6791
224.705	5292
224.772	5729
224.838	5275
224.904	10649
224.970	8229
225.036	7422
225.102	9763
225.168	9232
225.234	7111
225.300	9115
225.366	7301
225.432	6749
225.499	6304
225.565	8813
225.631	9552
225.697	8727
225.763	10065
225.829	13135
225.895	12480
225.961	23039
226.027	20603
226.093	16347
226.159	16488
226.225	26861
226.291	65025
226.357	115270
226.423	60217
226.489	34354
226.554	22507
226.620	19938
226.686	27608
226.752	42473
226.818	60448
226.884	143939
226.950	131512
227.016	51523
227.082	29954
227.148	23360
227.214	25041
227.279	17976
227.345	13206
227.411	14453
227.477	13647
227.543	24418
227.609	29500
227.674	15227
227.740	12745
227.806	12359
227.872	10507
227.938	10434
228.003	19752
228.069	11480
228.135	8105
228.201	8637
228.267	8163
228.332	13380
228.398	19850
228.464	13756
228.530	7252
228.595	7289
228.661	8481
228.727	20737
228.792	16421
228.858	9927
228.924	11274
228.990	13403
229.055	14358
229.121	17273
229.187	9928
229.252	13970
229.318	8573
229.384	9584
229.449	15262
229.515	7288
229.581	5598
229.646	8782
229.712	12142
229.777	30466
229.843	34082
229.909	22150
229.974	18509
230.040	19026
230.105	12976
230.171	16826
230.236	16095
230.302	24941
230.368	26506
230.433	13871
230.499	12124
230.564	9304
230.630	9336
230.695	8629
230.761	8621
230.826	7177
230.892	18679
230.957	12554
231.023	7497
231.088	7705
231.154	6641
231.219	8815
231.284	16671
231.350	19899
231.415	8082
231.481	7463
231.546	7281
231.612	7584
231.677	6114
231.742	6596
231.808	9881
231.873	7897
231.939	7494
232.004	16563
232.069	21032
232.135	10510
232.200	9252
232.265	6760
232.331	6393
232.396	5974
232.461	6297
232.527	6833
232.592	6174
232.657	9269
232.723	28577
232.788	22943
232.853	9404
232.918	7807
232.984	7281
233.049	9001
233.114	27044
233.179	25748
233.245	31554
233.310	46078
233.375	12893
233.440	10847
233.506	9796
233.571	8781
233.636	8696
233.701	9621
233.766	26360
233.832	41271
233.897	16698
233.962	18303
234.027	20741
234.092	16277
234.157	14135
234.222	14290
234.288	23920
234.353	84321
234.418	85681
234.483	44500
234.548	29256
234.613	20668
234.678	19560
234.743	23759
234.808	90318
234.873	61688
234.938	22535
235.004	16661
235.069	16588
235.134	15992
235.199	14324
235.264	12506
235.329	11388
235.394	13524
235.459	23303
235.524	23588
235.589	14493
235.654	11520
235.719	11080
235.784	12125
235.849	17740
235.913	51845
235.978	58968
236.043	73094
236.108	26219
236.173	24788
236.238	27779
236.303	15917
236.368	16685
236.433	29044
236.498	60649
236.563	33226
236.627	53696
236.692	183453
236.757	157469
236.822	68351
236.887	62110
236.952	42091
237.017	35208
237.081	36146
237.146	43359
237.211	82881
237.276	177233
237.341	320908
237.405	166674
237.470	67527
237.535	57897
237.600	32703
237.664	25250
237.729	21145
237.794	29134
237.859	56622
237.923	53955
237.988	31840
238.053	43969
238.118	49499
238.182	105332
238.247	103576
238.312	65374
238.376	41983
238.441	36602
238.506	27807
238.570	16389
238.635	15826
238.700	13840
238.764	16706
238.829	44940
238.893	67671
238.958	27284
239.023	27096
239.087	16860
239.152	20873
239.216	15424
239.281	13161
239.346	13547
239.410	13847
239.475	21454
239.539	104143
239.604	92547
239.668	25908
239.733	17018
239.797	19576
239.862	40965
239.926	85550
239.991	37847
240.055	19661
240.120	15772
240.184	17026
240.249	16445
240.313	15054
240.378	18605
240.442	67683
240.507	106958
240.571	34654
240.635	50857
240.700	67568
240.764	24175
240.829	17394
240.893	12728
240.957	17205
241.022	55783
241.086	114777
241.151	58586
241.215	20584
241.279	28492
241.344	66667
241.408	27332
241.472	17089
241.537	16587
241.601	15484
241.665	13005
241.730	14071
241.794	16410
241.858	14287
241.922	14967
241.987	15804
242.051	13475
242.115	11663
242.179	14110
242.244	16416
242.308	16159
242.372	17461
242.436	25348
242.501	16180
242.565	13334
242.629	12566
242.693	13128
242.757	11930
242.822	14955
242.886	16706
242.950	17691
243.014	23387
243.078	22697
243.142	23539
243.206	18291
243.271	22129
243.335	18309
243.399	24569
243.463	84097
243.527	236727
243.591	81249
243.655	37376
243.719	23783
243.783	24752
243.847	37449
243.911	48002
243.975	76606
244.040	57461
244.104	22989
244.168	18335
244.232	36070
244.296	50499
244.360	43496
244.424	34827
244.488	31236
244.552	27453
244.615	20587
244.679	18841
244.743	26617
244.807	30549
244.871	17129
244.935	15563
244.999	15733
245.063	17764
245.127	21041
245.191	30638
245.255	32310
245.319	29200
245.383	31913
245.446	23129
245.510	17784
245.574	22808
245.638	22734
245.702	23195
245.766	57808
245.829	34388
245.893	30752
245.957	22224
246.021	24581
246.085	26658
246.149	37609
246.212	75619
246.276	111241
246.340	54169
246.404	39073
246.467	36874
246.531	66083
246.595	37722
246.659	36637
246.722	35850
246.786	43898
246.850	41592
246.913	57541
246.977	27624
247.041	27350
247.104	32304
247.168	27423
247.232	71287
247.295	149184
247.359	77935
247.423	36120
247.486	68927
247.550	43986
247.614	35031
247.677	45742
247.741	30713
247.804	24937
247.868	31618
247.932	63441
247.995	138446
248.059	58854
248.122	29780
248.186	35257
248.249	64900
248.313	219192
248.376	236239
248.440	153523
248.503	60726
248.567	46766
248.630	73494
248.694	97567
248.757	109699
248.821	237704
248.884	141858
248.948	129634
249.011	183452
249.075	276374
249.138	243304
249.202	97847
249.265	67569
249.328	98559
249.392	64642
249.455	44529
249.519	32752
249.582	45784
249.645	74277
249.709	54487
249.772	35181
249.835	35222
249.899	50919
249.962	34598
250.025	32258
250.089	83704
250.152	124152
250.215	64347
250.279	47106
250.342	45994
250.405	44149
250.468	35195
250.532	47895
250.595	69832
250.658	211802
250.721	362370
250.785	138242
250.848	73823
250.911	47862
250.974	42039
251.038	59479
251.101	134838
251.164	78154
251.227	76524
251.290	63281
251.354	78996
251.417	293499
251.480	302760
251.543	184233
251.606	539800
251.669	410293
251.732	156503
251.795	174653
251.859	169570
251.922	351008
251.985	211932
252.048	77864
252.111	64982
252.174	67625
252.237	121702
252.300	276805
252.363	263928
252.426	481479
252.489	218873
252.552	124802
252.615	89266
252.678	89782
252.741	196555
252.804	226802
252.867	466808
252.930	318658
252.993	186656
253.056	109786
253.119	80547
253.182	62470
253.245	96954
253.308	81648
253.371	101562
253.434	90989
253.497	75847
253.559	136462
253.622	101901
253.685	145714
253.748	154792
253.811	72182
253.874	100599
253.937	101615
254.000	63628
254.062	98650
254.125	152464
254.188	120893
254.251	120287
254.314	63598
254.376	117385
254.439	128983
254.502	114030
254.565	106193
254.628	178709
254.690	128990
254.753	74475
254.816	62552
254.878	70226
254.941	111183
255.004	119479
255.067	59630
255.129	62989
255.192	35176
255.255	32002
255.317	40048
255.380	29469
255.443	23384
255.505	24208
255.568	26094
255.631	25150
255.693	27345
255.756	24241
255.819	23181
255.881	23069
255.944	20389
256.006	23343
256.069	25257
256.132	21993
256.194	36148
256.257	115625
256.319	86201
256.382	85680
256.444	35303
256.507	26199
256.569	23324
256.632	27859
256.694	58496
256.757	99094
256.819	277543
256.882	115679
256.944	50214
257.007	43575
257.069	55652
257.132	33558
257.194	25406
257.257	29525
257.319	34299
257.381	32377
257.444	80079
257.506	319665
257.569	399586
257.631	296367
257.693	137187
257.756	66107
257.818	71565
257.880	38479
257.943	32407
258.005	29385
258.067	25972
258.130	23479
258.192	34725
258.254	95970
258.317	56137
258.379	32795
258.441	96460
258.503	86517
258.566	109818
258.628	153112
258.690	41588
258.753	37316
258.815	75925
258.877	44281
258.939	25820
259.001	22669
259.064	23245
259.126	40116
259.188	64393
259.250	37645
259.312	60947
259.375	187363
259.437	114916
259.499	37135
259.561	34583
259.623	34881
259.685	26141
259.747	30977
259.809	102775
259.872	205947
259.934	271400
259.996	231727
260.058	62060
260.120	35071
260.182	28524
260.244	24730
260.306	21961
260.368	24029
260.430	25919
260.492	39357
260.554	131431
260.616	155255
260.678	154746
260.740	222683
260.802	61950
260.864	45853
260.926	39673
260.988	37354
261.050	35599
261.112	46121
261.174	150177
261.236	161231
261.298	53792
261.359	95937
261.421	144930
261.483	44794
261.545	38818
261.607	28273
261.669	26651
261.731	63836
261.793	164766
261.854	73417
261.916	41811
261.978	29373
262.040	35370
262.102	34315
262.164	72294
262.225	59124
262.287	30549
262.349	77243
262.411	67043
262.472	32275
262.534	68422
262.596	161671
262.658	50032
262.719	30869
262.781	42246
262.843	147317
262.904	65026
262.966	42594
263.028	53150
263.090	195695
263.151	470930
263.213	153025
263.275	80172
263.336	40504
263.398	29256
263.459	24525
263.521	26468
263.583	68387
263.644	49745
263.706	23898
263.767	18352
263.829	18855
263.891	14430
263.952	14097
264.014	14526
264.075	13740
264.137	20820
264.198	28224
264.260	14142
264.321	13201
264.383	36454
264.444	51414
264.506	17621
264.567	17068
264.629	15080
264.690	13599
264.752	20108
264.813	18600
264.875	15705
264.936	14712
264.998	12447
265.059	13583
265.120	17248
265.182	31137
265.243	135805
265.305	139876
265.366	37204
265.427	23495
265.489	19022
265.550	15129
265.611	22663
265.673	22270
265.734	15561
265.795	13293
265.857	15493
265.918	17669
265.979	39419
266.040	220865
266.102	185285
266.163	52781
266.224	44227
266.286	28635
266.347	20770
266.408	22711
266.469	30895
266.530	22871
266.592	16939
266.653	45581
266.714	84420
266.775	27305
266.836	18509
266.898	15284
266.959	21125
267.020	15653
267.081	15089
267.142	12191
267.203	13016
267.264	14643
267.326	16889
267.387	13841
267.448	11819
267.509	15039
267.570	14993
267.631	12449
267.692	11368
267.753	12177
267.814	13849
267.875	34850
267.936	90665
267.997	29429
268.058	27394
268.119	21827
268.180	25141
268.241	18939
268.302	14923
268.363	15095
268.424	21470
268.485	22595
268.546	16598
268.607	11675
268.668	11209
268.729	12670
268.790	14685
268.851	17327
268.912	51001
268.972	73425
269.033	38040
269.094	17037
269.155	14513
269.216	15081
269.277	24457
269.338	18927
269.398	14893
269.459	23873
269.520	31787
269.581	45186
269.642	56031
269.702	35499
269.763	23504
269.824	19375
269.885	27148
269.945	46090
270.006	19519
270.067	13323
270.128	14249
270.188	18629
270.249	16870
270.310	14533
270.370	16096
270.431	22669
270.492	15461
270.553	19766
270.613	51503
270.674	94793
270.734	44755
270.795	24807
270.856	37235
270.916	36150
270.977	21531
271.038	28203
271.098	30583
271.159	47413
271.219	53074
271.280	22231
271.340	19165
271.401	31136
271.462	99504
271.522	48707
271.583	25658
271.643	27537
271.704	23150
271.764	27962
271.825	65587
271.885	197525
271.946	272001
272.006	93841
272.066	115384
272.127	205297
272.187	64447
272.248	39378
272.308	41505
272.369	135925
272.429	85044
272.489	70801
272.550	72648
272.610	69711
272.671	61511
272.731	59519
272.791	119184
272.852	58005
272.912	45105
272.972	26200
273.033	26380
273.093	56523
273.153	41075
273.214	24608
273.274	29976
273.334	85897
273.394	202492
273.455	91881
273.515	78441
273.575	185973
273.635	80823
273.696	116269
273.756	217799
273.816	88199
273.876	53926
273.936	124090
273.997	236913
274.057	63114
274.117	46256
274.177	64125
274.237	242029
274.297	238079
274.358	211370
274.418	180967
274.478	139390
274.538	60603
274.598	59906
274.658	208623
274.718	285353
274.778	112924
274.838	58787
274.898	124908
274.958	395353
275.018	258417
275.078	154229
275.138	71531
275.198	41730
275.258	33958
275.318	48877
275.378	86855
275.438	84501
275.498	59955
275.558	148378
275.618	306660
275.678	173056
275.738	97865
275.798	70680
275.858	34232
275.918	26080
275.978	34658
276.038	34667
276.098	28837
276.157	58035
276.217	166748
276.277	79116
276.337	58005
276.397	34492
276.457	42765
276.517	27546
276.576	21156
276.636	22189
276.696	44248
276.756	104820
276.815	85231
276.875	37734
276.935	48618
276.995	39626
277.055	24188
277.114	25323
277.174	38993
277.234	124812
277.293	61095
277.353	35392
277.413	24306
277.472	28048
277.532	30838
277.592	29264
277.651	69271
277.711	125623
277.771	52884
277.830	168180
277.890	144329
277.950	101087
278.009	257727
278.069	101573
278.128	85255
278.188	127515
278.248	61897
278.307	125272
278.367	92615
278.426	42488
278.486	28004
278.545	23883
278.605	21119
278.664	21690
278.724	28343
278.783	73518
278.843	200639
278.902	65539
278.962	41750
279.021	44598
279.081	50719
279.140	52492
279.199	42981
279.259	34680
279.318	35672
279.378	46805
279.437	96997
279.496	344879
279.556	757499
279.615	625170
279.675	176001
279.734	110312
279.793	178793
279.853	308391
279.912	122432
279.971	65329
280.031	64747
280.090	113184
280.149	210636
280.208	136127
280.268	462737
280.327	533898
280.386	145917
280.445	119205
280.505	118388
280.564	52544
280.623	44701
280.682	69683
280.742	112942
280.801	40552
280.860	30935
280.919	25546
280.978	23283
281.037	21328
281.097	19734
281.156	21507
281.215	21777
281.274	33357
281.333	129803
281.392	114041
281.451	29390
281.510	22283
281.569	22488
281.628	19189
281.688	16903
281.747	21403
281.806	24267
281.865	18748
281.924	19275
281.983	21708
282.042	13937
282.101	15282
282.160	15587
282.219	16933
282.278	24166
282.337	82070
282.396	62963
282.454	26339
282.513	33500
282.572	119856
282.631	79081
282.690	28727
282.749	22550
282.808	28843
282.867	27022
282.926	27346
282.985	15621
283.043	13538
283.102	17161
283.161	26108
283.220	54763
283.279	131836
283.338	43810
283.396	24536
283.455	22672
283.514	24665
283.573	41571
283.631	33302
283.690	21229
283.749	20140
283.808	48779
283.866	64470
283.925	22899
283.984	19820
284.043	30475
284.101	37025
284.160	19400
284.219	18447
284.277	22123
284.336	43007
284.395	154252
284.453	136918
284.512	40654
284.570	54268
284.629	44503
284.688	31330
284.746	31879
284.805	32526
284.863	41890
284.922	49199
284.981	47217
285.039	63158
285.098	117696
285.156	314452
285.215	890042
285.273	849520
285.332	352210
285.390	171273
285.449	109473
285.507	74463
285.566	56481
285.624	43528
285.683	35038
285.741	28910
285.799	27954
285.858	29575
285.916	28584
285.975	19817
286.033	16876
286.091	15456
286.150	14719
286.208	14091
286.267	19026
286.325	24105
286.383	44814
286.442	36258
286.500	16257
286.558	14775
286.616	14343
286.675	25172
286.733	24548
286.791	23236
286.850	25007
286.908	35800
286.966	65748
287.024	28132
287.083	16749
287.141	15834
287.199	17731
287.257	33508
287.315	25458
287.374	28883
287.432	66549
287.490	46542
287.548	28527
287.606	20197
287.664	18512
287.723	28129
287.781	35409
287.839	20488
287.897	25386
287.955	31200
288.013	46196
288.071	108408
288.129	378906
288.187	1058623
288.245	498157
288.303	151242
288.361	87818
288.419	63001
288.477	45368
288.535	34696
288.593	27909
288.651	24057
288.709	20270
288.767	19091
288.825	21295
288.883	14665
288.941	13893
288.999	17025
289.057	16875
289.115	15803
289.173	21654
289.231	19188
289.289	17987
289.346	14299
289.404	20449
289.462	42400
289.520	48942
289.578	23855
289.636	12048
289.694	10641
289.751	11299
289.809	12355
289.867	14907
289.925	19402
289.983	27041
290.040	15111
290.098	11641
290.156	19976
290.214	26237
290.271	16411
290.329	9529
290.387	9107
290.444	11024
290.502	8638
290.560	9085
290.617	9130
290.675	11934
290.733	12788
290.790	18158
290.848	10549
290.906	13899
290.963	16246
291.021	12401
291.078	12612
291.136	15801
291.194	41546
291.251	98625
291.309	35659
291.366	14890
291.424	16486
291.481	18917
291.539	15073
291.596	13204
291.654	10345
291.711	11030
291.769	19650
291.826	51271
291.884	34183
291.941	18273
291.999	17494
292.056	20371
292.114	24972
292.171	15780
292.228	17181
292.286	25049
292.343	49736
292.401	57546
292.458	32332
292.515	23282
292.573	35907
292.630	36191
292.687	39988
292.745	25667
292.802	25266
292.859	45049
292.917	135653
292.974	96146
293.031	32309
293.089	20033
293.146	16178
293.203	18012
293.260	21540
293.318	55093
293.375	42206
293.432	18539
293.489	16059
293.546	16776
293.604	29799
293.661	80192
293.718	204578
293.775	105391
293.832	59582
293.889	50516
293.947	100341
294.004	73465
294.061	48744
294.118	67322
294.175	102969
294.232	45375
294.289	25741
294.346	19563
294.403	20863
294.460	29880
294.517	25660
294.574	19504
294.631	18151
294.688	24878
294.745	62799
294.802	197487
294.859	159251
294.916	123706
294.973	126023
295.030	68575
295.087	51415
295.144	32179
295.201	25063
295.258	22876
295.315	34617
295.372	95526
295.429	185805
295.486	81400
295.542	35432
295.599	27367
295.656	36965
295.713	69916
295.770	154174
295.827	64640
295.883	31462
295.940	29731
295.997	58668
296.054	61939
296.111	30606
296.167	20422
296.224	15969
296.281	15027
296.338	14380
296.394	19025
296.451	28885
296.508	76728
296.564	144787
296.621	91346
296.678	166328
296.734	255676
296.791	95959
296.848	50653
296.904	58008
296.961	128205
297.018	196476
297.074	149958
297.131	58207
297.187	42296
297.244	64195
297.301	177298
297.357	337124
297.414	130159
297.470	52675
297.527	35650
297.583	29073
297.640	31829
297.696	25067
297.753	18127
297.809	16323
297.866	13762
297.922	16091
297.979	17922
298.035	22978
298.092	41744
298.148	109689
298.204	117973
298.261	60190
298.317	76953
298.374	208325
298.430	148935
298.486	87788
298.543	72638
298.599	50613
298.656	46297
298.712	73496
298.768	163191
298.824	115927
298.881	44279
298.937	27828
298.993	24917
299.050	37677
299.106	32756
299.162	24293
299.218	27484
299.275	21139
299.331	27280
299.387	54986
299.443	183942
299.500	211083
299.556	78981
299.612	39675
299.668	36014
299.724	35106
299.780	37142
299.837	32853
299.893	53980
299.949	166431
300.005	214683
300.061	160069
300.117	249792
300.173	138128
300.229	65709
300.285	79779
300.341	98041
300.397	48285
300.453	31998
300.510	27250
300.566	28566
300.622	34055
300.678	73158
300.734	160422
300.790	171674
300.845	209860
300.901	132526
300.957	171902
301.013	155778
301.069	64786
301.125	44797
301.181	50134
301.237	33917
301.293	24524
301.349	20186
301.405	18978
301.461	18983
301.516	19814
301.572	28144
301.628	59821
301.684	59254
301.740	71070
301.796	126130
301.851	91178
301.907	141075
301.963	157961
302.019	214066
302.074	539153
302.130	558297
302.186	255771
302.242	106217
302.297	72721
302.353	69786
302.409	127355
302.464	120518
302.520	97288
302.576	214331
302.631	259822
302.687	157876
302.743	68441
302.798	38497
302.854	30265
302.910	31203
302.965	38591
303.021	74612
303.076	80709
303.132	98632
303.187	120306
303.243	64343
303.299	33245
303.354	24501
303.410	22458
303.465	21799
303.521	22349
303.576	24232
303.632	32473
303.687	58408
303.743	166057
303.798	156827
303.853	64401
303.909	35827
303.964	33771
304.020	51530
304.075	88264
304.130	79405
304.186	134333
304.241	142334
304.297	114497
304.352	64188
304.358	61538
304.407	40075
304.449	41570
304.463	42091
304.518	45403
304.539	42863
304.573	38810
304.629	37683
304.630	38014
304.684	55293
304.720	103389
304.739	127135
304.794	206749
304.811	178092
304.850	109207
304.902	53257
304.905	49729
304.960	33378
304.992	33303
305.015	33124
305.071	28593
305.083	26588
305.126	19497
305.173	16502
305.181	16103
305.236	14878
305.264	17168
305.292	19438
305.347	26108
305.354	26224
305.402	27462
305.445	33680
305.457	35376
305.512	46269
305.535	47579
305.567	48762
305.622	43630
305.626	44913
305.678	80921
305.716	160467
305.733	187310
305.788	230403
305.807	198331
305.843	144935
305.897	170381
305.898	170487
305.953	181625
305.988	120635
306.008	88179
306.063	47639
306.078	42916
306.118	33438
306.168	26394
306.173	25784
306.228	22352
306.259	20703
306.283	19631
306.338	17481
306.349	18023
306.393	21189
306.440	26498
306.448	27082
306.503	24522
306.530	24152
306.558	27718
306.613	50564
306.620	54737
306.668	98040
306.711	170979
306.723	180398
306.778	161909
306.801	124334
306.833	81217
306.888	39633
306.892	37994
306.943	26771
306.982	24120
306.997	23281
307.052	22695
307.072	21355
307.107	18845
307.162	17010
307.163	17009
307.217	17757
307.253	19124
307.272	19829
307.327	22424
307.343	23041
307.381	25288
307.434	30822
307.436	32024
307.491	62182
307.524	93032
307.546	104099
307.600	146128
307.614	135455
307.655	87218
307.704	42116
307.710	39475
307.765	34262
307.795	35359
307.819	36153
307.874	38764
307.885	38920
307.929	41802
307.975	48481
307.984	51970
308.038	83493
308.065	108083
308.093	196651
308.148	420340
308.156	470645
308.202	711752
308.246	883036
308.257	868158
308.312	487194
308.336	347518
308.366	262948
308.421	173140
308.426	164088
308.475	99887
308.517	64317
308.530	58166
308.585	46462
308.607	43148
308.639	39792
308.694	36360
308.697	36338
308.748	38270
308.787	40714
308.803	40759
308.857	39867
308.877	39674
308.912	43267
308.967	52323
308.967	52513
309.021	82909
309.058	109866
309.076	147027
309.130	283847
309.148	339165
309.185	617069
309.238	1076045
309.239	1078356
309.293	1155685
309.328	1037082
309.348	892992
309.402	414917
309.418	300092
309.457	201168
309.508	118108
309.511	115672
309.566	99545
309.598	95162
309.620	104758
309.674	137943
309.688	147481
309.729	138763
309.778	112591
309.783	110655
309.837	89761
309.868	82279
309.892	117357
309.946	211310
309.959	239499
310.001	307798
310.049	366726
310.055	354017
310.109	199316
310.139	109084
310.163	80396
310.218	38952
310.229	32831
310.272	26663
310.319	22575
310.326	21843
310.381	17572
310.409	15604
310.435	14614
310.489	13150
310.499	13003
310.543	12365
310.589	11777
310.598	11674
310.652	11392
310.679	11339
310.706	11149
310.760	10871
310.769	10849
310.814	10790
310.859	10907
310.868	11035
310.923	11593
310.948	11938
310.977	13513
311.031	16984
311.038	17436
311.085	16437
311.128	15026
311.139	15063
311.193	15741
311.218	15899
311.247	14293
311.301	11213
311.308	10858
311.356	11144
311.398	11527
311.410	11377
311.464	10501
311.488	10237
311.518	12408
311.572	16455
311.578	16925
311.626	25921
311.668	34050
311.680	31576
311.734	19215
311.758	13757
311.788	12768
311.842	11335
311.847	11206
311.896	16464
311.937	21163
311.950	21391
312.004	22166
312.027	22501
312.058	20306
312.112	16327
312.117	15928
312.165	13991
312.207	12361
312.297	11815
312.386	11409
312.476	20281
312.566	60309
312.656	25133
312.745	10328
312.835	11422
312.925	15842
313.015	11798
313.104	10998
313.194	13490
313.284	16728
313.374	25061
313.463	21633
313.553	15717
313.643	13120
313.732	9868
313.822	9750
313.912	12250
314.001	19125
314.091	15501
314.180	15409
314.270	28849
314.360	29561
314.449	29746
314.539	14518
314.628	10736
314.718	12665
314.808	16303
314.897	12549
314.987	16494
315.076	28794
315.166	34394
315.255	22388
315.345	30523
315.434	25251
315.524	22825
315.613	36165
315.703	61961
315.792	98285
315.881	322752
315.971	108749
316.060	62697
316.150	38861
316.239	28674
316.328	13394
316.418	15107
316.507	19841
316.597	31265
316.686	24285
316.775	22713
316.865	20331
316.954	13073
317.043	13889
317.133	20913
317.222	18088
317.311	20729
317.400	20687
317.490	37451
317.579	46556
317.668	35956
317.757	68308
317.847	170579
317.936	577294
318.025	219080
318.114	116807
318.203	59131
318.293	29671
318.382	24990
318.471	40409
318.560	24195
318.649	24210
318.738	19034
318.828	33154
318.917	34314
319.006	22070
319.095	41236
319.184	66911
319.273	124814
319.362	106690
319.451	42403
319.540	69541
319.629	111041
319.718	148751
319.807	37009
319.896	58250
319.985	127672
320.074	108446
320.163	25005
320.252	32835
320.341	64639
320.430	27584
320.519	69864
320.608	32714
320.697	19399
320.786	24189
320.875	47614
320.964	69350
321.053	116908
321.142	174455
321.230	167024
321.319	117150
321.408	250264
321.497	88559
321.586	122651
321.675	152848
321.764	75612
321.852	48323
321.941	148523
322.030	95927
322.119	90841
322.207	256369
322.296	66717
322.385	43791
322.474	97803
322.562	342649
322.651	143987
322.740	141605
322.829	177856
322.917	63737
323.006	82735
323.095	84697
323.183	31790
323.272	50954
323.361	76877
323.449	80195
323.538	40757
323.626	82812
323.715	58151
323.804	28316
323.892	78665
323.981	88555
324.069	37650
324.158	84206
324.246	178896
324.335	67760
324.424	105696
324.512	28650
324.601	35950
324.689	41930
324.778	51615
324.866	60330
324.954	18824
325.043	25659
325.131	38337
325.220	28277
325.308	40392
325.397	44295
325.485	32997
325.574	24665
325.662	25916
325.750	27201
325.839	23935
325.927	17240
326.015	26274
326.104	15251
326.192	17629
326.280	13890
326.369	18576
326.457	48818
326.545	81006
326.634	28270
326.722	12235
326.810	16404
326.898	15428
326.987	21440
327.075	66245
327.163	39017
327.251	11305
327.340	12524
327.428	15126
327.516	9939
327.604	12435
327.692	13752
327.781	11828
327.869	17292
327.957	22319
328.045	34160
328.133	15449
328.221	14774
328.309	17121
328.397	16125
328.485	28664
328.574	51488
328.662	180963
328.750	69860
328.838	42646
328.926	147149
329.014	50207
329.102	30527
329.190	50625
329.278	44973
329.366	12037
329.454	7642
329.542	8633
329.630	8980
329.718	11453
329.806	22243
329.893	11021
329.981	5590
330.069	9437
330.157	25321
330.245	56911
330.333	31268
330.421	19752
330.509	54501
330.597	227422
330.684	118566
330.772	26352
330.860	10642
330.948	9951
331.036	13647
331.123	9392
331.211	13682
331.299	11864
331.387	16445
331.475	36254
331.562	13645
331.650	12193
331.738	13440
331.825	8931
331.913	8889
332.001	9838
332.089	10098
332.176	9443
332.264	21021
332.352	26527
332.439	19866
332.527	12878
332.614	11410
332.702	31357
332.790	102670
332.877	41653
332.965	25337
333.052	16526
333.140	20697
333.228	35813
333.315	11955
333.403	10298
333.490	13403
333.578	25902
333.665	52628
333.753	29110
333.840	11978
333.928	13698
334.015	16135
334.103	20464
334.190	36361
334.278	18645
334.365	14353
334.452	14833
334.540	10805
334.627	10545
334.715	13106
334.802	21645
334.889	45432
334.977	52688
335.064	21796
335.151	15292
335.239	10631
335.326	13519
335.413	22538
335.501	26925
335.588	16188
335.675	11891
335.762	8510
335.850	14460
335.937	19731
336.024	26942
336.111	58591
336.199	47408
336.286	18059
336.373	11430
336.460	8838
336.547	8178
336.635	13945
336.722	17538
336.809	11571
336.896	25220
336.983	43699
337.070	68326
337.157	39397
337.245	40953
337.332	25710
337.419	10092
337.506	6533
337.593	7893
337.680	10651
337.767	15598
337.854	28970
337.941	29850
338.028	31655
338.115	11267
338.202	12369
338.289	19371
338.376	53532
338.463	25135
338.550	14355
338.637	10240
338.724	11785
338.811	12585
338.898	8807
338.984	9499
339.071	8241
339.158	27912
339.245	88880
339.332	40145
339.419	22994
339.506	18329
339.593	10891
339.679	18289
339.766	16379
339.853	27869
339.940	75017
340.027	19619
340.113	23675
340.200	35762
340.287	21261
340.374	36610
340.460	60042
340.547	21312
340.634	61178
340.720	218230
340.807	114747
340.894	15658
340.980	17472
341.067	18591
341.154	21597
341.240	42956
341.327	101892
341.414	21083
341.500	13816
341.587	18173
341.674	20320
341.760	72300
341.847	84184
341.933	24214
342.020	9610
342.106	10243
342.193	28384
342.279	56829
342.366	40056
342.452	72189
342.539	44550
342.625	106574
342.712	236923
342.798	94288
342.885	35766
342.971	11154
343.058	9881
343.144	14320
343.230	14027
343.317	12586
343.403	12188
343.490	10295
343.576	9595
343.662	16974
343.749	20437
343.835	30370
343.921	68714
344.008	369665
344.094	693160
344.180	172639
344.267	85633
344.353	220927
344.439	178467
344.525	102150
344.612	31102
344.698	31596
344.784	23550
344.870	16399
344.957	19539
345.043	39160
345.129	32703
345.215	62361
345.301	25008
345.387	13014
345.474	9723
345.560	13880
345.646	15074
345.732	13613
345.818	16248
345.904	18396
345.990	35502
346.076	26823
346.162	12890
346.249	15115
346.335	17096
346.421	42315
346.507	111665
346.593	291101
346.679	60818
346.765	16359
346.851	19985
346.937	21386
347.023	16558
347.108	25446
347.194	19992
347.280	17463
347.366	36026
347.452	114002
347.538	366732
347.624	262548
347.710	182118
347.796	25728
347.882	13769
347.967	10369
348.053	10512
348.139	13537
348.225	18441
348.311	24727
348.397	13760
348.482	27049
348.568	30275
348.654	14026
348.740	16708
348.825	24550
348.911	48179
348.997	186875
349.083	283662
349.168	40373
349.254	13630
349.340	13082
349.425	17183
349.511	35386
349.597	55406
349.682	97378
349.768	235355
349.854	94071
349.939	19510
350.025	13092
350.110	10140
350.196	7511
350.282	7175
350.367	8886
350.453	14086
350.538	17516
350.624	24021
350.709	21175
350.795	15645
350.880	18577
350.966	15332
351.051	16828
351.137	12917
351.222	22878
351.308	84534
351.393	199326
351.479	40062
351.564	12575
351.649	18255
351.735	11527
351.820	10678
351.906	15621
351.991	27565
352.076	144335
352.162	187397
352.247	38084
352.332	28357
352.418	48041
352.503	69603
352.588	318853
352.673	240431
352.759	57710
352.844	28267
352.929	32453
353.014	47256
353.100	45686
353.185	124206
353.270	122249
353.355	84868
353.441	22651
353.526	26223
353.611	85373
353.696	94145
353.781	51114
353.866	25098
353.952	29225
354.037	87118
354.122	188099
354.207	163674
354.292	52422
354.377	22557
354.462	20156
354.547	36122
354.632	31507
354.717	64672
354.802	141142
354.887	91818
354.972	39565
355.057	14183
355.142	15461
355.227	30570
355.312	58289
355.397	132918
355.482	300659
355.567	128696
355.652	93167
355.737	108841
355.822	287446
355.907	198310
355.991	34653
356.076	19867
356.161	15272
356.246	15018
356.331	24144
356.416	77212
356.501	425066
356.585	370566
356.670	56118
356.755	43441
356.840	86779
356.924	420239
357.009	1084699
357.094	357275
357.179	94910
357.263	61799
357.348	55351
357.433	53427
357.517	54131
357.602	45700
357.687	38044
357.771	59125
357.856	46086
357.941	51235
358.025	251786
358.110	895817
358.195	377187
358.279	71192
358.364	72716
358.448	284038
358.533	562866
358.617	400409
358.702	370989
358.787	130411
358.871	86494
358.956	64330
359.040	22987
359.125	18254
359.209	25582
359.294	49625
359.378	35232
359.462	61241
359.547	35949
359.631	15572
359.716	15938
359.800	14359
359.885	27663
359.969	55043
360.053	187094
360.138	146500
360.222	115931
360.306	96403
360.391	56190
360.475	75315
360.559	169179
360.644	223273
360.728	163587
360.812	270369
360.896	589122
360.981	248288
361.065	204332
361.149	114312
361.233	44762
361.318	34181
361.402	42666
361.486	31608
361.570	25809
361.654	43974
361.739	123749
361.823	450607
361.907	545797
361.991	103451
362.075	128206
362.159	200227
362.243	103540
362.327	75938
362.411	68614
362.495	41629
362.580	23868
362.664	15920
362.748	18131
362.832	36921
362.916	50735
363.000	121814
363.084	455384
363.168	649151
363.252	193504
363.336	139858
363.420	77116
363.503	59128
363.587	42535
363.671	39284
363.755	44235
363.839	67428
363.923	32441
364.007	80684
364.091	68497
364.175	25080
364.258	53181
364.342	93893
364.426	161464
364.510	98202
364.594	68388
364.677	124641
364.761	535737
364.845	321131
364.929	141087
365.013	116318
365.096	98492
365.180	104848
365.264	26819
365.347	30942
365.431	20671
365.515	25598
365.598	29929
365.682	19215
365.766	14579
365.849	14183
365.933	27867
366.017	21333
366.100	9739
366.184	7864
366.267	14596
366.351	21023
366.435	50853
366.518	36361
366.602	14405
366.685	20149
366.769	24202
366.852	28829
366.936	69565
367.019	50529
367.103	16307
367.186	10618
367.270	11675
367.353	12543
367.436	17063
367.520	14832
367.603	30881
367.687	58396
367.770	102938
367.853	54862
367.937	172724
368.020	242295
368.104	65947
368.187	76858
368.270	100221
368.353	76131
368.437	67540
368.520	48292
368.603	97241
368.687	218470
368.770	340636
368.853	77699
368.936	74498
369.020	45053
369.103	27366
369.186	16292
369.269	32135
369.352	107429
369.436	174654
369.519	65709
369.602	20566
369.685	25909
369.768	33020
369.851	20609
369.934	16499
370.018	32448
370.101	90314
370.184	52288
370.267	26562
370.350	49265
370.433	94544
370.516	284646
370.599	346678
370.682	140814
370.765	217082
370.848	262807
370.931	466813
371.014	357186
371.097	147698
371.180	31467
371.263	14824
371.346	10656
371.429	12751
371.511	17457
371.594	46055
371.677	54417
371.760	32676
371.843	67148
371.926	335331
372.009	650205
372.091	181938
372.174	167879
372.257	357764
372.340	113674
372.423	65459
372.505	43220
372.588	37632
372.671	162643
372.754	450113
372.836	175736
372.919	35121
373.002	40328
373.085	50114
373.167	74548
373.250	211164
373.332	390355
373.415	519121
373.498	963410
373.580	341001
373.663	545027
373.746	617518
373.828	143801
373.911	56480
373.993	44714
374.076	37645
374.159	36348
374.241	115634
374.324	385360
374.406	227064
374.489	329232
374.571	787877
374.654	294278
374.736	190780
374.819	510571
374.901	720916
374.983	657825
375.066	103954
375.148	28203
375.231	31797
375.313	52010
375.395	51698
375.478	22480
375.560	22230
375.643	42912
375.725	179507
375.807	635198
375.890	328022
375.972	76428
376.054	64804
376.136	35831
376.219	42268
376.301	216242
376.383	552609
376.465	192032
376.548	173544
376.630	201336
376.712	494078
376.794	188379
376.877	26875
376.959	19495
377.041	22380
377.123	13536
377.205	13299
377.287	19075
377.369	100346
377.452	197336
377.534	52527
377.616	33088
377.698	33090
377.780	16499
377.862	21850
377.944	19063
378.026	11370
378.108	13432
378.190	15314
378.272	12990
378.354	10496
378.436	9095
378.518	23392
378.600	68031
378.682	100063
378.764	294283
378.846	275399
378.928	114557
379.010	88068
379.091	39979
379.173	20598
379.255	20733
379.337	38080
379.419	149546
379.501	361914
379.583	117584
379.664	41066
379.746	118547
379.828	277573
379.910	358802
379.991	273697
380.073	45258
380.155	33282
380.237	24891
380.318	13422
380.400	21209
380.482	67844
380.564	110473
380.645	136318
380.727	108814
380.809	44095
380.890	33516
380.972	29835
381.053	24533
381.135	29897
381.217	102192
381.298	269331
381.380	112358
381.461	118630
381.543	523049
381.624	537749
381.706	92134
381.787	46588
381.869	59751
381.951	232574
382.032	760310
382.113	419670
382.195	87639
382.276	65743
382.358	210649
382.439	444397
382.521	471234
382.602	668372
382.684	297788
382.765	591271
382.846	444902
382.928	441067
383.009	219967
383.090	172176
383.172	676047
383.253	979918
383.334	442878
383.416	625845
383.497	261868
383.578	86713
383.659	152290
383.741	598054
383.822	1485176
383.903	704321
383.984	434633
384.066	799391
384.147	454135
384.228	79970
384.309	72321
384.390	53973
384.471	30881
384.553	36629
384.634	62196
384.715	63767
384.796	26996
384.877	52888
384.958	243328
385.039	270171
385.120	88180
385.201	34994
385.282	35408
385.363	23883
385.444	27939
385.525	78170
385.606	307979
385.687	230975
385.768	40965
385.849	73581
385.930	362216
386.011	520815
386.092	120922
386.173	30684
386.254	21831
386.335	24000
386.416	33993
386.496	158360
386.577	231433
386.658	59776
386.739	39791
386.820	21775
386.901	16724
386.981	21430
387.062	20099
387.143	73195
387.224	268513
387.304	197136
387.385	61014
387.466	23604
387.547	20213
387.627	28596
387.708	107155
387.789	463562
387.869	488309
387.950	106792
388.031	18222
388.111	11400
388.192	15935
388.273	23839
388.353	29197
388.434	32759
388.514	97573
388.595	393682
388.676	470384
388.756	236433
388.837	253642
388.917	137407
388.998	24259
389.078	24953
389.159	24613
389.239	26273
389.320	44561
389.400	41396
389.480	92859
389.561	246019
389.641	104231
389.722	45439
389.802	80206
389.883	115617
389.963	290303
390.043	130569
390.124	29041
390.204	92808
390.284	304314
390.365	161451
390.445	95845
390.525	378428
390.605	374588
390.686	133189
390.766	43494
390.846	23105
390.927	17124
391.007	20158
391.087	20660
391.167	23881
391.247	15482
391.328	19248
391.408	20001
391.488	15224
391.568	16029
391.648	38832
391.728	53154
391.808	51063
391.888	65490
391.969	151335
392.049	211397
392.129	66830
392.209	115633
392.289	277612
392.369	111133
392.449	34800
392.529	43470
392.609	59467
392.689	95129
392.769	292456
392.849	208715
392.929	133805
393.009	334474
393.089	257774
393.169	236026
393.248	831296
393.328	2671074
393.408	2533199
393.488	675080
393.568	202752
393.648	103852
393.728	67977
393.807	49998
393.887	43084
393.967	39316
394.047	49155
394.127	61335
394.206	97507
394.286	381954
394.366	1464900
394.446	1333817
394.525	280024
394.605	74148
394.685	53772
394.764	57804
394.844	70129
394.924	63939
395.003	82304
395.083	71937
395.163	43159
395.242	39290
395.322	38001
395.402	25063
395.481	30401
395.561	50328
395.640	123050
395.720	112223
395.799	62343
395.879	65247
395.958	126045
396.038	541309
396.117	1918547
396.197	1782890
396.276	436146
396.356	129334
396.435	80347
396.515	77276
396.594	123603
396.673	235697
396.753	889222
396.832	2414059
396.912	1689068
396.991	418070
397.070	116344
397.150	66982
397.229	44221
397.308	49867
397.388	63539
397.467	34326
397.546	22889
397.625	24375
397.705	37594
397.784	44056
397.863	21228
397.942	12611
398.022	12373
398.101	17499
398.180	40771
398.259	55254
398.338	35579
398.417	27062
398.497	16336
398.576	18969
398.655	21393
398.734	55228
398.813	87498
398.892	28856
398.971	20943
399.050	13213
399.129	7905
399.208	7483
399.287	8468
399.366	7906
399.445	9278
399.524	9397
399.603	14709
399.682	39849
399.761	67027
399.840	41407
399.919	15878
399.998	10367
400.077	10936
400.156	9703
400.235	11722
400.313	8388
400.392	25545
400.471	155132
400.550	219777
400.629	53193
400.708	24233
400.786	19637
400.865	14615
400.944	23500
401.023	21489
401.102	8263
401.180	7643
401.259	6801
401.338	11863
401.416	23915
401.495	21860
401.574	10332
401.652	12839
401.731	24778
401.810	34073
401.888	15031
401.967	9305
402.046	13890
402.124	20060
402.203	28584
402.281	14911
402.360	13310
402.438	17515
402.517	11932
402.596	9068
402.674	7615
402.753	7078
402.831	8576
402.910	24837
402.988	154316
403.066	436650
403.145	204538
403.223	159345
403.302	390493
403.380	280004
403.459	291564
403.537	101741
403.615	37432
403.694	11061
403.772	8879
403.850	9477
403.929	12861
404.007	22799
404.085	73624
404.164	93563
404.242	22805
404.320	15492
404.398	34494
404.477	159706
404.555	640304
404.633	456254
404.711	68552
404.789	36120
404.868	36571
404.946	19443
405.024	7955
405.102	7318
405.180	8713
405.258	10078
405.336	11408
405.415	13275
405.493	36752
405.571	49851
405.649	14500
405.727	8296
405.805	18849
405.883	28542
405.961	19404
406.039	9950
406.117	12229
406.195	38423
406.273	188310
406.351	557378
406.429	250852
406.507	28696
406.585	12607
406.663	22943
406.740	32959
406.818	27583
406.896	11846
406.974	17825
407.052	67656
407.130	351424
407.208	409068
407.285	68619
407.363	17487
407.441	17382
407.519	13876
407.596	24002
407.674	72924
407.752	118389
407.830	52879
407.907	38715
407.985	29168
408.063	11263
408.141	7365
408.218	16702
408.296	39859
408.373	50061
408.451	34153
408.529	24230
408.606	8593
408.684	7044
408.762	6495
408.839	5166
408.917	4647
408.994	6067
409.072	4497
409.149	6150
409.227	9875
409.304	10313
409.382	9820
409.459	13471
409.537	17855
409.614	17695
409.692	10927
409.769	14786
409.846	23006
409.924	17852
410.001	11032
410.079	15106
410.156	38863
410.233	100387
410.311	47978
410.388	14125
410.465	7997
410.543	6337
410.620	9257
410.697	17070
410.775	22055
410.852	8909
410.929	14710
411.006	17578
411.083	7618
411.161	6366
411.238	7204
411.315	7447
411.392	8240
411.469	11197
411.547	5039
411.624	2489
411.701	4660
411.778	20940
411.855	52751
411.932	23601
412.009	8622
412.086	6336
412.163	7868
412.240	10329
412.317	7042
412.394	5609
412.471	7804
412.548	10056
412.625	11780
412.702	19693
412.779	67687
412.856	79874
412.933	17552
413.010	7935
413.087	26758
413.164	142653
413.241	170398
413.318	41747
413.395	24439
413.471	39587
413.548	15766
413.625	10439
413.702	14094
413.779	7823
413.855	3183
413.932	3267
414.009	4062
414.086	6463
414.162	13527
414.239	65522
414.316	199045
414.393	297329
414.469	86567
414.546	10936
414.623	6651
414.699	8836
414.776	15540
414.853	9377
414.929	9901
415.006	8481
415.082	8962
415.159	8705
415.236	8307
415.312	14118
415.389	37957
415.465	50867
415.542	20744
415.618	17269
415.695	31595
415.771	23484
415.848	16728
415.924	11280
416.000	5076
416.077	5018
416.153	2289
416.230	2357
416.306	3714
416.383	4229
416.459	3336
416.535	4034
416.612	3757
416.688	10467
416.764	20999
416.841	11026
416.917	5058
416.993	6174
417.069	11324
417.146	15556
417.222	19044
417.298	16672
417.374	19078
417.451	21478
417.527	24823
417.603	28041
417.679	34012
417.755	63764
417.831	24129
417.908	5947
417.984	4534
418.060	8784
418.136	43775
418.212	54968
418.288	15932
418.364	8137
418.440	12937
418.516	19979
418.592	16043
418.668	60281
418.744	106194
418.820	66410
418.896	15120
418.972	7826
419.048	12840
419.124	44880
419.200	32843
419.276	7751
419.352	4200
419.428	7659
419.504	17626
419.579	21431
419.655	14748
419.731	18499
419.807	72326
419.883	129656
419.959	77320
420.034	20002
420.110	53371
420.186	193321
420.262	121752
420.337	21556
420.413	19163
420.489	11037
420.565	7405
420.640	6956
420.716	9050
420.792	5688
420.867	8545
420.943	9675
421.019	28284
421.094	21828
421.170	13257
421.245	7079
421.321	7967
421.397	9947
421.472	10983
421.548	24470
421.623	24505
421.699	15018
421.774	18303
421.850	17439
421.925	35880
422.001	26823
422.076	16680
422.152	20863
422.227	36615
422.302	28785
422.378	38489
422.453	71561
422.529	182079
422.604	607891
422.679	981558
422.755	525313
422.830	147236
422.905	51623
422.981	29197
423.056	18994
423.131	15226
423.207	13043
423.282	24992
423.357	61077
423.432	36729
423.508	55516
423.583	123422
423.658	68140
423.733	16503
423.808	19617
423.883	30518
423.959	25343
424.034	15448
424.109	9086
424.184	5394
424.259	4928
424.334	4861
424.409	5740
424.484	8141
424.559	11743
424.634	12190
424.709	25556
424.784	25777
424.859	13618
424.934	34434
425.009	149133
425.084	213374
425.159	63012
425.234	9097
425.309	3363
425.384	3941
425.459	2631
425.534	3774
425.609	3884
425.683	4099
425.758	7246
425.833	8703
425.908	16714
425.983	97619
426.058	232890
426.132	79147
426.207	10306
426.282	6046
426.357	4001
426.431	4904
426.506	5712
426.581	7288
426.655	8644
426.730	8166
426.805	9448
426.879	8040
426.954	10415
427.029	39769
427.103	234734
427.178	472181
427.253	161255
427.327	16730
427.402	6202
427.476	4687
427.551	3163
427.625	3619
427.700	3927
427.774	2907
427.849	4029
427.923	3162
427.998	4540
428.072	7500
428.147	22852
428.221	102651
428.296	204728
428.370	78120
428.444	10162
428.519	6818
428.593	6869
428.667	5961
428.742	7660
428.816	19142
428.890	98716
428.965	133344
429.039	29271
429.113	8074
429.188	7025
429.262	6505
429.336	31242
429.410	95354
429.485	44088
429.559	7027
429.633	5345
429.707	6179
429.781	21046
429.855	114407
429.930	184464
430.004	55140
430.078	21555
430.152	67782
430.226	283155
430.300	233867
430.374	31686
430.448	10345
430.522	14097
430.596	20860
430.670	67205
430.744	372826
430.818	487237
430.892	100082
430.966	35500
431.040	13657
431.114	4633
431.188	3099
431.262	4371
431.336	3243
431.410	10783
431.484	33696
431.557	30073
431.631	6684
431.705	8322
431.779	42516
431.853	161285
431.927	90084
432.000	11734
432.074	4782
432.148	4568
432.222	3234
432.295	4130
432.369	6347
432.443	26685
432.516	201581
432.590	435990
432.664	126106
432.737	16153
432.811	5405
432.885	3332
432.958	3144
433.032	2468
433.106	2533
433.179	2318
433.253	1509
433.326	1180
433.400	1205
433.473	1933
433.547	1466
433.620	7072
433.694	23741
433.767	15796
433.841	2590
433.914	1860
433.988	1233
434.061	1337
434.134	1279
434.208	1309
434.281	1731
434.355	3496
434.428	3169
434.501	2312
434.575	1449
434.648	2723
434.721	1715
434.795	3486
434.868	4131
434.941	3699
435.014	1519
435.088	2658
435.161	6402
435.234	17721
435.307	20648
435.381	6990
435.454	5700
435.527	8279
435.600	7331
435.673	5367
435.746	3787
435.819	7540
435.892	8614
435.966	4219
436.039	1568
436.112	2239
436.185	1089
436.258	1588
436.331	315
436.404	1071
436.477	942
436.550	1790
436.623	2233
436.696	3075
436.769	6835
436.842	4676
436.915	5596
436.987	10602
437.060	4415
437.133	1915
437.206	887
437.279	3551
437.352	5756
437.425	33751
437.498	102635
437.570	65164
437.643	22830
437.716	5125
437.789	2406
437.861	3342
437.934	3492
438.007	4062
438.080	4190
438.152	9859
438.225	37840
438.298	271237
438.370	582449
438.443	176389
438.516	20981
438.588	8065
438.661	4195
438.734	4571
438.806	9733
438.879	10132
438.951	4299
439.024	4342
439.096	4506
439.169	3784
439.241	2171
439.314	2590
439.386	3130
439.459	3524
439.531	3369
439.604	2708
439.676	2922
439.749	6937
439.821	12792
439.893	5739
439.966	2414
440.038	3701
440.110	5920
440.183	6574
440.255	5610
440.327	15718
440.400	107262
440.472	399437
440.544	210290
440.617	23639
440.689	7712
440.761	10689
440.833	13071
440.905	8850
440.978	3584
441.050	2795
441.122	2095
441.194	3094
441.266	2914
441.338	5108
441.411	24774
441.483	152011
441.555	181493
441.627	30295
441.699	5139
441.771	3146
441.843	2517
441.915	3488
441.987	3308
442.059	3265
442.131	3004
442.203	9209
442.275	19261
442.347	10665
442.419	13574
442.491	73236
442.563	147141
442.635	49886
442.706	27837
442.778	24098
442.850	6005
442.922	3311
442.994	5484
443.066	12063
443.137	8021
443.209	5903
443.281	10450
443.353	22995
443.425	94716
443.496	312685
443.568	251210
443.640	81384
443.711	17146
443.783	7045
443.855	4304
443.926	3563
443.998	2925
444.070	3267
444.141	5088
444.213	18852
444.285	25033
444.356	15061
444.428	4611
444.499	2886
444.571	1566
444.642	3714
444.714	10238
444.785	20461
444.857	9711
444.928	4590
445.000	3875
445.071	7349
445.143	18583
445.214	21542
445.285	16713
445.357	43055
445.428	230192
445.500	471295
445.571	240328
445.642	114089
445.714	33917
445.785	21565
445.856	22590
445.928	29595
445.999	13819
446.070	9429
446.141	23701
446.213	32201
446.284	12750
446.355	5005
446.426	4683
446.497	10566
446.569	6472
446.640	24558
446.711	25435
446.782	5157
446.853	2886
446.924	10132
446.995	11552
447.066	6556
447.138	2917
447.209	3507
447.280	3222
447.351	3531
447.422	1507
447.493	2658
447.564	13384
447.635	28973
447.706	11982
447.777	4480
447.847	2031
447.918	2042
447.989	3972
448.060	4574
448.131	5531
448.202	17689
448.273	19147
448.344	6585
448.414	6178
448.485	7033
448.556	3755
448.627	3142
448.698	3271
448.768	5177
448.839	2968
448.910	3156
448.981	6990
449.051	7790
449.122	2779
449.193	1588
449.263	1758
449.334	1790
449.405	12050
449.475	31942
449.546	14536
449.616	4263
449.687	2875
449.758	1721
449.828	2095
449.899	4892
449.969	3783
450.040	1528
450.110	1562
450.181	4052
450.251	5166
450.322	2532
450.392	752
450.463	1723
450.533	2425
450.604	5244
450.674	2829
450.744	2064
450.815	522
450.885	2613
450.955	1708
451.026	2072
451.096	1140
451.166	1645
451.237	1979
451.307	3009
451.377	1888
451.447	2709
451.518	2168
451.588	1117
451.658	2562
451.728	3159
451.799	3970
451.869	3804
451.939	1044
452.009	2243
452.079	1631
452.149	2202
452.219	1646
452.289	3683
452.360	2766
452.430	2924
452.500	8474
452.570	10780
452.640	11191
452.710	23843
452.780	30145
452.850	56163
452.920	57119
452.990	15326
453.060	6833
453.129	12911
453.199	8037
453.269	5529
453.339	6645
453.409	7804
453.479	6811
453.549	8913
453.619	8683
453.688	3950
453.758	2879
453.828	3602
453.898	1812
453.968	2314
454.037	1043
454.087	1549
454.107	1722
454.168	1447
454.177	1366
454.247	2456
454.249	2469
454.316	1968
454.330	1863
454.386	1348
454.411	1848
454.456	2476
454.492	2539
454.525	2596
454.574	2339
454.595	2220
454.655	2039
454.665	1973
454.734	4153
454.736	4295
454.804	6934
454.817	6925
454.873	6603
454.898	6065
454.943	4965
454.979	4186
455.013	3430
455.060	3732
455.082	3900
455.141	3815
455.152	3788
455.221	5347
455.222	5435
455.291	8795
455.303	10900
455.360	18859
455.384	26318
455.430	37471
455.465	26802
455.499	17421
455.546	11275
455.569	8317
455.627	9357
455.638	9427
455.707	5246
455.708	5276
455.777	3875
455.789	3802
455.846	3282
455.869	3329
455.916	3405
455.950	3666
455.985	3781
456.031	4117
456.054	4220
456.112	3433
456.124	3266
456.193	3881
456.193	3848
456.262	2863
456.274	3195
456.332	4760
456.355	4439
456.401	3738
456.436	4409
456.470	4804
456.516	4531
456.540	4397
456.597	4589
456.609	4544
456.678	5268
456.678	5236
456.747	3762
456.759	3640
456.817	3604
456.840	4046
456.886	4603
456.920	4418
456.955	4092
457.001	4499
457.024	4803
457.082	4377
457.093	4239
457.162	5791
457.163	5822
457.232	4605
457.243	4662
457.301	5032
457.324	5007
457.370	4982
457.405	5478
457.439	6027
457.485	6035
457.508	5831
457.566	6246
457.577	6457
457.646	8345
457.647	8395
457.715	12692
457.727	13874
457.784	22658
457.808	28736
457.853	34938
457.889	37479
457.922	34191
457.969	22917
457.991	24482
458.050	34219
458.060	36072
458.129	61582
458.130	62211
458.198	51280
458.211	45758
458.267	25574
458.292	18231
458.336	14022
458.372	13744
458.405	18585
458.453	27276
458.474	34467
458.533	60911
458.543	62731
458.611	91285
458.614	91560
458.680	46588
458.694	35644
458.749	18550
458.775	14046
458.818	10246
458.855	8862
458.887	8177
458.936	8066
458.955	7892
459.016	7338
459.024	7390
459.093	8769
459.097	8804
459.162	10644
459.177	11515
459.230	14537
459.257	16852
459.299	15591
459.338	11976
459.368	10992
459.418	9937
459.437	9851
459.499	10192
459.505	10242
459.574	11787
459.579	11922
459.643	11744
459.659	11457
459.711	11246
459.740	11646
459.780	12031
459.820	12297
459.849	11713
459.900	10351
459.917	10294
459.981	9529
459.986	9467
460.054	9823
460.061	9813
460.123	12210
460.141	13322
460.191	19933
460.222	24193
460.260	26990
460.302	31647
460.328	27783
460.382	14962
460.397	14306
460.462	12087
460.465	12005
460.534	13044
460.543	13164
460.602	17139
460.623	18633
460.671	23710
460.703	28595
460.739	28071
460.783	24632
460.808	20828
460.864	10373
460.876	9945
460.944	9206
460.945	9230
461.013	13744
461.024	14506
461.081	18244
461.104	20399
461.150	19543
461.184	17458
461.218	15965
461.264	13509
461.286	12835
461.345	11934
461.355	11705
461.423	10269
461.425	10222
461.491	9388
461.505	9369
461.559	9626
461.585	9622
461.628	10201
461.665	10936
461.696	11328
461.745	12104
461.764	12360
461.825	12811
461.832	13151
461.901	16404
461.905	16672
461.969	13548
461.985	12445
462.037	10877
462.065	9955
462.105	9212
462.145	8748
462.173	9275
462.225	10096
462.241	10288
462.305	11719
462.310	11796
462.378	12583
462.385	12652
462.446	15509
462.465	16753
462.514	17241
462.545	17105
462.582	15609
462.625	13598
462.650	12906
462.705	11401
462.718	11259
462.785	10644
462.786	10637
462.854	9522
462.865	9427
462.922	11393
462.945	12162
462.990	12460
463.025	12919
463.058	11886
463.104	9805
463.126	10239
463.184	11877
463.194	12303
463.262	14635
463.264	14751
463.330	13830
463.344	13375
463.398	12579
463.424	12175
463.466	11803
463.504	11661
463.533	12548
463.583	14018
463.601	14863
463.663	17653
463.669	18265
463.737	25647
463.743	26340
463.805	24407
463.823	23475
463.873	19229
463.903	16408
463.940	16028
463.982	15963
464.008	15921
464.062	15814
464.076	15828
464.142	16142
464.144	16417
464.211	25512
464.221	26889
464.279	48833
464.301	57661
464.347	66654
464.381	74295
464.414	54364
464.461	22217
464.482	20575
464.540	17019
464.550	17295
464.617	20818
464.620	20929
464.685	30370
464.699	32534
464.753	37529
464.779	39845
464.820	37700
464.859	35017
464.888	31633
464.938	25793
464.956	25546
465.018	24367
465.023	24314
465.091	23651
465.098	23535
465.158	23613
465.177	23632
465.226	24276
465.257	24570
465.293	28613
465.336	33363
465.361	37689
465.416	47376
465.428	46620
465.495	42647
465.496	42629
465.563	29448
465.575	27071
465.631	27009
465.654	27132
465.698	26520
465.734	25931
465.765	27081
465.813	28697
465.833	27871
465.893	25437
465.900	25275
465.968	23028
465.972	22843
466.035	23383
466.052	23502
466.102	24456
466.131	24956
466.170	25046
466.210	25015
466.237	24958
466.290	24747
466.304	24774
466.369	24482
466.372	24557
466.439	25557
466.449	25645
466.506	27560
466.528	28269
466.573	33533
466.607	37343
466.641	45764
466.687	57391
466.708	62027
466.766	74560
466.775	71798
466.842	49912
466.845	48777
466.909	37178
466.925	34339
466.977	31092
467.004	29313
467.044	32034
467.083	34702
467.111	39055
467.163	47011
467.178	49558
467.242	59729
467.245	59828
467.312	59324
467.321	59138
467.379	74386
467.400	79701
467.446	95093
467.480	105892
467.559	50922
467.638	37512
467.717	40239
467.796	56277
467.875	69525
467.955	44988
468.034	38368
468.113	43209
468.192	49592
468.271	41735
468.350	39883
468.429	42995
468.508	48061
468.588	38612
468.667	32387
468.746	32137
468.825	33112
468.904	32106
468.983	37105
469.062	42222
469.141	47751
469.220	33518
469.299	30783
469.378	36980
469.456	47600
469.535	43430
469.614	39732
469.693	39478
469.772	39724
469.851	39921
469.930	39167
470.009	42550
470.088	41469
470.166	47642
470.245	64103
470.324	75656
470.403	51253
470.482	43741
470.560	39607
470.639	52424
470.718	70053
470.797	46549
470.875	53356
470.954	64442
471.033	50526
471.111	30984
471.190	30929
471.269	27554
471.347	29501
471.426	29659
471.505	34167
471.583	37608
471.662	37722
471.740	32089
471.819	32759
471.898	30584
471.976	31638
472.055	31562
472.133	32122
472.212	31843
472.290	30766
472.369	28036
472.447	30537
472.526	29357
472.604	38455
472.683	54748
472.761	66298
472.839	47561
472.918	36276
472.996	29383
473.075	31370
473.153	33475
473.231	32236
473.310	37742
473.388	38752
473.466	34745
473.545	52258
473.623	88365
473.701	87096
473.780	37810
473.858	41219
473.936	43500
474.014	34373
474.093	38791
474.171	38571
474.249	30836
474.327	32270
474.405	32638
474.484	34324
474.562	38005
474.640	33135
474.718	30762
474.796	32386
474.874	30738
474.952	30212
475.030	31289
475.108	33640
475.187	40354
475.265	70179
475.343	170316
475.421	200638
475.499	40915
475.577	29827
475.655	28725
475.733	33212
475.811	33881
475.889	35106
475.966	40726
476.044	61908
476.122	120942
476.200	175397
476.278	113770
476.356	32254
476.434	39291
476.512	82978
476.590	151632
476.667	105113
476.745	29420
476.823	32009
476.901	24989
476.979	23099
477.056	24513
477.134	27703
477.212	30569
477.290	29902
477.367	23386
477.445	21342
477.523	21249
477.601	23972
477.678	21529
477.756	21700
477.834	22891
477.911	25078
477.989	28579
478.066	33121
478.144	38823
478.222	95841
478.299	245887
478.377	203303
478.454	28457
478.532	26040
478.609	42161
478.687	48916
478.764	26285
478.842	33093
478.919	41499
478.997	35748
479.074	20244
479.152	20752
479.229	20000
479.307	17481
479.384	16976
479.461	17124
479.539	17218
479.616	19126
479.694	17456
479.771	21327
479.848	25526
479.926	26261
480.003	25469
480.080	23367
480.157	18739
480.235	21034
480.312	21481
480.389	20176
480.467	21726
480.544	20083
480.621	18002
480.698	19954
480.775	22330
480.853	20482
480.930	18445
481.007	18310
481.084	16601
481.161	17637
481.238	16996
481.315	16159
481.392	16833
481.470	16808
481.547	16447
481.624	17858
481.701	20875
481.778	24630
481.855	28469
481.932	31032
482.009	34227
482.086	37696
482.163	49449
482.240	140845
482.317	343159
482.393	223719
482.470	30976
482.547	24603
482.624	22988
482.701	22081
482.778	18882
482.855	19211
482.932	20061
483.009	18727
483.085	21471
483.162	22347
483.239	25257
483.316	22704
483.393	23574
483.469	22150
483.546	22172
483.623	22170
483.699	20734
483.776	25094
483.853	35168
483.930	68161
484.006	73592
484.083	42889
484.160	77156
484.236	144995
484.313	118036
484.389	86406
484.466	83616
484.543	101194
484.619	83759
484.696	72202
484.772	66737
484.849	65681
484.925	63405
485.002	63166
485.078	62672
485.155	67320
485.231	83073
485.308	77419
485.384	83757
485.461	122115
485.537	96995
485.614	69566
485.690	64333
485.766	63040
485.843	80938
485.919	165068
485.995	185700
486.072	61865
486.148	55208
486.224	56257
486.301	56266
486.377	57705
486.453	52628
486.530	58539
486.606	80904
486.682	89380
486.758	79504
486.835	80848
486.911	81874
486.987	113618
487.063	289026
487.139	502895
487.215	308773
487.292	99746
487.368	64321
487.444	68652
487.520	73135
487.596	80934
487.672	112661
487.748	297128
487.824	442519
487.900	143928
487.976	71014
488.052	61720
488.128	72180
488.204	76604
488.280	116830
488.356	198597
488.432	103888
488.508	76961
488.584	76897
488.660	77969
488.736	71249
488.812	86466
488.888	115404
488.964	174425
489.039	485253
489.115	799126
489.191	415756
489.267	71434
489.343	58126
489.418	48524
489.494	47534
489.570	44358
489.646	50121
489.722	47320
489.797	49379
489.873	60499
489.949	125183
490.024	159786
490.100	54533
490.176	49490
490.251	83503
490.327	134100
490.403	56421
490.478	41184
490.554	41698
490.629	45841
490.705	39146
490.781	46437
490.856	43780
490.932	63046
491.007	71769
491.083	56227
491.158	39733
491.234	40841
491.309	41452
491.385	42505
491.460	41230
491.536	47801
491.611	56240
491.686	71894
491.762	115509
491.837	308018
491.913	493530
491.988	695794
492.063	960564
492.139	140536
492.214	51955
492.289	41021
492.365	44771
492.440	55656
492.515	40980
492.590	35403
492.666	33455
492.741	41268
492.816	37584
492.891	31067
492.967	35668
493.042	34159
493.117	33484
493.192	32578
493.267	47934
493.342	107521
493.418	127745
493.493	44179
493.568	31579
493.643	31648
493.718	38027
493.793	67263
493.868	119806
493.943	79950
494.018	39456
494.093	25854
494.168	27494
494.243	30667
494.318	24824
494.393	24859
494.468	25478
494.543	31819
494.618	47481
494.693	32700
494.768	24388
494.842	28021
494.917	27782
494.992	35962
495.067	31772
495.142	29312
495.217	38593
495.292	40536
495.366	49499
495.441	68731
495.516	86229
495.591	145014
495.665	660202
495.740	1727551
495.815	636287
495.890	55402
495.964	28223
496.039	30712
496.114	24846
496.188	25532
496.263	28337
496.338	23011
496.412	24522
496.487	33341
496.561	65817
496.636	70847
496.710	32924
496.785	36517
496.860	31608
496.934	31827
497.009	35310
497.083	28759
497.158	23040
497.232	27806
497.307	41732
497.381	31971
497.455	26846
497.530	24055
497.604	22901
497.679	20796
497.753	30743
497.827	42632
497.902	37960
497.976	37072
498.050	47227
498.125	107649
498.199	163115
498.273	152750
498.348	129928
498.422	88223
498.496	89372
498.570	81940
498.645	31080
498.719	22672
498.793	25990
498.867	38785
498.941	36844
499.016	45680
499.090	98801
499.164	55146
499.238	24735
499.312	27949
499.386	57247
499.460	37566
499.534	18289
499.609	22176
499.683	21220
499.757	20238
499.831	26364
499.905	62716
499.979	59544
500.053	34991
500.127	90665
500.201	129615
500.275	47598
500.349	35653
500.422	40265
500.496	92130
500.570	262161
500.644	208169
500.718	102923
500.792	45745
500.866	25942
500.940	24843
501.013	24162
501.087	33560
501.161	105133
501.235	104672
501.309	35527
501.382	59764
501.456	100533
501.530	66739
501.603	27817
501.677	25032
501.751	23278
501.825	35278
501.898	27002
501.972	29137
502.046	24339
502.119	27651
502.193	58041
502.266	50063
502.340	25176
502.413	22583
502.487	28070
502.561	23241
502.634	30566
502.708	53471
502.781	45463
502.855	30721
502.928	17688
503.002	18828
503.075	16258
503.149	16137
503.222	15412
503.295	13524
503.369	14356
503.442	15354
503.516	23617
503.589	38558
503.662	30846
503.736	21148
503.809	30729
503.882	38823
503.956	49720
504.029	78867
504.102	198734
504.175	256084
504.249	71086
504.322	28660
504.395	26799
504.468	21384
504.542	16064
504.615	17060
504.688	19308
504.761	21592
504.834	32671
504.907	65007
504.980	132138
505.053	46765
505.127	70796
505.200	60359
505.273	17575
505.346	16950
505.419	14220
505.492	15712
505.565	12965
505.638	14905
505.711	13942
505.784	13791
505.857	12390
505.930	14715
506.003	13652
506.076	16191
506.149	13131
506.221	14302
506.294	18031
506.367	22499
506.440	58704
506.513	68456
506.586	24463
506.659	22693
506.731	26092
506.804	37800
506.877	74437
506.950	29401
507.022	20960
507.095	19440
507.168	31244
507.241	34700
507.313	24483
507.386	37347
507.459	78790
507.531	40920
507.604	24254
507.677	22874
507.749	19047
507.822	39443
507.894	98609
507.967	95907
508.040	44383
508.112	34042
508.185	32213
508.257	38634
508.330	69791
508.402	35790
508.475	25475
508.547	28166
508.620	29917
508.692	72824
508.765	89600
508.837	29093
508.909	23572
508.982	27780
509.054	41921
509.127	32260
509.199	22464
509.271	19997
509.344	20136
509.416	21074
509.488	21770
509.560	24605
509.633	35889
509.705	50198
509.777	39179
509.849	75728
509.922	43698
509.994	23130
510.066	23050
510.138	25048
510.210	52948
510.283	50558
510.355	42249
510.427	38403
510.499	33667
510.571	31087
510.643	37941
510.715	86853
510.787	80493
510.859	37465
510.931	42743
511.003	78377
511.076	66080
511.148	27270
511.219	25072
511.291	26993
511.363	27897
511.435	25700
511.507	24099
511.579	25416
511.651	26267
511.723	25235
511.795	27971
511.867	27911
511.939	31234
512.010	28202
512.082	31028
512.154	36525
512.226	36501
512.298	68291
512.369	98301
512.441	68105
512.513	85139
512.585	54747
512.656	46992
512.728	55212
512.800	38344
512.871	33542
512.943	34650
513.015	34779
513.086	40411
513.158	48368
513.230	49590
513.301	99643
513.373	143558
513.444	60505
513.516	45656
513.588	41080
513.659	52806
513.731	81802
513.802	63402
513.874	158968
513.945	341487
514.016	90057
514.088	37927
514.159	49317
514.231	75476
514.302	88490
514.374	47034
514.445	37533
514.516	39925
514.588	33750
514.659	33820
514.730	40895
514.802	60704
514.873	47737
514.944	36453
515.016	42312
515.087	60156
515.158	47329
515.229	41548
515.301	29801
515.372	34715
515.443	27877
515.514	30042
515.585	28332
515.656	32038
515.728	29733
515.799	30902
515.870	37564
515.941	38460
516.012	39946
516.083	51786
516.154	73875
516.225	127096
516.296	97355
516.367	68599
516.438	80248
516.509	104783
516.580	136943
516.651	357762
516.722	1491141
516.793	739443
516.864	135802
516.935	112935
517.006	108984
517.077	162732
517.148	421874
517.219	1176572
517.289	1811812
517.360	243085
517.431	63651
517.502	42292
517.573	40441
517.643	39397
517.714	47158
517.785	50485
517.856	53720
517.926	68001
517.997	85091
518.068	109643
518.138	143465
518.209	195979
518.280	717951
518.350	2938249
518.421	1109869
518.492	118091
518.562	62914
518.633	54013
518.703	56140
518.774	87147
518.845	219885
518.915	228052
518.986	81032
519.056	78257
519.127	207715
519.197	272761
519.268	223347
519.338	55805
519.408	52454
519.479	134294
519.549	102777
519.620	55010
519.690	36043
519.760	31659
519.831	41549
519.901	43363
519.971	36229
520.042	63877
520.112	35468
520.182	55413
520.253	76146
520.323	29084
520.393	27751
520.463	42075
520.534	62152
520.604	73295
520.674	26864
520.744	23124
520.814	48553
520.885	63285
520.955	27790
521.025	39042
521.095	27245
521.165	22671
521.235	21778
521.305	23649
521.375	26284
521.445	37391
521.515	76315
521.585	83867
521.655	83052
521.725	57993
521.795	40150
521.865	20113
521.935	24619
522.005	21048
522.075	19907
522.145	24791
522.215	24204
522.285	29009
522.355	32869
522.424	41630
522.494	48483
522.564	64920
522.634	206955
522.704	741172
522.774	270667
522.843	47369
522.913	43700
522.983	77518
523.053	50729
523.122	43078
523.192	84584
523.262	419701
523.331	402820
523.401	49930
523.471	27433
523.540	32861
523.610	22613
523.680	17405
523.749	17643
523.819	17189
523.888	17019
523.958	17173
524.027	20427
524.097	22516
524.166	22492
524.236	39778
524.305	28878
524.375	21871
524.444	16653
524.514	19102
524.583	15633
524.653	18283
524.722	22295
524.791	16027
524.861	20051
524.930	19047
524.999	27333
525.069	48648
525.138	22206
525.207	18913
525.277	19215
525.346	26403
525.415	20799
525.484	26257
525.554	27257
525.623	21348
525.692	21502
525.761	24960
525.830	28083
525.900	33970
525.969	45512
526.038	71123
526.107	136561
526.176	413799
526.245	364048
526.314	154533
526.383	238213
526.452	306197
526.522	508085
526.591	587152
526.660	374824
526.729	171777
526.797	149226
526.867	338960
526.935	1685629
527.004	1919735
527.073	894327
527.142	88802
527.211	42510
527.280	56508
527.349	63590
527.418	25021
527.487	24287
527.555	19945
527.624	17712
527.693	16442
527.762	20280
527.831	17329
527.899	18799
527.968	20152
528.037	22621
528.106	38186
528.174	101176
528.243	53217
528.312	81027
528.380	148205
528.449	32919
528.518	18574
528.586	12392
528.655	14044
528.723	13188
528.792	13242
528.861	16837
528.929	12464
528.998	14744
529.066	11414
529.135	11428
529.203	10972
529.272	11380
529.340	12712
529.409	14710
529.477	11485
529.545	11407
529.614	13840
529.682	10059
529.751	12243
529.819	16320
529.887	14786
529.956	14401
530.024	14716
530.092	14034
530.161	29082
530.229	78443
530.297	30031
530.365	13864
530.434	12761
530.502	10107
530.570	12364
530.638	10545
530.707	19787
530.775	19739
530.843	12201
530.911	12563
530.979	12288
531.047	11624
531.115	11571
531.183	11241
531.252	11225
531.320	10995
531.388	11688
531.456	13295
531.524	10595
531.592	12789
531.660	19308
531.728	14646
531.796	13152
531.864	15275
531.932	15891
532.000	18409
532.067	22501
532.135	28225
532.203	34379
532.271	37184
532.339	84485
532.407	335023
532.475	177292
532.542	62244
532.610	64203
532.678	94238
532.746	447482
532.814	1296033
532.881	314098
532.949	42193
533.017	26109
533.084	17312
533.152	14780
533.220	18804
533.287	30142
533.355	17230
533.423	13936
533.490	13152
533.558	14839
533.625	16695
533.693	19319
533.761	20908
533.828	22745
533.896	27231
533.963	84235
534.031	109034
534.098	176321
534.166	61231
534.233	17953
534.300	19709
534.368	19523
534.435	16994
534.503	17917
534.570	17573
534.637	18760
534.705	22150
534.772	25865
534.840	39747
534.907	180035
534.974	260417
535.041	37336
535.109	18886
535.176	14630
535.243	15282
535.310	23367
535.378	20485
535.445	13640
535.512	14082
535.579	14235
535.646	14077
535.714	15280
535.781	20743
535.848	20115
535.915	18140
535.982	16287
536.049	17717
536.116	20323
536.183	21678
536.250	24527
536.317	26034
536.384	35780
536.451	82281
536.518	92646
536.585	47428
536.652	55134
536.719	122313
536.786	100776
536.853	59136
536.920	85039
536.987	183150
537.053	160525
537.120	617272
537.187	550717
537.254	48759
537.321	28261
537.388	28465
537.454	19569
537.521	19305
537.588	18256
537.654	24008
537.721	35601
537.788	37226
537.855	22449
537.921	27129
537.988	27893
538.055	29793
538.121	29060
538.188	32836
538.254	68057
538.321	212805
538.388	115281
538.454	28839
538.521	21616
538.587	20026
538.654	19718
538.720	20455
538.787	19938
538.853	23591
538.920	34597
538.986	33055
539.053	24750
539.119	31464
539.185	34179
539.252	44505
539.318	100420
539.385	55327
539.451	47672
539.517	45873
539.583	49552
539.650	142280
539.716	455625
539.782	119904
539.849	40324
539.915	35441
539.981	43564
540.047	61020
540.114	44470
540.180	40370
540.246	52731
540.312	79420
540.378	189755
540.444	198094
540.510	163000
540.576	539170
540.643	155217
540.709	38112
540.775	32861
540.841	26503
540.907	31410
540.973	40636
541.039	74584
541.105	107819
541.171	42561
541.237	32343
541.303	33395
541.369	44357
541.435	68245
541.500	177209
541.566	105282
541.632	31299
541.698	24772
541.764	23645
541.830	20630
541.896	21546
541.961	27241
542.027	36812
542.093	33806
542.159	34069
542.224	38854
542.290	63693
542.356	158225
542.421	225766
542.487	65290
542.553	36202
542.618	34806
542.684	34462
542.750	36651
542.815	45547
542.881	84791
542.947	436805
543.012	331010
543.078	39399
543.143	30998
543.209	34270
543.274	40218
543.340	46309
543.405	147163
543.471	274293
543.536	47183
543.602	25731
543.667	23355
543.732	23018
543.798	27603
543.863	30385
543.928	20456
543.994	20848
544.059	22199
544.124	22993
544.190	25186
544.255	28092
544.320	30544
544.386	36467
544.451	63228
544.516	90087
544.581	73152
544.646	253315
544.712	440478
544.777	64408
544.842	28582
544.907	22634
544.972	22927
545.037	22641
545.102	25491
545.168	26914
545.233	30099
545.298	35073
545.363	40603
545.428	54544
545.493	136211
545.558	384742
545.623	125943
545.688	31810
545.753	26522
545.818	23354
545.883	24853
545.947	25366
546.012	25004
546.077	24846
546.142	29562
546.207	36045
546.272	67204
546.337	79693
546.401	41768
546.466	33556
546.531	32546
546.596	59460
546.661	101863
546.725	40705
546.790	29312
546.855	35410
546.919	29453
546.984	31486
547.049	38472
547.113	38018
547.178	35789
547.243	41624
547.307	49242
547.372	63347
547.436	54577
547.501	50194
547.565	57577
547.630	86196
547.695	78257
547.759	50760
547.823	48068
547.888	47919
547.952	48036
548.017	51793
548.081	61484
548.146	63976
548.210	53391
548.274	53720
548.339	54211
548.403	49347
548.468	46977
548.532	45368
548.596	46858
548.660	47695
548.725	57205
548.789	66155
548.853	57948
548.917	50675
548.982	49765
549.046	46404
549.110	42058
549.174	42948
549.238	48263
549.303	54113
549.367	58273
549.431	53078
549.495	49930
549.559	51831
549.623	57591
549.687	78165
549.751	120842
549.815	83145
549.879	68720
549.943	64266
550.007	69356
550.071	73433
550.135	96890
550.199	74524
550.263	62592
550.327	73387
550.391	68805
550.455	62385
550.519	66528
550.582	77552
550.646	116440
550.710	121948
550.774	76692
550.838	77146
550.901	78200
550.965	91677
551.029	92520
551.093	92770
551.156	98558
551.220	122697
551.284	162650
551.347	119495
551.411	86522
551.475	80724
551.538	79101
551.602	73885
551.666	74068
551.729	66702
551.793	62068
551.856	61838
551.920	62044
551.983	62436
552.047	62724
552.110	64717
552.174	68047
552.237	66913
552.301	60513
552.364	57118
552.428	56773
552.491	59577
552.554	65748
552.618	64302
552.681	75225
552.745	114496
552.808	118288
552.871	123197
552.934	77585
552.998	61070
553.061	57685
553.124	56260
553.187	55738
553.251	58873
553.314	57757
553.377	57099
553.440	61069
553.503	77062
553.567	92404
553.630	62804
553.693	57845
553.756	60980
553.819	58809
553.882	56165
553.945	55983
554.008	53482
554.071	54935
554.134	58471
554.197	53531
554.260	53659
554.323	61578
554.386	60737
554.449	62739
554.512	58732
554.575	54257
554.638	57759
554.701	52840
554.764	50160
554.827	48341
554.889	47422
554.952	45274
555.015	44712
555.078	45920
555.141	47701
555.203	46968
555.266	46177
555.329	47780
555.391	47384
555.454	55825
555.517	55495
555.580	47566
555.642	57427
555.705	47950
555.768	44467
555.830	43319
555.893	38487
555.955	37535
556.018	40061
556.080	39633
556.143	39456
556.206	40529
556.268	42593
556.330	46969
556.393	45698
556.455	38327
556.518	44354
556.580	52707
556.643	40086
556.705	40298
556.767	43191
556.830	42443
556.892	54914
556.955	116389
557.017	72293
557.079	39566
557.142	41248
557.204	58265
557.266	166612
557.328	126553
557.391	37921
557.453	32091
557.515	33626
557.577	55375
557.639	62425
557.701	37634
557.764	38980
557.826	33757
557.888	34904
557.950	36024
558.012	40664
558.074	53165
558.136	127313
558.198	332502
558.260	118913
558.322	49321
558.384	54479
558.446	63179
558.508	75462
558.570	102553
558.632	215439
558.694	336502
558.756	213133
558.818	588278
558.880	1586172
558.942	480525
559.003	317477
559.065	165421
559.127	69792
559.189	68757
559.251	75029
559.312	102529
559.374	246712
559.436	943716
559.498	475532
559.559	78421
559.621	67191
559.683	71781
559.744	112420
559.806	397293
559.868	644086
559.929	120273
559.991	64467
560.052	92675
560.114	275121
560.176	180750
560.237	162937
560.299	297107
560.360	69354
560.422	26264
560.483	21724
560.545	20463
560.606	22677
560.667	21316
560.729	18918
560.790	17928
560.852	17464
560.913	18620
560.974	18818
561.036	19874
561.097	20384
561.158	23527
561.220	26068
561.281	28696
561.342	31081
561.403	39270
561.465	66879
561.526	229788
561.587	327191
561.648	57451
561.709	26443
561.771	22138
561.832	21778
561.893	21496
561.954	18596
562.015	19379
562.076	20050
562.137	18728
562.198	18523
562.259	19525
562.320	22293
562.381	31239
562.442	63421
562.503	40536
562.564	19745
562.625	18093
562.686	16453
562.747	17323
562.808	16288
562.869	17588
562.930	21620
562.991	39757
563.051	34858
563.112	17400
563.173	17246
563.234	17126
563.294	18923
563.355	20364
563.416	23799
563.477	17415
563.537	17543
563.598	18530
563.659	17970
563.720	21075
563.780	23495
563.841	27704
563.901	17941
563.962	16501
564.023	16586
564.083	19143
564.144	21212
564.204	16010
564.265	15244
564.325	15352
564.386	19151
564.446	21989
564.507	19406
564.567	16407
564.628	16140
564.688	15941
564.749	16732
564.809	20257
564.869	21484
564.930	17420
564.990	19508
565.050	18059
565.111	17834
565.171	17413
565.231	18237
565.292	16543
565.352	17329
565.412	18153
565.472	20932
565.532	28377
565.593	23246
565.653	18287
565.713	18632
565.773	24592
565.833	44577
565.893	65493
565.953	26466
566.013	19610
566.074	20622
566.134	22942
566.194	33218
566.254	71397
566.314	68464
566.374	21180
566.434	17361
566.494	16022
566.554	17389
566.614	17424
566.673	17207
566.733	18781
566.793	17084
566.853	16379
566.913	16246
566.973	15808
567.033	16056
567.092	15977
567.152	19515
567.212	19412
567.272	17011
567.331	15954
567.391	16728
567.451	17683
567.511	22627
567.570	20482
567.630	17079
567.690	16493
567.749	16677
567.809	17159
567.868	22104
567.928	21874
567.988	19238
568.047	20343
568.107	21903
568.166	27265
568.226	38920
568.285	55293
568.345	42448
568.404	34542
568.464	31414
568.523	29161
568.582	32243
568.642	40806
568.701	40919
568.761	50775
568.820	82322
568.879	75449
568.939	48099
568.998	36037
569.057	29684
569.116	25295
569.176	23414
569.235	19552
569.294	19066
569.353	20074
569.413	18128
569.472	15368
569.531	15700
569.590	15719
569.649	15122
569.708	14867
569.767	16240
569.827	16860
569.886	14890
569.945	15077
570.004	18037
570.063	16933
570.122	23523
570.181	22939
570.240	15861
570.299	16710
570.358	15274
570.417	16829
570.475	18302
570.534	21871
570.593	29194
570.652	28077
570.711	23121
570.770	19629
570.829	22471
570.887	29518
570.946	40481
571.005	19820
571.064	17156
571.122	19555
571.181	21096
571.240	16114
571.299	14254
571.357	14838
571.416	16329
571.475	17005
571.533	16559
571.592	14140
571.650	14418
571.709	15267
571.768	20749
571.826	18304
571.885	14660
571.943	14176
572.002	14669
572.060	14406
572.119	12767
572.177	13334
572.236	11673
572.294	12348
572.352	13277
572.411	13559
572.469	12871
572.528	12057
572.586	12748
572.644	12669
572.703	13180
572.761	12346
572.819	12758
572.877	14224
572.936	13554
572.994	13527
573.052	11914
573.110	14643
573.169	16966
573.227	14900
573.285	12680
573.343	11647
573.401	12898
573.459	12978
573.517	12008
573.576	12956
573.634	12324
573.692	13245
573.750	12698
573.808	12573
573.866	12300
573.924	12715
573.982	13424
574.040	11659
574.098	12082
574.155	12469
574.213	12725
574.271	12702
574.329	13905
574.387	15290
574.445	12098
574.503	11541
574.560	11016
574.618	11388
574.676	12867
574.734	13433
574.792	13902
574.849	11239
574.907	11423
574.965	11492
575.022	11577
575.080	12110
575.138	13734
575.195	15174
575.253	16630
575.311	24480
575.368	15016
575.426	12120
575.483	12453
575.541	10913
575.598	11195
575.656	11354
575.713	12739
575.771	12527
575.828	11081
575.886	11377
575.943	11693
576.001	11620
576.058	12277
576.115	13327
576.173	14623
576.230	21095
576.287	36241
576.345	23792
576.402	13225
576.459	12908
576.517	11655
576.574	13501
576.631	12031
576.688	9913
576.746	10068
576.803	9150
576.860	9654
576.917	11100
576.974	10561
577.031	10067
577.089	9426
577.146	10379
577.203	10875
577.260	10816
577.317	11779
577.374	11763
577.431	11928
577.488	13217
577.545	12295
577.602	9966
577.659	10253
577.716	9678
577.773	9668
577.830	9299
577.886	11052
577.943	9631
578.000	10884
578.057	11976
578.114	11230
578.171	11787
578.227	9964
578.284	9594
578.341	10965
578.398	10507
578.454	11007
578.511	11731
578.568	11475
578.625	10457
578.681	10313
578.738	11179
578.794	10717
578.851	10291
578.908	11259
578.964	12808
579.021	12573
579.077	12009
579.134	12307
579.190	11012
579.247	10984
579.303	11209
579.360	11904
579.416	11792
579.473	10205
579.529	8885
579.586	9867
579.642	11108
579.698	10752
579.755	10755
579.811	12721
579.867	11509
579.924	10469
579.980	10345
580.036	11153
580.093	11087
580.149	10445
580.205	10624
580.261	10749
580.317	10451
580.374	12250
580.430	11660
580.486	12496
580.542	10439
580.598	11819
580.619	12240
580.654	12983
580.692	12476
580.710	12243
580.765	12319
580.767	12333
580.823	11464
580.838	11607
580.879	12021
580.911	12304
580.935	12526
580.984	11719
580.991	11627
581.047	9792
581.057	9803
581.103	9896
581.130	10254
581.159	10612
581.203	10984
581.215	11101
581.270	10548
581.276	10535
581.326	10477
581.349	10548
581.382	10659
581.422	10797
581.438	10872
581.494	11298
581.494	11303
581.550	12585
581.567	13590
581.606	15646
581.640	14680
581.661	14096
581.713	12006
581.717	11852
581.773	10652
581.786	10625
581.829	10611
581.859	10546
581.885	10511
581.932	10597
581.940	10589
581.996	10378
582.004	10510
582.052	11445
582.077	11205
582.107	10884
582.150	10938
582.163	10954
582.219	10819
582.223	10788
582.274	10459
582.296	10474
582.330	10470
582.368	10773
582.386	10992
582.441	10045
582.441	10044
582.497	11122
582.514	10865
582.552	10588
582.587	11316
582.608	11689
582.659	11820
582.663	11820
582.719	11578
582.732	11446
582.774	11051
582.805	11085
582.830	11194
582.877	10480
582.885	10360
582.941	10618
582.950	10549
582.996	10054
583.023	10458
583.052	11118
583.095	11266
583.107	11255
583.162	10923
583.168	10938
583.218	10918
583.240	11074
583.273	11370
583.313	10934
583.328	10818
583.384	11433
583.385	11421
583.439	10715
583.458	10930
583.494	11391
583.531	10887
583.549	10740
583.603	11526
583.605	11536
583.660	10631
583.676	10573
583.715	10794
583.748	11230
583.770	11454
583.820	11950
583.825	11985
583.881	11193
583.893	11163
583.936	11023
583.965	10820
583.991	10615
584.038	10763
584.046	10852
584.101	10900
584.110	11025
584.156	11381
584.183	11283
584.211	11284
584.255	11598
584.266	11627
584.321	11339
584.328	11342
584.376	11510
584.400	11488
584.431	11486
584.472	11720
584.486	11818
584.541	11836
584.545	11854
584.596	11817
584.617	11757
584.651	11955
584.689	12315
584.706	12515
584.761	13487
584.762	13492
584.816	13804
584.834	13746
584.871	13850
584.906	14211
584.926	14300
584.978	14077
584.980	14074
585.035	15113
585.051	15258
585.090	16311
585.123	17967
585.145	18913
585.195	19720
585.200	19847
585.254	22867
585.267	23621
585.309	26021
585.340	28527
585.364	30438
585.412	32400
585.419	32757
585.473	37550
585.484	38663
585.528	46089
585.556	55001
585.583	73279
585.628	118322
585.637	135101
585.692	291437
585.700	319785
585.747	416515
585.772	340913
585.801	201257
585.845	68509
585.856	53244
585.910	35246
585.917	33560
585.965	29554
585.989	27036
586.019	24097
586.061	21611
586.074	21514
586.128	23408
586.133	23637
586.183	27187
586.205	28321
586.237	27525
586.277	22999
586.292	21415
586.346	18323
586.349	18217
586.401	18262
586.421	18269
586.455	18148
586.493	17867
586.509	17928
586.564	17863
586.565	17890
586.618	20169
586.637	20766
586.672	21740
586.709	22195
586.727	22524
586.781	24027
586.781	24038
586.835	21458
586.853	20923
586.889	20062
586.925	19230
586.944	19039
586.996	18676
586.998	18708
587.052	19966
587.068	20346
587.106	20654
587.140	20365
587.161	20413
587.212	21188
587.215	21215
587.269	21387
587.284	21242
587.323	21158
587.356	21461
587.377	21865
587.427	23318
587.431	23390
587.485	23384
587.499	23381
587.539	24020
587.571	24175
587.593	24521
587.643	26704
587.648	26876
587.702	27148
587.715	27437
587.755	28685
587.786	29444
587.810	29958
587.858	30662
587.864	30900
587.917	33412
587.930	33920
587.971	35272
588.001	36329
588.025	37636
588.073	40354
588.079	40779
588.133	44787
588.145	45649
588.187	49591
588.217	52305
588.241	55493
588.288	62900
588.295	64237
588.348	76987
588.360	79440
588.402	87563
588.431	93729
588.456	99955
588.503	113388
588.510	115765
588.564	136521
588.575	141324
588.617	163840
588.646	180207
588.671	200145
588.718	243371
588.725	256043
588.778	370337
588.789	400153
588.832	664209
588.861	879399
588.886	1220164
588.932	1979894
588.939	2032730
588.993	2283491
589.004	2248544
589.047	1401114
589.075	865114
589.100	627526
589.147	320665
589.154	306781
589.207	235556
589.218	223236
589.261	215652
589.290	214750
589.314	226228
589.361	257270
589.368	272641
589.421	416014
589.433	453998
589.475	822233
589.504	1126415
589.528	1417530
589.576	1994462
589.582	1942550
589.635	1102803
589.647	925418
589.689	471314
589.718	221101
589.742	177107
589.790	109319
589.795	105986
589.849	80034
589.861	74788
589.902	64948
589.932	58241
589.955	55127
590.004	48799
590.009	48459
590.062	45193
590.075	44259
590.115	41377
590.146	39467
590.168	38964
590.218	37703
590.222	37676
590.275	36877
590.289	36571
590.328	36136
590.360	35511
590.381	34975
590.431	33978
590.435	34019
590.488	33850
590.503	33880
590.541	34767
590.574	35229
590.594	34492
590.645	32219
590.647	32213
590.700	30859
590.716	30420
590.753	29980
590.787	29714
590.806	29745
590.859	29741
590.859	29786
590.912	29793
590.930	29929
590.965	30534
591.001	30843
591.018	30782
591.071	30637
591.072	30592
591.124	31448
591.143	31712
591.177	32266
591.214	32830
591.230	34037
591.283	38160
591.285	38248
591.336	43079
591.356	45205
591.389	45782
591.427	45224
591.442	42554
591.495	32312
591.498	31543
591.547	30999
591.569	30746
591.600	30399
591.640	29664
591.653	29581
591.706	29075
591.711	28975
591.759	29299
591.782	29423
591.811	29825
591.853	30272
591.864	30314
591.917	30230
591.924	30163
591.969	30547
591.995	30642
592.022	30275
592.066	29657
592.075	29789
592.127	30218
592.137	30239
592.180	29944
592.208	29688
592.233	29567
592.279	29200
592.285	29309
592.338	29818
592.350	29882
592.390	30162
592.421	30293
592.443	30148
592.491	29669
592.495	29768
592.548	30513
592.562	30670
592.600	30816
592.633	30860
592.653	31436
592.704	32625
592.705	32838
592.775	34161
592.846	35565
592.916	41147
592.987	50275
593.058	40106
593.128	32721
593.199	32496
593.270	32551
593.341	32491
593.411	37207
593.482	37877
593.553	33398
593.623	31888
593.694	32137
593.764	32201
593.835	32962
593.906	34566
593.976	34176
594.047	34724
594.117	36867
594.188	35077
594.258	35539
594.329	35818
594.399	35123
594.470	37076
594.540	39286
594.611	39474
594.681	38228
594.751	39398
594.822	44475
594.892	46571
594.963	43129
595.033	41935
595.103	41349
595.174	42222
595.244	46504
595.314	44354
595.384	42034
595.455	42364
595.525	44411
595.595	47531
595.665	48151
595.736	46322
595.806	46183
595.876	45596
595.946	45658
596.016	46476
596.087	47972
596.157	47864
596.227	48224
596.297	48101
596.367	52501
596.437	54228
596.507	53673
596.577	53843
596.647	54026
596.717	56250
596.787	57251
596.857	58248
596.927	59058
596.997	60131
597.067	66417
597.137	89648
597.207	125325
597.277	106984
597.347	88566
597.417	81552
597.487	77844
597.557	75024
597.626	72786
597.696	68933
597.766	63886
597.836	61102
597.906	57585
597.975	57889
598.045	61482
598.115	63597
598.185	68108
598.254	75636
598.324	87186
598.394	91867
598.464	91864
598.533	81445
598.603	79701
598.672	92895
598.742	119120
598.812	112452
598.881	95358
598.951	86796
599.020	83812
599.090	81085
599.159	80056
599.229	77220
599.299	72034
599.368	73801
599.437	72212
599.507	69466
599.576	69728
599.646	68243
599.715	68975
599.785	68093
599.854	65961
599.924	64368
599.993	64286
600.062	63518
600.132	67256
600.201	74768
600.270	97503
600.340	117762
600.409	104243
600.478	92437
600.547	87894
600.617	77966
600.686	69926
600.755	71199
600.824	75033
600.894	67874
600.963	58126
601.032	57551
601.101	56895
601.170	54994
601.239	60009
601.308	77768
601.378	68548
601.447	54738
601.516	57357
601.585	74084
601.654	95476
601.723	60507
601.792	57023
601.861	62471
601.930	85599
601.999	104483
602.068	89484
602.137	116250
602.206	100867
602.275	77778
602.343	96735
602.412	90717
602.481	60821
602.550	56867
602.619	59001
602.688	64383
602.756	58062
602.825	54998
602.894	56432
602.963	58254
603.032	57777
603.100	57489
603.169	57932
603.238	57409
603.307	58453
603.375	58524
603.444	58986
603.513	61095
603.581	66971
603.650	79666
603.719	72084
603.787	67207
603.856	66565
603.924	64773
603.993	67005
604.061	67285
604.130	72222
604.198	74297
604.267	72515
604.335	70778
604.404	71213
604.472	72299
604.541	72989
604.609	73608
604.678	73854
604.746	72945
604.815	76238
604.883	76177
604.951	75431
605.020	77807
605.088	78259
605.156	80319
605.225	82591
605.293	85027
605.361	95673
605.429	93560
605.498	95604
605.566	98151
605.634	94085
605.702	92637
605.771	91966
605.839	92483
605.907	90210
605.975	87771
606.043	86699
606.111	86366
606.180	85741
606.248	86415
606.316	87028
606.384	86420
606.452	101124
606.520	131330
606.588	101794
606.656	91079
606.724	87920
606.792	82711
606.860	75170
606.928	70754
606.996	69133
607.064	69279
607.132	71695
607.200	76198
607.267	79275
607.335	76991
607.403	77845
607.471	74516
607.539	72760
607.607	74211
607.674	67862
607.742	72049
607.810	77426
607.878	73578
607.946	68179
608.013	69723
608.081	69560
608.149	70920
608.216	72964
608.284	74622
608.352	73127
608.419	71673
608.487	72626
608.555	70712
608.622	74317
608.690	78258
608.757	85618
608.825	87465
608.893	88349
608.960	85270
609.028	77813
609.095	76705
609.163	75572
609.230	68564
609.298	65767
609.365	69821
609.432	73556
609.500	79468
609.567	89498
609.635	104700
609.702	109043
609.769	103507
609.837	80395
609.904	73894
609.971	78364
610.039	92046
610.106	129504
610.173	258221
610.241	584602
610.308	279689
610.375	98679
610.442	78391
610.509	73098
610.577	73473
610.644	73668
610.711	78466
610.778	81812
610.845	82888
610.912	86192
610.980	87424
611.047	87495
611.114	85351
611.181	82875
611.248	81128
611.315	86865
611.382	89124
611.449	94655
611.516	96578
611.583	95534
611.650	94974
611.717	95080
611.784	100516
611.851	106274
611.918	121372
611.984	150905
612.051	236165
612.118	521309
612.185	1344823
612.252	684503
612.319	157571
612.386	123336
612.452	112669
612.519	104409
612.586	102734
612.653	105571
612.719	110118
612.786	105568
612.853	95562
612.919	94469
612.986	97576
613.053	96096
613.120	106866
613.186	144248
613.253	139639
613.319	116314
613.386	106011
613.453	105773
613.519	111424
613.586	144733
613.652	188947
613.719	156810
613.785	134643
613.852	102965
613.918	95803
613.985	99630
614.051	107731
614.118	131046
614.184	122346
614.250	95942
614.317	94448
614.383	93941
614.449	94175
614.516	95294
614.582	95762
614.648	96876
614.715	102168
614.781	119088
614.847	136518
614.914	114504
614.980	102735
615.046	98426
615.112	99311
615.179	100312
615.245	99725
615.311	98746
615.377	104788
615.443	106665
615.509	101457
615.575	102771
615.642	103577
615.708	110701
615.774	118897
615.840	123217
615.906	142642
615.972	188912
616.038	311244
616.104	688951
616.170	1744351
616.236	1251938
616.302	247689
616.368	180260
616.434	141712
616.500	153624
616.565	156962
616.631	178343
616.697	139772
616.763	147867
616.829	226687
616.895	404652
616.961	349734
617.026	151045
617.092	107343
617.158	99230
617.224	94951
617.289	90068
617.355	85404
617.421	79847
617.487	80750
617.552	77403
617.618	76242
617.684	74604
617.749	76977
617.815	73091
617.880	70761
617.946	72291
618.012	74863
618.077	75477
618.143	77847
618.208	92971
618.274	90169
618.339	82808
618.405	68818
618.470	68050
618.536	68162
618.601	66248
618.667	61987
618.732	61739
618.798	61187
618.863	60712
618.928	62883
618.994	71889
619.059	95470
619.124	167394
619.190	102793
619.255	59407
619.320	57202
619.386	55114
619.451	54247
619.516	53636
619.581	53359
619.647	53666
619.712	54089
619.777	52321
619.842	54424
619.907	61525
619.972	71691
620.038	64848
620.103	57618
620.168	53819
620.233	54622
620.298	53759
620.363	54319
620.428	55822
620.493	55255
620.558	55937
620.623	55825
620.688	55949
620.753	55465
620.818	56849
620.883	56215
620.948	55134
621.013	56402
621.078	55805
621.143	53748
621.207	58730
621.272	58335
621.337	59906
621.402	55093
621.467	54788
621.532	53356
621.596	52976
621.661	52405
621.726	55347
621.791	62661
621.855	64100
621.920	65411
621.985	54704
622.049	55904
622.114	59376
622.179	61867
622.243	64502
622.308	55967
622.373	58411
622.437	55696
622.502	53398
622.566	52107
622.631	51786
622.695	55329
622.760	54908
622.824	55050
622.889	59775
622.953	72747
623.018	127783
623.082	112230
623.147	61555
623.211	63368
623.276	61893
623.340	52461
623.404	50653
623.469	50347
623.533	50991
623.597	51064
623.662	56128
623.726	49966
623.790	46202
623.854	45441
623.919	46115
623.983	46681
624.047	47976
624.111	45976
624.176	46221
624.240	46129
624.304	49372
624.368	47178
624.432	48899
624.496	53400
624.560	69970
624.625	78740
624.689	54011
624.753	51365
624.817	49361
624.881	46829
624.945	44442
625.009	45124
625.073	49655
625.137	54358
625.201	83102
625.265	76040
625.329	51687
625.393	57782
625.456	51073
625.520	50612
625.584	54344
625.648	52646
625.712	51094
625.776	52178
625.839	50836
625.903	42251
625.967	38868
626.031	44200
626.095	48125
626.158	43362
626.222	35249
626.286	33791
626.349	32267
626.413	32920
626.477	42164
626.540	33517
626.604	29760
626.668	30982
626.731	29741
626.795	29333
626.858	29975
626.922	28748
626.986	31638
627.049	29492
627.113	31014
627.176	29825
627.240	29556
627.303	29502
627.366	29254
627.430	30017
627.493	31798
627.557	29081
627.620	31167
627.684	31655
627.747	31353
627.810	27198
627.874	28027
627.937	25475
628.000	29030
628.064	28109
628.127	22956
628.190	24416
628.253	24367
628.317	22654
628.380	23635
628.443	21430
628.506	21672
628.569	22194
628.632	20934
628.696	20015
628.759	19931
628.822	19948
628.885	19364
628.948	20080
629.011	22846
629.074	23696
629.137	20230
629.200	18598
629.263	19812
629.326	17001
629.389	17938
629.452	19123
629.515	18235
629.578	19385
629.641	20368
629.704	21371
629.767	23321
629.830	19442
629.892	18644
629.955	19344
630.018	26132
630.081	37548
630.144	50625
630.207	31211
630.269	25095
630.332	17070
630.395	18190
630.458	18311
630.520	17388
630.583	17141
630.646	17002
630.708	16044
630.771	15836
630.834	18668
630.896	16586
630.959	16200
631.021	16247
631.084	15925
631.146	16650
631.209	16533
631.272	16743
631.334	17532
631.397	18320
631.459	20525
631.522	26451
631.584	23532
631.646	24303
631.709	29504
631.771	41325
631.834	27143
631.896	21324
631.958	17996
632.021	19199
632.083	16643
632.145	18023
632.208	20207
632.270	21174
632.332	16083
632.395	15061
632.457	16156
632.519	15766
632.581	16925
632.643	14702
632.706	15279
632.768	14125
632.830	16211
632.892	15749
632.954	15251
633.016	17490
633.078	16706
633.141	15921
633.203	16125
633.265	16240
633.327	16442
633.389	17852
633.451	25360
633.513	36339
633.575	25093
633.637	35963
633.698	29361
633.760	19678
633.822	20169
633.884	20881
633.946	19073
634.008	19714
634.070	20826
634.132	22624
634.193	23200
634.255	25056
634.317	26951
634.379	28901
634.441	22880
634.502	20838
634.564	21226
634.626	24390
634.687	25706
634.749	18211
634.811	16373
634.873	15939
634.934	15914
634.996	15745
635.057	15009
635.119	14763
635.181	15487
635.242	17618
635.304	14304
635.365	19067
635.427	17186
635.488	20171
635.550	15567
635.611	16010
635.673	14316
635.734	18985
635.796	19571
635.857	23877
635.918	21594
635.980	26066
636.041	24455
636.102	28901
636.164	28788
636.225	29141
636.286	22906
636.348	21420
636.409	19525
636.470	17669
636.531	16687
636.593	15491
636.654	14460
636.715	14142
636.776	13327
636.838	13745
636.899	14095
636.960	13594
637.021	14428
637.082	17154
637.143	15144
637.204	12241
637.265	12598
637.326	12643
637.387	12501
637.448	11329
637.509	13279
637.570	12008
637.631	13990
637.692	10344
637.753	11161
637.814	12589
637.875	11384
637.936	12460
637.997	12228
638.058	13805
638.119	12017
638.179	11127
638.240	10292
638.301	11001
638.362	10922
638.423	10799
638.483	11987
638.544	9059
638.605	11361
638.666	10427
638.726	11207
638.787	12323
638.848	10013
638.908	10223
638.969	10826
639.030	10733
639.090	10724
639.151	14125
639.211	17505
639.272	29689
639.332	62388
639.393	24349
639.453	11796
639.514	12511
639.574	11116
639.635	10012
639.695	11904
639.756	12635
639.816	18317
639.877	28887
639.937	65431
639.997	85172
640.058	20755
640.118	11796
640.178	15393
640.239	10990
640.299	10480
640.359	10438
640.420	11950
640.480	12499
640.540	15161
640.600	14569
640.661	14490
640.721	17870
640.781	26470
640.841	13769
640.901	11816
640.961	14102
641.021	16996
641.082	27795
641.142	47854
641.202	22083
641.262	9507
641.322	11831
641.382	8585
641.442	9723
641.502	9638
641.562	10257
641.622	9909
641.682	10951
641.742	13773
641.802	12973
641.861	13632
641.921	16595
641.981	24086
642.041	20281
642.101	30806
642.161	15041
642.221	9801
642.280	9134
642.340	8314
642.400	8473
642.460	9727
642.519	8307
642.579	8971
642.639	10409
642.698	6385
642.758	10914
642.818	9860
642.877	9232
642.937	13035
642.997	20353
643.056	39057
643.116	16678
643.175	12966
643.235	12540
643.294	15294
643.354	21665
643.414	38320
643.473	78801
643.532	39853
643.592	39624
643.651	65152
643.711	115082
643.770	229102
643.830	576287
643.889	1166573
643.948	222568
644.008	35709
644.067	23241
644.126	16886
644.186	15305
644.245	13068
644.304	10111
644.363	12792
644.423	9463
644.482	10996
644.541	11365
644.600	11019
644.659	14809
644.719	18503
644.778	29011
644.837	49799
644.896	108166
644.955	239574
645.014	68029
645.073	16297
645.132	12371
645.191	10440
645.250	10830
645.309	12283
645.368	11482
645.427	16745
645.486	26644
645.545	44276
645.604	14649
645.663	11428
645.722	11461
645.781	13618
645.840	17199
645.898	22141
645.957	35039
646.016	54801
646.075	102062
646.134	200093
646.192	572845
646.251	769508
646.310	95928
646.369	24970
646.427	20451
646.486	14552
646.545	12007
646.603	11513
646.662	9944
646.721	10518
646.779	10349
646.838	11039
646.896	15728
646.955	19451
647.014	29179
647.072	55398
647.131	150729
647.189	62447
647.248	11643
647.306	9013
647.365	8821
647.423	6051
647.481	9412
647.540	7843
647.598	6897
647.657	6736
647.715	7733
647.773	5741
647.832	7063
647.890	5349
647.948	6650
648.007	6852
648.065	5968
648.123	7664
648.181	9282
648.240	7435
648.298	6116
648.356	6815
648.414	7898
648.472	6709
648.531	7613
648.589	7179
648.647	7236
648.705	7325
648.763	6749
648.821	8973
648.879	10222
648.937	11189
648.995	12974
649.053	17745
649.111	28627
649.169	44129
649.227	77451
649.285	165752
649.343	464083
649.401	210557
649.459	103576
649.516	55228
649.574	20838
649.632	28604
649.690	27443
649.748	18236
649.806	20788
649.863	39970
649.921	105703
649.979	62895
650.037	11716
650.094	6788
650.152	8291
650.210	5689
650.268	5989
650.325	6064
650.383	6314
650.440	4726
650.498	5652
650.556	5454
650.613	4594
650.671	5395
650.728	5270
650.786	4746
650.843	6379
650.901	3783
650.958	5337
651.016	4959
651.073	4080
651.131	3300
651.188	3719
651.246	4928
651.303	4126
651.360	4728
651.418	4216
651.475	4966
651.532	3909
651.590	5162
651.647	4115
651.704	4778
651.762	5118
651.819	7031
651.876	5586
651.933	3888
651.990	5116
652.048	2513
652.105	3738
652.162	4120
652.219	4227
652.276	4625
652.333	5097
652.390	4180
652.448	4370
652.505	4491
652.562	3934
652.619	3702
652.676	5530
652.733	5779
652.790	4323
652.847	3243
652.904	4411
652.961	3224
653.017	3764
653.074	5075
653.131	3916
653.188	3669
653.245	4553
653.302	4908
653.359	5428
653.415	5091
653.472	4244
653.529	5380
653.586	3695
653.642	4034
653.699	5337
653.756	4889
653.813	7066
653.869	6001
653.926	3721
653.983	3056
654.039	4659
654.096	3586
654.152	5352
654.209	3378
654.266	4329
654.322	3293
654.379	5128
654.435	6004
654.492	6706
654.548	12267
654.605	21269
654.661	7255
654.717	4780
654.774	4481
654.830	4116
654.887	3777
654.943	4379
655.000	4249
655.056	4638
655.112	4131
655.168	3658
655.225	4423
655.281	4482
655.337	4710
655.394	4102
655.450	5294
655.506	5305
655.562	4838
655.618	6632
655.675	5520
655.731	7379
655.787	5608
655.843	6877
655.899	5360
655.955	7171
656.011	8431
656.067	8397
656.123	10870
656.179	12500
656.235	13762
656.291	11161
656.347	11665
656.403	9237
656.459	7870
656.515	7299
656.571	6597
656.627	5337
656.683	6113
656.739	6609
656.795	7545
656.850	9382
656.906	12630
656.962	8753
657.018	4421
657.074	5091
657.129	5602
657.185	7763
657.241	12291
657.297	8151
657.352	5380
657.408	4253
657.464	6378
657.519	4407
657.575	3238
657.630	3911
657.686	4272
657.742	3224
657.797	3299
657.853	3121
657.908	5307
657.964	3304
658.019	3419
658.075	3983
658.130	3816
658.186	2210
658.241	3328
658.297	2603
658.352	3218
658.407	3856
658.463	3301
658.518	3073
658.573	3176
658.629	2388
658.684	2850
658.739	3631
658.795	2566
658.850	2957
658.905	2444
658.960	3696
659.016	2713
659.071	4785
659.126	5984
659.181	8423
659.236	20001
659.291	21146
659.346	9051
659.401	5977
659.457	4372
659.512	3599
659.567	4217
659.622	3198
659.677	3235
659.732	3979
659.787	3623
659.842	2759
659.897	3346
659.952	3883
660.007	1737
660.061	2789
660.116	1830
660.171	1932
660.226	3035
660.281	3373
660.336	2409
660.391	3012
660.445	3033
660.500	4002
660.555	2263
660.610	2034
660.664	3295
660.719	3552
660.774	2837
660.828	3862
660.883	5215
660.938	3518
660.992	2854
661.047	3354
661.101	2314
661.156	3292
661.211	1899
661.265	4113
661.320	5070
661.374	4697
661.429	2859
661.483	3895
661.538	1906
661.592	2227
661.647	3095
661.701	3285
661.755	2524
661.810	1987
661.864	2612
661.919	2573
661.973	2272
662.027	2159
662.081	2622
662.136	1959
662.190	3221
662.244	3433
662.299	2393
662.353	2244
662.407	2746
662.461	2375
662.515	3121
662.569	2928
662.624	3049
662.678	1851
662.732	3172
662.786	3054
662.840	2361
662.894	2355
662.948	2632
663.002	2606
663.056	2564
663.110	3031
663.164	2936
663.218	3911
663.272	4500
663.326	6751
663.380	5209
663.434	4075
663.488	2931
663.542	2863
663.595	2494
663.649	3246
663.703	3350
663.757	2670
663.811	2285
663.864	2866
663.918	3261
663.972	3327
664.026	2311
664.079	2471
664.133	2603
664.187	1941
664.240	2496
664.294	2701
664.348	2865
664.401	3701
664.455	2864
664.508	3275
664.562	2183
664.615	2921
664.669	2377
664.722	1962
664.776	2716
664.829	2891
664.883	2550
664.936	3420
664.990	3162
665.043	4600
665.097	2072
665.150	3948
665.203	2048
665.257	2752
665.310	2785
665.363	2764
665.417	3002
665.470	2766
665.523	3079
665.576	2833
665.630	2374
665.683	2424
665.736	2857
665.789	2417
665.842	2249
665.895	3097
665.949	2446
666.002	2834
666.055	2513
666.108	3008
666.161	2256
666.214	4148
666.267	5643
666.320	8010
666.373	4387
666.426	2704
666.479	2848
666.532	2252
666.585	2987
666.638	2425
666.691	2642
666.744	3141
666.796	1751
666.849	2355
666.902	2297
666.955	3009
667.008	1620
667.060	1540
667.113	2438
667.166	2145
667.219	2141
667.271	1734
667.324	2347
667.377	2875
667.430	2886
667.482	3112
667.535	3348
667.587	4323
667.640	5561
667.693	9603
667.745	23414
667.798	22927
667.850	3967
667.903	3338
667.955	2597
668.008	2015
668.060	2557
668.113	2908
668.165	1144
668.218	2157
668.270	1872
668.322	1913
668.375	2156
668.427	3062
668.479	1945
668.532	2270
668.584	1945
668.636	3555
668.689	5042
668.741	5749
668.793	3024
668.845	2697
668.898	2004
668.950	2678
669.002	1999
669.054	2688
669.106	1821
669.158	2708
669.211	1814
669.263	2715
669.315	3268
669.367	4082
669.419	4571
669.471	6433
669.523	8902
669.575	15196
669.627	9727
669.679	4914
669.731	4472
669.783	6940
669.835	9183
669.886	6894
669.938	4820
669.990	4105
670.042	4432
670.094	2304
670.146	2973
670.197	2560
670.249	3004
670.301	3757
670.353	5933
670.404	6806
670.456	10017
670.508	13996
670.560	20005
670.611	31619
670.663	52767
670.715	133553
670.766	207349
670.818	58464
670.869	9915
670.921	5827
670.972	4670
671.024	3944
671.075	3433
671.127	4306
671.178	3067
671.230	4012
671.281	5055
671.333	4776
671.384	4177
671.436	4816
671.487	6366
671.538	8404
671.590	12957
671.641	19257
671.692	36950
671.744	71590
671.795	41378
671.846	12626
671.897	6353
671.949	4449
672.000	2647
672.051	2846
672.102	3247
672.153	2373
672.204	2225
672.256	3008
672.307	2662
672.358	2367
672.409	1694
672.460	2227
672.511	2596
672.562	3473
672.613	3075
672.664	2843
672.715	2314
672.766	1745
672.817	1889
672.868	2117
672.919	2644
672.970	1194
673.021	1462
673.071	1617
673.122	1740
673.173	2169
673.224	2333
673.275	2550
673.326	1858
673.376	1673
673.427	1934
673.478	1904
673.528	2761
673.579	2629
673.630	1746
673.680	2863
673.731	1723
673.782	1985
673.832	2714
673.883	2104
673.934	1197
673.984	1677
674.035	1192
674.085	1375
674.136	2374
674.186	1505
674.237	1877
674.287	1687
674.338	1481
674.388	1552
674.438	982
674.489	2162
674.539	2217
674.589	2236
674.640	1061
674.690	1871
674.740	2121
674.791	1300
674.841	1531
674.891	2727
674.942	2076
674.992	3935
675.042	2373
675.092	1513
675.142	963
675.193	1964
675.243	1612
675.293	1825
675.343	1507
675.393	1171
675.443	1519
675.493	1629
675.543	1312
675.593	1573
675.643	1258
675.693	1334
675.743	1662
675.793	478
675.843	504
675.893	993
675.943	1425
675.993	1932
676.043	1221
676.093	2008
676.142	1451
676.192	1485
676.242	919
676.292	1019
676.341	852
676.391	550
676.441	190
676.491	1299
676.540	949
676.590	1962
676.640	900
676.689	464
676.739	562
676.789	1126
676.838	256
676.888	1432
676.937	661
676.987	929
677.037	1104
677.086	220
677.136	993
677.185	787
677.235	556
677.284	1070
677.333	908
677.383	1002
677.432	584
677.482	1825
677.531	972
677.580	985
677.630	1096
677.679	1028
677.728	1396
677.778	1769
677.827	1069
677.876	1430
677.925	1197
677.975	1270
678.024	948
678.073	1805
678.122	1519
678.171	1047
678.220	1411
678.269	1193
678.319	1813
678.368	1931
678.417	1132
678.466	1450
678.515	1163
678.564	839
678.613	1193
678.662	1279
678.711	1014
678.760	1162
678.809	1084
678.857	527
678.906	1384
678.955	324
679.004	1427
679.053	655
679.102	897
679.151	1656
679.199	1776
679.248	1479
679.297	2739
679.346	4568
679.394	1377
679.443	2098
679.492	2060
679.540	1715
679.589	1271
679.638	1115
679.686	518
679.735	1374
679.784	1320
679.832	1641
679.881	1464
679.929	2783
679.978	1107
680.026	580
680.075	1513
680.123	905
680.172	652
680.220	881
680.268	1152
680.317	758
680.365	1170
680.414	1416
680.462	1227
680.510	1467
680.559	301
680.607	686
680.655	574
680.703	1459
680.752	816
680.800	1015
680.848	1320
680.896	1199
680.945	999
680.993	1615
681.041	1249
681.089	1648
681.137	1413
681.185	1226
681.233	-271
681.258	258
681.281	748
681.329	484
681.377	1029
681.380	1025
681.425	753
681.473	2052
681.502	1559
681.521	1191
681.569	1428
681.617	543
681.624	643
681.665	1247
681.713	1420
681.745	1218
681.761	1102
681.809	1099
681.857	1217
681.867	1143
681.904	855
681.952	763
681.989	1386
682.000	1556
682.048	891
682.096	474
682.111	803
682.143	1438
682.191	1139
682.233	1262
682.239	1276
682.286	1364
682.334	1182
682.354	991
682.382	711
682.430	1343
682.476	840
682.477	820
682.525	834
682.572	958
682.598	1011
682.620	1086
682.667	1235
682.715	1271
682.720	1365
682.763	2102
682.810	2971
682.841	2193
682.857	1688
682.905	1327
682.952	2128
682.963	1998
683.000	1616
683.047	783
683.085	2195
683.095	2582
683.142	1344
683.190	1753
683.206	1655
683.237	1426
683.284	1699
683.328	1434
683.332	1401
683.379	1810
683.426	1078
683.449	1241
683.473	1427
683.521	1408
683.568	1695
683.571	1665
683.615	1087
683.662	2163
683.693	1570
683.709	1260
683.757	870
683.804	2472
683.814	2537
683.851	2739
683.898	2662
683.936	2700
683.945	2732
683.992	2813
684.039	3121
684.057	3613
684.086	4266
684.133	4654
684.179	4038
684.180	4002
684.227	4056
684.274	4429
684.300	4862
684.321	5179
684.368	3954
684.415	3401
684.422	3317
684.462	2603
684.509	3112
684.543	2771
684.556	2676
684.603	2539
684.649	2081
684.665	2138
684.696	2342
684.743	2919
684.786	2582
684.790	2547
684.837	1442
684.883	1914
684.908	2274
684.930	2550
684.977	2220
685.023	2051
685.029	2125
685.070	2693
685.117	2225
685.150	2087
685.164	2070
685.210	3393
685.257	3462
685.272	3397
685.303	3406
685.350	4277
685.393	4721
685.396	4769
685.443	6740
685.490	7900
685.514	7274
685.536	6084
685.583	4826
685.629	4311
685.636	4170
685.675	3928
685.722	4871
685.757	5100
685.768	5089
685.815	4616
685.861	3179
685.878	3338
685.908	3613
685.954	3151
686.000	2608
686.000	2601
686.047	2525
686.093	2977
686.121	3039
686.139	3127
686.185	3785
686.232	3555
686.242	3552
686.278	3261
686.324	3050
686.363	3005
686.370	3024
686.416	2483
686.463	2614
686.484	2958
686.509	3319
686.555	2367
686.601	2866
686.606	2869
686.647	2881
686.693	3316
686.727	2717
686.739	2520
686.785	2633
686.831	2492
686.848	2706
686.877	2962
686.923	2833
686.969	3032
686.969	3034
687.015	2427
687.061	2661
687.090	3015
687.107	3204
687.153	3341
687.199	3157
687.211	3256
687.245	3526
687.291	3326
687.332	3558
687.336	3590
687.382	3751
687.428	3171
687.453	3534
687.474	3664
687.520	3468
687.565	2785
687.574	2863
687.611	3453
687.657	3164
687.695	3268
687.702	3274
687.748	3484
687.794	3272
687.816	3175
687.839	3152
687.885	4153
687.931	3903
687.937	3873
687.976	3634
688.022	3664
688.058	4102
688.067	4188
688.113	4375
688.158	4098
688.179	3886
688.204	3604
688.249	3696
688.295	3454
688.300	3475
688.340	3868
688.386	4355
688.421	3986
688.431	3898
688.477	4336
688.522	4158
688.542	4488
688.567	4904
688.613	4711
688.658	4976
688.663	4970
688.703	4526
688.749	4671
688.784	4259
688.794	4174
688.839	4193
688.884	3887
688.905	3947
688.930	4120
688.975	3525
689.020	3851
689.026	3814
689.065	3552
689.110	3841
689.146	3747
689.155	3734
689.201	3594
689.246	3493
689.267	3479
689.291	3585
689.336	3859
689.381	4174
689.388	4137
689.426	3843
689.471	4138
689.509	4164
689.516	4208
689.561	4383
689.606	4628
689.630	4619
689.651	4422
689.696	4313
689.741	4851
689.750	4728
689.785	4468
689.830	4483
689.871	4454
689.875	4446
689.920	4298
689.965	4443
689.992	4235
690.010	4198
690.054	3878
690.099	4419
690.112	4481
690.144	4718
690.189	4955
690.233	5076
690.233	5083
690.278	5297
690.323	4738
690.354	4778
690.367	4815
690.412	5008
690.457	4471
690.474	4724
690.501	5060
690.546	4612
690.590	4555
690.595	4516
690.635	4267
690.680	3759
690.716	3695
690.724	3755
690.769	4191
690.813	4667
690.836	4567
690.857	4472
690.902	5011
690.946	5094
690.957	5161
690.991	5345
691.035	5190
691.077	5488
691.080	5506
691.124	5136
691.168	5327
691.198	5161
691.213	5106
691.257	5196
691.301	5088
691.318	5100
691.346	5209
691.390	4997
691.434	5473
691.439	5458
691.478	5765
691.522	6451
691.559	6948
691.567	7013
691.611	7315
691.655	7363
691.680	7377
691.699	7000
691.743	6490
691.787	5696
691.800	5403
691.831	5236
691.875	5094
691.919	5367
691.921	5345
691.964	5010
692.008	5365
692.041	5139
692.052	5110
692.096	5465
692.139	5629
692.162	5595
692.183	5414
692.227	4943
692.271	4807
692.282	4773
692.315	5043
692.359	5294
692.402	5456
692.403	5467
692.447	5663
692.490	5782
692.523	5359
692.534	5217
692.578	5466
692.622	5368
692.643	5247
692.666	5189
692.709	5473
692.753	5243
692.763	5285
692.797	5340
692.840	5155
692.884	5153
692.884	5169
692.928	5612
692.971	5942
693.004	6053
693.015	5993
693.059	6094
693.102	6137
693.124	6024
693.146	6096
693.189	6419
693.233	6538
693.245	6613
693.276	6643
693.320	6723
693.363	6505
693.365	6488
693.407	6368
693.450	6269
693.485	5888
693.493	5814
693.537	5903
693.580	5438
693.605	5476
693.624	5693
693.667	5958
693.710	6390
693.725	6515
693.753	6681
693.797	6620
693.840	6526
693.845	6538
693.883	6613
693.926	6391
693.966	6289
693.970	6285
694.013	6166
694.056	6010
694.086	5851
694.099	5952
694.142	6160
694.185	6707
694.206	6883
694.229	7240
694.272	7712
694.315	8080
694.326	8256
694.358	9354
694.401	10705
694.444	12267
694.446	12300
694.487	11431
694.530	10118
694.566	9432
694.573	9332
694.616	8373
694.659	7727
694.686	7123
694.702	7144
694.745	7305
694.787	7432
694.806	7417
694.830	7382
694.873	7372
694.916	7551
694.926	7503
694.959	8112
695.002	9174
695.044	9953
695.046	9973
695.087	9640
695.130	8766
695.166	8451
695.172	8426
695.215	7792
695.258	7429
695.286	7024
695.301	7006
695.343	7114
695.386	7149
695.406	7114
695.428	7001
695.471	6698
695.514	6443
695.526	6380
695.556	6796
695.599	7460
695.641	7860
695.646	7890
695.684	7752
695.726	7627
695.766	7535
695.769	7534
695.811	7056
695.854	6910
695.886	6575
695.896	6612
695.938	6809
695.981	7040
696.005	7017
696.023	7088
696.065	7433
696.108	7792
696.125	7866
696.150	7594
696.192	7326
696.235	6718
696.245	6613
696.277	6816
696.319	6851
696.361	7138
696.365	7120
696.404	6770
696.446	6534
696.485	6397
696.488	6471
696.530	6981
696.572	7571
696.604	8110
696.614	8112
696.656	7877
696.698	7749
696.724	7637
696.740	7799
696.783	8019
696.825	8498
696.844	8584
696.867	8433
696.909	8174
696.951	7929
696.964	7859
696.992	8154
697.034	8398
697.076	8645
697.083	8686
697.118	8712
697.160	8624
697.202	8608
697.203	8579
697.244	8570
697.286	8848
697.323	8866
697.327	8881
697.369	8829
697.411	8794
697.442	8825
697.453	9086
697.494	9907
697.536	10821
697.562	11324
697.578	11457
697.620	11777
697.661	12038
697.682	12171
697.703	12617
697.744	13434
697.786	14310
697.801	14555
697.828	14275
697.869	13754
697.911	13235
697.921	13082
697.952	12049
697.994	10612
698.035	9186
698.040	8994
698.077	8977
698.118	8841
698.160	8817
698.160	8793
698.201	8907
698.243	9013
698.279	9156
698.284	9205
698.325	9391
698.367	9545
698.399	9673
698.408	9681
698.449	9567
698.491	9463
698.518	9374
698.532	9405
698.573	9437
698.614	9435
698.638	9421
698.656	9420
698.697	9358
698.738	9298
698.757	9239
698.779	9396
698.820	9657
698.862	9920
698.877	9991
698.903	10126
698.944	10306
698.985	10479
698.996	10502
699.026	10216
699.067	9781
699.116	9238
699.235	8783
699.354	9123
699.474	9793
699.593	9842
699.713	10248
699.832	11269
699.951	14322
700.070	11917
700.190	10028
700.309	11583
700.428	11421
700.547	10584
700.667	11698
700.786	11727
700.905	9976
701.024	11285
701.143	9965
701.262	9733
701.381	9747
701.500	12519
701.619	17746
701.738	10139
701.857	10305
701.976	9403
702.095	10578
702.214	15309
702.333	16250
702.452	12344
702.571	10267
702.690	9651
702.809	9702
702.928	9809
703.047	9937
703.165	10134
703.284	10470
703.403	10424
703.522	10609
703.640	11095
703.759	14359
703.878	12267
703.997	9997
704.115	10376
704.234	10026
704.353	9416
704.471	9331
704.590	8401
704.708	7940
704.827	8902
704.946	7866
705.064	8412
705.183	9007
705.301	8685
705.420	8731
705.538	9044
705.656	8089
705.775	8166
705.893	9298
706.012	9365
706.130	7860
706.249	8567
706.367	8122
706.485	8190
706.604	9079
706.722	11299
706.840	12434
706.958	8675
707.077	7374
707.195	8181
707.313	7833
707.431	7691
707.549	7056
707.668	7386
707.786	7706
707.904	8321
708.022	7684
708.140	8471
708.258	8335
708.376	8589
708.494	7423
708.612	8192
708.730	9033
708.848	8771
708.966	11788
709.084	10604
709.202	8953
709.320	7691
709.438	8013
709.556	7864
709.674	7310
709.791	7695
709.909	7171
710.027	7497
710.145	7310
710.263	6933
710.380	7172
710.498	6949
710.616	7277
710.733	7673
710.851	6301
710.969	6673
711.086	7231
711.204	8083
711.322	7879
711.439	6646
711.557	6333
711.674	7183
711.792	6883
711.909	7215
712.027	6872
712.144	6737
712.262	6752
712.379	5620
712.497	7314
712.614	7735
712.732	8934
712.849	8796
712.966	12852
713.084	17533
713.201	8629
713.318	8259
713.436	6313
713.553	7558
713.670	7163
713.787	6610
713.905	6695
714.022	7845
714.139	9495
714.256	11566
714.373	16592
714.490	33876
714.608	103884
714.725	447932
714.842	268852
714.959	18408
715.076	10258
715.193	8965
715.310	8993
715.427	8578
715.544	9096
715.661	9553
715.778	7474
715.895	6405
716.011	7149
716.128	8731
716.245	10135
716.362	19587
716.479	16544
716.596	7854
716.713	8196
716.829	6141
716.946	7496
717.063	6309
717.180	7049
717.296	6064
717.413	7479
717.530	8060
717.646	6913
717.763	6405
717.880	6660
717.996	7644
718.113	8952
718.229	7136
718.346	7961
718.462	10531
718.579	22479
718.695	53415
718.812	16579
718.928	8684
719.045	7172
719.161	8669
719.277	7182
719.394	6745
719.510	7205
719.626	7485
719.743	8313
719.859	12190
719.975	27775
720.092	124473
720.208	183442
720.324	16946
720.440	8935
720.557	13715
720.673	35230
720.789	18382
720.905	7516
721.021	6347
721.137	6338
721.253	5422
721.369	5743
721.486	4963
721.602	5692
721.718	5568
721.834	6117
721.950	6953
722.066	6067
722.181	7207
722.297	8201
722.413	7843
722.529	6539
722.645	5512
722.761	5243
722.877	5281
722.993	5393
723.108	5741
723.224	6303
723.340	5393
723.456	6494
723.571	5509
723.687	4643
723.803	5814
723.918	6903
724.034	5345
724.150	4993
724.265	5737
724.381	6241
724.497	5769
724.612	4940
724.728	5464
724.843	4007
724.959	5700
725.074	7253
725.190	6309
725.305	5985
725.421	5906
725.536	5588
725.651	5570
725.767	5367
725.882	5260
725.997	5292
726.113	5792
726.228	5073
726.343	6812
726.459	5373
726.574	4918
726.689	4912
726.804	5004
726.920	4461
727.035	5180
727.150	5132
727.265	4625
727.380	5381
727.495	6084
727.610	5232
727.725	5140
727.841	5548
727.956	5757
728.071	5686
728.186	5949
728.301	6626
728.416	7616
728.531	6365
728.645	5875
728.760	9268
728.875	11788
728.990	8940
729.105	7669
729.220	10817
729.335	9277
729.449	5920
729.564	6080
729.679	4943
729.794	4220
729.908	5514
730.023	5386
730.138	5276
730.253	6725
730.367	4901
730.482	5275
730.596	6699
730.711	6413
730.826	6920
730.940	5258
731.055	8301
731.169	6495
731.284	4855
731.398	4425
731.513	4684
731.627	6077
731.742	6568
731.856	6033
731.970	7876
732.085	8167
732.199	9779
732.313	16024
732.428	45951
732.542	130481
732.656	47931
732.771	9977
732.885	7874
732.999	8025
733.113	6999
733.227	6656
733.342	6112
733.456	5741
733.570	6655
733.684	6325
733.798	5678
733.912	6312
734.026	5750
734.140	5714
734.254	5674
734.368	6281
734.482	6688
734.596	6885
734.710	5959
734.824	6394
734.938	6773
735.052	7774
735.166	6928
735.280	7620
735.393	6364
735.507	5848
735.621	5805
735.735	5574
735.849	5946
735.962	5990
736.076	6680
736.190	6269
736.303	7122
736.417	6517
736.531	6256
736.644	5990
736.758	5967
736.872	6509
736.985	5893
737.099	6403
737.212	6067
737.326	6134
737.439	5761
737.553	7327
737.666	7319
737.780	4967
737.893	5827
738.007	6322
738.120	5946
738.233	5816
738.347	5789
738.460	6857
738.573	9179
738.687	8143
738.800	10599
738.913	15827
739.026	7546
739.140	4864
739.253	5293
739.366	6173
739.479	5138
739.592	5174
739.705	4911
739.818	6019
739.932	4613
740.045	6006
740.158	6658
740.271	5394
740.384	5665
740.497	7721
740.610	7914
740.723	7899
740.836	8304
740.949	9771
741.062	17740
741.174	9780
741.287	5869
741.400	6008
741.513	8568
741.626	9271
741.739	8069
741.851	7313
741.964	6749
742.077	6293
742.189	7877
742.302	16171
742.415	12406
742.527	7245
742.640	4850
742.753	4943
742.865	4562
742.978	4939
743.090	5123
743.203	4276
743.316	4898
743.428	4107
743.541	5616
743.653	4642
743.766	5423
743.878	5230
743.990	6737
744.103	11538
744.215	19500
744.327	9609
744.440	13255
744.552	22880
744.664	8021
744.777	4268
744.889	5282
745.001	5834
745.113	4170
745.226	4095
745.338	5174
745.450	4391
745.562	3535
745.674	3584
745.786	3842
745.898	3756
746.010	3499
746.122	4386
746.234	4119
746.347	4698
746.459	5092
746.570	5567
746.682	11615
746.794	25122
746.906	10854
747.018	5466
747.130	4855
747.242	4839
747.354	4765
747.466	4413
747.577	4887
747.689	4927
747.801	3529
747.913	3765
748.024	3027
748.136	4366
748.248	3800
748.359	3415
748.471	3374
748.583	3462
748.694	3436
748.806	4277
748.918	4217
749.029	4994
749.141	6862
749.252	6366
749.364	12472
749.475	27417
749.587	8886
749.698	3363
749.809	4234
749.921	3572
750.032	3477
750.144	3500
750.255	2751
750.366	2928
750.478	3743
750.589	4239
750.700	6326
750.811	6618
750.923	12015
751.034	38592
751.145	24174
751.256	4451
751.367	3568
751.479	3094
751.590	3046
751.701	3629
751.812	3187
751.923	3281
752.034	2929
752.145	3257
752.256	3052
752.367	3042
752.478	3389
752.589	3262
752.700	3508
752.811	2435
752.922	4080
753.032	6456
753.143	6343
753.254	2433
753.365	3647
753.476	3124
753.586	3863
753.697	2760
753.808	2703
753.919	3156
754.029	3162
754.140	2903
754.251	2978
754.361	3585
754.472	3441
754.582	4494
754.693	4072
754.804	3541
754.914	1791
755.025	2318
755.135	2971
755.246	2368
755.356	2129
755.466	3436
755.577	3035
755.687	2691
755.798	3236
755.908	3227
756.018	2815
756.129	2821
756.239	3832
756.349	3167
756.460	3417
756.570	3870
756.680	3641
756.790	5229
756.900	5783
757.011	2386
757.121	2650
757.231	3246
757.341	3120
757.451	1696
757.561	2153
757.671	2255
757.781	2272
757.891	2749
758.001	1890
758.111	2764
758.221	4381
758.331	6196
758.441	6823
758.551	13567
758.661	7720
758.771	4296
758.880	2845
758.990	3274
759.100	3009
759.210	2558
759.320	2642
759.429	3337
759.539	3216
759.649	3295
759.758	3669
759.868	4024
759.978	3454
760.087	4275
760.197	4067
760.307	4166
760.416	3480
760.526	3530
760.635	3999
760.745	3416
760.854	3974
760.964	4096
761.073	4781
761.182	3795
761.292	3691
761.401	3196
761.511	3010
761.620	3073
761.729	3751
761.839	3504
761.948	4929
762.057	4361
762.166	3117
762.276	2364
762.385	4012
762.494	2506
762.603	2570
762.712	2860
762.822	1460
762.931	2371
763.040	1422
763.149	1734
763.258	2231
763.367	2697
763.476	2794
763.585	2697
763.694	2208
763.803	1703
763.912	2616
764.021	2438
764.130	2554
764.238	1816
764.347	2699
764.456	2386
764.565	3200
764.674	2661
764.783	1830
764.891	1905
765.000	3517
765.109	2950
765.217	3243
765.326	4397
765.435	3293
765.543	3066
765.652	3967
765.761	5127
765.869	6363
765.978	8738
766.086	19698
766.195	37179
766.303	124310
766.412	415376
766.520	174040
766.629	20100
766.737	9934
766.846	6674
766.954	6025
767.062	4734
767.171	3915
767.279	3697
767.387	3513
767.496	3306
767.604	1917
767.712	3328
767.820	3060
767.928	3631
768.037	3285
768.145	3184
768.253	3130
768.361	2045
768.469	3144
768.577	2442
768.685	3975
768.793	3248
768.901	2464
769.009	3998
769.117	2259
769.225	3846
769.333	4644
769.441	8542
769.549	16302
769.657	42066
769.765	174804
769.873	265191
769.981	34003
770.088	7141
770.196	5709
770.304	4744
770.412	4256
770.519	2496
770.627	2974
770.735	2830
770.842	2877
770.950	4156
771.058	3403
771.165	2960
771.273	3443
771.380	3649
771.488	4230
771.595	3590
771.703	3251
771.810	4175
771.918	3407
772.025	4470
772.133	3767
772.240	3561
772.348	4806
772.455	4879
772.562	2783
772.670	4147
772.777	3828
772.884	3329
772.991	3621
773.099	4026
773.206	3518
773.313	4428
773.420	3712
773.528	3245
773.635	3712
773.742	3978
773.849	3771
773.956	3719
774.063	3245
774.170	3673
774.277	4384
774.384	2797
774.491	3059
774.598	4086
774.705	6595
774.812	7004
774.919	3679
775.026	3879
775.133	3844
775.239	3126
775.346	4199
775.453	3204
775.560	2786
775.667	2523
775.773	2387
775.880	3613
775.987	3169
776.093	3446
776.200	3371
776.307	2835
776.413	3662
776.520	3328
776.627	3808
776.733	2990
776.840	3739
776.946	8670
777.053	19217
777.159	49849
777.266	25276
777.372	40664
777.478	32127
777.585	15311
777.691	4757
777.798	4766
777.904	6081
778.010	12336
778.117	6726
778.223	3159
778.329	3099
778.435	2465
778.542	3597
778.648	2094
778.754	3059
778.860	3215
778.966	2166
779.072	2504
779.178	3172
779.284	2262
779.391	2172
779.497	1242
779.603	4365
779.708	1425
779.815	3729
779.920	3239
780.026	3634
780.132	1939
780.238	2843
780.344	2553
780.450	3621
780.556	2458
780.661	3160
780.767	3053
780.873	2883
780.979	3423
781.085	2703
781.190	2086
781.296	2831
781.402	2115
781.507	2154
781.613	3128
781.719	2793
781.824	2450
781.930	3308
782.035	3207
782.141	3418
782.246	2546
782.352	2598
782.457	2360
782.563	2743
782.668	2993
782.773	2729
782.879	2367
782.984	3984
783.090	7266
783.195	13624
783.300	6273
783.405	3659
783.511	3061
783.616	4111
783.721	3712
783.826	3993
783.932	3321
784.037	4251
784.142	3706
784.247	2509
784.352	3512
784.457	2741
784.562	3116
784.667	2816
784.772	2056
784.877	2266
784.982	1909
785.087	2402
785.192	2374
785.297	1986
785.402	2407
785.507	2604
785.611	2815
785.716	2560
785.821	2223
785.926	1441
786.031	1899
786.135	1867
786.240	2618
786.345	744
786.450	1817
786.554	1657
786.659	1375
786.763	806
786.868	2473
786.973	3345
787.077	1711
787.182	2151
787.286	1841
787.391	2075
787.495	2082
787.600	1448
787.704	775
787.809	1791
787.913	1293
788.017	2594
788.122	4167
788.226	2745
788.330	575
788.435	939
788.539	1881
788.643	458
788.747	1342
788.852	1436
788.956	577
789.060	1838
789.164	1912
789.268	1295
789.372	2039
789.476	1925
789.580	1230
789.684	875
789.788	1901
789.892	1632
789.996	1664
790.100	1430
790.204	1437
790.308	1784
790.412	904
790.516	1205
790.620	507
790.724	1623
790.828	1912
790.931	102
791.035	2299
791.139	1198
791.242	1221
791.346	2579
791.450	1458
791.554	1735
791.657	713
791.761	2292
791.864	2699
791.968	2311
792.072	2210
792.175	1659
792.279	1485
792.382	2256
792.486	1363
792.589	1043
792.693	1760
792.796	1179
792.899	2679
793.003	2126
793.106	925
793.209	1990
793.313	2792
793.416	1381
793.519	4027
793.623	10283
793.726	13010
793.829	2933
793.932	1986
794.035	1937
794.138	2508
794.242	3351
794.345	2878
794.448	5159
794.551	11920
794.654	8631
794.757	3998
794.860	1823
794.963	2070
795.066	1647
795.169	2256
795.272	1437
795.375	1458
795.477	316
795.580	810
795.683	-93
795.786	1783
795.889	632
795.991	1799
796.094	1747
796.197	165
796.300	2550
796.402	943
796.505	1170
796.608	139
796.710	1914
796.813	1425
796.915	586
797.018	1645
797.120	1218
797.223	-541
797.326	3136
797.428	691
797.530	870
797.633	1529
797.735	1329
797.838	-65
797.940	1722
798.042	-107
798.145	445
798.247	1042
798.349	-411
798.452	1397
798.554	632
798.656	-528
798.758	1606
798.860	679
798.962	768
799.065	295
799.167	-354
799.269	1373
799.371	2780
799.473	1829
799.575	536
799.677	1593
799.779	5980
799.881	9673
799.983	3907
800.085	1549
800.187	1062
800.289	-288
800.390	885
800.492	664
800.594	1383
800.696	224
800.798	1289
800.899	795
801.001	58
801.103	679
801.205	905
801.306	813
801.408	-14
801.509	849
801.611	1220
801.713	1379
801.814	-92
801.916	613
802.017	132
802.119	-277
802.220	641
802.322	-1093
802.423	3332
802.525	321
802.626	1205
802.727	1260
802.829	1942
802.930	-629
803.031	1630
803.133	664
803.234	1277
803.335	238
803.436	667
803.538	701
803.639	98
803.740	1462
803.841	-440
803.942	1331
804.043	766
804.144	109
804.245	704
804.346	-439
804.447	2393
804.548	7387
804.649	6360
804.750	868
804.851	511
804.952	136
805.053	574
805.154	-714
805.255	519
805.355	484
805.456	699
805.557	158
805.658	-558
805.758	780
805.859	727
805.960	651
806.061	582
806.161	-161
806.262	185
806.362	679
806.463	-80
806.564	841
806.664	577
806.765	-391
806.865	762
806.966	-165
807.066	385
807.166	1330
807.267	1459
807.367	501
807.468	988
807.568	-990
807.668	1030
807.769	587
807.869	771
807.969	403
808.069	662
808.170	1301
808.270	643
808.370	2154
808.470	4633
808.570	2375
808.670	744
808.770	-42
808.870	321
808.970	689
809.070	-480
809.170	-104
809.271	889
809.370	476
809.470	665
809.570	-54
809.670	-115
809.770	433
809.870	282
809.970	193
810.070	204
810.169	829
810.269	-428
810.369	1118
810.469	1
810.568	-518
810.668	1005
810.768	-374
810.867	99
810.967	-735
811.066	-101
811.166	-231
811.265	1083
811.365	185
811.464	123
811.564	416
811.663	950
811.763	-1135
811.862	408
811.962	628
812.061	-197
812.160	-546
812.260	-4
812.359	-619
812.458	-566
812.557	546
812.657	523
812.756	632
812.855	152
812.954	151
813.053	438
813.153	554
813.252	-918
813.351	-366
813.450	-83
813.549	-390
813.648	735
813.747	-281
813.846	-34
813.945	578
814.044	83
814.143	98
814.242	1289
814.341	-758
814.439	237
814.538	-12
814.637	-233
814.736	144
814.835	1371
814.933	-94
815.032	303
815.131	148
815.229	1319
815.328	952
815.427	608
815.525	1330
815.624	1294
815.722	598
815.821	1776
815.919	-60
816.018	-507
816.116	1421
816.215	341
816.313	754
816.412	2032
816.510	1117
816.609	3126
816.707	1781
816.805	1056
816.904	1497
817.002	2420
817.100	2041
817.198	1896
817.296	1165
817.395	1434
817.493	2239
817.591	1291
817.689	2079
817.787	1899
817.885	4776
817.983	8087
818.081	20164
818.179	53282
818.277	114683
818.375	55912
818.473	16923
818.571	7798
818.669	7626
818.767	9771
818.865	6297
818.963	5792
819.061	9997
819.158	17390
819.256	45987
819.354	118386
819.452	202233
819.549	70998
819.647	15811
819.745	6995
819.842	6413
819.940	4231
820.038	3393
820.135	3087
820.233	3319
820.330	1651
820.428	2058
820.525	2677
820.623	2005
820.720	2136
820.818	1688
820.915	2601
821.012	3877
821.110	1779
821.207	2708
821.304	1236
821.402	3219
821.499	8524
821.596	16611
821.693	8392
821.791	4423
821.888	7887
821.985	19135
822.082	10663
822.179	6042
822.276	6259
822.373	4048
822.470	1263
822.567	1131
822.664	-35
822.761	1938
822.858	573
822.955	857
823.052	593
823.149	1789
823.246	1374
823.343	517
823.440	1344
823.536	310
823.633	649
823.730	1033
823.827	1208
823.923	1415
824.020	3367
824.117	3557
824.213	5733
824.310	2783
824.407	1203
824.503	909
824.600	820
824.696	1498
824.793	2606
824.889	649
824.986	1129
825.082	674
825.179	734
825.275	748
825.371	942
825.468	1932
825.564	-64
825.660	956
825.757	929
825.853	805
825.949	-589
826.045	1318
826.142	237
826.238	909
826.334	1011
826.430	-14
826.526	729
826.622	700
826.718	902
826.814	-311
826.910	706
827.006	-61
827.102	-624
827.198	920
827.294	706
827.390	551
827.486	1217
827.582	-528
827.678	293
827.774	1000
827.869	-892
827.965	1291
828.061	-754
828.157	419
828.252	237
828.348	-268
828.444	618
828.539	-759
828.635	-849
828.731	955
828.826	-473
828.922	678
829.017	173
829.113	1089
829.208	108
829.304	482
829.399	1768
829.495	-241
829.590	1280
829.685	228
829.781	1441
829.876	-673
829.971	315
830.066	224
830.162	187
830.257	-485
830.352	-103
830.447	676
830.543	706
830.638	-934
830.733	-300
830.828	-407
830.923	489
831.018	743
831.113	85
831.208	-944
831.303	743
831.398	9
831.493	-460
831.588	15
831.683	-685
831.778	-34
831.873	41
831.967	1313
832.062	118
832.157	-1085
832.252	1463
832.346	936
832.441	3454
832.536	4849
832.631	14250
832.725	7415
832.820	283
832.914	841
833.009	1038
833.104	2685
833.198	2473
833.293	297
833.387	397
833.482	62
833.576	-249
833.670	1140
833.765	537
833.859	1682
833.954	2233
834.048	-286
834.142	729
834.237	-630
834.331	407
834.425	-260
834.519	-262
834.613	410
834.708	-327
834.802	-423
834.896	-1231
834.990	421
835.084	12
835.178	-496
835.272	281
835.366	-641
835.460	667
835.554	-491
835.648	-43
835.742	605
835.836	-224
835.930	-289
836.024	1164
836.117	1105
836.211	-38
836.305	363
836.399	-400
836.493	-941
836.586	743
836.680	37
836.774	-512
836.867	845
836.961	-136
837.055	-424
837.148	-588
837.242	299
837.335	-465
837.429	287
837.522	-578
837.616	-480
837.709	473
837.803	-950
837.896	106
837.989	-914
838.083	306
838.176	73
838.269	-422
838.363	947
838.456	886
838.549	3827
838.642	7081
838.735	14095
838.829	3772
838.922	-362
839.015	-910
839.108	-1374
839.201	330
839.294	177
839.387	-414
839.480	-807
839.573	-216
839.666	-511
839.759	119
839.852	-1126
839.945	-145
840.038	-661
840.131	-331
840.223	-797
840.316	523
840.409	-99
840.502	-528
840.594	689
840.687	-697
840.780	-73
840.873	-58
840.965	-799
841.058	506
841.150	-26
841.243	-1105
841.336	7
841.428	-573
841.521	-627
841.613	-546
841.706	-253
841.798	-93
841.890	266
841.983	-1393
842.075	502
842.167	-622
842.260	356
842.352	415
842.444	-88
842.537	214
842.629	284
842.721	-235
842.813	-395
842.905	-662
842.997	-276
843.090	-504
843.182	306
843.274	-405
843.366	613
843.458	514
843.550	588
843.642	-622
843.734	-192
843.826	-727
843.918	826
844.009	729
844.101	349
844.193	-451
844.285	1721
844.377	3288
844.469	7140
844.560	11527
844.652	11451
844.744	2796
844.835	231
844.927	601
845.019	-719
845.110	136
845.202	396
845.293	-234
845.385	83
845.476	239
845.568	-11
845.659	42
845.751	568
845.842	-718
845.934	-878
846.025	-462
846.116	-730
846.208	-178
846.299	-944
846.390	-584
846.482	287
846.573	1805
846.664	1005
846.755	2705
846.846	1290
846.937	-895
847.029	-413
847.120	-500
847.211	-553
847.302	538
847.393	55
847.484	-328
847.575	-369
847.666	-1032
847.757	-555
847.847	126
847.938	-340
848.029	-105
848.120	-208
848.211	183
848.302	-322
848.392	149
848.483	-473
848.574	-1250
848.664	-129
848.755	577
848.846	-229
848.936	-749
849.027	642
849.118	297
849.208	-296
849.299	2820
849.389	5279
849.480	14248
849.570	27605
849.661	55874
849.751	77093
849.841	20746
849.932	2322
850.022	527
850.112	1288
850.203	-36
850.293	89
850.383	480
850.474	-842
850.564	-621
850.654	106
850.744	-769
850.834	11
850.924	387
851.014	585
851.104	791
851.194	235
851.284	1681
851.374	1866
851.464	-95
851.554	75
851.644	914
851.734	285
851.824	410
851.914	-1144
852.004	275
852.094	228
852.183	93
852.273	-34
852.363	-111
852.452	426
852.542	509
852.632	1156
852.721	556
852.811	-284
852.901	636
852.990	386
853.080	1233
853.169	1040
853.259	1297
853.348	1515
853.438	2873
853.527	5090
853.617	9527
853.706	19462
853.795	38742
853.885	90406
853.974	166607
854.063	327234
854.152	411870
854.242	116447
854.331	19344
854.420	7719
854.509	5878
854.598	4731
854.687	2907
854.777	2891
854.866	1731
854.955	1590
855.044	554
855.133	482
855.222	754
855.311	210
855.400	782
855.488	723
855.577	661
855.666	475
855.755	815
855.844	545
855.933	448
856.021	676
856.110	509
856.199	-176
856.288	-55
856.376	7
856.465	-682
856.554	429
856.642	297
856.731	1281
856.819	-379
856.908	-203
856.996	-656
857.085	-1379
857.173	341
857.262	870
857.350	-651
857.438	855
857.527	-712
857.615	-651
857.703	701
857.792	-8
857.880	-766
857.968	101
858.056	693
858.145	288
858.233	-196
858.321	-1366
858.409	-265
858.497	-670
858.585	-847
858.673	-385
858.761	-1245
858.849	-352
858.937	-34
859.025	668
859.113	1193
859.201	20
859.289	2089
859.377	1526
859.465	459
859.552	-376
859.640	-765
859.728	314
859.816	-168
859.903	378
859.991	-448
860.079	-98
860.166	-276
860.254	-257
860.342	294
860.429	-902
860.517	-982
860.604	94
860.692	280
860.779	-547
860.867	260
860.954	541
861.042	988
861.129	562
861.216	494
861.304	-353
861.391	58
861.478	-107
861.565	1018
861.653	607
861.740	-491
861.827	-775
861.914	-33
862.001	-86
862.089	-301
862.176	-195
862.263	-505
862.350	-500
862.437	-412
862.524	-10
862.611	1011
862.698	1049
862.785	3625
862.871	4997
862.958	698
863.045	-454
863.132	-628
863.219	-377
863.306	-761
863.392	-517
863.479	-498
863.566	-343
863.652	-73
863.739	-547
863.826	-299
863.912	-787
863.999	-853
864.086	-486
864.172	-412
864.259	-317
864.345	-182
864.432	427
864.518	-708
864.604	-219
864.691	-4
864.777	572
864.863	216
864.950	1435
865.036	-248
865.122	1501
865.209	2444
865.295	2015
865.381	3010
865.467	4634
865.553	6737
865.639	10147
865.726	19157
865.812	43672
865.898	83493
865.984	119657
866.070	244300
866.156	198190
866.242	40559
866.328	9441
866.414	3304
866.499	3429
866.585	3172
866.671	2600
866.757	2886
866.843	1441
866.928	1655
867.014	1569
867.100	2138
867.186	2205
867.271	2876
867.357	3070
867.442	2051
867.528	1253
867.614	2332
867.699	4593
867.785	6403
867.870	10602
867.956	13427
868.041	7705
868.127	4685
868.212	8827
868.297	8211
868.383	4354
868.468	6438
868.553	9556
868.639	10944
868.724	19683
868.809	12920
868.894	1707
868.979	788
869.065	314
869.150	-352
869.235	910
869.320	713
869.405	335
869.490	147
869.575	-30
869.660	835
869.745	1076
869.830	207
869.915	44
870.000	1138
870.085	1734
870.169	3831
870.254	2781
870.339	1186
870.424	15
870.509	1151
870.593	853
870.678	1273
870.763	739
870.847	2206
870.932	2486
871.016	3670
871.101	2550
871.186	1076
871.270	637
871.355	-162
871.439	-281
871.523	1249
871.608	651
871.692	1228
871.777	2547
871.861	789
871.945	-125
872.030	422
872.114	-345
872.198	493
872.282	-76
872.367	-365
872.451	-663
872.535	853
872.619	470
872.703	206
872.787	823
872.871	518
872.955	258
873.039	-437
873.123	-915
873.207	109
873.291	-259
873.375	-745
873.459	51
873.543	194
873.627	276
873.711	135
873.794	1405
873.878	-264
873.962	-240
874.045	9
874.129	-202
874.137	-83
874.213	1102
874.245	937
874.296	672
874.352	415
874.380	289
874.460	-337
874.464	-362
874.547	364
874.568	403
874.631	492
874.676	209
874.714	-13
874.784	1165
874.798	1394
874.881	1724
874.892	1497
874.965	-30
874.999	263
875.048	613
875.107	830
875.131	928
875.215	1317
875.215	1316
875.298	-170
875.323	73
875.381	694
875.430	349
875.465	79
875.538	301
875.548	330
875.631	230
875.646	239
875.714	247
875.753	168
875.798	117
875.861	155
875.881	152
875.964	126
875.968	90
876.047	-439
876.076	-234
876.130	153
876.183	1248
876.213	1824
876.291	1425
876.296	1393
876.379	717
876.398	769
876.462	953
876.506	736
876.545	653
876.613	580
876.628	522
876.711	652
876.721	656
876.794	831
876.828	833
876.877	824
876.935	1033
876.960	1149
877.043	1533
877.043	1537
877.125	2624
877.150	2778
877.208	3172
877.258	3261
877.291	3317
877.365	3672
877.374	3686
877.456	3263
877.472	3276
877.539	3409
877.579	2811
877.622	2163
877.687	2051
877.704	2056
877.787	1740
877.794	1742
877.869	1848
877.901	1901
877.952	1804
878.008	1880
878.034	1942
878.115	1141
878.117	1130
878.199	611
878.222	874
878.282	1570
878.329	1564
878.364	1579
878.437	1520
878.447	1481
878.529	690
878.544	702
878.611	790
878.651	837
878.694	1094
878.758	1335
878.776	1370
878.858	1779
878.865	1758
878.941	1186
878.972	1125
879.023	1202
879.078	1133
879.105	1284
879.185	2135
879.187	2139
879.269	2115
879.292	1802
879.351	981
879.399	770
879.433	834
879.506	1099
879.516	1104
879.598	780
879.613	687
879.680	507
879.720	1038
879.762	1424
879.827	404
879.844	199
879.926	875
879.933	863
880.007	782
880.040	906
880.089	1127
880.147	2162
880.171	2578
880.253	3205
880.254	3216
880.335	5951
880.360	6348
880.417	8199
880.467	12302
880.499	14936
880.574	15871
880.580	15381
880.662	5317
880.680	3868
880.744	1898
880.787	1328
880.825	1096
880.893	350
880.907	239
880.989	1208
881.000	1080
881.070	391
881.106	353
881.152	284
881.213	337
881.233	440
881.315	714
881.319	726
881.396	896
881.426	832
881.478	575
881.532	843
881.559	1019
881.639	815
881.641	813
881.722	990
881.745	953
881.803	891
881.852	975
881.885	1121
881.958	1803
881.966	1866
882.047	2214
882.064	2160
882.129	2712
882.171	3947
882.210	6077
882.277	8905
882.291	8605
882.372	4301
882.383	3857
882.454	1614
882.489	1013
882.535	1057
882.596	1016
882.616	999
882.697	863
882.702	831
882.778	979
882.808	1145
882.859	1137
882.914	1015
882.940	895
883.020	418
883.021	426
883.102	1061
883.127	1065
883.183	935
883.233	1065
883.264	1032
883.339	1276
883.345	1269
883.426	131
883.445	22
883.507	1024
883.551	1674
883.587	1792
883.657	2365
883.668	2420
883.749	1661
883.763	1640
883.830	1247
883.869	1096
883.910	1110
883.975	581
883.991	569
884.072	1182
884.081	1222
884.152	1099
884.187	1002
884.233	1219
884.292	1179
884.314	894
884.394	159
884.398	127
884.475	448
884.504	451
884.555	543
884.610	630
884.636	676
884.716	1095
884.716	1103
884.797	1023
884.821	898
884.877	885
884.927	1161
884.958	1260
885.033	1307
885.038	1307
885.118	1188
885.139	1065
885.199	718
885.244	788
885.279	941
885.350	936
885.359	997
885.439	1331
885.456	1419
885.520	1009
885.561	825
885.600	1006
885.667	1243
885.680	1232
885.760	1059
885.773	1012
885.840	1032
885.878	1065
885.920	1088
885.984	1109
886.000	1149
886.080	1526
886.089	1525
886.160	1234
886.195	1068
886.240	886
886.300	925
886.320	1136
886.400	1721
886.406	1767
886.480	2281
886.511	2434
886.560	3568
886.616	4623
886.640	4093
886.720	2428
886.722	2376
886.800	1798
886.827	1645
886.879	1598
886.932	1383
886.959	1610
887.038	2508
887.039	2508
887.119	1576
887.143	1290
887.198	1318
887.248	1415
887.278	1500
887.354	1467
887.358	1469
887.437	1585
887.459	1536
887.517	1852
887.564	2177
887.596	1955
887.669	1392
887.676	1426
887.755	1679
887.774	1770
887.835	1501
887.880	1237
887.914	1367
887.985	1576
887.994	1563
888.073	1336
888.090	1309
888.153	1385
888.195	1360
888.232	1412
888.300	1586
888.311	1601
888.391	1477
888.405	1466
888.470	1425
888.510	1410
888.549	1512
888.615	1652
888.628	1633
888.708	1422
888.720	1381
888.787	1319
888.825	1284
888.866	1289
888.930	1304
888.945	1415
889.024	1965
889.035	2024
889.103	1748
889.140	1595
889.182	1669
889.245	1776
889.261	1689
889.340	1249
889.349	1191
889.419	1814
889.454	2114
889.498	1810
889.559	1380
889.577	1367
889.656	1287
889.664	1276
889.735	1606
889.768	1758
889.814	1780
889.873	1795
889.978	2126
890.083	1707
890.187	2063
890.292	1628
890.397	811
890.501	2077
890.606	1704
890.710	2211
890.815	2632
890.919	2302
891.024	2310
891.128	2676
891.233	1935
891.337	2505
891.442	2171
891.546	1382
891.650	1787
891.755	1660
891.859	3608
891.963	2357
892.068	2013
892.172	1506
892.276	1756
892.380	1776
892.484	2260
892.589	1877
892.693	2726
892.797	1593
892.901	1532
893.005	2139
893.109	2177
893.213	1813
893.317	1841
893.421	1663
893.525	1625
893.629	1238
893.733	1715
893.837	1036
893.941	1442
894.045	1770
894.148	1400
894.252	1851
894.356	2609
894.460	2653
894.564	1673
894.667	1348
894.771	938
894.875	560
894.978	2032
895.082	1614
895.186	2577
895.289	1904
895.393	1576
895.496	2114
895.600	2060
895.703	973
895.807	728
895.910	1776
896.014	870
896.117	1414
896.221	1414
896.324	838
896.427	592
896.531	1064
896.634	729
896.737	1352
896.840	1680
896.944	1112
897.047	1353
897.150	1670
897.253	1136
897.356	1847
897.460	1969
897.563	1823
897.666	1214
897.769	1326
897.872	854
897.975	736
898.078	748
898.181	955
898.284	885
898.387	1515
898.490	1432
898.593	691
898.695	1604
898.798	649
898.901	1263
899.004	1083
899.107	1092
899.209	2222
899.312	1595
899.415	1609
899.518	542
899.620	1841
899.723	1829
899.826	6840
899.928	8797
900.031	1982
900.133	1679
900.236	957
900.338	646
900.441	1344
900.543	679
900.646	924
900.748	1051
900.851	1835
900.953	1629
901.055	2208
901.158	2530
901.260	948
901.362	1705
901.465	722
901.567	1786
901.669	1640
901.771	730
901.873	1815
901.976	1018
902.078	441
902.180	1128
902.282	1342
902.384	1631
902.486	745
902.588	1570
902.690	1272
902.792	584
902.894	1277
902.996	315
903.098	1609
903.200	265
903.302	1700
903.404	1409
903.505	186
903.607	1451
903.709	1403
903.811	772
903.913	1692
904.014	582
904.116	1124
904.218	1000
904.319	1184
904.421	1939
904.523	1885
904.624	1530
904.726	1474
904.827	556
904.929	1346
905.030	1457
905.132	1284
905.233	1133
905.335	1110
905.436	1302
905.537	746
905.639	2056
905.740	504
905.841	1659
905.943	899
906.044	1418
906.145	818
906.247	1147
906.348	755
906.449	942
906.550	1297
906.651	1005
906.752	584
906.854	590
906.955	1310
907.056	1013
907.157	1839
907.258	1239
907.359	863
907.460	-31
907.561	890
907.662	1022
907.762	1230
907.863	1746
907.964	1167
908.065	1185
908.166	726
908.267	930
908.367	196
908.468	1386
908.569	1282
908.670	2180
908.770	3531
908.871	2528
908.971	1859
909.072	1295
909.173	608
909.273	725
909.374	1186
909.474	515
909.575	1339
909.675	1078
909.776	1666
909.876	959
909.977	1500
910.077	1626
910.177	670
910.278	1839
910.378	563
910.478	1225
910.579	1316
910.679	1496
910.779	433
910.879	1854
910.980	862
911.080	826
911.180	660
911.280	1262
911.380	1553
911.480	1552
911.580	716
911.680	1897
911.780	2483
911.880	2722
911.980	1038
912.080	542
912.180	697
912.280	1122
912.380	988
912.480	1269
912.580	1178
912.679	659
912.779	1180
912.879	515
912.979	719
913.078	570
913.178	719
913.278	1271
913.377	1437
913.477	468
913.577	884
913.676	1258
913.776	1303
913.875	1296
913.975	1188
914.074	920
914.174	894
914.273	171
914.373	1160
914.472	1310
914.572	785
914.671	892
914.770	1019
914.870	115
914.969	868
915.068	831
915.167	1447
915.267	824
915.366	891
915.465	918
915.564	1240
915.663	551
915.763	1216
915.862	1007
915.961	1490
916.060	310
916.159	537
916.258	511
916.357	1097
916.456	1471
916.555	-59
916.654	568
916.752	1013
916.851	1384
916.950	874
917.049	700
917.148	807
917.247	548
917.345	893
917.444	84
917.543	541
917.642	373
917.740	1057
917.839	1348
917.937	993
918.036	1777
918.135	274
918.233	1136
918.332	43
918.430	481
918.529	510
918.627	1482
918.726	249
918.824	1293
918.923	873
919.021	1201
919.119	-31
919.218	685
919.316	880
919.414	1722
919.512	1302
919.611	1177
919.709	504
919.807	1428
919.905	748
920.003	561
920.102	777
920.200	1612
920.298	815
920.396	923
920.494	1541
920.592	1297
920.690	1831
920.788	879
920.886	731
920.984	1469
921.082	1024
921.180	1088
921.277	727
921.375	2000
921.473	1766
921.571	2329
921.669	1376
921.766	1425
921.864	2067
921.962	1354
922.060	822
922.157	1573
922.255	1536
922.352	1542
922.450	1629
922.548	1490
922.645	1564
922.743	3218
922.840	3851
922.938	4310
923.035	4473
923.133	6842
923.230	4760
923.327	4173
923.425	3757
923.522	3836
923.619	2843
923.717	3218
923.814	2837
923.911	3117
924.008	4733
924.106	2252
924.203	2844
924.300	2910
924.397	2829
924.494	3118
924.591	3349
924.688	2264
924.786	2805
924.883	3131
924.979	3426
925.077	3160
925.173	2718
925.270	2649
925.367	3653
925.464	3804
925.561	3604
925.658	4454
925.755	4163
925.852	4693
925.948	3434
926.045	3908
926.142	3488
926.239	3723
926.335	3782
926.432	3807
926.529	3700
926.625	4224
926.722	3292
926.818	3137
926.915	2746
927.011	2628
927.108	2671
927.204	3077
927.301	2742
927.397	2901
927.494	3462
927.590	2006
927.687	2494
927.783	2721
927.879	2462
927.976	3083
928.072	2659
928.168	3355
928.264	2218
928.361	2993
928.457	3025
928.553	2679
928.649	3112
928.745	3166
928.841	2568
928.937	2965
929.033	2327
929.129	2254
929.225	2195
929.321	2199
929.417	2301
929.513	2538
929.609	1838
929.705	2956
929.801	2380
929.897	2213
929.993	1483
930.089	2225
930.184	1505
930.280	2943
930.376	2674
930.471	1610
930.567	2307
930.663	2761
930.758	2474
930.854	1937
930.950	2534
931.045	1929
931.141	2862
931.236	2148
931.332	2075
931.427	1976
931.523	2698
931.618	2249
931.714	1520
931.809	2399
931.905	1883
932.000	1271
932.095	1344
932.191	2667
932.286	2641
932.381	1246
932.476	1390
932.572	2163
932.667	2097
932.762	2133
932.857	1285
932.952	2134
933.047	1564
933.142	1907
933.237	1934
933.332	2616
933.427	2905
933.522	1754
933.617	1483
933.712	2064
933.807	2479
933.902	2231
933.997	1919
934.092	1541
934.187	2688
934.282	1554
934.376	2657
934.471	1434
934.566	1138
934.661	1678
934.755	2496
934.850	1609
934.945	2791
935.039	2387
935.134	1968
935.228	1206
935.323	1943
935.417	1248
935.512	1255
935.606	2520
935.701	1030
935.795	2187
935.890	2352
935.984	1942
936.079	1304
936.173	1976
936.267	1892
936.362	1123
936.456	2087
936.550	2024
936.644	725
936.738	1055
936.833	1647
936.927	1923
937.021	2224
937.115	629
937.209	1266
937.303	2061
937.397	1053
937.491	1128
937.585	1804
937.679	1139
937.773	1135
937.867	1072
937.961	1707
938.055	1702
938.149	1540
938.243	912
938.337	993
938.430	1861
938.524	2448
938.618	2474
938.712	2505
938.805	2388
938.899	1870
938.993	1930
939.086	2410
939.180	1906
939.274	3368
939.367	1947
939.461	1231
939.554	1378
939.648	1054
939.741	1008
939.835	1618
939.928	3140
940.022	2155
940.115	1769
940.208	1801
940.302	2655
940.395	1762
940.488	403
940.582	1185
940.675	731
940.768	1343
940.861	2058
940.954	1693
941.048	985
941.141	983
941.234	2366
941.327	4323
941.420	4997
941.513	2370
941.606	1280
941.699	2212
941.792	1275
941.885	1511
941.978	1006
942.071	1100
942.164	747
942.257	1394
942.349	660
942.442	54
942.535	526
942.628	1515
942.721	881
942.813	-541
942.906	1879
942.999	1477
943.091	618
943.184	598
943.277	963
943.369	1763
943.462	1094
943.554	629
943.647	1137
943.739	1416
943.832	1125
943.924	302
944.017	396
944.109	170
944.201	710
944.294	855
944.386	1448
944.478	696
944.571	574
944.663	332
944.755	641
944.847	648
944.940	1168
945.032	-281
945.124	1643
945.216	1700
945.308	1130
945.400	1062
945.492	1026
945.584	951
945.676	1528
945.768	951
945.860	966
945.952	1242
946.044	674
946.136	698
946.228	860
946.320	824
946.412	942
946.503	813
946.595	1187
946.687	1073
946.779	539
946.870	633
946.962	966
947.054	11
947.145	951
947.237	485
947.329	1151
947.420	510
947.512	1108
947.603	174
947.695	680
947.786	-144
947.878	195
947.969	907
948.061	-513
948.152	-885
948.243	650
948.335	515
948.426	-110
948.517	910
948.609	959
948.700	378
948.791	372
948.882	819
948.973	343
949.065	-121
949.156	274
949.247	232
949.338	1304
949.429	1726
949.520	1007
949.611	-304
949.702	810
949.793	1419
949.884	677
949.975	980
950.066	-45
950.157	101
950.247	-91
950.338	859
950.429	165
950.520	1183
950.611	-210
950.701	-411
950.792	756
950.883	1179
950.973	421
951.064	770
951.155	-173
951.245	904
951.336	923
951.427	-187
951.517	1663
951.608	571
951.698	28
951.788	693
951.879	-211
951.969	525
952.060	-48
952.150	401
952.240	1285
952.331	-1001
952.421	896
952.511	-145
952.602	-337
952.692	491
952.782	-187
952.872	232
952.962	214
953.052	-265
953.143	-228
953.233	1166
953.323	651
953.413	565
953.503	449
953.593	743
953.683	329
953.773	95
953.863	90
953.953	-970
954.042	-73
954.132	155
954.222	882
954.312	90
954.402	171
954.492	393
954.581	534
954.671	-244
954.761	-1476
954.850	986
954.940	-133
955.030	-389
955.119	-564
955.209	207
955.298	-190
955.388	388
955.477	207
955.567	-363
955.656	414
955.746	653
955.835	-311
955.925	-316
956.014	326
956.103	252
956.193	682
956.282	60
956.371	244
956.461	-244
956.550	-168
956.639	0
956.728	293
956.817	723
956.906	-99
956.995	1544
957.085	-600
957.174	381
957.263	1209
957.352	-679
957.441	34
957.530	-314
957.619	-182
957.708	-87
957.796	-530
957.885	-469
957.974	-283
958.063	878
958.152	-1122
958.241	-601
958.329	-398
958.418	-797
958.507	-1664
958.596	2145
958.684	-345
958.773	912
958.861	-1001
958.950	50
959.039	-341
959.127	-645
959.216	345
959.304	76
959.393	-39
959.481	-806
959.570	-451
959.658	-502
959.746	-224
959.835	-78
959.923	-1134
960.011	-55
960.100	-277
960.188	-135
960.276	496
960.365	208
960.453	-1119
960.541	-906
960.629	-182
960.717	-231
960.805	-1050
960.893	32
960.981	-409
961.069	243
961.158	-227
961.245	552
961.333	180
961.421	-1046
961.509	-89
961.597	242
961.685	28
961.773	-136
961.861	-998
961.949	420
962.036	-713
962.124	284
962.212	-355
962.299	-692
962.387	-252
962.475	-231
962.562	-404
962.650	293
962.738	82
962.825	-871
962.913	-590
963.000	-486
963.088	-227
963.175	-320
963.263	167
963.350	-1028
963.438	-581
963.525	-195
963.612	374
963.700	-378
963.787	880
963.874	-567
963.962	-819
964.049	-699
964.136	-1121
964.223	-622
964.310	-332
964.398	-477
964.485	-482
964.572	44
964.659	19
964.746	-550
964.833	589
964.920	-487
965.007	-606
965.094	471
965.181	235
965.268	260
965.355	-515
965.441	-237
965.528	-212
965.615	-32
965.702	-197
965.789	-650
965.875	-973
965.962	140
966.049	-1028
966.136	-84
966.222	-515
966.309	77
966.395	-928
966.482	707
966.569	-18
966.655	-479
966.742	-927
966.828	-141
966.915	-862
967.001	-351
967.087	-438
967.174	-297
967.260	-166
967.347	-1659
967.433	-174
967.519	522
967.605	-1120
967.692	-507
967.778	-921
967.864	-264
967.950	-620
968.036	-926
968.123	-755
968.209	228
968.295	-1386
968.381	117
968.467	-555
968.553	-1482
968.639	-490
968.725	-864
968.811	915
968.897	647
968.983	37
969.069	-846
969.154	-113
969.240	-112
969.326	-497
969.412	-761
969.497	-1329
969.583	-70
969.669	565
969.755	-691
969.840	-719
969.926	432
970.012	393
970.097	443
970.183	-6
970.268	-443
970.354	-187
970.439	-953
970.525	597
970.610	-1268
970.696	-41
970.781	-312
970.866	-1185
970.952	502
971.037	-562
971.122	-742
971.208	-629
971.293	-693
971.378	-1227
971.463	-402
971.549	-442
971.634	339
971.719	-1039
971.804	-1106
971.889	94
971.974	-1195
972.059	294
972.144	-337
972.229	-1250
972.314	-1618
972.399	-1246
972.484	-1268
972.569	-676
972.654	-2382
972.739	817
972.824	-474
972.908	-314
972.993	-1306
973.078	-899
973.163	-1324
973.247	-117
973.332	-1970
973.417	833
973.501	-1227
973.586	-297
973.671	119
973.755	-1
973.840	995
973.924	180
974.009	-792
974.093	-379
974.178	223
974.262	-389
974.346	-581
974.431	-970
974.515	-1225
974.600	-165
974.684	-699
974.768	-536
974.852	-28
974.937	-1205
975.021	-99
975.105	-771
975.189	-370
975.273	-183
975.358	-1281
975.442	-1689
975.526	-33
975.610	-1074
975.694	-1787
975.778	-677
975.862	-756
975.946	-2284
976.030	776
976.114	-1593
976.198	-317
976.281	-359
976.365	-101
976.449	-128
976.533	-924
976.617	-503
976.700	-416
976.784	-580
976.868	-2158
976.951	-329
977.035	-992
977.119	-1188
977.202	-599
977.286	-525
977.369	-739
977.453	111
977.536	-1265
977.620	-942
977.703	21
977.787	-1407
977.870	54
977.953	315
978.037	-1668
978.120	527
978.203	-603
978.287	-471
978.370	-850
978.453	-424
978.536	-1563
978.620	-422
978.703	-320
978.786	-1109
978.869	-677
978.952	-1830
979.035	-79
979.118	-695
979.201	-1480
979.284	20
979.367	-1155
979.450	-397
979.533	-1253
979.616	-810
979.699	-1307
979.782	-832
979.865	-1364
979.948	-701
980.030	-579
980.113	-1019
980.196	-1676
980.279	-331
980.361	-1385
980.444	-1264
980.526	-679
980.609	-552
980.692	-622
980.774	-802
980.857	-2161
980.939	650
981.022	-1595
981.104	-471
981.187	-1235
981.269	-309
981.352	-1100
981.434	-1393
981.516	-1425
981.599	-651
981.681	-1163
981.763	-948
981.846	-796
981.928	-891
982.010	-746
982.092	-1230
982.174	-527
982.256	-700
982.339	-1009
982.421	-863
982.503	-21
982.585	-1927
982.667	-638
982.749	-434
982.831	-560
982.913	-1464
982.995	40
983.077	-486
983.158	194
983.240	-1642
983.322	-581
983.404	277
983.486	-1951
983.568	-449
983.649	-1012
983.731	-380
983.813	-1237
983.894	-322
983.976	-1549
984.058	-828
984.139	-254
984.221	-2112
984.302	-310
984.384	-852
984.465	-354
984.547	-951
984.628	-986
984.710	-834
984.791	-959
984.872	-1780
984.954	-1091
985.035	-1354
985.116	-1210
985.198	-1067
985.279	550
985.360	-1586
985.441	-1190
985.522	-239
985.604	-1621
985.685	-2598
985.766	-142
985.847	565
985.928	-1955
986.009	-891
986.090	-491
986.171	-370
986.252	-1371
986.333	-961
986.414	-419
986.495	-452
986.576	-1115
986.656	-212
986.737	-304
986.818	-451
986.899	-1467
986.980	-888
987.060	183
987.141	-1512
987.222	-86
987.302	-1261
987.383	-608
987.464	-806
987.544	-244
987.625	-518
987.705	38
987.786	293
987.866	-1087
987.947	-563
988.027	129
988.108	-926
988.188	-908
988.268	-1173
988.349	-837
988.429	-777
988.509	-403
988.589	-420
988.670	-2420
988.750	230
988.830	211
988.910	419
988.990	-1061
989.070	-678
989.151	-1323
989.231	-850
989.311	-360
989.391	-1204
989.471	-613
989.551	-1487
989.631	-1194
989.711	-351
989.791	-1883
989.870	-1155
989.950	70
990.030	-958
990.110	-1108
990.190	-1087
990.269	-1155
990.349	-781
990.429	-672
990.509	-911
990.588	-1574
990.668	-1249
990.747	-1100
990.827	-643
990.907	-339
990.986	-919
991.066	31
991.145	-1221
991.225	-1248
991.304	-949
991.383	-1037
991.463	-1034
991.542	-789
991.622	-885
991.701	-1474
991.780	-1007
991.859	-1396
991.939	-1529
992.018	-360
992.097	-1163
992.176	-1506
992.256	-1652
992.335	-1986
992.414	-783
992.493	-688
992.572	-1167
992.651	-23
992.730	-1259
992.809	-481
992.888	-1328
992.967	-1572
993.046	-1226
993.125	-2099
993.203	-572
993.282	-531
993.361	-1142
993.440	-1099
993.519	-1228
993.597	-1214
993.676	-1691
993.755	-134
993.834	-455
993.912	-2534
993.991	-70
994.069	-1950
994.148	-2121
994.226	-1311
994.305	-579
994.384	-1375
994.462	-1027
994.540	-2009
994.619	-1637
994.697	-1274
994.776	-1955
994.854	-56
994.932	-2162
995.011	-1250
995.089	-1759
995.167	-1392
995.245	-1395
995.324	-1871
995.402	-1094
995.480	-1763
995.558	-1503
995.636	-1896
995.714	-1702
995.792	-496
995.870	-1789
995.948	-1320
996.026	-981
996.104	-2319
996.182	-722
996.260	-2303
996.338	-1246
996.416	-2230
996.494	-1246
996.572	-560
996.649	-1762
996.727	-2842
996.805	-943
996.883	-1641
996.960	-1897
997.038	-1479
997.116	-1424
997.193	-1367
997.271	-1824
997.348	-1909
997.426	-1723
997.504	-2292
997.581	-585
997.658	-1641
997.736	-1965
997.813	-1757
997.891	-1052
997.968	-2701
998.046	-1597
998.123	-1693
998.200	-1335
998.277	-2053
998.355	-1324
998.432	-2401
998.509	-1411
998.586	-1068
998.663	-809
998.741	-1553
998.818	-1603
998.895	-1981
998.972	-1451
999.049	-1378
999.126	-2574
999.203	-1225
999.280	-1640
999.357	-1649
999.434	-1471
999.511	-1425
999.587	-1235
999.664	-2077
999.741	-2204
999.818	-794
999.895	-2062
999.971	-1347
1000.048	-1263
1000.125	-1241
1000.202	-1852
1000.278	-1609
1000.355	-1320
1000.431	-2251
1000.508	-1319
1000.584	-1705
1000.661	-1374
1000.738	-2022
1000.814	-2005
1000.890	-1501
1000.967	-2218
1001.043	-1524
1001.120	-2060
1001.196	-1540
1001.272	-2592
1001.349	-2031
1001.425	-995
1001.501	-1374
1001.577	-2293
1001.654	-1402
1001.730	-1815
1001.806	-888
1001.882	-2219
1001.958	-1825
1002.034	-1621
1002.110	-1686
1002.186	-1728
1002.262	-2584
1002.338	-2509
1002.414	-776
1002.490	-1242
1002.566	-1974
1002.642	-2372
1002.718	-504
1002.794	-1337
1002.870	-1713
1002.945	-2458
1003.021	-1406
1003.097	-1963
1003.173	-1441
1003.248	-2242
1003.324	-1730
1003.400	-2079
1003.475	-1876
1003.551	-1573
1003.626	-1647
1003.702	-2295
1003.777	-1886
1003.853	-2351
1003.928	-1684
1004.004	-1963
1004.079	-1437
1004.155	-1784
1004.230	-2214
1004.305	-696
1004.381	-2121
1004.456	-1349
1004.531	-1414
1004.607	-2008
1004.682	-1708
1004.757	-1456
1004.832	-1444
1004.907	-2300
1004.982	-1164
1005.057	-1334
1005.133	-2947
1005.208	-1299
1005.283	-1679
1005.358	-1117
1005.433	-2036
1005.508	-1738
1005.583	-2610
1005.657	-1575
1005.732	-845
1005.807	-2336
1005.882	-2482
1005.957	-2111
1006.032	-940
1006.106	-1895
1006.181	-1855
1006.256	-1887
1006.331	-1876
1006.405	-2220
1006.480	-1183
1006.554	-2362
1006.629	-985
1006.704	-1752
1006.778	-2242
1006.853	-1481
1006.927	-2228
1007.002	-1810
1007.076	-2558
1007.150	-2107
1007.225	-1526
1007.299	-1947
1007.373	-1784
1007.448	-1874
1007.522	-1786
1007.596	-1356
1007.671	-2605
1007.745	-1071
1007.819	-2573
1007.893	-2711
1007.967	-1470
1008.041	-2417
1008.115	-1031
1008.190	-1798
1008.264	-1934
1008.338	-2987
1008.412	-2333
1008.486	-1852
1008.560	-2309
1008.633	-2940
1008.707	-1272
1008.781	-2121
1008.855	-2161
1008.929	-1809
1009.003	-1926
1009.076	-1682
1009.150	-2784
1009.224	-1114
1009.298	-1384
1009.371	-2097
1009.445	-974
1009.519	-1346
1009.592	-2358
1009.666	-1358
1009.739	-1713
1009.813	-3190
1009.886	-720
1009.960	-2698
1010.033	-974
1010.107	-1434
1010.180	-3143
1010.253	-1325
1010.327	-2235
1010.400	-2206
1010.473	-1836
1010.547	-1253
1010.620	-2820
1010.693	-1593
1010.766	-1896
1010.840	-2130
1010.913	-1905
1010.986	-2035
1011.059	-2335
1011.132	-2082
1011.205	-1022
1011.278	-2344
1011.351	-1590
1011.424	-2278
1011.497	-2273
1011.570	-1333
1011.643	-1809
1011.716	-2152
1011.789	-1860
1011.862	-2145
1011.934	-1568
1012.007	-3343
1012.080	-1558
1012.153	-1518
1012.225	-1653
1012.298	-3001
1012.371	-1652
1012.443	-1544
1012.516	-2693
1012.588	-1635
1012.661	-2150
1012.733	-1825
1012.806	-474
1012.879	-2013
1012.951	-2367
1013.023	-2184
1013.096	-1474
1013.168	-2477
1013.241	-1368
1013.313	-1723
1013.385	-3164
1013.458	-1670
1013.530	-747
1013.602	-2161
1013.674	-1914
1013.746	-2518
1013.819	-2785
1013.891	-1457
1013.963	-2781
1014.035	-2343
1014.107	-1561
1014.179	-1597
1014.251	-2635
1014.323	-1434
1014.395	-1820
1014.467	-1721
1014.539	-1429
1014.611	-1560
1014.683	-2418
1014.754	-1384
1014.826	-2635
1014.898	-1919
1014.970	-3096
1015.042	-1084
1015.113	-1037
1015.185	-2481
1015.257	-2617
1015.328	-1507
1015.400	-2133
1015.471	-2367
1015.543	-2292
1015.615	-1404
1015.686	-2909
1015.757	-1808
1015.829	-1851
1015.901	-2189
1015.972	-1488
1016.043	-2586
1016.115	-1802
1016.186	-1602
1016.257	-1684
1016.328	-1659
1016.400	-1072
1016.471	-1549
1016.542	-1813
1016.613	-1695
1016.685	-1507
1016.756	-1281
1016.827	-2384
1016.898	-1132
1016.969	-1291
1017.040	-2444
1017.111	-2448
1017.182	-2861
1017.253	-1755
1017.324	-2266
1017.395	-2726
1017.466	-1212
1017.537	-2345
1017.608	-2079
1017.678	-1932
1017.749	-2146
1017.820	-1863
1017.891	-2883
1017.961	-1689
1018.032	-1511
1018.103	-1617
1018.173	-2131
1018.244	-2593
1018.315	-2744
1018.385	-2092
1018.456	-1761
1018.526	-2565
1018.597	-1100
1018.667	-2293
1018.738	-2082
1018.808	-2458
1018.878	-1534
1018.949	-1704
1019.019	-2021
1019.089	-2316
1019.160	-1423
1019.230	-3115
1019.300	-1129
1019.371	-2665
1019.441	-2143
1019.511	-2256
1019.581	-2056
1019.651	-1909
1019.721	-2784
1019.791	-2943
1019.861	-2609
1019.931	-1906
1020.001	-2790
1020.071	-1766
1020.141	-3124
1020.211	-1869
1020.281	-2135
1020.351	-2577
1020.421	-2857
1020.491	-1827
1020.560	-2107
1020.630	-2799
1020.700	-1825
1020.770	-2713
1020.839	-2215
1020.909	-3173
1020.979	-2480
1021.048	-2126
1021.118	-2197
1021.187	-1569
1021.257	-2052
1021.326	-2664
1021.396	-2838
1021.465	-1895
1021.535	-2319
1021.604	-2310
1021.674	-1984
1021.743	-1698
1021.812	-2293
1021.882	-1492
1021.951	-2300
1022.020	-1761
1022.089	-2162
1022.159	-3053
1022.228	-1752
1022.297	-2359
1022.366	-2456
1022.435	-2171
1022.504	-1605
1022.573	-980
1022.642	-2242
1022.711	-2388
1022.781	-1944
1022.849	-1870
1022.918	-2707
1022.987	-2420
1023.056	-1995
1023.125	-2691
1023.194	-2749
1023.263	-970
1023.331	-1287
1023.400	-2225
1023.469	-2706
1023.538	-1877
1023.606	-2422
1023.675	-2272
1023.744	-2185
1023.812	-2262
1023.881	-2453
1023.949	-2344
1024.018	-2614
1024.086	-2819
1024.155	-2017
1024.223	-2200
1024.292	-2446
1024.360	-1699
1024.429	-1891
1024.497	-3141
1024.565	-2543
1024.634	-2327
1024.702	-1917
1024.770	-2084
1024.838	-2340
1024.907	-1845
1024.975	-2320
1025.043	-1535
1025.111	-3055
1025.179	-2287
1025.247	-2090
1025.315	-2309
1025.383	-2715
1025.451	-2770
1025.519	-2212
1025.587	-2681
1025.655	-2409
1025.723	-1945
1025.791	-2679
1025.859	-1881
1025.927	-1243
1025.995	-3062
1026.062	-1944
1026.130	-1753
1026.198	-3220
1026.266	-2442
1026.333	-2215
1026.401	-1975
1026.469	-2652
1026.536	-2124
1026.604	-2306
1026.671	-2012
1026.739	-3227
1026.806	-2645
1026.874	-2824
1026.941	-1905
1027.009	-3009
1027.076	-2149
1027.144	-1659
1027.211	-2494
1027.278	-2230
1027.345	-2761
1027.413	-1578
1027.480	-2152
1027.547	-2493
1027.614	-3373
1027.682	-2272
1027.749	-1795
1027.816	-2026
1027.883	-2458
1027.950	-2312
1028.017	-1896
1028.084	-1651
1028.151	-3325
1028.218	-2655
1028.285	-2870
1028.352	-2018
1028.419	-2633
1028.486	-2420
1028.553	-2398
1028.619	-2116
1028.686	-3024
1028.753	-2973
1028.820	-2623
1028.886	-2206
1028.953	-2061
1029.020	-1870
1029.086	-2372
1029.153	-2312
1029.220	-2019
1029.286	-2417
1029.353	-1927
1029.419	-2535
1029.486	-2577
1029.552	-2181
1029.619	-2576
1029.685	-2211
1029.751	-2026
1029.818	-1915
1029.884	-2795
1029.951	-1530
1030.017	-2259
1030.083	-1959
1030.149	-2485
1030.216	-3073
1030.282	-2414
1030.348	-3120
1030.414	-2081
1030.480	-2341
1030.546	-2551
1030.612	-1461
1030.678	-2314
1030.744	-2635
1030.810	-2654
1030.876	-2430
1030.942	-2325
1031.008	-2528
1031.074	-2760
1031.140	-2796
1031.206	-1394
1031.272	-2347
1031.337	-2227
1031.403	-2698
1031.469	-1851
1031.534	-2084
1031.600	-1946
1031.666	-2756
1031.731	-2106
1031.797	-2117
1031.863	-2509
1031.928	-2001
1031.994	-2454
1032.059	-2548
1032.125	-1850
1032.190	-2064
1032.256	-2030
1032.321	-2994
1032.386	-2243
1032.452	-1482
1032.517	-2363
1032.582	-2179
1032.647	-2363
1032.713	-2607
1032.778	-2216
1032.843	-1870
1032.908	-2029
1032.974	-2105
1033.039	-2691
1033.104	-1113
1033.169	-2201
1033.234	-2117
1033.299	-1304
1033.364	-1835
1033.429	-1130
1033.494	-1729
1033.559	-2256
1033.624	-3038
1033.688	-1703
1033.753	-1584
1033.818	-1982
1033.883	-2942
1033.948	-2202
1034.013	-2156
1034.077	-2336
1034.142	-996
1034.207	-746
1034.271	549
1034.336	1065
1034.400	-575
1034.465	-588
1034.530	-1614
1034.594	-1759
1034.658	-2856
1034.723	-2688
1034.787	-1652
1034.852	-1178
1034.916	-2489
1034.981	-2646
1035.045	-2490
1035.109	-2695
1035.173	-1568
1035.238	-2495
1035.302	-2223
1035.366	-1825
1035.430	-2018
1035.495	-2875
1035.559	-2132
1035.623	-2075
1035.687	-2399
1035.751	-1868
1035.815	-2815
1035.879	-2782
1035.943	-2343
1036.007	-2367
1036.071	-1758
1036.135	-1595
1036.198	-2113
1036.262	-1813
1036.326	-2489
1036.390	-2633
1036.454	-1968
1036.517	-1189
1036.581	-626
1036.645	-562
1036.709	-1304
1036.772	-1800
1036.836	-2757
1036.900	-2327
1036.963	-1755
1037.026	-2360
1037.090	-2126
1037.154	-2635
1037.217	-2552
1037.280	-2784
1037.344	-2133
1037.407	-1983
1037.471	-2922
1037.534	-2531
1037.597	-1582
1037.661	-2736
1037.724	-2288
1037.787	-2023
1037.850	-2977
1037.913	-3123
1037.977	-1763
1038.040	-2727
1038.103	-2445
1038.166	-1989
1038.229	-2625
1038.292	-1420
1038.355	-2379
1038.418	-1684
1038.481	-961
1038.544	-1615
1038.607	-2856
1038.670	-1779
1038.732	-2114
1038.795	-2488
1038.858	-2448
1038.921	-1415
1038.984	-1919
1039.046	-1929
1039.109	-3007
1039.172	-2410
1039.234	-1655
1039.297	-2964
1039.360	-1944
1039.422	-1997
1039.485	-2402
1039.547	-2889
1039.610	-1800
1039.672	-2416
1039.734	-2352
1039.797	-2182
1039.859	-2079
1039.922	-1943
1039.984	-2012
1040.046	-2025
1040.109	-2097
1040.171	-2079
1040.233	-2581
1040.295	-2178
1040.358	-2635
1040.420	-2458
1040.482	-2752
1040.544	-2616
1040.606	-1634
1040.668	-2276
1040.730	-2224
1040.792	-1811
1040.854	-2710
1040.916	-1800
1040.978	-2671
1041.040	-1521
1041.102	-2139
1041.164	-2413
1041.225	-2293
1041.287	-2430
1041.349	-1746
1041.411	-2367
1041.472	-1972
1041.534	-2510
1041.596	-2070
1041.657	-2078
1041.719	-2296
1041.781	-2760
1041.842	-2018
1041.904	-2674
1041.965	-2850
1042.027	-2603
1042.088	-2720
1042.150	-2190
1042.211	-1866
1042.272	-1559
1042.334	-2392
1042.395	-1582
1042.456	-2061
1042.518	-2033
1042.579	-1520
1042.640	-2510
1042.701	-2361
1042.763	-1779
1042.824	-2074
1042.885	-2581
1042.946	-2349
1043.007	-1925
1043.068	-1394
1043.129	-2281
1043.190	-2058
1043.251	-1539
1043.312	-2610
1043.373	-2126
1043.434	-1558
1043.495	-2163
1043.556	-1141
1043.616	-2022
1043.677	-2306
1043.738	-2317
1043.799	-2880
1043.859	-1582
1043.920	-1880
1043.981	-2118
1044.041	-1918
1044.102	-2532
1044.162	-1508
1044.223	-2149
1044.284	-2448
1044.344	-1558
1044.405	-2077
1044.465	-2333
1044.525	-1977
1044.586	-1972
1044.646	-2319
1044.707	-2519
1044.767	-2189
1044.827	-2960
1044.887	-2275
1044.948	-1989
1045.008	-2079
1045.068	-1957
1045.128	-1342
1045.188	-2103
1045.249	-1031
1045.309	-1605
1045.369	-1266
1045.429	-1939
1045.489	-1604
1045.549	-1850
1045.609	-2142
1045.669	-1981
1045.729	-1996
1045.789	-1522
1045.848	-2517
1045.908	-2270
1045.968	-1708
1046.028	-1665
1046.088	-1723
1046.147	-1804
1046.207	-1406
1046.267	-873
1046.326	-981
1046.386	-1473
1046.446	-715
1046.505	-829
1046.565	-584
1046.624	-1612
1046.684	-881
1046.743	-873
1046.803	-809
1046.862	-135
1046.922	0
