'Start Wavelength	183.907
'End Wavelength	1046.922
'Gate Delay	5.000
'Gate Width (ms)	1.050
'Laser Output Level	0.000
'X Position	0.000
'Y Position	0.000
'Z Position	0.000
'Grid Point Number	1.000
'Shot Number	100.000
183.907	-341.000
183.977	328.000
184.047	233
184.116	-84
184.186	396
184.256	-476
184.325	-516
184.395	-611
184.465	142
184.534	-639
184.604	-199
184.674	-183
184.743	-727
184.813	272
184.883	521
184.952	-84
185.022	754
185.092	173
185.161	312
185.231	-159
185.301	-151
185.370	-335
185.440	-72
185.509	-429
185.579	-996
185.649	-86
185.718	253
185.788	116
185.857	-1041
185.927	-112
185.996	-501
186.066	54
186.136	-1181
186.205	-8
186.275	817
186.344	-514
186.414	-33
186.483	-364
186.553	447
186.622	365
186.692	-31
186.761	-270
186.831	-171
186.900	-250
186.970	0
187.039	275
187.109	126
187.178	345
187.248	821
187.317	467
187.387	-38
187.456	654
187.526	-248
187.595	-178
187.664	364
187.734	502
187.803	558
187.873	-686
187.942	-78
188.012	138
188.081	-612
188.150	121
188.220	126
188.289	180
188.358	119
188.428	-428
188.497	-449
188.567	997
188.636	445
188.705	244
188.775	-331
188.844	-208
188.913	1218
188.983	-112
189.052	210
189.121	499
189.191	-391
189.260	95
189.329	281
189.399	-355
189.468	163
189.537	215
189.606	131
189.676	-712
189.745	217
189.814	813
189.883	-361
189.953	-33
190.022	-290
190.091	973
190.161	1482
190.230	566
190.299	745
190.368	510
190.437	-203
190.507	-136
190.576	-51
190.645	790
190.714	616
190.783	560
190.853	305
190.922	-57
190.991	197
191.060	415
191.129	-407
191.198	-6
191.268	25
191.337	-111
191.406	334
191.475	115
191.544	318
191.613	133
191.682	-272
191.752	563
191.821	-59
191.890	-73
191.959	286
192.028	-198
192.097	190
192.166	846
192.235	-529
192.304	780
192.373	-402
192.442	-532
192.511	-170
192.580	-15
192.650	201
192.719	-108
192.788	671
192.857	201
192.926	-507
192.995	159
193.064	630
193.133	442
193.202	634
193.271	2
193.340	-23
193.409	758
193.478	758
193.547	466
193.615	956
193.684	1087
193.753	554
193.822	219
193.891	-585
193.960	-208
194.029	241
194.098	144
194.167	-48
194.236	757
194.305	-303
194.374	343
194.443	-194
194.512	1199
194.580	230
194.649	-252
194.718	876
194.787	695
194.856	-84
194.925	-19
194.994	733
195.062	430
195.131	533
195.200	34
195.269	1063
195.338	754
195.407	-207
195.475	373
195.544	397
195.613	262
195.682	273
195.751	1491
195.819	420
195.888	980
195.957	1534
196.026	947
196.094	1432
196.163	889
196.232	614
196.301	194
196.369	423
196.438	12
196.507	669
196.576	199
196.644	-697
196.713	70
196.782	-54
196.850	630
196.919	36
196.988	605
197.056	-336
197.125	10
197.194	751
197.262	-481
197.331	95
197.400	-316
197.468	94
197.537	194
197.606	283
197.674	1020
197.743	1434
197.812	247
197.880	1403
197.949	733
198.017	1348
198.086	887
198.155	312
198.223	472
198.292	1654
198.360	628
198.429	543
198.497	452
198.566	573
198.635	1041
198.703	875
198.772	574
198.840	1544
198.909	1114
198.977	-318
199.046	470
199.114	1156
199.183	-115
199.251	-23
199.320	-83
199.388	-56
199.457	-434
199.525	224
199.594	579
199.662	526
199.731	203
199.799	844
199.867	1399
199.936	-82
200.004	71
200.073	696
200.141	-51
200.210	-328
200.278	98
200.346	-266
200.415	678
200.483	713
200.552	149
200.620	-109
200.688	472
200.757	574
200.825	908
200.893	-156
200.962	-188
201.030	502
201.098	542
201.167	593
201.235	-6
201.303	462
201.372	904
201.440	94
201.508	664
201.577	720
201.645	78
201.713	64
201.781	609
201.850	534
201.918	-43
201.986	170
202.055	184
202.123	-106
202.191	568
202.259	130
202.327	180
202.396	617
202.464	431
202.532	1115
202.600	3609
202.669	2302
202.737	575
202.805	351
202.873	648
202.941	-715
203.009	835
203.078	-1
203.146	-227
203.214	-45
203.282	-174
203.350	617
203.418	-418
203.487	138
203.555	335
203.623	-68
203.691	583
203.759	-401
203.827	-701
203.895	494
203.963	-136
204.031	-38
204.099	335
204.168	564
204.236	257
204.304	-119
204.372	543
204.440	-359
204.508	-45
204.576	-126
204.644	95
204.712	-501
204.780	772
204.848	401
204.916	-216
204.984	665
205.052	421
205.120	635
205.188	354
205.256	509
205.324	24
205.392	-72
205.460	606
205.528	-114
205.596	24
205.664	63
205.732	508
205.799	1387
205.867	3436
205.935	27
206.003	1691
206.071	482
206.139	113
206.207	775
206.275	743
206.343	-125
206.411	264
206.478	-656
206.546	637
206.614	-316
206.682	256
206.750	883
206.818	408
206.885	1325
206.953	-760
207.021	501
207.089	503
207.157	-598
207.225	337
207.292	190
207.360	-222
207.428	554
207.496	-157
207.563	117
207.631	475
207.699	-359
207.767	408
207.834	-177
207.902	110
207.970	36
208.038	383
208.105	493
208.173	-167
208.241	761
208.309	1055
208.376	896
208.444	1444
208.512	650
208.579	-605
208.647	123
208.715	863
208.782	360
208.850	375
208.918	766
208.985	92
209.053	556
209.120	468
209.188	245
209.256	196
209.323	-277
209.391	966
209.459	1579
209.526	19
209.594	732
209.661	-222
209.729	-219
209.796	1237
209.864	840
209.932	-866
209.999	1662
210.067	478
210.134	198
210.202	448
210.269	1092
210.337	861
210.404	58
210.472	1279
210.539	404
210.607	339
210.674	840
210.742	709
210.809	362
210.877	-26
210.944	1142
211.012	929
211.079	1997
211.146	664
211.214	-269
211.281	958
211.349	1265
211.416	1344
211.484	536
211.551	545
211.618	481
211.686	1067
211.753	51
211.821	102
211.888	-67
211.955	412
212.023	726
212.090	-140
212.157	414
212.225	586
212.292	2714
212.359	3905
212.427	10182
212.494	4866
212.561	1370
212.629	745
212.696	375
212.763	1112
212.831	-858
212.898	1382
212.965	-131
213.032	851
213.100	1136
213.167	-52
213.234	2157
213.301	964
213.369	389
213.436	918
213.503	41
213.570	1032
213.638	375
213.705	335
213.772	-89
213.839	1180
213.906	1687
213.973	1797
214.041	362
214.108	1558
214.175	642
214.242	1323
214.309	2
214.376	698
214.444	524
214.511	1034
214.578	299
214.645	472
214.712	1119
214.779	729
214.846	692
214.913	744
214.980	1098
215.048	948
215.115	1564
215.182	1863
215.249	1704
215.316	564
215.383	931
215.450	625
215.517	715
215.584	322
215.651	1142
215.718	458
215.785	1763
215.852	691
215.919	2088
215.986	3265
216.053	1414
216.120	-109
216.187	1984
216.254	1049
216.321	383
216.388	1476
216.455	1468
216.522	463
216.589	2267
216.656	3440
216.722	2981
216.789	1947
216.856	1595
216.923	1354
216.990	1138
217.057	1258
217.124	2488
217.191	1744
217.258	1962
217.324	2830
217.391	2115
217.458	1859
217.525	1348
217.592	1130
217.659	694
217.725	2096
217.792	2665
217.859	3301
217.926	688
217.993	1095
218.059	678
218.126	681
218.193	153
218.260	203
218.327	654
218.393	-16
218.460	796
218.527	638
218.594	1283
218.660	2667
218.727	3415
218.794	553
218.860	1410
218.927	166
218.994	219
219.061	1366
219.127	1664
219.194	2813
219.261	784
219.327	950
219.394	1693
219.461	-523
219.527	1046
219.594	1994
219.661	1235
219.727	-222
219.794	514
219.860	-118
219.927	364
219.994	1749
220.060	4254
220.127	2382
220.193	1234
220.260	1073
220.326	1630
220.393	2082
220.460	3605
220.526	2305
220.593	329
220.659	2419
220.726	1113
220.792	5339
220.859	3779
220.925	4936
220.992	6981
221.058	7606
221.125	7761
221.191	5889
221.258	1831
221.324	2108
221.391	2527
221.457	838
221.524	825
221.590	1629
221.657	7312
221.723	4552
221.789	4333
221.856	4725
221.922	1985
221.989	1862
222.055	874
222.121	323
222.188	2285
222.254	1649
222.321	427
222.387	-160
222.453	1035
222.520	234
222.586	-196
222.652	431
222.719	242
222.785	838
222.851	599
222.918	364
222.984	604
223.050	309
223.116	-693
223.183	2360
223.249	-1
223.315	-398
223.382	574
223.448	364
223.514	400
223.580	-239
223.647	340
223.713	8
223.779	-201
223.845	356
223.911	599
223.978	-516
224.044	683
224.110	669
224.176	879
224.242	637
224.309	-369
224.375	915
224.441	251
224.507	-451
224.573	-116
224.639	1131
224.705	-241
224.772	166
224.838	-387
224.904	792
224.970	569
225.036	228
225.102	431
225.168	1237
225.234	1407
225.300	509
225.366	614
225.432	376
225.499	-532
225.565	1073
225.631	616
225.697	625
225.763	1055
225.829	1179
225.895	1143
225.961	3587
226.027	2134
226.093	1597
226.159	1515
226.225	2897
226.291	5883
226.357	12164
226.423	6918
226.489	3896
226.554	1548
226.620	1683
226.686	2248
226.752	4893
226.818	6268
226.884	16356
226.950	14648
227.016	4138
227.082	2847
227.148	2424
227.214	2929
227.279	1774
227.345	1845
227.411	1249
227.477	1494
227.543	3823
227.609	4251
227.674	2344
227.740	1583
227.806	1516
227.872	968
227.938	1154
228.003	3533
228.069	934
228.135	37
228.201	530
228.267	-346
228.332	1611
228.398	1884
228.464	1757
228.530	642
228.595	849
228.661	84
228.727	3232
228.792	2930
228.858	7
228.924	-357
228.990	2757
229.055	1209
229.121	2377
229.187	1009
229.252	1820
229.318	1253
229.384	1016
229.449	2756
229.515	325
229.581	-100
229.646	1896
229.712	975
229.777	4151
229.843	5133
229.909	3398
229.974	3376
230.040	3570
230.105	2252
230.171	1219
230.236	2084
230.302	4526
230.368	3864
230.433	1720
230.499	1931
230.564	2183
230.630	409
230.695	1106
230.761	1113
230.826	-370
230.892	3489
230.957	1717
231.023	919
231.088	629
231.154	793
231.219	1058
231.284	1400
231.350	1976
231.415	308
231.481	1456
231.546	269
231.612	1212
231.677	233
231.742	-21
231.808	1838
231.873	385
231.939	-898
232.004	3104
232.069	3456
232.135	884
232.200	153
232.265	940
232.331	8
232.396	29
232.461	-604
232.527	-29
232.592	-795
232.657	490
232.723	2362
232.788	1684
232.853	1739
232.918	1125
232.984	136
233.049	553
233.114	970
233.179	1359
233.245	3411
233.310	4649
233.375	662
233.440	1795
233.506	1560
233.571	431
233.636	1068
233.701	595
233.766	1539
233.832	3371
233.897	1925
233.962	888
234.027	3131
234.092	1637
234.157	1600
234.222	1176
234.288	1992
234.353	7968
234.418	8199
234.483	4441
234.548	2954
234.613	3164
234.678	1775
234.743	2680
234.808	9048
234.873	5315
234.938	3250
235.004	1474
235.069	2104
235.134	934
235.199	1691
235.264	2106
235.329	-247
235.394	1550
235.459	2123
235.524	575
235.589	1315
235.654	476
235.719	-440
235.784	1977
235.849	1566
235.913	4642
235.978	5733
236.043	6100
236.108	2171
236.173	1411
236.238	2657
236.303	947
236.368	499
236.433	2779
236.498	5034
236.563	2863
236.627	5274
236.692	21749
236.757	18208
236.822	6972
236.887	4472
236.952	4905
237.017	1638
237.081	4330
237.146	3608
237.211	8079
237.276	19933
237.341	40693
237.405	18111
237.470	6873
237.535	5394
237.600	3121
237.664	2760
237.729	1547
237.794	1937
237.859	5141
237.923	4366
237.988	2781
238.053	4052
238.118	4374
238.182	10340
238.247	10691
238.312	4234
238.376	4106
238.441	1907
238.506	3245
238.570	-94
238.635	1932
238.700	1688
238.764	1320
238.829	4125
238.893	6071
238.958	2902
239.023	3113
239.087	1432
239.152	1478
239.216	1171
239.281	1526
239.346	1182
239.410	165
239.475	1590
239.539	10055
239.604	7924
239.668	2860
239.733	949
239.797	1733
239.862	4265
239.926	8434
239.991	3337
240.055	1902
240.120	892
240.184	2543
240.249	964
240.313	1430
240.378	1219
240.442	6169
240.507	10878
240.571	3331
240.635	3647
240.700	6707
240.764	2261
240.829	1671
240.893	653
240.957	1768
241.022	5486
241.086	11473
241.151	5859
241.215	748
241.279	2946
241.344	5778
241.408	3629
241.472	1632
241.537	2169
241.601	1581
241.665	679
241.730	1161
241.794	2771
241.858	1206
241.922	1877
241.987	1971
242.051	1033
242.115	368
242.179	1455
242.244	1173
242.308	1981
242.372	1692
242.436	1094
242.501	1491
242.565	860
242.629	1277
242.693	1962
242.757	1324
242.822	1762
242.886	2275
242.950	1692
243.014	957
243.078	2986
243.142	2649
243.206	2129
243.271	2266
243.335	1841
243.399	3669
243.463	12978
243.527	39138
243.591	13455
243.655	6331
243.719	2360
243.783	4116
243.847	5310
243.911	7255
243.975	10701
244.040	7178
244.104	4344
244.168	2159
244.232	5108
244.296	7306
244.360	7127
244.424	4360
244.488	2828
244.552	3882
244.615	323
244.679	2647
244.743	3259
244.807	3515
244.871	1749
244.935	2054
244.999	575
245.063	2290
245.127	3051
245.191	5210
245.255	4054
245.319	4288
245.383	2802
245.446	2961
245.510	1134
245.574	3127
245.638	2289
245.702	2305
245.766	9007
245.829	5781
245.893	2335
245.957	2020
246.021	3520
246.085	2936
246.149	4386
246.212	12037
246.276	17781
246.340	7416
246.404	5659
246.467	5664
246.531	7184
246.595	5188
246.659	4489
246.722	2886
246.786	6177
246.850	5452
246.913	8225
246.977	2458
247.041	2769
247.104	3340
247.168	3455
247.232	11131
247.295	24381
247.359	12396
247.423	4740
247.486	10218
247.550	6193
247.614	4308
247.677	7198
247.741	4217
247.804	3053
247.868	3800
247.932	8405
247.995	23446
248.059	8136
248.122	3013
248.186	4896
248.249	9114
248.313	36252
248.376	40862
248.440	25138
248.503	8746
248.567	8132
248.630	10607
248.694	15170
248.757	18834
248.821	39932
248.884	25176
248.948	20474
249.011	30925
249.075	46137
249.138	40715
249.202	15678
249.265	9005
249.328	9757
249.392	7478
249.455	6787
249.519	4941
249.582	6081
249.645	11811
249.709	7788
249.772	4397
249.835	4243
249.899	5187
249.962	4165
250.025	4224
250.089	12889
250.152	20943
250.215	9444
250.279	5753
250.342	5527
250.405	5014
250.468	4510
250.532	7188
250.595	11210
250.658	34701
250.721	61761
250.785	23575
250.848	12759
250.911	6807
250.974	7018
251.038	9109
251.101	22680
251.164	10797
251.227	10663
251.290	9722
251.354	13133
251.417	49216
251.480	51771
251.543	33041
251.606	91383
251.669	72491
251.732	27871
251.795	30657
251.859	29920
251.922	57662
251.985	37555
252.048	13804
252.111	10054
252.174	9928
252.237	20515
252.300	47251
252.363	44144
252.426	81753
252.489	36202
252.552	18518
252.615	11705
252.678	12287
252.741	32057
252.804	39188
252.867	79144
252.930	53861
252.993	29566
253.056	18437
253.119	12305
253.182	9193
253.245	15110
253.308	12896
253.371	12481
253.434	12295
253.497	11519
253.559	21582
253.622	15774
253.685	19688
253.748	22385
253.811	9459
253.874	11824
253.937	9903
254.000	8375
254.062	14366
254.125	24454
254.188	19354
254.251	18632
254.314	7731
254.376	16051
254.439	20328
254.502	16511
254.565	15302
254.628	29202
254.690	18640
254.753	9809
254.816	8458
254.878	8552
254.941	15678
255.004	16990
255.067	8120
255.129	8278
255.192	4022
255.255	3147
255.317	4935
255.380	3285
255.443	1687
255.505	2114
255.568	2066
255.631	2293
255.693	3416
255.756	1688
255.819	3109
255.881	967
255.944	2322
256.006	1393
256.069	1618
256.132	2414
256.194	3477
256.257	10497
256.319	7658
256.382	6327
256.444	3879
256.507	2547
256.569	1875
256.632	2260
256.694	4084
256.757	11086
256.819	32871
256.882	12552
256.944	6282
257.007	5583
257.069	6797
257.132	4209
257.194	3585
257.257	3288
257.319	3243
257.381	2711
257.444	8558
257.506	38599
257.569	47847
257.631	33566
257.693	16367
257.756	6811
257.818	5929
257.880	3888
257.943	3135
258.005	2800
258.067	2866
258.130	2614
258.192	4216
258.254	11571
258.317	5915
258.379	3757
258.441	13548
258.503	12556
258.566	12429
258.628	17280
258.690	3915
258.753	4733
258.815	11065
258.877	5553
258.939	3061
259.001	3151
259.064	2311
259.126	3357
259.188	5430
259.250	4272
259.312	5923
259.375	19614
259.437	13071
259.499	3962
259.561	3937
259.623	4056
259.685	3078
259.747	3210
259.809	10816
259.872	22440
259.934	31367
259.996	31485
260.058	8330
260.120	2973
260.182	2852
260.244	1455
260.306	2491
260.368	3211
260.430	1917
260.492	5765
260.554	15812
260.616	15216
260.678	19391
260.740	26541
260.802	6764
260.864	5946
260.926	4346
260.988	5356
261.050	3585
261.112	7314
261.174	21749
261.236	19197
261.298	6390
261.359	9970
261.421	16595
261.483	4397
261.545	4682
261.607	1830
261.669	2697
261.731	6066
261.793	18189
261.854	8711
261.916	5200
261.978	3124
262.040	4561
262.102	4094
262.164	5287
262.225	5972
262.287	3348
262.349	10643
262.411	9780
262.472	4539
262.534	6190
262.596	15249
262.658	5815
262.719	2812
262.781	5037
262.843	14224
262.904	6871
262.966	4232
263.028	5879
263.090	23815
263.151	65822
263.213	22287
263.275	12595
263.336	5904
263.398	4065
263.459	2447
263.521	2690
263.583	10304
263.644	8489
263.706	3329
263.767	1651
263.829	1640
263.891	904
263.952	1264
264.014	1161
264.075	1939
264.137	6789
264.198	5572
264.260	1596
264.321	710
264.383	6380
264.444	13759
264.506	4083
264.567	2039
264.629	3763
264.690	7785
264.752	4365
264.813	2591
264.875	1311
264.936	1824
264.998	2215
265.059	776
265.120	1374
265.182	3082
265.243	13726
265.305	13988
265.366	3098
265.427	2124
265.489	3028
265.550	400
265.611	2740
265.673	2318
265.734	1427
265.795	1532
265.857	496
265.918	1196
265.979	4607
266.040	24203
266.102	21265
266.163	6269
266.224	6401
266.286	2502
266.347	1629
266.408	2076
266.469	2879
266.530	2238
266.592	1241
266.653	5955
266.714	12659
266.775	3209
266.836	2733
266.898	1489
266.959	2905
267.020	3327
267.081	2644
267.142	973
267.203	2169
267.264	1476
267.326	2690
267.387	1920
267.448	1426
267.509	2329
267.570	1799
267.631	2216
267.692	-113
267.753	2028
267.814	964
267.875	5060
267.936	14228
267.997	5365
268.058	4240
268.119	2593
268.180	2647
268.241	2159
268.302	1811
268.363	1179
268.424	2582
268.485	2315
268.546	477
268.607	1103
268.668	298
268.729	830
268.790	1117
268.851	1772
268.912	7574
268.972	11459
269.033	5259
269.094	1382
269.155	1395
269.216	1278
269.277	1521
269.338	2104
269.398	1293
269.459	3102
269.520	4319
269.581	6188
269.642	8625
269.702	4539
269.763	4190
269.824	2361
269.885	4145
269.945	7506
270.006	2130
270.067	820
270.128	1801
270.188	1451
270.249	1491
270.310	751
270.370	1608
270.431	1497
270.492	757
270.553	1486
270.613	6480
270.674	15350
270.734	5864
270.795	2290
270.856	5642
270.916	4924
270.977	2096
271.038	2815
271.098	3677
271.159	6041
271.219	6045
271.280	2445
271.340	1548
271.401	2762
271.462	7800
271.522	4786
271.583	1996
271.643	1797
271.704	1930
271.764	3371
271.825	10053
271.885	33625
271.946	47628
272.006	15898
272.066	20355
272.127	35415
272.187	11185
272.248	6507
272.308	5827
272.369	24250
272.429	14262
272.489	9888
272.550	10771
272.610	10885
272.671	8964
272.731	5966
272.791	10880
272.852	6465
272.912	5693
272.972	3488
273.033	3463
273.093	4720
273.153	5745
273.214	3112
273.274	4452
273.334	14698
273.394	36087
273.455	15622
273.515	13712
273.575	31779
273.635	14803
273.696	16290
273.756	34788
273.816	15698
273.876	7916
273.936	13470
273.997	25419
274.057	6832
274.117	5056
274.177	9040
274.237	40646
274.297	37495
274.358	23637
274.418	27846
274.478	21908
274.538	7268
274.598	6003
274.658	19298
274.718	28018
274.778	11063
274.838	5455
274.898	11325
274.958	37658
275.018	33615
275.078	22800
275.138	9378
275.198	4747
275.258	3361
275.318	4762
275.378	10905
275.438	12165
275.498	6894
275.558	15373
275.618	34898
275.678	26778
275.738	14111
275.798	10626
275.858	4388
275.918	2608
275.978	3943
276.038	4273
276.098	2703
276.157	7196
276.217	25710
276.277	11712
276.337	8527
276.397	4032
276.457	5705
276.517	3381
276.576	2428
276.636	1853
276.696	5611
276.756	13751
276.815	10905
276.875	4269
276.935	5880
276.995	4247
277.055	2265
277.114	2695
277.174	5519
277.234	20474
277.293	8698
277.353	4942
277.413	3180
277.472	3314
277.532	3746
277.592	4930
277.651	17610
277.711	37285
277.771	11618
277.830	39585
277.890	35431
277.950	22191
278.009	64087
278.069	25478
278.128	23611
278.188	37547
278.248	15464
278.307	37623
278.367	24109
278.426	6236
278.486	4447
278.545	3124
278.605	2090
278.664	2988
278.724	4493
278.783	11273
278.843	34115
278.902	10159
278.962	5583
279.021	5726
279.081	7127
279.140	7640
279.199	5207
279.259	5626
279.318	6227
279.378	8388
279.437	17633
279.496	63585
279.556	140609
279.615	118931
279.675	35939
279.734	20369
279.793	29293
279.853	51686
279.912	20265
279.971	10530
280.031	9960
280.090	19306
280.149	37146
280.208	24393
280.268	88949
280.327	99874
280.386	27969
280.445	19878
280.505	19700
280.564	8388
280.623	7184
280.682	10820
280.742	18046
280.801	5339
280.860	3990
280.919	2835
280.978	3239
281.037	2657
281.097	2259
281.156	2934
281.215	2865
281.274	4092
281.333	19575
281.392	17498
281.451	3591
281.510	2328
281.569	2358
281.628	2765
281.688	2147
281.747	2674
281.806	2549
281.865	2362
281.924	1767
281.983	2001
282.042	1207
282.101	1472
282.160	1985
282.219	1110
282.278	2443
282.337	12128
282.396	9853
282.454	3544
282.513	4091
282.572	19052
282.631	11980
282.690	3322
282.749	1984
282.808	4332
282.867	3327
282.926	3457
282.985	2066
283.043	1457
283.102	1811
283.161	2740
283.220	8536
283.279	20631
283.338	6570
283.396	3442
283.455	3185
283.514	3378
283.573	6496
283.631	4542
283.690	2736
283.749	3826
283.808	7240
283.866	10400
283.925	2363
283.984	3090
284.043	3659
284.101	5383
284.160	2950
284.219	3484
284.277	3467
284.336	7309
284.395	26627
284.453	22533
284.512	7976
284.570	11105
284.629	10215
284.688	8481
284.746	9679
284.805	11789
284.863	14547
284.922	19578
284.981	21509
285.039	31013
285.098	55879
285.156	124097
285.215	212702
285.273	211483
285.332	139658
285.390	74401
285.449	45069
285.507	31802
285.566	21889
285.624	16412
285.683	12172
285.741	9417
285.799	8660
285.858	7579
285.916	5989
285.975	4326
286.033	3849
286.091	3107
286.150	2989
286.208	3308
286.267	3233
286.325	3763
286.383	7220
286.442	6031
286.500	2396
286.558	1747
286.616	1646
286.675	3914
286.733	2791
286.791	3083
286.850	1997
286.908	4258
286.966	10691
287.024	3295
287.083	1583
287.141	1904
287.199	2679
287.257	4433
287.315	2649
287.374	2881
287.432	10336
287.490	7520
287.548	4029
287.606	2207
287.664	2287
287.723	3269
287.781	5376
287.839	2972
287.897	3042
287.955	4515
288.013	6083
288.071	15692
288.129	62574
288.187	173128
288.245	80005
288.303	24257
288.361	14122
288.419	10660
288.477	7183
288.535	4635
288.593	3170
288.651	2797
288.709	1122
288.767	980
288.825	1167
288.883	924
288.941	592
288.999	779
289.057	978
289.115	444
289.173	550
289.231	1270
289.289	1662
289.346	1645
289.404	1966
289.462	4612
289.520	5584
289.578	2260
289.636	953
289.694	156
289.751	279
289.809	458
289.867	1201
289.925	1043
289.983	2920
290.040	1017
290.098	1025
290.156	1393
290.214	2215
290.271	641
290.329	731
290.387	-429
290.444	-122
290.502	-57
290.560	-85
290.617	372
290.675	23
290.733	261
290.790	1150
290.848	511
290.906	1010
290.963	1523
291.021	250
291.078	712
291.136	972
291.194	5883
291.251	17835
291.309	4933
291.366	1607
291.424	1484
291.481	1729
291.539	1541
291.596	1733
291.654	-47
291.711	188
291.769	1785
291.826	5733
291.884	3149
291.941	143
291.999	1893
292.056	2013
292.114	1775
292.171	790
292.228	1168
292.286	2046
292.343	5393
292.401	6634
292.458	3290
292.515	1980
292.573	3410
292.630	3795
292.687	3534
292.745	1631
292.802	2363
292.859	7558
292.917	21115
292.974	13110
293.031	3561
293.089	837
293.146	986
293.203	715
293.260	1655
293.318	3437
293.375	2563
293.432	660
293.489	634
293.546	1624
293.604	1922
293.661	10743
293.718	33795
293.775	16512
293.832	7605
293.889	5820
293.947	7575
294.004	5562
294.061	4839
294.118	8355
294.175	17911
294.232	15584
294.289	5426
294.346	2237
294.403	2103
294.460	1919
294.517	2357
294.574	746
294.631	1091
294.688	2516
294.745	8166
294.802	33690
294.859	30885
294.916	13234
294.973	10492
295.030	6493
295.087	5651
295.144	2136
295.201	2782
295.258	1628
295.315	3686
295.372	13167
295.429	27964
295.486	11562
295.542	4580
295.599	8879
295.656	15524
295.713	14146
295.770	26005
295.827	8606
295.883	3049
295.940	3032
295.997	7205
296.054	6552
296.111	2810
296.167	1883
296.224	789
296.281	237
296.338	574
296.394	461
296.451	2378
296.508	10144
296.564	20911
296.621	13946
296.678	27087
296.734	42179
296.791	13152
296.848	7856
296.904	6881
296.961	18193
297.018	30073
297.074	21791
297.131	7018
297.187	5184
297.244	9372
297.301	27142
297.357	54055
297.414	17367
297.470	6408
297.527	4624
297.583	2876
297.640	3523
297.696	2688
297.753	779
297.809	505
297.866	403
297.922	670
297.979	535
298.035	1241
298.092	3722
298.148	16893
298.204	16552
298.261	6930
298.317	11399
298.374	33284
298.430	19948
298.486	8166
298.543	5975
298.599	4852
298.656	5042
298.712	9367
298.768	24474
298.824	17042
298.881	5410
298.937	3081
298.993	2180
299.050	3403
299.106	3036
299.162	2272
299.218	2253
299.275	1195
299.331	2427
299.387	7373
299.443	29150
299.500	31713
299.556	9423
299.612	3975
299.668	3939
299.724	3670
299.780	3224
299.837	3117
299.893	6313
299.949	23681
300.005	29745
300.061	21949
300.117	39354
300.173	19656
300.229	7825
300.285	8638
300.341	13168
300.397	5723
300.453	2319
300.510	1720
300.566	2332
300.622	2673
300.678	8020
300.734	20905
300.790	24025
300.845	30794
300.901	15905
300.957	23434
301.013	19818
301.069	6539
301.125	5380
301.181	5346
301.237	3167
301.293	1569
301.349	1304
301.405	858
301.461	1499
301.516	1563
301.572	2527
301.628	6303
301.684	6584
301.740	9207
301.796	18440
301.851	10951
301.907	19419
301.963	21292
302.019	32485
302.074	85847
302.130	86341
302.186	36674
302.242	14087
302.297	9615
302.353	9771
302.409	18363
302.464	15729
302.520	12518
302.576	30979
302.631	37962
302.687	20169
302.743	7632
302.798	3834
302.854	2675
302.910	2772
302.965	3813
303.021	8502
303.076	8784
303.132	11923
303.187	14821
303.243	6081
303.299	2365
303.354	1506
303.410	1532
303.465	251
303.521	1009
303.576	1064
303.632	2939
303.687	7077
303.743	25334
303.798	22557
303.853	7340
303.909	3426
303.964	3030
304.020	6403
304.075	10665
304.130	8785
304.186	19068
304.241	19456
304.297	14981
304.352	6621
304.358	6267
304.407	3386
304.449	4125
304.463	4368
304.518	3656
304.539	3556
304.573	3365
304.629	3754
304.630	3832
304.684	8118
304.720	16279
304.739	20172
304.794	32924
304.811	28222
304.850	15992
304.902	6177
304.905	5606
304.960	3712
304.992	3147
305.015	2740
305.071	2649
305.083	2399
305.126	1514
305.173	1201
305.181	1195
305.236	1164
305.264	1692
305.292	2211
305.347	2860
305.354	2946
305.402	3549
305.445	3692
305.457	3786
305.512	5723
305.535	6376
305.567	6723
305.622	6200
305.626	6326
305.678	15036
305.716	29618
305.733	33311
305.788	39912
305.807	35007
305.843	28153
305.897	35377
305.898	35397
305.953	34736
305.988	22278
306.008	16097
306.063	8065
306.078	6934
306.118	5605
306.168	3530
306.173	3365
306.228	2789
306.259	2923
306.283	3146
306.338	2293
306.349	2461
306.393	3484
306.440	3288
306.448	3211
306.503	3838
306.530	4305
306.558	7610
306.613	16428
306.620	17820
306.668	30562
306.711	45661
306.723	45468
306.778	34475
306.801	25880
306.833	17271
306.888	7257
306.892	6703
306.943	4811
306.982	4628
306.997	4749
307.052	4460
307.072	4480
307.107	5500
307.162	7413
307.163	7422
307.217	11257
307.253	13726
307.272	13771
307.327	13584
307.343	12984
307.381	11705
307.434	11562
307.436	12320
307.491	29112
307.524	41816
307.546	42613
307.600	43856
307.614	40495
307.655	24427
307.704	9765
307.710	9815
307.765	12861
307.795	15426
307.819	19013
307.874	29217
307.885	30161
307.929	23235
307.975	16225
307.984	16976
308.038	23881
308.065	27937
308.093	56148
308.148	118835
308.156	130082
308.202	194750
308.246	248086
308.257	235019
308.312	125975
308.336	83021
308.366	67970
308.421	46223
308.426	43666
308.475	27983
308.517	16893
308.530	16017
308.585	14074
308.607	13211
308.639	14186
308.694	17016
308.697	17141
308.748	32941
308.787	46227
308.803	44134
308.857	33209
308.877	28421
308.912	27025
308.967	26997
308.967	26917
309.021	41300
309.058	52008
309.076	67306
309.130	117085
309.148	133867
309.185	224666
309.238	361903
309.239	363536
309.293	390791
309.328	381440
309.348	327032
309.402	164195
309.418	119939
309.457	91019
309.508	57357
309.511	57616
309.566	63537
309.598	67331
309.620	87192
309.674	140683
309.688	154060
309.729	144054
309.778	123066
309.783	120187
309.837	81233
309.868	60266
309.892	70733
309.946	97095
309.959	103946
310.001	130173
310.049	156681
310.055	150165
310.109	82415
310.139	44615
310.163	35770
310.218	19689
310.229	16558
310.272	14036
310.319	11627
310.326	11415
310.381	10017
310.409	9051
310.435	8895
310.489	8810
310.499	8756
310.543	8684
310.589	8701
310.598	8882
310.652	9796
310.679	10081
310.706	9087
310.760	7198
310.769	6872
310.814	6237
310.859	5566
310.868	5715
310.923	6408
310.948	6682
310.977	7963
311.031	10547
311.038	10850
311.085	10149
311.128	9359
311.139	9384
311.193	9307
311.218	9221
311.247	8464
311.301	6900
311.308	6693
311.356	7111
311.398	7365
311.410	7283
311.464	6754
311.488	6485
311.518	6964
311.572	7806
311.578	7870
311.626	13949
311.668	19243
311.680	18347
311.734	13799
311.758	11704
311.788	11431
311.842	10962
311.847	10861
311.896	15590
311.937	19613
311.950	19614
312.004	19218
312.027	18949
312.058	16086
312.112	10841
312.117	10274
312.165	8832
312.207	7533
312.297	11460
312.386	10059
312.476	11763
312.566	33866
312.656	14701
312.745	6801
312.835	7483
312.925	10534
313.015	7835
313.104	8191
313.194	6803
313.284	8661
313.374	13008
313.463	12419
313.553	7948
313.643	7052
313.732	6307
313.822	5822
313.912	7348
314.001	10578
314.091	10681
314.180	14000
314.270	16891
314.360	18657
314.449	17134
314.539	8085
314.628	6466
314.718	8609
314.808	13407
314.897	7612
314.987	7900
315.076	14373
315.166	19785
315.255	14975
315.345	16801
315.434	14415
315.524	12893
315.613	18053
315.703	25334
315.792	26009
315.881	47520
315.971	22980
316.060	35747
316.150	42771
316.239	41043
316.328	15419
316.418	7844
316.507	9353
316.597	16491
316.686	14124
316.775	18112
316.865	39867
316.954	10155
317.043	5769
317.133	10245
317.222	9084
317.311	8586
317.400	9395
317.490	16704
317.579	22311
317.668	12137
317.757	19763
317.847	33893
317.936	89537
318.025	64118
318.114	30056
318.203	20975
318.293	20275
318.382	31527
318.471	33197
318.560	35470
318.649	80881
318.738	20301
318.828	20087
318.917	23929
319.006	20468
319.095	48524
319.184	113842
319.273	86717
319.362	57689
319.451	19944
319.540	17212
319.629	47864
319.718	84152
319.807	27384
319.896	43307
319.985	147383
320.074	69496
320.163	16346
320.252	24724
320.341	18929
320.430	17939
320.519	39741
320.608	20161
320.697	12786
320.786	15018
320.875	25092
320.964	35414
321.053	58659
321.142	87502
321.230	91189
321.319	55472
321.408	140002
321.497	49752
321.586	55541
321.675	48787
321.764	50488
321.852	32242
321.941	82373
322.030	55795
322.119	50573
322.207	148764
322.296	72051
322.385	35928
322.474	49907
322.562	178551
322.651	84151
322.740	64754
322.829	96179
322.917	66115
323.006	50841
323.095	46405
323.183	24801
323.272	39502
323.361	64258
323.449	164640
323.538	56767
323.626	119738
323.715	77358
323.804	30406
323.892	109918
323.981	76446
324.069	22029
324.158	52264
324.246	52688
324.335	29382
324.424	57561
324.512	15357
324.601	18881
324.689	22590
324.778	30858
324.866	51315
324.954	14977
325.043	15503
325.131	30150
325.220	43882
325.308	55279
325.397	42034
325.485	28075
325.574	11537
325.662	11410
325.750	14282
325.839	11724
325.927	8163
326.015	14751
326.104	17527
326.192	25976
326.280	9150
326.369	10059
326.457	21870
326.545	43627
326.634	16450
326.722	6717
326.810	9255
326.898	8381
326.987	11376
327.075	36223
327.163	31480
327.251	10382
327.340	7105
327.428	8845
327.516	6403
327.604	7614
327.692	8380
327.781	9969
327.869	20340
327.957	14073
328.045	18784
328.133	7497
328.221	10314
328.309	11108
328.397	9943
328.485	15269
328.574	22880
328.662	92043
328.750	43137
328.838	13515
328.926	8978
329.014	7820
329.102	16982
329.190	38394
329.278	29857
329.366	6817
329.454	5644
329.542	6267
329.630	5736
329.718	7380
329.806	13925
329.893	8751
329.981	6924
330.069	9969
330.157	28356
330.245	90342
330.333	44625
330.421	13915
330.509	25773
330.597	116404
330.684	71825
330.772	17839
330.860	18028
330.948	22709
331.036	12570
331.123	5246
331.211	6304
331.299	9373
331.387	19547
331.475	42576
331.562	13838
331.650	7118
331.738	9111
331.825	12511
331.913	6367
332.001	6188
332.089	10736
332.176	20606
332.264	51979
332.352	42977
332.439	16456
332.527	10573
332.614	8325
332.702	11418
332.790	9523
332.877	29398
332.965	59480
333.052	24596
333.140	23296
333.228	66731
333.315	18406
333.403	11582
333.490	32384
333.578	37563
333.665	87650
333.753	40705
333.840	11236
333.928	13023
334.015	32568
334.103	43369
334.190	133472
334.278	34499
334.365	15117
334.452	10834
334.540	8123
334.627	10100
334.715	17687
334.802	34177
334.889	167827
334.977	164531
335.064	21077
335.151	10931
335.239	10421
335.326	15520
335.413	58940
335.501	86455
335.588	14463
335.675	9447
335.762	10678
335.850	18397
335.937	14890
336.024	37185
336.111	168306
336.199	66483
336.286	12717
336.373	8148
336.460	5503
336.547	5921
336.635	10194
336.722	12110
336.809	7834
336.896	17228
336.983	45895
337.070	103210
337.157	135931
337.245	110675
337.332	79576
337.419	11018
337.506	7248
337.593	9463
337.680	26122
337.767	84294
337.854	31692
337.941	35069
338.028	47408
338.115	14139
338.202	16037
338.289	32194
338.376	125063
338.463	39288
338.550	47661
338.637	52905
338.724	23242
338.811	35638
338.898	9160
338.984	6376
339.071	8130
339.158	13710
339.245	49275
339.332	26073
339.419	29090
339.506	26295
339.593	5801
339.679	9270
339.766	8248
339.853	13295
339.940	40077
340.027	11157
340.113	10823
340.200	19752
340.287	12515
340.374	18019
340.460	34618
340.547	12272
340.634	27187
340.720	102255
340.807	58150
340.894	8458
340.980	9355
341.067	9996
341.154	11730
341.240	19565
341.327	54745
341.414	11698
341.500	7751
341.587	10570
341.674	9794
341.760	35072
341.847	46162
341.933	12225
342.020	3767
342.106	5371
342.193	12463
342.279	29246
342.366	18785
342.452	38273
342.539	20803
342.625	47139
342.712	115399
342.798	47847
342.885	18915
342.971	4964
343.058	4787
343.144	6300
343.230	7590
343.317	7036
343.403	6271
343.490	4629
343.576	5009
343.662	8525
343.749	10165
343.835	13879
343.921	27188
344.008	131339
344.094	310095
344.180	75035
344.267	33701
344.353	90694
344.439	99880
344.525	54518
344.612	16657
344.698	16790
344.784	12301
344.870	7433
344.957	8069
345.043	20035
345.129	14621
345.215	34911
345.301	14934
345.387	7115
345.474	4396
345.560	5674
345.646	7563
345.732	7230
345.818	8484
345.904	8670
345.990	14527
346.076	10465
346.162	16039
346.249	8487
346.335	5912
346.421	10221
346.507	33840
346.593	130420
346.679	31954
346.765	8152
346.851	8832
346.937	10672
347.023	7847
347.108	13374
347.194	9552
347.280	6972
347.366	11934
347.452	36110
347.538	151863
347.624	116368
347.710	98615
347.796	15803
347.882	7958
347.967	5645
348.053	9304
348.139	6602
348.225	7638
348.311	8470
348.397	6588
348.482	11556
348.568	15252
348.654	5780
348.740	6653
348.825	8030
348.911	18660
348.997	68240
349.083	135175
349.168	23075
349.254	7923
349.340	7184
349.425	6854
349.511	14832
349.597	14646
349.682	34726
349.768	104571
349.854	46754
349.939	8230
350.025	7088
350.110	7452
350.196	4862
350.282	3935
350.367	4246
350.453	12495
350.538	14370
350.624	12944
350.709	11714
350.795	6975
350.880	9085
350.966	8608
351.051	12875
351.137	9244
351.222	9491
351.308	32506
351.393	99625
351.479	20357
351.564	5886
351.649	8648
351.735	5522
351.820	5213
351.906	7673
351.991	11553
352.076	59918
352.162	94336
352.247	20422
352.332	13062
352.418	23957
352.503	27549
352.588	145927
352.673	130108
352.759	30873
352.844	15147
352.929	16424
353.014	24816
353.100	17675
353.185	43846
353.270	56011
353.355	45505
353.441	11250
353.526	13186
353.611	40159
353.696	49938
353.781	26489
353.866	11858
353.952	13637
354.037	40410
354.122	96391
354.207	87827
354.292	29645
354.377	11154
354.462	9497
354.547	17160
354.632	14392
354.717	26307
354.802	52308
354.887	16756
354.972	7208
355.057	5689
355.142	5013
355.227	12197
355.312	25392
355.397	61008
355.482	150788
355.567	70493
355.652	46703
355.737	47510
355.822	117059
355.907	93758
355.991	16673
356.076	9061
356.161	7461
356.246	6306
356.331	9384
356.416	24766
356.501	162302
356.585	174675
356.670	27356
356.755	20629
356.840	34711
356.924	153308
357.009	462327
357.094	179630
357.179	47229
357.263	29986
357.348	29171
357.433	28580
357.517	27967
357.602	21145
357.687	16050
357.771	24758
357.856	26673
357.941	24111
358.025	88041
358.110	384550
358.195	189977
358.279	36630
358.364	27036
358.448	98156
358.533	249650
358.617	184122
358.702	171100
358.787	65515
358.871	42122
358.956	34084
359.040	10221
359.125	6600
359.209	7577
359.294	10134
359.378	16661
359.462	30737
359.547	18570
359.631	10802
359.716	7534
359.800	8230
359.885	13593
359.969	12830
360.053	7996
360.138	7568
360.222	19236
360.306	44536
360.391	28506
360.475	34091
360.559	84662
360.644	101652
360.728	74262
360.812	93207
360.896	250202
360.981	123219
361.065	73219
361.149	19182
361.233	19907
361.318	14961
361.402	17750
361.486	15242
361.570	11329
361.654	18397
361.739	49733
361.823	173005
361.907	245864
361.991	45290
362.075	33122
362.159	85861
362.243	54182
362.327	35066
362.411	31252
362.495	22659
362.580	13529
362.664	7456
362.748	7082
362.832	8318
362.916	12802
363.000	42759
363.084	164912
363.168	284935
363.252	75196
363.336	29994
363.420	36550
363.503	92034
363.587	103041
363.671	27445
363.755	23311
363.839	36822
363.923	14495
364.007	39188
364.091	40290
364.175	30753
364.258	130429
364.342	81880
364.426	66451
364.510	40873
364.594	33291
364.677	43232
364.761	211680
364.845	151000
364.929	68582
365.013	60772
365.096	46487
365.180	56509
365.264	37183
365.347	132989
365.431	56509
365.515	19578
365.598	14521
365.682	11498
365.766	15644
365.849	18110
365.933	16936
366.017	16813
366.100	10003
366.184	4537
366.267	8006
366.351	8881
366.435	7205
366.518	5896
366.602	5893
366.685	9586
366.769	12010
366.852	18001
366.936	41095
367.019	26990
367.103	11869
367.186	18647
367.270	7712
367.353	5570
367.436	7814
367.520	7020
367.603	13582
367.687	26324
367.770	51746
367.853	23836
367.937	65357
368.020	113322
368.104	32495
368.187	36395
368.270	49938
368.353	39651
368.437	47746
368.520	86156
368.603	66082
368.687	83901
368.770	158611
368.853	39469
368.936	42460
369.020	32785
369.103	15600
369.186	6516
369.269	9909
369.352	33831
369.436	47746
369.519	26051
369.602	9378
369.685	13147
369.768	17237
369.851	11537
369.934	7819
370.018	15147
370.101	45832
370.184	28875
370.267	15203
370.350	27925
370.433	43953
370.516	106064
370.599	131683
370.682	47916
370.765	99963
370.848	105723
370.931	182059
371.014	63671
371.097	16140
371.180	12602
371.263	6370
371.346	4277
371.429	6743
371.511	7852
371.594	23088
371.677	33418
371.760	25970
371.843	28149
371.926	126017
372.009	304345
372.091	99014
372.174	69726
372.257	154174
372.340	59370
372.423	45832
372.505	43318
372.588	20449
372.671	59923
372.754	189415
372.836	88431
372.919	43311
373.002	82698
373.085	36039
373.167	33672
373.250	86333
373.332	163933
373.415	200839
373.498	427328
373.580	158980
373.663	180434
373.746	253085
373.828	69360
373.911	31675
373.993	28536
374.076	78685
374.159	74681
374.241	47010
374.324	168169
374.406	106361
374.489	110992
374.571	334459
374.654	142855
374.736	64826
374.819	199004
374.901	290444
374.983	300084
375.066	55141
375.148	18305
375.231	59577
375.313	121356
375.395	50929
375.478	14482
375.560	9619
375.643	17643
375.725	59739
375.807	256850
375.890	196071
375.972	84371
376.054	51226
376.136	67719
376.219	30998
376.301	69329
376.383	225876
376.465	88289
376.548	79236
376.630	73750
376.712	197953
376.794	89611
376.877	12645
376.959	8148
377.041	11303
377.123	14996
377.205	17486
377.287	5950
377.369	6699
377.452	8705
377.534	7615
377.616	8428
377.698	8978
377.780	7043
377.862	10834
377.944	10595
378.026	4587
378.108	5838
378.190	7263
378.272	6412
378.354	3777
378.436	4509
378.518	12812
378.600	50060
378.682	46595
378.764	115264
378.846	88410
378.928	25914
379.010	41564
379.091	21430
379.173	8957
379.255	8476
379.337	15461
379.419	53954
379.501	156917
379.583	59845
379.664	18068
379.746	48464
379.828	117382
379.910	155495
379.991	129384
380.073	22914
380.155	16075
380.237	12759
380.318	7644
380.400	9424
380.482	31866
380.564	52303
380.645	57526
380.727	51818
380.809	24114
380.890	16887
380.972	14317
381.053	11443
381.135	14913
381.217	38228
381.298	124213
381.380	59747
381.461	43964
381.543	195844
381.624	243519
381.706	48448
381.787	23604
381.869	25305
381.951	78870
382.032	312774
382.113	210076
382.195	54842
382.276	35951
382.358	81820
382.439	188532
382.521	189725
382.602	297393
382.684	147900
382.765	290319
382.846	376716
382.928	624514
383.009	352700
383.090	252922
383.172	779275
383.253	1075302
383.334	397710
383.416	322438
383.497	179659
383.578	118470
383.659	225075
383.741	675624
383.822	1398455
383.903	769511
383.984	290279
384.066	376803
384.147	237889
384.228	58538
384.309	50019
384.390	36683
384.471	24351
384.553	26674
384.634	39752
384.715	41228
384.796	18580
384.877	24942
384.958	104798
385.039	132308
385.120	49565
385.201	21041
385.282	25640
385.363	24304
385.444	25054
385.525	33983
385.606	125756
385.687	112200
385.768	27356
385.849	33098
385.930	142433
386.011	243263
386.092	65323
386.173	17862
386.254	11552
386.335	12927
386.416	14992
386.496	63317
386.577	112581
386.658	37086
386.739	25615
386.820	17014
386.901	13056
386.981	14337
387.062	9557
387.143	23655
387.224	108950
387.304	98035
387.385	34069
387.466	15952
387.547	16426
387.627	12774
387.708	33538
387.789	177765
387.869	218836
387.950	54315
388.031	9358
388.111	7738
388.192	20567
388.273	34277
388.353	23569
388.434	15614
388.514	31675
388.595	145363
388.676	206095
388.756	109152
388.837	117670
388.917	70505
388.998	11854
389.078	11040
389.159	12055
389.239	12180
389.320	22442
389.400	20117
389.480	34581
389.561	107815
389.641	50073
389.722	20637
389.802	38636
389.883	41772
389.963	122195
390.043	73737
390.124	19914
390.204	34379
390.284	134669
390.365	83962
390.445	73172
390.525	238903
390.605	221958
390.686	70706
390.766	22743
390.846	12532
390.927	7735
391.007	9618
391.087	10297
391.167	12344
391.247	8026
391.328	15169
391.408	20169
391.488	12734
391.568	5098
391.648	15395
391.728	26263
391.808	23397
391.888	26903
391.969	56826
392.049	97999
392.129	34286
392.209	38274
392.289	118332
392.369	56851
392.449	33582
392.529	25997
392.609	27016
392.689	29688
392.769	112569
392.849	93998
392.929	48889
393.009	139031
393.089	104410
393.169	62830
393.248	189940
393.328	770972
393.408	832206
393.488	211154
393.568	62773
393.648	31659
393.728	20901
393.807	15447
393.887	13983
393.967	12793
394.047	17321
394.127	23086
394.206	33756
394.286	100880
394.366	494017
394.446	548683
394.525	122858
394.605	30681
394.685	25655
394.764	49955
394.844	84710
394.924	61316
395.003	25557
395.083	19625
395.163	17666
395.242	16135
395.322	16327
395.402	9190
395.481	12173
395.561	35703
395.640	109040
395.720	78405
395.799	95142
395.879	75352
395.958	45001
396.038	147530
396.117	642847
396.197	725192
396.276	202884
396.356	65221
396.435	43856
396.515	31296
396.594	44047
396.673	71358
396.753	214072
396.832	726534
396.912	586950
396.991	157137
397.070	40428
397.150	23909
397.229	14792
397.308	13613
397.388	21058
397.467	12239
397.546	8463
397.625	7675
397.705	16248
397.784	20559
397.863	9001
397.942	4068
398.022	6190
398.101	24431
398.180	80786
398.259	39063
398.338	13234
398.417	12999
398.497	7620
398.576	8850
398.655	6188
398.734	5342
398.813	5982
398.892	22520
398.971	86825
399.050	41710
399.129	4759
399.208	3548
399.287	5382
399.366	4002
399.445	3909
399.524	4827
399.603	5476
399.682	18459
399.761	44629
399.840	100505
399.919	69752
399.998	9994
400.077	4087
400.156	3714
400.235	7087
400.313	4229
400.392	9645
400.471	61073
400.550	104708
400.629	26573
400.708	12049
400.786	8039
400.865	17909
400.944	24148
401.023	15034
401.102	3166
401.180	2691
401.259	2876
401.338	6308
401.416	12455
401.495	11858
401.574	6678
401.652	6463
401.731	11864
401.810	14850
401.888	7669
401.967	3119
402.046	5063
402.124	10041
402.203	15923
402.281	7951
402.360	8965
402.438	25332
402.517	18664
402.596	6824
402.674	6022
402.753	4457
402.831	4090
402.910	8333
402.988	41241
403.066	157930
403.145	86839
403.223	46592
403.302	138149
403.380	100662
403.459	109761
403.537	43412
403.615	15665
403.694	3067
403.772	3684
403.850	2944
403.929	3103
404.007	5238
404.085	25197
404.164	36327
404.242	8930
404.320	9915
404.398	25861
404.477	53369
404.555	235187
404.633	205301
404.711	36167
404.789	13804
404.868	13457
404.946	7469
405.024	2456
405.102	2957
405.180	2620
405.258	3451
405.336	4720
405.415	4412
405.493	16361
405.571	21587
405.649	5453
405.727	3956
405.805	9694
405.883	11924
405.961	10177
406.039	8032
406.117	5039
406.195	13999
406.273	56471
406.351	217524
406.429	121021
406.507	17513
406.585	6307
406.663	9438
406.740	15759
406.818	13616
406.896	5492
406.974	6969
407.052	18880
407.130	127266
407.208	179231
407.285	33623
407.363	7358
407.441	7749
407.519	6458
407.596	9787
407.674	28312
407.752	97342
407.830	79888
407.907	27532
407.985	14638
408.063	5119
408.141	2515
408.218	9114
408.296	14516
408.373	14959
408.451	12949
408.529	11217
408.606	3823
408.684	3038
408.762	1699
408.839	1438
408.917	907
408.994	2175
409.072	787
409.149	1532
409.227	3654
409.304	3979
409.382	3296
409.459	2336
409.537	6054
409.614	7386
409.692	4247
409.769	3953
409.846	7634
409.924	7706
410.001	4916
410.079	5548
410.156	4000
410.233	4159
410.311	4703
410.388	3059
410.465	3183
410.543	1975
410.620	2836
410.697	6696
410.775	9892
410.852	2585
410.929	5594
411.006	8930
411.083	2941
411.161	6026
411.238	8334
411.315	5810
411.392	2686
411.469	6875
411.547	3231
411.624	1281
411.701	2562
411.778	7140
411.855	24297
411.932	12227
412.009	4000
412.086	4055
412.163	4469
412.240	6270
412.317	5608
412.394	5285
412.471	2240
412.548	2571
412.625	4195
412.702	5872
412.779	12175
412.856	5464
412.933	983
413.010	2335
413.087	9681
413.164	57989
413.241	85234
413.318	20851
413.395	10550
413.471	19397
413.548	7745
413.625	4005
413.702	7315
413.779	4580
413.855	683
413.932	998
414.009	634
414.086	1568
414.162	2445
414.239	8059
414.316	55337
414.393	130590
414.469	43445
414.546	4701
414.623	2260
414.699	2928
414.776	6408
414.853	3250
414.929	4736
415.006	3362
415.082	3986
415.159	3577
415.236	3593
415.312	4275
415.389	16231
415.465	24949
415.542	10327
415.618	5927
415.695	15017
415.771	9377
415.848	6808
415.924	5093
416.000	2540
416.077	3075
416.153	219
416.230	-4
416.306	905
416.383	1677
416.459	1610
416.535	1552
416.612	731
416.688	1722
416.764	2777
416.841	2795
416.917	3356
416.993	3355
417.069	5297
417.146	7976
417.222	11131
417.298	7502
417.374	3535
417.451	5326
417.527	9286
417.603	12606
417.679	7298
417.755	5127
417.831	1297
417.908	862
417.984	1017
418.060	2130
418.136	18583
418.212	27261
418.288	7705
418.364	2824
418.440	5004
418.516	9716
418.592	9323
418.668	26986
418.744	50301
418.820	34350
418.896	6841
418.972	2319
419.048	4200
419.124	19935
419.200	15809
419.276	3389
419.352	467
419.428	1811
419.504	6104
419.579	9810
419.655	5119
419.731	5297
419.807	29818
419.883	59796
419.959	38758
420.034	7925
420.110	16502
420.186	79503
420.262	57240
420.337	9930
420.413	8480
420.489	3155
420.565	1960
420.640	2078
420.716	3795
420.792	1616
420.867	3317
420.943	2905
421.019	12321
421.094	9494
421.170	1552
421.245	-37
421.321	2355
421.397	3651
421.472	13813
421.548	51695
421.623	31860
421.699	7723
421.774	6675
421.850	5253
421.925	14996
422.001	11720
422.076	4592
422.152	6563
422.227	16031
422.302	11248
422.378	12547
422.453	23992
422.529	51062
422.604	196740
422.679	423956
422.755	247593
422.830	61620
422.905	18688
422.981	9932
423.056	6173
423.131	4391
423.207	3708
423.282	7468
423.357	26874
423.432	16049
423.508	17969
423.583	50352
423.658	32145
423.733	7288
423.808	9113
423.883	13754
423.959	10200
424.034	5465
424.109	2361
424.184	839
424.259	991
424.334	2093
424.409	429
424.484	1829
424.559	5284
424.634	3486
424.709	9295
424.784	11440
424.859	5810
424.934	11314
425.009	60765
425.084	97190
425.159	30993
425.234	3493
425.309	964
425.384	1890
425.459	1877
425.534	2092
425.609	1594
425.683	1491
425.758	2381
425.833	2860
425.908	5952
425.983	36855
426.058	111096
426.132	42517
426.207	5733
426.282	6800
426.357	5908
426.431	2039
426.506	1426
426.581	3476
426.655	2513
426.730	3127
426.805	2947
426.879	3241
426.954	3596
427.029	12818
427.103	81368
427.178	187837
427.253	73260
427.327	7653
427.402	5439
427.476	9583
427.551	3783
427.625	1989
427.700	2192
427.774	1536
427.849	2470
427.923	1051
427.998	1357
428.072	2413
428.147	8808
428.221	37803
428.296	82748
428.370	34910
428.444	5405
428.519	7297
428.593	16195
428.667	12098
428.742	15585
428.816	13320
428.890	45086
428.965	65688
429.039	21490
429.113	17958
429.188	7012
429.262	3011
429.336	11337
429.410	44042
429.485	22491
429.559	13766
429.633	9073
429.707	2600
429.781	9567
429.855	60479
429.930	100973
430.004	55889
430.078	77132
430.152	61894
430.226	106825
430.300	103998
430.374	13866
430.448	6478
430.522	24702
430.596	76196
430.670	44614
430.744	123075
430.818	196748
430.892	41270
430.966	7633
431.040	3087
431.114	450
431.188	772
431.262	1515
431.336	1204
431.410	8035
431.484	27847
431.557	20225
431.631	2451
431.705	2067
431.779	10746
431.853	59076
431.927	38397
432.000	3930
432.074	1208
432.148	3242
432.222	2241
432.295	1368
432.369	1170
432.443	7506
432.516	63543
432.590	170876
432.664	55982
432.737	7276
432.811	1064
432.885	0
432.958	-61
433.032	43
433.106	103
433.179	255
433.253	-315
433.326	-374
433.400	-578
433.473	93
433.547	-217
433.620	1168
433.694	8693
433.767	7977
433.841	520
433.914	-618
433.988	-1001
434.061	-499
434.134	-202
434.208	-946
434.281	-785
434.355	571
434.428	703
434.501	-330
434.575	40
434.648	385
434.721	-446
434.795	-8
434.868	-647
434.941	-251
435.014	-444
435.088	476
435.161	3028
435.234	8902
435.307	11873
435.381	3960
435.454	2251
435.527	2493
435.600	1921
435.673	1173
435.746	729
435.819	1187
435.892	469
435.966	27
436.039	558
436.112	473
436.185	-1444
436.258	-852
436.331	-1641
436.404	-390
436.477	-1033
436.550	-815
436.623	-361
436.696	-399
436.769	2008
436.842	1118
436.915	1362
436.987	5086
437.060	1274
437.133	-260
437.206	-436
437.279	222
437.352	-3
437.425	230
437.498	1231
437.570	7540
437.643	8182
437.716	848
437.789	-556
437.861	1638
437.934	6923
438.007	2770
438.080	-200
438.152	3366
438.225	10152
438.298	78192
438.370	214182
438.443	76145
438.516	11630
438.588	2038
438.661	613
438.734	604
438.806	3353
438.879	3592
438.951	1952
439.024	3198
439.096	1262
439.169	755
439.241	-547
439.314	345
439.386	1265
439.459	3908
439.531	7070
439.604	2038
439.676	-225
439.749	-413
439.821	-985
439.893	172
439.966	217
440.038	1125
440.110	2141
440.183	908
440.255	607
440.327	3732
440.400	31494
440.472	145407
440.544	84689
440.617	8587
440.689	2995
440.761	5619
440.833	8866
440.905	4781
440.978	83
441.050	-449
441.122	128
441.194	-431
441.266	-986
441.338	283
441.411	5292
441.483	54043
441.555	74751
441.627	11328
441.699	3942
441.771	3623
441.843	259
441.915	-479
441.987	-223
442.059	358
442.131	708
442.203	3247
442.275	5471
442.347	3000
442.419	4020
442.491	18054
442.563	48453
442.635	19511
442.706	21768
442.778	16906
442.850	1776
442.922	201
442.994	1210
443.066	5595
443.137	2989
443.209	2020
443.281	4070
443.353	8302
443.425	28514
443.496	100663
443.568	84797
443.640	25435
443.711	5278
443.783	1702
443.855	1296
443.926	-78
443.998	838
444.070	2051
444.141	1884
444.213	7377
444.285	11153
444.356	7533
444.428	3922
444.499	435
444.571	-109
444.642	-169
444.714	2137
444.785	7744
444.857	6008
444.928	13145
445.000	5327
445.071	8223
445.143	11662
445.214	6973
445.285	8718
445.357	26669
445.428	74592
445.500	171860
445.571	87431
445.642	38615
445.714	19561
445.785	22601
445.856	8537
445.928	10903
445.999	5832
446.070	2842
446.141	7169
446.213	11609
446.284	3755
446.355	2043
446.426	1484
446.497	2370
446.569	4184
446.640	11365
446.711	9790
446.782	764
446.853	3172
446.924	4369
446.995	2992
447.066	1724
447.138	4347
447.209	311
447.280	-406
447.351	-60
447.422	-1589
447.493	1676
447.564	4024
447.635	10361
447.706	2049
447.777	-1025
447.847	-1110
447.918	-256
447.989	1382
448.060	3147
448.131	8306
448.202	9531
448.273	8179
448.344	1132
448.414	1636
448.485	1411
448.556	527
448.627	262
448.698	-431
448.768	-787
448.839	-525
448.910	3191
448.981	3331
449.051	2212
449.122	-433
449.193	-122
449.263	46
449.334	-601
449.405	3040
449.475	13591
449.546	4574
449.616	4143
449.687	1939
449.758	153
449.828	-611
449.899	244
449.969	-1024
450.040	-808
450.110	770
450.181	2054
450.251	309
450.322	168
450.392	252
450.463	-16
450.533	-815
450.604	-39
450.674	-2167
450.744	-733
450.815	-969
450.885	-288
450.955	-273
451.026	-1219
451.096	-706
451.166	261
451.237	3443
451.307	11295
451.377	1871
451.447	-547
451.518	-630
451.588	-733
451.658	-1035
451.728	1842
451.799	13326
451.869	12364
451.939	467
452.009	-129
452.079	-1340
452.149	-41
452.219	2182
452.289	14872
452.360	8793
452.430	851
452.500	1873
452.570	3454
452.640	2423
452.710	9590
452.780	15769
452.850	19527
452.920	20811
452.990	4112
453.060	1844
453.129	5056
453.199	4349
453.269	17352
453.339	33683
453.409	50061
453.479	58176
453.549	78579
453.619	81339
453.688	22984
453.758	2550
453.828	702
453.898	1
453.968	579
454.037	-190
454.087	-26
454.107	38
454.168	-917
454.177	-1062
454.247	-528
454.249	-526
454.316	-732
454.330	-521
454.386	281
454.411	2206
454.456	5425
454.492	7202
454.525	8836
454.574	3133
454.595	624
454.655	-300
454.665	-445
454.734	524
454.736	602
454.804	3506
454.817	5224
454.873	12363
454.898	12422
454.943	12511
454.979	8312
455.013	4498
455.060	1969
455.082	905
455.141	1222
455.152	1290
455.221	10063
455.222	10203
455.291	23044
455.303	26441
455.360	40124
455.384	66903
455.430	116338
455.465	80329
455.499	46080
455.546	24810
455.569	15040
455.627	8060
455.638	6729
455.707	859
455.708	860
455.777	-157
455.789	-132
455.846	-33
455.869	-122
455.916	-300
455.950	-295
455.985	-262
456.031	94
456.054	212
456.112	-463
456.124	-586
456.193	-563
456.193	-569
456.262	-262
456.274	-21
456.332	1137
456.355	1461
456.401	1874
456.436	847
456.470	-147
456.516	-401
456.540	-544
456.597	-833
456.609	-885
456.678	-528
456.678	-532
456.747	-2
456.759	-191
456.817	-1180
456.840	-978
456.886	-622
456.920	-224
456.955	230
457.001	-7
457.024	-151
457.082	154
457.093	235
457.162	1668
457.163	1676
457.232	2054
457.243	1741
457.301	451
457.324	-124
457.370	-1083
457.405	-484
457.439	89
457.485	-232
457.508	-454
457.566	-354
457.577	-320
457.646	-276
457.647	-267
457.715	106
457.727	256
457.784	938
457.808	1577
457.853	2865
457.889	4030
457.922	4665
457.969	2889
457.991	2337
458.050	2370
458.060	2415
458.129	5183
458.130	5263
458.198	7660
458.211	6698
458.267	2228
458.292	1238
458.336	429
458.372	415
458.405	516
458.453	1143
458.474	1574
458.533	4155
458.543	4548
458.611	10742
458.614	10745
458.680	7338
458.694	5873
458.749	1558
458.775	1038
458.818	305
458.855	53
458.887	-139
458.936	-622
458.955	-619
459.016	-160
459.024	-155
459.093	333
459.097	320
459.162	6
459.177	57
459.230	604
459.257	1126
459.299	1357
459.338	1047
459.368	979
459.418	826
459.437	753
459.499	47
459.505	-3
459.574	671
459.579	686
459.643	531
459.659	488
459.711	519
459.740	491
459.780	587
459.820	678
459.849	529
459.900	543
459.917	594
459.981	819
459.986	798
460.054	242
460.061	147
460.123	4
460.141	301
460.191	1361
460.222	1861
460.260	2214
460.302	3263
460.328	3566
460.382	2021
460.397	1745
460.462	683
460.465	643
460.534	1133
460.543	1294
460.602	6672
460.623	8710
460.671	12771
460.703	19656
460.739	23396
460.783	21291
460.808	18616
460.864	4105
460.876	2207
460.944	921
460.945	908
461.013	1004
461.024	1064
461.081	953
461.104	1023
461.150	1345
461.184	1337
461.218	1085
461.264	568
461.286	393
461.345	310
461.355	346
461.423	493
461.425	485
461.491	505
461.505	672
461.559	1242
461.585	1535
461.628	3591
461.665	5772
461.696	6859
461.745	11317
461.764	11384
461.825	3455
461.832	3013
461.901	1530
461.905	1584
461.969	1729
461.985	1403
462.037	1348
462.065	1503
462.105	822
462.145	573
462.173	1417
462.225	2674
462.241	2859
462.305	5056
462.310	5050
462.378	4430
462.385	3986
462.446	1363
462.465	1282
462.514	1452
462.545	1445
462.582	1144
462.625	700
462.650	596
462.705	495
462.718	590
462.785	849
462.786	849
462.854	1071
462.865	1147
462.922	2018
462.945	2424
462.990	2530
463.025	1934
463.058	1344
463.104	1111
463.126	1009
463.184	705
463.194	811
463.262	940
463.264	987
463.330	1301
463.344	1144
463.398	1628
463.424	1985
463.466	1448
463.504	1123
463.533	1314
463.583	1437
463.601	1479
463.663	1502
463.669	1538
463.737	2034
463.743	2133
463.805	4028
463.823	4420
463.873	5824
463.903	6853
463.940	7169
463.982	8482
464.008	7742
464.062	3252
464.076	2823
464.142	1431
464.144	1403
464.211	1094
464.221	1081
464.279	1009
464.301	948
464.347	1634
464.381	2355
464.414	2246
464.461	1841
464.482	1885
464.540	2157
464.550	2155
464.617	1724
464.620	1708
464.685	1935
464.699	2083
464.753	2505
464.779	2616
464.820	2212
464.859	1711
464.888	1624
464.938	1580
464.956	1837
465.018	2745
465.023	2715
465.091	2233
465.098	2175
465.158	1256
465.177	1012
465.226	1766
465.257	2158
465.293	2152
465.336	2215
465.361	2636
465.416	3669
465.428	3806
465.495	4779
465.496	4794
465.563	6098
465.575	6403
465.631	7985
465.654	8852
465.698	6225
465.734	3170
465.765	2220
465.813	1074
465.833	1212
465.893	2064
465.900	2042
465.968	1733
465.972	1712
466.035	1543
466.052	1482
466.102	1310
466.131	1189
466.170	1094
466.210	997
466.237	1274
466.290	1857
466.304	1889
466.369	1878
466.372	1881
466.439	1992
466.449	1994
466.506	2136
466.528	2186
466.573	3742
466.607	4875
466.641	7230
466.687	10556
466.708	11772
466.766	15382
466.775	14479
466.842	7295
466.845	6941
466.909	4164
466.925	3578
466.977	2967
467.004	2656
467.044	2498
467.083	2366
467.111	2845
467.163	3718
467.178	3747
467.242	3862
467.245	3869
467.312	3925
467.321	3930
467.379	3243
467.400	2984
467.446	3405
467.480	3705
467.559	3239
467.638	2851
467.717	2205
467.796	4364
467.875	5157
467.955	3812
468.034	4559
468.113	10388
468.192	15378
468.271	5554
468.350	3018
468.429	3110
468.508	3443
468.588	2461
468.667	2700
468.746	2629
468.825	2128
468.904	2701
468.983	3115
469.062	4733
469.141	7253
469.220	3279
469.299	2625
469.378	1870
469.456	3754
469.535	3311
469.614	1980
469.693	2353
469.772	4107
469.851	5825
469.930	4036
470.009	3367
470.088	3788
470.166	4656
470.245	10349
470.324	13871
470.403	9968
470.482	5538
470.560	4115
470.639	3963
470.718	5256
470.797	4381
470.875	3884
470.954	5614
471.033	5516
471.111	1857
471.190	2261
471.269	870
471.347	2326
471.426	2337
471.505	2582
471.583	1739
471.662	2265
471.740	2684
471.819	1623
471.898	1810
471.976	1594
472.055	1485
472.133	2614
472.212	3891
472.290	2750
472.369	1477
472.447	1802
472.526	2244
472.604	2381
472.683	3508
472.761	4041
472.839	2973
472.918	3005
472.996	1764
473.075	3045
473.153	2242
473.231	2560
473.310	2665
473.388	2264
473.466	2684
473.545	3632
473.623	5885
473.701	6588
473.780	2632
473.858	1376
473.936	4527
474.014	2559
474.093	3361
474.171	4809
474.249	5396
474.327	4862
474.405	2400
474.484	2433
474.562	2458
474.640	2857
474.718	2153
474.796	2438
474.874	2251
474.952	2512
475.030	1624
475.108	2982
475.187	3024
475.265	5017
475.343	10765
475.421	14018
475.499	3104
475.577	2245
475.655	3491
475.733	7185
475.811	11985
475.889	10970
475.966	9363
476.044	4461
476.122	6757
476.200	11609
476.278	8194
476.356	1845
476.434	2854
476.512	5846
476.590	9840
476.667	8759
476.745	2472
476.823	2611
476.901	2334
476.979	2493
477.056	2889
477.134	1526
477.212	2377
477.290	3244
477.367	1923
477.445	1981
477.523	1320
477.601	985
477.678	2724
477.756	2700
477.834	3447
477.911	2408
477.989	2281
478.066	2268
478.144	2917
478.222	5430
478.299	15201
478.377	16671
478.454	3580
478.532	1831
478.609	3323
478.687	2699
478.764	2496
478.842	2954
478.919	3154
478.997	3939
479.074	1779
479.152	2738
479.229	3236
479.307	2250
479.384	955
479.461	1634
479.539	1484
479.616	1804
479.694	2291
479.771	1977
479.848	1519
479.926	2071
480.003	4785
480.080	2530
480.157	2270
480.235	1528
480.312	2636
480.389	1473
480.467	3493
480.544	5707
480.621	2121
480.698	1813
480.775	3025
480.853	2748
480.930	2579
481.007	2203
481.084	2931
481.161	3754
481.238	3010
481.315	2091
481.392	721
481.470	1365
481.547	1509
481.624	1190
481.701	1712
481.778	1759
481.855	2157
481.932	3769
482.009	5876
482.086	5749
482.163	2265
482.240	9295
482.317	21418
482.393	20232
482.470	3926
482.547	2753
482.624	1962
482.701	2612
482.778	1737
482.855	1719
482.932	609
483.009	1036
483.085	1383
483.162	2389
483.239	3280
483.316	1645
483.393	2417
483.469	2340
483.546	2795
483.623	3033
483.699	1793
483.776	1968
483.853	2090
483.930	2909
484.006	9621
484.083	18055
484.160	8829
484.236	7107
484.313	6962
484.389	4512
484.466	4584
484.543	4259
484.619	3049
484.696	5163
484.772	3784
484.849	5384
484.925	3990
485.002	4110
485.078	4038
485.155	4194
485.231	2914
485.308	3632
485.384	3707
485.461	4731
485.537	9887
485.614	15076
485.690	5579
485.766	4291
485.843	5172
485.919	10444
485.995	14937
486.072	5913
486.148	3215
486.224	3359
486.301	4051
486.377	5069
486.453	4071
486.530	3895
486.606	5595
486.682	5286
486.758	8688
486.835	11582
486.911	7850
486.987	15462
487.063	27315
487.139	43673
487.215	29563
487.292	11325
487.368	4022
487.444	4954
487.520	6018
487.596	6029
487.672	8470
487.748	19393
487.824	35077
487.900	16436
487.976	5238
488.052	4778
488.128	6294
488.204	4906
488.280	5090
488.356	5347
488.432	11901
488.508	21817
488.584	10206
488.660	5040
488.736	5281
488.812	5759
488.888	8101
488.964	11742
489.039	38715
489.115	75671
489.191	51641
489.267	7613
489.343	4036
489.418	3255
489.494	3218
489.570	1906
489.646	4259
489.722	3483
489.797	2540
489.873	5496
489.949	14570
490.024	17161
490.100	3505
490.176	3531
490.251	6497
490.327	12049
490.403	5400
490.478	3569
490.554	2485
490.629	2221
490.705	3118
490.781	3424
490.856	2743
490.932	4998
491.007	6201
491.083	4016
491.158	2971
491.234	4604
491.309	11924
491.385	13493
491.460	4262
491.536	4823
491.611	4189
491.686	6063
491.762	8327
491.837	24621
491.913	47070
491.988	66116
492.063	101495
492.139	27462
492.214	7874
492.289	4091
492.365	3863
492.440	5017
492.515	4892
492.590	3954
492.666	3383
492.741	4915
492.816	8011
492.891	5405
492.967	4678
493.042	4516
493.117	4574
493.192	7581
493.267	16474
493.342	78319
493.418	145406
493.493	30776
493.568	4929
493.643	3789
493.718	4260
493.793	8124
493.868	13690
493.943	9764
494.018	5061
494.093	2571
494.168	3051
494.243	2673
494.318	2966
494.393	2605
494.468	2191
494.543	3354
494.618	4209
494.693	4049
494.768	2643
494.842	2515
494.917	2766
494.992	3135
495.067	3337
495.142	2478
495.217	3206
495.292	4179
495.366	4140
495.441	5625
495.516	8079
495.591	11740
495.665	54485
495.740	160103
495.815	101723
495.890	8452
495.964	2631
496.039	5016
496.114	2764
496.188	4206
496.263	3996
496.338	3304
496.412	3023
496.487	5470
496.561	6839
496.636	8758
496.710	4426
496.785	5566
496.860	6083
496.934	4140
497.009	4276
497.083	4047
497.158	3760
497.232	4452
497.307	6872
497.381	5628
497.455	5007
497.530	7251
497.604	6206
497.679	5525
497.753	8416
497.827	12861
497.902	11458
497.976	11900
498.050	24447
498.125	106376
498.199	160649
498.273	33293
498.348	20496
498.422	14735
498.496	12535
498.570	13630
498.645	6042
498.719	5426
498.793	7130
498.867	12126
498.941	15385
499.016	39608
499.090	124241
499.164	79737
499.238	6540
499.312	5180
499.386	7045
499.460	6897
499.534	4987
499.609	5456
499.683	8550
499.757	9070
499.831	14755
499.905	73180
499.979	103986
500.053	17044
500.127	15866
500.201	17064
500.275	8455
500.349	6089
500.422	6004
500.496	11088
500.570	29867
500.644	56228
500.718	92473
500.792	37042
500.866	6134
500.940	5979
501.013	6898
501.087	4939
501.161	12703
501.235	18003
501.309	22085
501.382	65737
501.456	87007
501.530	20008
501.603	22524
501.677	13773
501.751	3780
501.825	6556
501.898	8185
501.972	24727
502.046	25716
502.119	4875
502.193	12784
502.266	31674
502.340	22433
502.413	10677
502.487	27424
502.561	17382
502.634	6980
502.708	6017
502.781	4444
502.855	4879
502.928	2002
503.002	3666
503.075	2202
503.149	3313
503.222	2885
503.295	2554
503.369	4350
503.442	4644
503.516	15984
503.589	53001
503.662	46650
503.736	12540
503.809	22719
503.882	25222
503.956	26148
504.029	33455
504.102	19836
504.175	25535
504.249	10135
504.322	4725
504.395	4778
504.468	3287
504.542	2565
504.615	2298
504.688	1995
504.761	1279
504.834	5167
504.907	6234
504.980	12963
505.053	6427
505.127	4856
505.200	10675
505.273	4226
505.346	3216
505.419	1414
505.492	3218
505.565	1570
505.638	2258
505.711	1516
505.784	635
505.857	1248
505.930	3205
506.003	263
506.076	2948
506.149	2058
506.221	3198
506.294	4642
506.367	6634
506.440	36173
506.513	34811
506.586	6568
506.659	3824
506.731	3288
506.804	4166
506.877	7883
506.950	5324
507.022	4031
507.095	1576
507.168	6376
507.241	5138
507.313	2254
507.386	3647
507.459	8742
507.531	5463
507.604	2988
507.677	3216
507.749	989
507.822	4333
507.894	7322
507.967	8810
508.040	3257
508.112	3321
508.185	2188
508.257	1211
508.330	7253
508.402	4218
508.475	2165
508.547	3350
508.620	2323
508.692	4829
508.765	2822
508.837	1179
508.909	2608
508.982	1989
509.054	3598
509.127	2963
509.199	1487
509.271	1042
509.344	528
509.416	1529
509.488	1770
509.560	1679
509.633	2664
509.705	4349
509.777	3794
509.849	7296
509.922	4218
509.994	2494
510.066	2548
510.138	85
510.210	4887
510.283	3178
510.355	3080
510.427	2594
510.499	3411
510.571	2229
510.643	2373
510.715	8051
510.787	8284
510.859	4300
510.931	3857
511.003	6946
511.076	8676
511.148	1399
511.219	1837
511.291	4601
511.363	6891
511.435	2488
511.507	1179
511.579	1732
511.651	2660
511.723	1165
511.795	1919
511.867	2168
511.939	2633
512.010	6323
512.082	8375
512.154	2845
512.226	3485
512.298	4486
512.369	6989
512.441	6805
512.513	7496
512.585	4592
512.656	4802
512.728	4154
512.800	3713
512.871	2907
512.943	3006
513.015	1381
513.086	3206
513.158	4179
513.230	4662
513.301	10240
513.373	14679
513.444	6654
513.516	3400
513.588	3860
513.659	5475
513.731	7726
513.802	5584
513.874	15421
513.945	38296
514.016	14978
514.088	3816
514.159	3289
514.231	6779
514.302	8262
514.374	4871
514.445	2811
514.516	9308
514.588	7198
514.659	3799
514.730	7045
514.802	9301
514.873	4122
514.944	6448
515.016	4666
515.087	5880
515.158	5785
515.229	9515
515.301	3820
515.372	5584
515.443	3320
515.514	2698
515.585	2188
515.656	4181
515.728	3605
515.799	2531
515.870	4348
515.941	4808
516.012	4016
516.083	6648
516.154	6077
516.225	13162
516.296	15317
516.367	11565
516.438	12017
516.509	16735
516.580	24345
516.651	75028
516.722	329187
516.793	251753
516.864	32078
516.935	23663
517.006	25021
517.077	35258
517.148	76512
517.219	292007
517.289	684189
517.360	178367
517.431	43403
517.502	11047
517.573	8975
517.643	8002
517.714	8103
517.785	8224
517.856	9787
517.926	15270
517.997	19789
518.068	24460
518.138	35368
518.209	50035
518.280	178278
518.350	774130
518.421	541200
518.492	57454
518.562	19652
518.633	12382
518.703	8471
518.774	13178
518.845	21437
518.915	27551
518.986	12438
519.056	10398
519.127	22074
519.197	36409
519.268	59626
519.338	44619
519.408	9267
519.479	14851
519.549	14029
519.620	8195
519.690	4012
519.760	4284
519.831	4492
519.901	5240
519.971	3165
520.042	2402
520.112	3328
520.182	5694
520.253	10091
520.323	3160
520.393	2101
520.463	6600
520.534	1656
520.604	7103
520.674	5473
520.744	3107
520.814	6496
520.885	12341
520.955	10976
521.025	48065
521.095	34568
521.165	5834
521.235	3493
521.305	2161
521.375	3481
521.445	4334
521.515	7247
521.585	10264
521.655	9536
521.725	7231
521.795	6649
521.865	1252
521.935	5891
522.005	4291
522.075	2248
522.145	3640
522.215	3231
522.285	6043
522.355	7735
522.424	15858
522.494	15401
522.564	10369
522.634	18825
522.704	81570
522.774	49234
522.843	5997
522.913	5935
522.983	8245
523.053	6914
523.122	5563
523.192	7796
523.262	39424
523.331	63827
523.401	9950
523.471	3534
523.540	3788
523.610	1446
523.680	3145
523.749	2328
523.819	2781
523.888	3617
523.958	1423
524.027	2302
524.097	2726
524.166	2841
524.236	3603
524.305	5891
524.375	2182
524.444	1233
524.514	4261
524.583	1875
524.653	2064
524.722	4307
524.791	1874
524.861	3098
524.930	1052
524.999	1910
525.069	6573
525.138	2898
525.207	3505
525.277	3664
525.346	1781
525.415	3022
525.484	3479
525.554	3249
525.623	3933
525.692	3846
525.761	2237
525.830	3095
525.900	3031
525.969	5134
526.038	8528
526.107	10195
526.176	40595
526.245	44804
526.314	19167
526.383	24746
526.452	32371
526.522	49320
526.591	78655
526.660	47448
526.729	25373
526.797	16925
526.867	32645
526.935	171787
527.004	245397
527.073	139936
527.142	14885
527.211	5817
527.280	6340
527.349	9278
527.418	2851
527.487	3503
527.555	985
527.624	1444
527.693	747
527.762	2708
527.831	480
527.899	2375
527.968	1593
528.037	1057
528.106	4287
528.174	11345
528.243	9473
528.312	9772
528.380	23227
528.449	5348
528.518	3070
528.586	595
528.655	2326
528.723	546
528.792	1094
528.861	689
528.929	578
528.998	2463
529.066	1061
529.135	1237
529.203	672
529.272	-311
529.340	2032
529.409	3748
529.477	881
529.545	1057
529.614	2766
529.682	586
529.751	3648
529.819	5843
529.887	2398
529.956	783
530.024	2362
530.092	448
530.161	3594
530.229	9728
530.297	4277
530.365	1811
530.434	1192
530.502	651
530.570	1252
530.638	-53
530.707	2001
530.775	3936
530.843	1067
530.911	980
530.979	1342
531.047	371
531.115	1728
531.183	1187
531.252	2317
531.320	1195
531.388	212
531.456	1759
531.524	-289
531.592	2368
531.660	3421
531.728	1266
531.796	969
531.864	1647
531.932	1748
532.000	1730
532.067	2747
532.135	2357
532.203	4666
532.271	3688
532.339	10226
532.407	37373
532.475	31950
532.542	8316
532.610	8054
532.678	8903
532.746	40456
532.814	170241
532.881	63719
532.949	7042
533.017	3774
533.084	3124
533.152	1986
533.220	2163
533.287	2947
533.355	2342
533.423	2284
533.490	557
533.558	1790
533.625	1097
533.693	1564
533.761	3063
533.828	2763
533.896	1993
533.963	9434
534.031	16018
534.098	20435
534.166	11587
534.233	1836
534.300	2693
534.368	2200
534.435	1244
534.503	2331
534.570	2351
534.637	1728
534.705	1597
534.772	3179
534.840	2378
534.907	16717
534.974	34038
535.041	5552
535.109	2853
535.176	2007
535.243	2143
535.310	2578
535.378	1699
535.445	1931
535.512	1271
535.579	2364
535.646	1377
535.714	924
535.781	1414
535.848	1487
535.915	2814
535.982	1066
536.049	2553
536.116	3208
536.183	2184
536.250	2596
536.317	2796
536.384	4418
536.451	9417
536.518	11862
536.585	6336
536.652	8895
536.719	15617
536.786	13363
536.853	6928
536.920	10744
536.987	23075
537.053	19927
537.120	66298
537.187	98267
537.254	8094
537.321	2626
537.388	4610
537.454	1436
537.521	1006
537.588	970
537.654	3160
537.721	3219
537.788	4632
537.855	1966
537.921	2305
537.988	2798
538.055	3548
538.121	2588
538.188	3045
538.254	8363
538.321	25415
538.388	18939
538.454	4122
538.521	2715
538.587	1986
538.654	1876
538.720	2075
538.787	1974
538.853	2861
538.920	4474
538.986	4386
539.053	3350
539.119	3990
539.185	4123
539.252	5464
539.318	11936
539.385	9560
539.451	3192
539.517	5036
539.583	5199
539.650	12893
539.716	61891
539.782	25449
539.849	4182
539.915	5317
539.981	4320
540.047	7369
540.114	6084
540.180	6554
540.246	4004
540.312	8231
540.378	21331
540.444	30524
540.510	19435
540.576	69852
540.643	34481
540.709	3444
540.775	3710
540.841	2925
540.907	4870
540.973	6658
541.039	8581
541.105	15031
541.171	6547
541.237	2416
541.303	4633
541.369	6644
541.435	8523
541.500	20995
541.566	15827
541.632	5464
541.698	2801
541.764	3747
541.830	2311
541.896	2224
541.961	3634
542.027	3459
542.093	4645
542.159	4337
542.224	4110
542.290	8356
542.356	19000
542.421	32496
542.487	12732
542.553	5127
542.618	4627
542.684	4273
542.750	3810
542.815	5105
542.881	9291
542.947	51258
543.012	62669
543.078	5943
543.143	2790
543.209	3216
543.274	4583
543.340	4849
543.405	15133
543.471	42280
543.536	9449
543.602	3931
543.667	1797
543.732	2889
543.798	1699
543.863	2620
543.928	1462
543.994	927
544.059	2227
544.124	2945
544.190	2895
544.255	3180
544.320	3864
544.386	3136
544.451	8526
544.516	11792
544.581	8096
544.646	26449
544.712	73548
544.777	14205
544.842	3335
544.907	3263
544.972	3256
545.037	2724
545.102	3381
545.168	2942
545.233	4676
545.298	4825
545.363	4541
545.428	7566
545.493	15737
545.558	51173
545.623	27498
545.688	4621
545.753	4103
545.818	3147
545.883	2798
545.947	2878
546.012	3448
546.077	3369
546.142	4740
546.207	3279
546.272	7768
546.337	10571
546.401	5429
546.466	3753
546.531	2144
546.596	3794
546.661	4918
546.725	4952
546.790	2107
546.855	2970
546.919	1786
546.984	3876
547.049	3862
547.113	5680
547.178	3352
547.243	4693
547.307	4773
547.372	6265
547.436	7975
547.501	4605
547.565	5304
547.630	9435
547.695	10775
547.759	7091
547.823	6042
547.888	4435
547.952	3773
548.017	4143
548.081	6819
548.146	10206
548.210	7393
548.274	4220
548.339	4990
548.403	4677
548.468	3770
548.532	4278
548.596	4518
548.660	3253
548.725	5667
548.789	6511
548.853	8338
548.917	5382
548.982	6135
549.046	8444
549.110	4028
549.174	3727
549.238	3457
549.303	3414
549.367	5540
549.431	4137
549.495	5032
549.559	2987
549.623	5570
549.687	6123
549.751	12902
549.815	8312
549.879	6368
549.943	3794
550.007	6035
550.071	6239
550.135	9233
550.199	8539
550.263	5227
550.327	6711
550.391	8264
550.455	6370
550.519	5358
550.582	7134
550.646	11441
550.710	15450
550.774	7037
550.838	6134
550.901	7210
550.965	7635
551.029	7433
551.093	9755
551.156	11435
551.220	19308
551.284	29807
551.347	15298
551.411	19667
551.475	29907
551.538	9661
551.602	6092
551.666	6102
551.729	6082
551.793	5637
551.856	5781
551.920	6841
551.983	6428
552.047	5601
552.110	5788
552.174	5637
552.237	5421
552.301	6096
552.364	5980
552.428	5529
552.491	6011
552.554	6036
552.618	7083
552.681	8862
552.745	10435
552.808	23451
552.871	45566
552.934	25909
552.998	10683
553.061	8747
553.124	7585
553.187	6833
553.251	7673
553.314	9341
553.377	8529
553.440	13936
553.503	43293
553.567	113893
553.630	26044
553.693	7856
553.756	5713
553.819	6706
553.882	4945
553.945	5178
554.008	4734
554.071	3089
554.134	4787
554.197	3954
554.260	4996
554.323	7510
554.386	5548
554.449	4863
554.512	4942
554.575	3600
554.638	4862
554.701	4980
554.764	4476
554.827	5307
554.889	3494
554.952	3974
555.015	3528
555.078	3057
555.141	4010
555.203	4054
555.266	3763
555.329	3851
555.391	4744
555.454	5228
555.517	6081
555.580	3716
555.642	3261
555.705	3355
555.768	4256
555.830	3935
555.893	4528
555.955	3464
556.018	3993
556.080	3456
556.143	3446
556.206	3999
556.268	4118
556.330	5770
556.393	6887
556.455	4179
556.518	7026
556.580	9908
556.643	5458
556.705	4209
556.767	3504
556.830	4685
556.892	5818
556.955	15428
557.017	13481
557.079	4642
557.142	3888
557.204	6750
557.266	20991
557.328	24504
557.391	5782
557.453	2414
557.515	3684
557.577	7010
557.639	9638
557.701	4364
557.764	2196
557.826	3407
557.888	4244
557.950	4221
558.012	4181
558.074	6511
558.136	12036
558.198	39425
558.260	20095
558.322	6026
558.384	7248
558.446	8986
558.508	10282
558.570	13265
558.632	26383
558.694	54560
558.756	31444
558.818	62723
558.880	232598
558.942	98540
559.003	42094
559.065	27690
559.127	9070
559.189	8577
559.251	9748
559.312	13197
559.374	27460
559.436	119029
559.498	91357
559.559	12314
559.621	8796
559.683	9940
559.744	14183
559.806	45481
559.868	101840
559.929	24309
559.991	9139
560.052	11740
560.114	34621
560.176	30236
560.237	19136
560.299	44592
560.360	14657
560.422	4022
560.483	3520
560.545	3311
560.606	2678
560.667	2965
560.729	2867
560.790	3757
560.852	2666
560.913	2698
560.974	2525
561.036	2381
561.097	3335
561.158	3717
561.220	3948
561.281	3566
561.342	4182
561.403	6424
561.465	9048
561.526	30821
561.587	61390
561.648	13655
561.709	4499
561.771	3618
561.832	3064
561.893	3596
561.954	3408
562.015	2877
562.076	3380
562.137	2625
562.198	2971
562.259	3367
562.320	3152
562.381	4105
562.442	9891
562.503	8356
562.564	3451
562.625	2215
562.686	2601
562.747	2582
562.808	2826
562.869	1951
562.930	3258
562.991	2593
563.051	2732
563.112	2064
563.173	2803
563.234	1981
563.294	2160
563.355	2643
563.416	4462
563.477	2655
563.537	2680
563.598	4227
563.659	2939
563.720	3460
563.780	3252
563.841	4700
563.901	3474
563.962	2206
564.023	3259
564.083	3431
564.144	2863
564.204	3760
564.265	2850
564.325	4225
564.386	7859
564.446	9450
564.507	2674
564.567	1799
564.628	2928
564.688	2390
564.749	2657
564.809	3303
564.869	5237
564.930	3201
564.990	3304
565.050	2312
565.111	3193
565.171	2847
565.231	3352
565.292	2952
565.352	1575
565.412	3893
565.472	3365
565.532	4599
565.593	3607
565.653	2758
565.713	2933
565.773	3630
565.833	6025
565.893	12196
565.953	5664
566.013	2956
566.074	4022
566.134	5079
566.194	7657
566.254	11304
566.314	6675
566.374	3297
566.434	3552
566.494	3513
566.554	3416
566.614	3517
566.673	3130
566.733	3183
566.793	3841
566.853	3486
566.913	3108
566.973	4245
567.033	4086
567.092	3477
567.152	4485
567.212	4821
567.272	3744
567.331	4061
567.391	3682
567.451	4189
567.511	6187
567.570	7858
567.630	4478
567.690	3770
567.749	3680
567.809	4922
567.868	5969
567.928	5395
567.988	6469
568.047	6517
568.107	7810
568.166	10220
568.226	15319
568.285	24732
568.345	22246
568.404	16437
568.464	13996
568.523	12223
568.582	12659
568.642	14570
568.701	17261
568.761	23655
568.820	40032
568.879	44838
568.939	30637
568.998	21185
569.057	15496
569.116	12660
569.176	9589
569.235	7403
569.294	5637
569.353	5438
569.413	5739
569.472	4759
569.531	3748
569.590	3446
569.649	3116
569.708	3080
569.767	3872
569.827	4391
569.886	3534
569.945	2006
570.004	3632
570.063	3264
570.122	3828
570.181	4391
570.240	3986
570.299	4255
570.358	4350
570.417	3541
570.475	2270
570.534	4171
570.593	4921
570.652	3937
570.711	3770
570.770	3034
570.829	4558
570.887	4657
570.946	7431
571.005	4296
571.064	3300
571.122	4765
571.181	4844
571.240	4454
571.299	3055
571.357	2720
571.416	3220
571.475	3565
571.533	4320
571.592	2587
571.650	3043
571.709	2677
571.768	2595
571.826	3393
571.885	2218
571.943	2069
572.002	1843
572.060	1827
572.119	2621
572.177	2255
572.236	1439
572.294	1480
572.352	2789
572.411	2266
572.469	2014
572.528	1410
572.586	2238
572.644	2962
572.703	3212
572.761	2122
572.819	2582
572.877	1679
572.936	1180
572.994	2547
573.052	1892
573.110	2154
573.169	3213
573.227	1442
573.285	2480
573.343	2269
573.401	1278
573.459	2134
573.517	1470
573.576	1161
573.634	2640
573.692	2163
573.750	1010
573.808	1511
573.866	2542
573.924	2586
573.982	2986
574.040	1512
574.098	1462
574.155	2551
574.213	1906
574.271	309
574.329	2009
574.387	826
574.445	856
574.503	1200
574.560	976
574.618	1458
574.676	1868
574.734	1852
574.792	1651
574.849	1125
574.907	1498
574.965	1175
575.022	577
575.080	1069
575.138	1789
575.195	2262
575.253	2441
575.311	3534
575.368	2228
575.426	2259
575.483	1542
575.541	1659
575.598	1516
575.656	1668
575.713	1457
575.771	2301
575.828	1912
575.886	1114
575.943	2256
576.001	1422
576.058	2523
576.115	2065
576.173	2352
576.230	3342
576.287	5902
576.345	4471
576.402	1602
576.459	1773
576.517	1506
576.574	2071
576.631	2886
576.688	2342
576.746	1084
576.803	1951
576.860	1585
576.917	1828
576.974	1924
577.031	2041
577.089	2152
577.146	1247
577.203	2097
577.260	2240
577.317	2937
577.374	3291
577.431	2812
577.488	2427
577.545	2335
577.602	2251
577.659	2598
577.716	3311
577.773	5173
577.830	3337
577.886	2985
577.943	1056
578.000	2297
578.057	2123
578.114	2143
578.171	1728
578.227	2867
578.284	2294
578.341	3326
578.398	2221
578.454	3008
578.511	2888
578.568	3870
578.625	2716
578.681	2246
578.738	1566
578.794	1860
578.851	2169
578.908	1765
578.964	1538
579.021	2342
579.077	1385
579.134	1246
579.190	1917
579.247	1596
579.303	1596
579.360	1743
579.416	1285
579.473	1688
579.529	1053
579.586	1790
579.642	2298
579.698	1868
579.755	1504
579.811	2309
579.867	1580
579.924	1680
579.980	1590
580.036	3860
580.093	2335
580.149	3049
580.205	3546
580.261	2833
580.317	2852
580.374	2442
580.430	3231
580.486	3389
580.542	2862
580.598	1688
580.619	1854
580.654	2141
580.692	1821
580.710	1660
580.765	2695
580.767	2727
580.823	2018
580.838	2045
580.879	2096
580.911	1716
580.935	1437
580.984	1563
580.991	1580
581.047	1941
581.057	1863
581.103	1508
581.130	2145
581.159	2752
581.203	2212
581.215	2089
581.270	2845
581.276	2800
581.326	2371
581.349	2262
581.382	2050
581.422	2382
581.438	2515
581.494	2303
581.494	2300
581.550	1845
581.567	2153
581.606	2713
581.640	2499
581.661	2376
581.713	2759
581.717	2796
581.773	1440
581.786	1592
581.829	2005
581.859	2103
581.885	2187
581.932	2395
581.940	2443
581.996	2362
582.004	2378
582.052	2333
582.077	2074
582.107	1821
582.150	2685
582.163	2927
582.219	2068
582.223	2152
582.274	3241
582.296	3052
582.330	2723
582.368	3037
582.386	3230
582.441	2570
582.441	2566
582.497	2598
582.514	2671
582.552	3235
582.587	4752
582.608	5462
582.659	3969
582.663	3849
582.719	2375
582.732	2438
582.774	2939
582.805	2851
582.830	2705
582.877	3164
582.885	3229
582.941	2425
582.950	2514
582.996	3018
583.023	3352
583.052	3815
583.095	3913
583.107	3911
583.162	4374
583.168	4439
583.218	4907
583.240	4326
583.273	3431
583.313	3125
583.328	3092
583.384	3064
583.385	3086
583.439	3367
583.458	3270
583.494	3234
583.531	3353
583.549	3407
583.603	2975
583.605	2964
583.660	3347
583.676	3367
583.715	3389
583.748	3643
583.770	3856
583.820	4006
583.825	4007
583.881	3659
583.893	3626
583.936	3517
583.965	3687
583.991	3904
584.038	3914
584.046	3900
584.101	3737
584.110	3824
584.156	4301
584.183	3845
584.211	3341
584.255	3963
584.266	4154
584.321	3588
584.328	3639
584.376	4002
584.400	4057
584.431	4210
584.472	3966
584.486	3872
584.541	4373
584.545	4399
584.596	4460
584.617	4216
584.651	4447
584.689	4945
584.706	4979
584.761	5381
584.762	5371
584.816	5154
584.834	5250
584.871	5164
584.906	4946
584.926	4847
584.978	4627
584.980	4650
585.035	5730
585.051	5890
585.090	6324
585.123	6637
585.145	6896
585.195	7554
585.200	7729
585.254	11040
585.267	11777
585.309	15822
585.340	19892
585.364	20489
585.412	15996
585.419	15315
585.473	11430
585.484	10975
585.528	12730
585.556	14603
585.583	19988
585.628	30677
585.637	35525
585.692	71617
585.700	78464
585.747	95799
585.772	86537
585.801	57539
585.845	19756
585.856	16489
585.910	11155
585.917	10536
585.965	9719
585.989	10004
586.019	9883
586.061	8740
586.074	8784
586.128	9441
586.133	9511
586.183	10411
586.205	10760
586.237	10663
586.277	9798
586.292	9581
586.346	9768
586.349	9720
586.401	9429
586.421	9361
586.455	9490
586.493	10049
586.509	11417
586.564	16037
586.565	16161
586.618	24153
586.637	25553
586.672	20848
586.709	14517
586.727	13082
586.781	11829
586.781	11853
586.835	10965
586.853	10748
586.889	10287
586.925	9639
586.944	9695
586.996	10697
586.998	10741
587.052	11194
587.068	11215
587.106	11629
587.140	11878
587.161	12050
587.212	12358
587.215	12381
587.269	12450
587.284	12290
587.323	12474
587.356	12917
587.377	13139
587.427	13678
587.431	13814
587.485	14886
587.499	15138
587.539	15543
587.571	15709
587.593	15948
587.643	16861
587.648	17025
587.702	17800
587.715	18055
587.755	19361
587.786	20351
587.810	21214
587.858	22117
587.864	22286
587.917	24353
587.930	24679
587.971	27744
588.001	29902
588.025	30757
588.073	32117
588.079	32675
588.133	37740
588.145	38668
588.187	43039
588.217	46249
588.241	49696
588.288	56177
588.295	57462
588.348	67880
588.360	70045
588.402	80242
588.431	87101
588.456	94097
588.503	107795
588.510	110660
588.564	132629
588.575	137332
588.617	163104
588.646	180515
588.671	205269
588.718	254651
588.725	271424
588.778	405794
588.789	435674
588.832	709964
588.861	908885
588.886	1171742
588.932	1698821
588.939	1719733
588.993	1763903
589.004	1749860
589.047	1311236
589.075	985238
589.100	765396
589.147	402226
589.154	386654
589.207	282344
589.218	261745
589.261	244642
589.290	234768
589.314	249962
589.361	282501
589.368	300916
589.421	455978
589.433	491126
589.475	836427
589.504	1092291
589.528	1284894
589.576	1644373
589.582	1603437
589.635	1088408
589.647	966482
589.689	558871
589.718	295662
589.742	239873
589.790	140778
589.795	137156
589.849	103870
589.861	96429
589.902	85428
589.932	76751
589.955	69508
590.004	53658
590.009	53105
590.062	46235
590.075	44437
590.115	41632
590.146	39287
590.168	38314
590.218	35881
590.222	35823
590.275	33291
590.289	32579
590.328	31248
590.360	29865
590.381	29316
590.431	27889
590.435	27960
590.488	27421
590.503	27158
590.541	26429
590.574	25666
590.594	25258
590.645	23998
590.647	24074
590.700	23573
590.716	23374
590.753	23052
590.787	22485
590.806	22220
590.859	21507
590.859	21589
590.912	21423
590.930	21340
590.965	21193
591.001	20824
591.018	20827
591.071	20617
591.072	20533
591.124	20737
591.143	20628
591.177	20635
591.214	20587
591.230	21110
591.283	22587
591.285	22551
591.336	23853
591.356	24300
591.389	24517
591.427	24547
591.442	23749
591.495	20108
591.498	19769
591.547	19617
591.569	19511
591.600	19552
591.640	19234
591.653	19256
591.706	19151
591.711	19054
591.759	20063
591.782	20484
591.811	21183
591.853	21941
591.864	21630
591.917	19635
591.924	19254
591.969	19447
591.995	19498
592.022	19331
592.066	18731
592.075	19301
592.127	22390
592.137	22875
592.180	24233
592.208	24927
592.233	23153
592.279	19509
592.285	19546
592.338	19194
592.350	19049
592.390	19147
592.421	19067
592.443	18928
592.491	18375
592.495	18495
592.548	19108
592.562	19200
592.600	19275
592.633	19199
592.653	18949
592.704	18007
592.705	18136
592.775	19405
592.846	20242
592.916	21476
592.987	24772
593.058	21351
593.128	18986
593.199	18421
593.270	18299
593.341	17713
593.411	19902
593.482	19912
593.553	18696
593.623	18163
593.694	19214
593.764	19840
593.835	19267
593.906	17267
593.976	17744
594.047	18767
594.117	23513
594.188	22893
594.258	17938
594.329	17573
594.399	17892
594.470	17566
594.540	18904
594.611	18146
594.681	17653
594.751	19360
594.822	20737
594.892	21664
594.963	20612
595.033	20614
595.103	19864
595.174	23124
595.244	31277
595.314	34041
595.384	21939
595.455	21120
595.525	21521
595.595	21387
595.665	20667
595.736	19820
595.806	20676
595.876	20547
595.946	20820
596.016	20485
596.087	20252
596.157	20989
596.227	20344
596.297	22601
596.367	23446
596.437	26154
596.507	31169
596.577	37090
596.647	24811
596.717	23613
596.787	24420
596.857	24424
596.927	24260
596.997	25072
597.067	26151
597.137	30963
597.207	28272
597.277	25332
597.347	23514
597.417	24197
597.487	25511
597.557	25050
597.626	26154
597.696	27758
597.766	31086
597.836	36476
597.906	25514
597.975	23137
598.045	23637
598.115	23125
598.185	24410
598.254	27493
598.324	30563
598.394	31630
598.464	30628
598.533	26783
598.603	26180
598.672	27278
598.742	24983
598.812	25542
598.881	26060
598.951	25308
599.020	24888
599.090	25953
599.159	26268
599.229	24554
599.299	24625
599.368	24445
599.437	24733
599.507	24076
599.576	25030
599.646	28066
599.715	28906
599.785	23547
599.854	23717
599.924	25029
599.993	24328
600.062	22385
600.132	22831
600.201	24933
600.270	30153
600.340	27143
600.409	26121
600.478	26076
600.547	26671
600.617	25492
600.686	22457
600.755	22997
600.824	25043
600.894	21878
600.963	20342
601.032	19994
601.101	18698
601.170	18504
601.239	20205
601.308	25550
601.378	23208
601.447	19372
601.516	19766
601.585	24553
601.654	30185
601.723	21718
601.792	20991
601.861	23767
601.930	31973
601.999	28684
602.068	25011
602.137	33866
602.206	30578
602.275	25057
602.343	30970
602.412	30294
602.481	22248
602.550	20584
602.619	21873
602.688	23119
602.756	21768
602.825	21285
602.894	21343
602.963	21508
603.032	21683
603.100	21280
603.169	21304
603.238	21179
603.307	20687
603.375	22123
603.444	22324
603.513	22068
603.581	23233
603.650	23250
603.719	21869
603.787	22939
603.856	23035
603.924	23263
603.993	24174
604.061	24123
604.130	25628
604.198	26806
604.267	26627
604.335	25761
604.404	26825
604.472	25419
604.541	26549
604.609	26770
604.678	26541
604.746	26805
604.815	27570
604.883	28358
604.951	27672
605.020	28210
605.088	28147
605.156	29057
605.225	29480
605.293	27371
605.361	28656
605.429	29439
605.498	31708
605.566	31819
605.634	33668
605.702	32389
605.771	32993
605.839	34274
605.907	32954
605.975	31873
606.043	31215
606.111	30348
606.180	33643
606.248	39701
606.316	42183
606.384	33032
606.452	39852
606.520	46859
606.588	35986
606.656	30628
606.724	31295
606.792	28911
606.860	26582
606.928	24816
606.996	23700
607.064	23614
607.132	24538
607.200	25552
607.267	27183
607.335	26017
607.403	27000
607.471	26095
607.539	25554
607.607	25627
607.674	24027
607.742	24535
607.810	27898
607.878	25494
607.946	24638
608.013	24501
608.081	25449
608.149	25963
608.216	25903
608.284	27102
608.352	26491
608.419	26624
608.487	32790
608.555	26967
608.622	26701
608.690	28063
608.757	30618
608.825	31708
608.893	30555
608.960	30005
609.028	30748
609.095	34744
609.163	28163
609.230	25558
609.298	23868
609.365	23648
609.432	25922
609.500	27068
609.567	30172
609.635	35068
609.702	36777
609.769	35058
609.837	30481
609.904	26390
609.971	26643
610.039	33645
610.106	47492
610.173	94124
610.241	225348
610.308	114554
610.375	42565
610.442	27830
610.509	26571
610.577	26570
610.644	25677
610.711	27143
610.778	27161
610.845	27798
610.912	31625
610.980	38067
611.047	51901
611.114	37181
611.181	30104
611.248	27155
611.315	31130
611.382	29654
611.449	31224
611.516	33177
611.583	32303
611.650	32126
611.717	32776
611.784	34133
611.851	37494
611.918	43561
611.984	53606
612.051	87690
612.118	199108
612.185	524279
612.252	260922
612.319	54038
612.386	43789
612.452	39745
612.519	38486
612.586	43337
612.653	37558
612.719	36709
612.786	35258
612.853	32015
612.919	31364
612.986	32524
613.053	30272
613.120	28979
613.186	27682
613.253	29591
613.319	28675
613.386	29246
613.453	31276
613.519	34827
613.586	46904
613.652	63448
613.719	52563
613.785	44415
613.852	34013
613.918	35082
613.985	45661
614.051	78899
614.118	182180
614.184	151916
614.250	39832
614.317	31558
614.383	30998
614.449	29537
614.516	29758
614.582	30886
614.648	28749
614.715	28598
614.781	28091
614.847	29041
614.914	28772
614.980	27405
615.046	28595
615.112	29505
615.179	28905
615.245	29496
615.311	33012
615.377	40592
615.443	39419
615.509	31743
615.575	32275
615.642	32124
615.708	35068
615.774	38123
615.840	41803
615.906	52056
615.972	75717
616.038	134463
616.104	279849
616.170	691449
616.236	487548
616.302	87661
616.368	61373
616.434	42087
616.500	41077
616.565	46610
616.631	56431
616.697	44584
616.763	47870
616.829	77370
616.895	141510
616.961	120304
617.026	48656
617.092	32764
617.158	30562
617.224	29311
617.289	29080
617.355	28045
617.421	27123
617.487	27135
617.552	25312
617.618	24833
617.684	24254
617.749	26581
617.815	24043
617.880	23336
617.946	25003
618.012	25460
618.077	26143
618.143	23660
618.208	24561
618.274	25110
618.339	26139
618.405	21811
618.470	22717
618.536	24113
618.601	25081
618.667	21310
618.732	21943
618.798	21308
618.863	21123
618.928	22356
618.994	23734
619.059	29033
619.124	45420
619.190	27632
619.255	20219
619.320	21281
619.386	21393
619.451	18846
619.516	19560
619.581	19294
619.647	19996
619.712	19738
619.777	20104
619.842	20325
619.907	20178
619.972	22609
620.038	22403
620.103	19048
620.168	18029
620.233	19334
620.298	19228
620.363	19814
620.428	20139
620.493	20069
620.558	20737
620.623	20111
620.688	21067
620.753	20428
620.818	20390
620.883	20414
620.948	20202
621.013	20438
621.078	20073
621.143	19881
621.207	23689
621.272	21972
621.337	23807
621.402	23352
621.467	27561
621.532	27459
621.596	23693
621.661	22522
621.726	20999
621.791	20192
621.855	23334
621.920	25134
621.985	24038
622.049	26995
622.114	24535
622.179	23086
622.243	23140
622.308	22672
622.373	25727
622.437	23001
622.502	21146
622.566	22374
622.631	21674
622.695	23388
622.760	22629
622.824	23780
622.889	25010
622.953	28449
623.018	50092
623.082	44312
623.147	24527
623.211	25032
623.276	24885
623.340	21216
623.404	21085
623.469	21270
623.533	22454
623.597	20559
623.662	21190
623.726	19162
623.790	19022
623.854	19100
623.919	18833
623.983	20082
624.047	20296
624.111	20157
624.176	20310
624.240	20811
624.304	23049
624.368	20257
624.432	20649
624.496	21999
624.560	27149
624.625	29569
624.689	21910
624.753	21728
624.817	20844
624.881	18998
624.945	18105
625.009	17967
625.073	20209
625.137	22283
625.201	32902
625.265	29837
625.329	21662
625.393	23793
625.456	21685
625.520	21335
625.584	24871
625.648	27622
625.712	39255
625.776	79952
625.839	86171
625.903	32977
625.967	21527
626.031	36113
626.095	51204
626.158	21414
626.222	15306
626.286	16577
626.349	14214
626.413	13770
626.477	19244
626.540	15145
626.604	13954
626.668	15285
626.731	13626
626.795	14018
626.858	14689
626.922	14468
626.986	14901
627.049	12398
627.113	14329
627.176	14268
627.240	12378
627.303	13883
627.366	12802
627.430	14213
627.493	14430
627.557	12564
627.620	14772
627.684	13986
627.747	13551
627.810	11261
627.874	13774
627.937	11422
628.000	14749
628.064	14096
628.127	9998
628.190	12009
628.253	12461
628.317	10999
628.380	11666
628.443	11428
628.506	10722
628.569	10560
628.632	10083
628.696	9753
628.759	10057
628.822	9666
628.885	10220
628.948	10279
629.011	11108
629.074	10587
629.137	9732
629.200	9902
629.263	12041
629.326	9230
629.389	10323
629.452	10039
629.515	9399
629.578	9939
629.641	10938
629.704	9988
629.767	11016
629.830	9708
629.892	10240
629.955	8905
630.018	13654
630.081	14806
630.144	20300
630.207	12260
630.269	12728
630.332	11197
630.395	10025
630.458	9402
630.520	9136
630.583	9277
630.646	9257
630.708	7887
630.771	8220
630.834	10077
630.896	7746
630.959	8457
631.021	8136
631.084	9258
631.146	10196
631.209	11115
631.272	8781
631.334	9516
631.397	8841
631.459	9633
631.522	11774
631.584	8927
631.646	10693
631.709	12462
631.771	17010
631.834	11667
631.896	9258
631.958	8247
632.021	9498
632.083	8332
632.145	9188
632.208	8667
632.270	10198
632.332	7078
632.395	8194
632.457	9611
632.519	7686
632.581	9076
632.643	7276
632.706	7801
632.768	6571
632.830	7715
632.892	7727
632.954	6695
633.016	9361
633.078	8009
633.141	7010
633.203	7567
633.265	7551
633.327	8630
633.389	8382
633.451	11115
633.513	15014
633.575	13048
633.637	14533
633.698	11243
633.760	9134
633.822	8450
633.884	9133
633.946	8527
634.008	8574
634.070	9518
634.132	15492
634.193	11694
634.255	10613
634.317	10845
634.379	11727
634.441	9491
634.502	8136
634.564	9381
634.626	7545
634.687	7623
634.749	7786
634.811	7925
634.873	6525
634.934	7557
634.996	7895
635.057	6652
635.119	6807
635.181	6844
635.242	7957
635.304	5784
635.365	9913
635.427	7264
635.488	9078
635.550	6981
635.611	8070
635.673	5176
635.734	9312
635.796	8623
635.857	11268
635.918	7519
635.980	9871
636.041	9554
636.102	10880
636.164	10343
636.225	11195
636.286	7556
636.348	9267
636.409	8416
636.470	7075
636.531	7178
636.593	8096
636.654	7490
636.715	7246
636.776	5832
636.838	5089
636.899	6377
636.960	6843
637.021	4713
637.082	5158
637.143	6002
637.204	5721
637.265	4946
637.326	6327
637.387	5177
637.448	5302
637.509	5719
637.570	5658
637.631	6501
637.692	4287
637.753	4276
637.814	5102
637.875	5620
637.936	5997
637.997	5208
638.058	6857
638.119	6741
638.179	5190
638.240	5306
638.301	5242
638.362	4831
638.423	5044
638.483	6412
638.544	4155
638.605	6089
638.666	3934
638.726	5265
638.787	6207
638.848	4419
638.908	5196
638.969	4706
639.030	5575
639.090	4365
639.151	6084
639.211	7824
639.272	12516
639.332	23599
639.393	10098
639.453	4985
639.514	5545
639.574	5532
639.635	4308
639.695	6912
639.756	5285
639.816	8035
639.877	11213
639.937	23546
639.997	29933
640.058	6533
640.118	4341
640.178	6278
640.239	4532
640.299	4840
640.359	4517
640.420	5410
640.480	5233
640.540	5592
640.600	5538
640.661	5636
640.721	6773
640.781	13034
640.841	7869
640.901	6281
640.961	6568
641.021	7072
641.082	8464
641.142	16972
641.202	9440
641.262	3016
641.322	5031
641.382	3363
641.442	5216
641.502	4790
641.562	5106
641.622	3470
641.682	5016
641.742	5103
641.802	4952
641.861	6030
641.921	7003
641.981	8582
642.041	9288
642.101	12405
642.161	5882
642.221	4463
642.280	4017
642.340	4030
642.400	3342
642.460	4927
642.519	3171
642.579	3635
642.639	5580
642.698	1578
642.758	6547
642.818	4316
642.877	3900
642.937	5959
642.997	8221
643.056	15364
643.116	6113
643.175	5557
643.235	4869
643.294	3297
643.354	5749
643.414	6603
643.473	7967
643.532	9784
643.592	14773
643.651	24835
643.711	44608
643.770	87815
643.830	218976
643.889	446750
643.948	85212
644.008	14130
644.067	8895
644.126	6751
644.186	5533
644.245	5297
644.304	2786
644.363	6137
644.423	3371
644.482	4979
644.541	4790
644.600	2625
644.659	6787
644.719	6623
644.778	11099
644.837	17834
644.896	37957
644.955	85691
645.014	27389
645.073	9299
645.132	4648
645.191	5713
645.250	4240
645.309	5325
645.368	4362
645.427	6520
645.486	9388
645.545	16233
645.604	5120
645.663	3975
645.722	4229
645.781	5742
645.840	6778
645.898	8161
645.957	14839
646.016	20116
646.075	38947
646.134	75200
646.192	212037
646.251	291211
646.310	34750
646.369	10033
646.427	7470
646.486	5695
646.545	5186
646.603	3918
646.662	4460
646.721	4337
646.779	3944
646.838	3396
646.896	5729
646.955	7072
647.014	11325
647.072	19231
647.131	53572
647.189	23003
647.248	3882
647.306	4665
647.365	4261
647.423	1446
647.481	4528
647.540	1785
647.598	3831
647.657	2041
647.715	3724
647.773	2298
647.832	3802
647.890	1503
647.948	2866
648.007	3628
648.065	2445
648.123	3141
648.181	6221
648.240	8451
648.298	5634
648.356	2867
648.414	2881
648.472	3009
648.531	3268
648.589	3282
648.647	2247
648.705	2973
648.763	2964
648.821	3695
648.879	2458
648.937	3766
648.995	4144
649.053	5512
649.111	10184
649.169	16354
649.227	29189
649.285	60445
649.343	171681
649.401	80140
649.459	44666
649.516	30883
649.574	29022
649.632	72867
649.690	79195
649.748	19368
649.806	21382
649.863	36302
649.921	41199
649.979	22580
650.037	5491
650.094	1719
650.152	3930
650.210	1677
650.268	4172
650.325	3185
650.383	4447
650.440	2067
650.498	3204
650.556	2102
650.613	2590
650.671	2636
650.728	2336
650.786	2567
650.843	3149
650.901	626
650.958	2559
651.016	2361
651.073	2590
651.131	1332
651.188	1584
651.246	2045
651.303	1274
651.360	1523
651.418	1709
651.475	2341
651.532	882
651.590	2424
651.647	1499
651.704	1470
651.762	1966
651.819	2834
651.876	1648
651.933	1477
651.990	2273
652.048	682
652.105	1648
652.162	2131
652.219	1981
652.276	2017
652.333	2067
652.390	1008
652.448	2492
652.505	2638
652.562	2803
652.619	3660
652.676	10227
652.733	10224
652.790	1978
652.847	610
652.904	1845
652.961	1047
653.017	1403
653.074	2346
653.131	1505
653.188	866
653.245	1916
653.302	1485
653.359	1688
653.415	2051
653.472	1218
653.529	2024
653.586	895
653.642	796
653.699	1788
653.756	678
653.813	800
653.869	1945
653.926	1050
653.983	302
654.039	2119
654.096	1106
654.152	1950
654.209	1082
654.266	1922
654.322	1776
654.379	2057
654.435	3338
654.492	2975
654.548	6427
654.605	10303
654.661	4314
654.717	1818
654.774	1985
654.830	1783
654.887	1607
654.943	1815
655.000	2374
655.056	2155
655.112	2278
655.168	-7
655.225	1715
655.281	3085
655.337	2973
655.394	5177
655.450	3810
655.506	4393
655.562	6107
655.618	4712
655.675	1145
655.731	1912
655.787	1593
655.843	1818
655.899	696
655.955	1482
656.011	1349
656.067	750
656.123	2110
656.179	1955
656.235	2576
656.291	483
656.347	2210
656.403	1230
656.459	1043
656.515	2318
656.571	2219
656.627	1779
656.683	1552
656.739	2129
656.795	2081
656.850	2859
656.906	3881
656.962	2088
657.018	1448
657.074	2284
657.129	2487
657.185	2430
657.241	5106
657.297	2469
657.352	1601
657.408	779
657.464	2301
657.519	1972
657.575	380
657.630	1285
657.686	811
657.742	209
657.797	1178
657.853	525
657.908	1855
657.964	793
658.019	1477
658.075	1698
658.130	1517
658.186	180
658.241	1908
658.297	1142
658.352	280
658.407	1961
658.463	1213
658.518	1581
658.573	1170
658.629	444
658.684	1119
658.739	1286
658.795	396
658.850	1197
658.905	464
658.960	1272
659.016	1182
659.071	1123
659.126	2815
659.181	3018
659.236	8593
659.291	8068
659.346	4173
659.401	4092
659.457	4893
659.512	8590
659.567	3647
659.622	1860
659.677	1484
659.732	-72
659.787	1588
659.842	2308
659.897	2783
659.952	1501
660.007	1173
660.061	1835
660.116	847
660.171	867
660.226	1078
660.281	1150
660.336	484
660.391	1887
660.445	153
660.500	1818
660.555	1132
660.610	898
660.664	1686
660.719	812
660.774	1302
660.828	1664
660.883	1731
660.938	1102
660.992	345
661.047	821
661.101	782
661.156	540
661.211	452
661.265	1427
661.320	341
661.374	1159
661.429	884
661.483	1436
661.538	1068
661.592	416
661.647	1982
661.701	2089
661.755	950
661.810	862
661.864	289
661.919	731
661.973	443
662.027	1371
662.081	886
662.136	1373
662.190	1342
662.244	1293
662.299	1449
662.353	1098
662.407	442
662.461	718
662.515	1254
662.569	986
662.624	930
662.678	1206
662.732	346
662.786	821
662.840	1129
662.894	1458
662.948	851
663.002	343
663.056	353
663.110	572
663.164	978
663.218	973
663.272	1712
663.326	1851
663.380	1954
663.434	2098
663.488	319
663.542	913
663.595	872
663.649	774
663.703	1595
663.757	1861
663.811	507
663.864	391
663.918	1775
663.972	150
664.026	488
664.079	1273
664.133	2063
664.187	789
664.240	-266
664.294	938
664.348	874
664.401	1509
664.455	1219
664.508	454
664.562	1164
664.615	1123
664.669	489
664.722	338
664.776	81
664.829	672
664.883	695
664.936	428
664.990	664
665.043	1761
665.097	997
665.150	2258
665.203	1098
665.257	1025
665.310	2142
665.363	1228
665.417	238
665.470	1014
665.523	1552
665.576	1268
665.630	946
665.683	1193
665.736	1074
665.789	1191
665.842	196
665.895	1531
665.949	1501
666.002	1328
666.055	1046
666.108	1924
666.161	1115
666.214	1191
666.267	2762
666.320	3071
666.373	1202
666.426	1293
666.479	1239
666.532	2149
666.585	1260
666.638	2515
666.691	995
666.744	2299
666.796	1241
666.849	1688
666.902	1373
666.955	712
667.008	302
667.060	938
667.113	581
667.166	211
667.219	1228
667.271	1438
667.324	904
667.377	1948
667.430	2045
667.482	3743
667.535	3204
667.587	2268
667.640	3179
667.693	4112
667.745	8888
667.798	8317
667.850	1593
667.903	2022
667.955	1919
668.008	1094
668.060	1289
668.113	826
668.165	1207
668.218	1408
668.270	1956
668.322	982
668.375	123
668.427	2098
668.479	586
668.532	1583
668.584	752
668.636	742
668.689	1705
668.741	924
668.793	841
668.845	1163
668.898	1509
668.950	1159
669.002	1182
669.054	813
669.106	741
669.158	1782
669.211	994
669.263	1892
669.315	2862
669.367	4204
669.419	1479
669.471	2366
669.523	2548
669.575	4209
669.627	2753
669.679	1503
669.731	1355
669.783	1427
669.835	2217
669.886	751
669.938	1902
669.990	1835
670.042	924
670.094	955
670.146	1070
670.197	1747
670.249	2239
670.301	2773
670.353	4476
670.404	6296
670.456	8767
670.508	14521
670.560	23108
670.611	39195
670.663	67137
670.715	167721
670.766	251560
670.818	61444
670.869	9623
670.921	4685
670.972	4105
671.024	2831
671.075	1820
671.127	2439
671.178	1394
671.230	1526
671.281	1748
671.333	1570
671.384	2231
671.436	2132
671.487	3608
671.538	4094
671.590	5353
671.641	8694
671.692	13383
671.744	24757
671.795	14419
671.846	5216
671.897	2006
671.949	2660
672.000	1563
672.051	1710
672.102	1736
672.153	1201
672.204	1466
672.256	1855
672.307	1306
672.358	1293
672.409	260
672.460	1199
672.511	1262
672.562	1305
672.613	199
672.664	848
672.715	1306
672.766	845
672.817	420
672.868	425
672.919	952
672.970	346
673.021	638
673.071	536
673.122	210
673.173	1289
673.224	753
673.275	393
673.326	769
673.376	-430
673.427	718
673.478	1278
673.528	710
673.579	-482
673.630	96
673.680	1812
673.731	859
673.782	589
673.832	254
673.883	749
673.934	-27
673.984	632
674.035	462
674.085	1021
674.136	1124
674.186	1913
674.237	1265
674.287	3678
674.338	2088
674.388	1302
674.438	893
674.489	348
674.539	802
674.589	652
674.640	73
674.690	715
674.740	-75
674.791	1111
674.841	1068
674.891	1348
674.942	201
674.992	1329
675.042	-7
675.092	201
675.142	462
675.193	937
675.243	649
675.293	530
675.343	245
675.393	1141
675.443	666
675.493	486
675.543	-552
675.593	-191
675.643	271
675.693	990
675.743	758
675.793	1360
675.843	-232
675.893	-177
675.943	1486
675.993	28
676.043	651
676.093	1010
676.142	-236
676.192	671
676.242	-420
676.292	361
676.341	-45
676.391	895
676.441	-163
676.491	255
676.540	-419
676.590	-454
676.640	620
676.689	310
676.739	-376
676.789	577
676.838	18
676.888	32
676.937	283
676.987	560
677.037	-303
677.086	-193
677.136	615
677.185	273
677.235	113
677.284	251
677.333	-57
677.383	-522
677.432	-631
677.482	-284
677.531	935
677.580	227
677.630	-59
677.679	-16
677.728	-70
677.778	368
677.827	309
677.876	420
677.925	313
677.975	491
678.024	181
678.073	607
678.122	-94
678.171	-153
678.220	-676
678.269	829
678.319	463
678.368	343
678.417	373
678.466	-270
678.515	337
678.564	-116
678.613	-340
678.662	81
678.711	-388
678.760	-46
678.809	-368
678.857	326
678.906	-80
678.955	1047
679.004	166
679.053	881
679.102	78
679.151	481
679.199	-642
679.248	879
679.297	-630
679.346	-20
679.394	63
679.443	22
679.492	449
679.540	-514
679.589	533
679.638	312
679.686	-597
679.735	793
679.784	321
679.832	65
679.881	-306
679.929	-167
679.978	-1149
680.026	414
680.075	337
680.123	220
680.172	568
680.220	-300
680.268	600
680.317	614
680.365	-412
680.414	-17
680.462	-539
680.510	909
680.559	-454
680.607	-402
680.655	96
680.703	828
680.752	-110
680.800	185
680.848	-256
680.896	425
680.945	-276
680.993	-341
681.041	387
681.089	-125
681.137	-587
681.185	-238
681.233	-481
681.258	-345
681.281	-227
681.329	-1015
681.377	-711
681.380	-662
681.425	29
681.473	-334
681.502	-378
681.521	-433
681.569	50
681.617	-488
681.624	-428
681.665	-120
681.713	454
681.745	499
681.761	505
681.809	-441
681.857	357
681.867	265
681.904	-113
681.952	67
681.989	143
682.000	152
682.048	-299
682.096	-528
682.111	-405
682.143	-186
682.191	-723
682.233	744
682.239	952
682.286	292
682.334	656
682.354	267
682.382	-289
682.430	153
682.476	-236
682.477	-255
682.525	577
682.572	-390
682.598	-174
682.620	10
682.667	157
682.715	718
682.720	697
682.763	396
682.810	9
682.841	349
682.857	511
682.905	352
682.952	298
682.963	465
683.000	954
683.047	81
683.085	810
683.095	1019
683.142	141
683.190	1083
683.206	869
683.237	401
683.284	1322
683.328	196
683.332	92
683.379	527
683.426	110
683.449	377
683.473	649
683.521	421
683.568	396
683.571	414
683.615	550
683.662	1104
683.693	549
683.709	237
683.757	904
683.804	1036
683.814	1060
683.851	1067
683.898	790
683.936	1142
683.945	1235
683.992	1136
684.039	1349
684.057	1209
684.086	980
684.133	1213
684.179	880
684.180	857
684.227	1311
684.274	1684
684.300	1574
684.321	1476
684.368	924
684.415	1952
684.422	1840
684.462	1159
684.509	1385
684.543	1351
684.556	1322
684.603	870
684.649	785
684.665	794
684.696	903
684.743	1077
684.786	1575
684.790	1600
684.837	1502
684.883	1355
684.908	1650
684.930	1948
684.977	1890
685.023	1156
685.029	1228
685.070	1648
685.117	1367
685.150	1479
685.164	1559
685.210	1994
685.257	1864
685.272	1942
685.303	1916
685.350	1926
685.393	1524
685.396	1509
685.443	2536
685.490	2827
685.514	2499
685.536	2058
685.583	1991
685.629	1838
685.636	1850
685.675	2004
685.722	1587
685.757	1960
685.768	2076
685.815	1538
685.861	1967
685.878	1988
685.908	2068
685.954	1859
686.000	2413
686.000	2420
686.047	2337
686.093	3002
686.121	3287
686.139	3362
686.185	2656
686.232	1731
686.242	1885
686.278	2365
686.324	1968
686.363	1928
686.370	1947
686.416	2293
686.463	2671
686.484	2730
686.509	2806
686.555	2196
686.601	2413
686.606	2430
686.647	2383
686.693	2346
686.727	2260
686.739	2278
686.785	2408
686.831	1695
686.848	1929
686.877	2197
686.923	1900
686.969	1705
686.969	1705
687.015	2192
687.061	1692
687.090	2432
687.107	2756
687.153	2554
687.199	2273
687.211	2143
687.245	1966
687.291	2297
687.332	2801
687.336	2837
687.382	2682
687.428	2212
687.453	2173
687.474	2088
687.520	2114
687.565	2763
687.574	2546
687.611	2011
687.657	2730
687.695	2692
687.702	2693
687.748	3668
687.794	4355
687.816	4045
687.839	3309
687.885	2635
687.931	1950
687.937	1962
687.976	2607
688.022	1519
688.058	2361
688.067	2570
688.113	3355
688.158	2250
688.179	2683
688.204	3078
688.249	2815
688.295	3148
688.300	3148
688.340	3227
688.386	2877
688.421	2977
688.431	2986
688.477	2333
688.522	2605
688.542	2567
688.567	2621
688.613	2566
688.658	2940
688.663	2909
688.703	2669
688.749	2916
688.784	3392
688.794	3501
688.839	3398
688.884	3021
688.905	2797
688.930	2571
688.975	2944
689.020	2718
689.026	2724
689.065	2806
689.110	2863
689.146	2845
689.155	2864
689.201	3403
689.246	3062
689.267	3252
689.291	3407
689.336	3281
689.381	3580
689.388	3536
689.426	3296
689.471	3149
689.509	3298
689.516	3322
689.561	2954
689.606	2529
689.630	2584
689.651	2770
689.696	2584
689.741	3171
689.750	3238
689.785	3224
689.830	2919
689.871	2689
689.875	2700
689.920	2540
689.965	2988
689.992	3132
690.010	3192
690.054	3075
690.099	3234
690.112	3180
690.144	3038
690.189	3102
690.233	2679
690.233	2684
690.278	2918
690.323	3202
690.354	3411
690.367	3473
690.412	3086
690.457	3615
690.474	3672
690.501	3572
690.546	2982
690.590	2787
690.595	2774
690.635	3179
690.680	3183
690.716	3505
690.724	3581
690.769	3786
690.813	4210
690.836	4203
690.857	4585
690.902	5504
690.946	6616
690.957	6935
690.991	9028
691.035	11649
691.077	14287
691.080	14241
691.124	11993
691.168	9646
691.198	8215
691.213	7717
691.257	6785
691.301	5054
691.318	4614
691.346	4466
691.390	3963
691.434	3357
691.439	3311
691.478	3451
691.522	4121
691.559	4124
691.567	4150
691.611	4514
691.655	4434
691.680	4516
691.699	4394
691.743	4287
691.787	4073
691.800	3877
691.831	3648
691.875	3789
691.919	3701
691.921	3690
691.964	3696
692.008	3985
692.041	3909
692.052	3933
692.096	3972
692.139	4708
692.162	4557
692.183	4282
692.227	4533
692.271	4245
692.282	4211
692.315	4341
692.359	4648
692.402	4746
692.403	4757
692.447	4630
692.490	4899
692.523	4848
692.534	4810
692.578	4653
692.622	4446
692.643	4427
692.666	4499
692.709	4258
692.753	4491
692.763	4503
692.797	4574
692.840	4390
692.884	4629
692.884	4642
692.928	4417
692.971	4489
693.004	4189
693.015	4130
693.059	4373
693.102	4314
693.124	4216
693.146	4273
693.189	4790
693.233	5197
693.245	5240
693.276	5167
693.320	5172
693.363	5058
693.365	5048
693.407	5352
693.450	5503
693.485	5334
693.493	5392
693.537	6487
693.580	6682
693.605	7194
693.624	8300
693.667	10369
693.710	12659
693.725	13552
693.753	17301
693.797	23289
693.840	29243
693.845	29803
693.883	25692
693.926	20316
693.966	16373
693.970	16073
694.013	12328
694.056	8787
694.086	6227
694.099	6158
694.142	6185
694.185	6120
694.206	5869
694.229	5630
694.272	5751
694.315	5546
694.326	5509
694.358	5726
694.401	5827
694.444	6339
694.446	6324
694.487	6205
694.530	6449
694.566	6352
694.573	6253
694.616	5373
694.659	5053
694.686	4541
694.702	4565
694.745	4884
694.787	5058
694.806	5152
694.830	5046
694.873	4826
694.916	4471
694.926	4392
694.959	4559
695.002	4954
695.044	4965
695.046	4961
695.087	4900
695.130	4654
695.166	4525
695.172	4606
695.215	4974
695.258	5322
695.286	5641
695.301	5635
695.343	5433
695.386	5333
695.406	5248
695.428	5242
695.471	5163
695.514	4969
695.526	4905
695.556	4866
695.599	5170
695.641	5036
695.646	5027
695.684	5155
695.726	5164
695.766	5222
695.769	5229
695.811	5056
695.854	5017
695.886	4932
695.896	5008
695.938	5076
695.981	5370
696.005	5412
696.023	5360
696.065	5284
696.108	5312
696.125	5275
696.150	5284
696.192	5200
696.235	5070
696.245	5061
696.277	5181
696.319	5220
696.361	5298
696.365	5275
696.404	5283
696.446	5610
696.485	5690
696.488	5708
696.530	5622
696.572	5643
696.604	5689
696.614	5700
696.656	5542
696.698	5402
696.724	5441
696.740	5486
696.783	5322
696.825	5191
696.844	5109
696.867	5098
696.909	5036
696.951	4955
696.964	4964
696.992	5004
697.034	4912
697.076	4785
697.083	4752
697.118	5113
697.160	5592
697.202	5981
697.203	5972
697.244	5643
697.286	5352
697.323	5001
697.327	5054
697.369	5324
697.411	5676
697.442	5955
697.453	6026
697.494	6118
697.536	6345
697.562	6424
697.578	6426
697.620	6371
697.661	6329
697.682	6263
697.703	6330
697.744	6480
697.786	6659
697.801	6691
697.828	6755
697.869	6751
697.911	6799
697.921	6790
697.952	6431
697.994	5978
698.035	5438
698.040	5363
698.077	5316
698.118	5161
698.160	5056
698.160	5038
698.201	5202
698.243	5285
698.279	5443
698.284	5494
698.325	5716
698.367	6000
698.399	6153
698.408	6099
698.449	5785
698.491	5496
698.518	5263
698.532	5363
698.573	5636
698.614	5897
698.638	6020
698.656	6018
698.697	5973
698.738	5925
698.757	5896
698.779	5818
698.820	5612
698.862	5410
698.877	5318
698.903	5634
698.944	6118
698.985	6601
698.996	6715
699.026	6562
699.067	6327
699.116	6028
699.235	5810
699.354	6287
699.474	6364
699.593	6398
699.713	6267
699.832	7273
699.951	7237
700.070	6088
700.190	6016
700.309	6048
700.428	6034
700.547	5732
700.667	5586
700.786	7102
700.905	5689
701.024	6697
701.143	5436
701.262	5362
701.381	5401
701.500	6384
701.619	7287
701.738	5800
701.857	5424
701.976	5399
702.095	5912
702.214	7521
702.333	5706
702.452	6160
702.571	4929
702.690	6194
702.809	4511
702.928	5180
703.047	5830
703.165	5389
703.284	4828
703.403	4571
703.522	5481
703.640	5834
703.759	7050
703.878	8542
703.997	5194
704.115	4763
704.234	5719
704.353	4836
704.471	4536
704.590	5185
704.708	5412
704.827	5052
704.946	5733
705.064	4795
705.183	5302
705.301	6119
705.420	8941
705.538	8000
705.656	7240
705.775	10965
705.893	29528
706.012	27638
706.130	7762
706.249	7177
706.367	7005
706.485	7750
706.604	6816
706.722	7678
706.840	8925
706.958	10327
707.077	7881
707.195	6149
707.313	6376
707.431	6525
707.549	5412
707.668	6452
707.786	6572
707.904	5901
708.022	5278
708.140	5561
708.258	5685
708.376	6511
708.494	5310
708.612	6879
708.730	9887
708.848	9142
708.966	8387
709.084	8353
709.202	7199
709.320	7734
709.438	7737
709.556	8156
709.674	7033
709.791	7591
709.909	6403
710.027	7393
710.145	7539
710.263	8279
710.380	7127
710.498	7300
710.616	7164
710.733	7572
710.851	7086
710.969	7418
711.086	6671
711.204	7005
711.322	6622
711.439	6519
711.557	7220
711.674	7967
711.792	7533
711.909	10216
712.027	10360
712.144	6944
712.262	6651
712.379	7889
712.497	10613
712.614	10025
712.732	8536
712.849	8045
712.966	10514
713.084	11054
713.201	8515
713.318	8676
713.436	8710
713.553	8423
713.670	8335
713.787	9618
713.905	9708
714.022	7911
714.139	8099
714.256	10086
714.373	11286
714.490	16525
714.608	41669
714.725	166518
714.842	81769
714.959	10350
715.076	8365
715.193	9271
715.310	7683
715.427	8195
715.544	7683
715.661	7855
715.778	7804
715.895	8737
716.011	8302
716.128	7473
716.245	7819
716.362	10279
716.479	8915
716.596	6989
716.713	7751
716.829	7031
716.946	6961
717.063	7293
717.180	5983
717.296	6703
717.413	6862
717.530	7066
717.646	7033
717.763	6767
717.880	5939
717.996	6387
718.113	6426
718.229	6259
718.346	5673
718.462	6627
718.579	10261
718.695	17472
718.812	9234
718.928	8552
719.045	6804
719.161	6365
719.277	6714
719.394	7143
719.510	7030
719.626	5661
719.743	8174
719.859	8575
719.975	13591
720.092	49262
720.208	59240
720.324	9252
720.440	6965
720.557	8849
720.673	14581
720.789	15175
720.905	25246
721.021	7888
721.137	5838
721.253	5944
721.369	6003
721.486	7226
721.602	9072
721.718	5830
721.834	5056
721.950	5852
722.066	4947
722.181	5486
722.297	6961
722.413	5610
722.529	5490
722.645	5625
722.761	4909
722.877	5510
722.993	5007
723.108	5882
723.224	5641
723.340	5245
723.456	4309
723.571	5000
723.687	3969
723.803	5157
723.918	4999
724.034	4697
724.150	5106
724.265	6710
724.381	12094
724.497	9761
724.612	5413
724.728	4913
724.843	4201
724.959	7004
725.074	11426
725.190	8473
725.305	5819
725.421	4611
725.536	3778
725.651	4788
725.767	4401
725.882	5017
725.997	4351
726.113	4550
726.228	4768
726.343	3837
726.459	3963
726.574	3917
726.689	3193
726.804	4658
726.920	4053
727.035	4280
727.150	4579
727.265	4714
727.380	4738
727.495	5174
727.610	3327
727.725	6037
727.841	7879
727.956	22930
728.071	10535
728.186	4306
728.301	3648
728.416	4918
728.531	4255
728.645	3912
728.760	5051
728.875	5479
728.990	3965
729.105	4534
729.220	5016
729.335	4608
729.449	4262
729.564	3946
729.679	3205
729.794	3778
729.908	4428
730.023	3754
730.138	3263
730.253	3474
730.367	3133
730.482	3814
730.596	4256
730.711	4368
730.826	5260
730.940	4216
731.055	3719
731.169	4519
731.284	2153
731.398	3641
731.513	3239
731.627	2858
731.742	3995
731.856	4200
731.970	3208
732.085	4797
732.199	4453
732.313	7467
732.428	17770
732.542	45998
732.656	14297
732.771	4727
732.885	4015
732.999	3380
733.113	4170
733.227	3862
733.342	3690
733.456	2971
733.570	3099
733.684	3634
733.798	2961
733.912	3241
734.026	2816
734.140	3492
734.254	4108
734.368	7178
734.482	6330
734.596	3839
734.710	4063
734.824	3138
734.938	2741
735.052	3166
735.166	4064
735.280	3098
735.393	3115
735.507	2416
735.621	4029
735.735	7154
735.849	3496
735.962	3460
736.076	3691
736.190	3951
736.303	4772
736.417	5271
736.531	3170
736.644	3054
736.758	2483
736.872	3173
736.985	3086
737.099	3076
737.212	2457
737.326	3195
737.439	3064
737.553	3028
737.666	2982
737.780	2468
737.893	3521
738.007	3035
738.120	2563
738.233	3262
738.347	3818
738.460	2796
738.573	3227
738.687	3858
738.800	3980
738.913	5267
739.026	3683
739.140	4391
739.253	3756
739.366	3432
739.479	2668
739.592	2520
739.705	2748
739.818	2326
739.932	2456
740.045	2280
740.158	2559
740.271	2797
740.384	2163
740.497	3678
740.610	3479
740.723	3864
740.836	3491
740.949	3722
741.062	6417
741.174	3219
741.287	1882
741.400	2675
741.513	3019
741.626	3462
741.739	2463
741.851	2486
741.964	3145
742.077	2081
742.189	2586
742.302	3045
742.415	3434
742.527	2487
742.640	1853
742.753	2346
742.865	2397
742.978	2320
743.090	2470
743.203	2254
743.316	2151
743.428	2444
743.541	2645
743.653	2043
743.766	2194
743.878	2513
743.990	3328
744.103	3179
744.215	1888
744.327	3038
744.440	5427
744.552	6803
744.664	2728
744.777	2001
744.889	1949
745.001	2750
745.113	1712
745.226	2547
745.338	3094
745.450	2622
745.562	2536
745.674	2028
745.786	2403
745.898	2577
746.010	2381
746.122	1767
746.234	1878
746.347	2399
746.459	2139
746.570	1848
746.682	1759
746.794	2451
746.906	2600
747.018	1976
747.130	2234
747.242	2503
747.354	1296
747.466	2399
747.577	2329
747.689	1993
747.801	2238
747.913	2327
748.024	1627
748.136	1897
748.248	2237
748.359	2260
748.471	2467
748.583	2411
748.694	3595
748.806	4971
748.918	3152
749.029	2853
749.141	2650
749.252	3309
749.364	5342
749.475	8244
749.587	3259
749.698	1948
749.809	1884
749.921	1750
750.032	1766
750.144	1316
750.255	1869
750.366	1995
750.478	2016
750.589	1442
750.700	2264
750.811	2574
750.923	4686
751.034	12017
751.145	5169
751.256	2189
751.367	2609
751.479	2201
751.590	2011
751.701	1294
751.812	1341
751.923	2101
752.034	1936
752.145	1661
752.256	808
752.367	2052
752.478	1096
752.589	2941
752.700	1745
752.811	1946
752.922	2336
753.032	2750
753.143	2301
753.254	1251
753.365	2130
753.476	1976
753.586	1539
753.697	1450
753.808	1868
753.919	1171
754.029	504
754.140	1690
754.251	1564
754.361	2053
754.472	2294
754.582	1769
754.693	1689
754.804	2023
754.914	723
755.025	1074
755.135	1051
755.246	1347
755.356	941
755.466	2174
755.577	2245
755.687	1784
755.798	1178
755.908	1470
756.018	1232
756.129	1377
756.239	2100
756.349	1273
756.460	1688
756.570	1497
756.680	1399
756.790	2538
756.900	2090
757.011	1688
757.121	1102
757.231	2266
757.341	2056
757.451	990
757.561	1168
757.671	2063
757.781	1447
757.891	1982
758.001	1988
758.111	2672
758.221	2256
758.331	2708
758.441	1684
758.551	4812
758.661	2330
758.771	1882
758.880	1401
758.990	872
759.100	1512
759.210	2831
759.320	2273
759.429	2222
759.539	1506
759.649	1729
759.758	1432
759.868	1999
759.978	1382
760.087	2470
760.197	2273
760.307	2205
760.416	1635
760.526	2014
760.635	1790
760.745	2513
760.854	2018
760.964	2215
761.073	1782
761.182	2137
761.292	1961
761.401	3209
761.511	1862
761.620	2035
761.729	3073
761.839	2557
761.948	3047
762.057	3093
762.166	2432
762.276	804
762.385	2397
762.494	2161
762.603	2452
762.712	2600
762.822	2053
762.931	2730
763.040	2247
763.149	3051
763.258	2610
763.367	3884
763.476	3157
763.585	3446
763.694	3676
763.803	3096
763.912	3609
764.021	3445
764.130	3214
764.238	3302
764.347	3750
764.456	2979
764.565	4213
764.674	4774
764.783	4458
764.891	5514
765.000	6642
765.109	6416
765.217	7082
765.326	9241
765.435	10341
765.543	12493
765.652	14732
765.761	20070
765.869	30418
765.978	48189
766.086	86802
766.195	179906
766.303	434851
766.412	737676
766.520	548060
766.629	212364
766.737	89841
766.846	49930
766.954	33875
767.062	26697
767.171	23837
767.279	15960
767.387	11814
767.496	10085
767.604	9114
767.712	7654
767.820	7003
767.928	7676
768.037	6019
768.145	6404
768.253	6635
768.361	5910
768.469	6346
768.577	5773
768.685	5504
768.793	6397
768.901	7436
769.009	8596
769.117	9703
769.225	13301
769.333	18957
769.441	33465
769.549	66319
769.657	159876
769.765	447599
769.873	559629
769.981	219828
770.088	65515
770.196	32892
770.304	21987
770.412	16945
770.519	11352
770.627	8879
770.735	7916
770.842	6034
770.950	7031
771.058	4738
771.165	5434
771.273	4903
771.380	4213
771.488	4748
771.595	3564
771.703	3425
771.810	3683
771.918	3630
772.025	4174
772.133	3490
772.240	3123
772.348	3906
772.455	3957
772.562	2283
772.670	3058
772.777	2548
772.884	2565
772.991	2854
773.099	1980
773.206	2358
773.313	3099
773.420	3152
773.528	2273
773.635	2190
773.742	2450
773.849	2260
773.956	1968
774.063	1352
774.170	2298
774.277	3322
774.384	1482
774.491	2101
774.598	2604
774.705	2526
774.812	3664
774.919	2674
775.026	1817
775.133	2649
775.239	2839
775.346	2216
775.453	1795
775.560	1667
775.667	1042
775.773	1088
775.880	2476
775.987	2159
776.093	2279
776.200	1775
776.307	1609
776.413	2764
776.520	1505
776.627	2374
776.733	2255
776.840	365
776.946	3279
777.053	2132
777.159	1776
777.266	500
777.372	2156
777.478	1655
777.585	2308
777.691	1687
777.798	2199
777.904	3364
778.010	6903
778.117	2807
778.223	2882
778.329	1991
778.435	2062
778.542	2505
778.648	1329
778.754	1205
778.860	1915
778.966	2405
779.072	1754
779.178	1422
779.284	1470
779.391	1843
779.497	714
779.603	3453
779.708	1965
779.815	5403
779.920	15663
780.026	16889
780.132	2547
780.238	1224
780.344	1261
780.450	1900
780.556	1499
780.661	1652
780.767	1778
780.873	811
780.979	2787
781.085	997
781.190	1451
781.296	1434
781.402	1232
781.507	1095
781.613	1332
781.719	1353
781.824	1731
781.930	1651
782.035	1659
782.141	759
782.246	1615
782.352	922
782.457	783
782.563	1433
782.668	1305
782.773	1393
782.879	1338
782.984	1833
783.090	2985
783.195	2846
783.300	2438
783.405	1639
783.511	1401
783.616	1585
783.721	1156
783.826	514
783.932	1905
784.037	1485
784.142	1481
784.247	655
784.352	1409
784.457	962
784.562	1279
784.667	865
784.772	1039
784.877	244
784.982	1112
785.087	626
785.192	1714
785.297	1506
785.402	1161
785.507	976
785.611	1150
785.716	1234
785.821	880
785.926	993
786.031	848
786.135	1159
786.240	977
786.345	-267
786.450	1104
786.554	1314
786.659	1195
786.763	83
786.868	1967
786.973	1966
787.077	996
787.182	1181
787.286	1624
787.391	755
787.495	1495
787.600	1216
787.704	946
787.809	1242
787.913	531
788.017	895
788.122	1173
788.226	801
788.330	1577
788.435	1027
788.539	1067
788.643	311
788.747	230
788.852	1241
788.956	253
789.060	1019
789.164	1454
789.268	281
789.372	1100
789.476	582
789.580	-67
789.684	249
789.788	1497
789.892	-30
789.996	974
790.100	787
790.204	506
790.308	1493
790.412	1546
790.516	2100
790.620	943
790.724	602
790.828	535
790.931	312
791.035	2462
791.139	1174
791.242	-451
791.346	2611
791.450	420
791.554	960
791.657	216
791.761	470
791.864	1449
791.968	1009
792.072	1156
792.175	715
792.279	282
792.382	870
792.486	309
792.589	721
792.693	1336
792.796	278
792.899	1361
793.003	1878
793.106	-318
793.209	349
793.313	1641
793.416	-1061
793.519	1742
793.623	4405
793.726	2993
793.829	623
793.932	732
794.035	-266
794.138	1068
794.242	1135
794.345	1089
794.448	2708
794.551	3792
794.654	8044
794.757	8461
794.860	1903
794.963	969
795.066	-863
795.169	1889
795.272	-776
795.375	1253
795.477	-276
795.580	1150
795.683	-575
795.786	876
795.889	-572
795.991	675
796.094	1037
796.197	-552
796.300	1507
796.402	-122
796.505	7
796.608	-58
796.710	1036
796.813	-8
796.915	891
797.018	866
797.120	323
797.223	-428
797.326	690
797.428	-693
797.530	251
797.633	207
797.735	1373
797.838	1693
797.940	1540
798.042	175
798.145	472
798.247	1033
798.349	-289
798.452	859
798.554	750
798.656	-656
798.758	1605
798.860	716
798.962	120
799.065	96
799.167	-527
799.269	517
799.371	1105
799.473	690
799.575	154
799.677	753
799.779	3153
799.881	1954
799.983	1100
800.085	185
800.187	49
800.289	-1029
800.390	-15
800.492	882
800.594	1944
800.696	38
800.798	753
800.899	36
801.001	278
801.103	283
801.205	616
801.306	522
801.408	-935
801.509	-62
801.611	291
801.713	128
801.814	-361
801.916	645
802.017	323
802.119	-623
802.220	915
802.322	-631
802.423	1519
802.525	-378
802.626	38
802.727	1696
802.829	1011
802.930	-1614
803.031	1325
803.133	307
803.234	-198
803.335	465
803.436	-928
803.538	449
803.639	-866
803.740	1107
803.841	-691
803.942	266
804.043	291
804.144	-907
804.245	483
804.346	-67
804.447	184
804.548	1823
804.649	2012
804.750	314
804.851	-111
804.952	-262
805.053	283
805.154	-519
805.255	1137
805.355	283
805.456	-858
805.557	451
805.658	-1183
805.758	-182
805.859	249
805.960	198
806.061	-648
806.161	-11
806.262	208
806.362	69
806.463	623
806.564	871
806.664	-379
806.765	249
806.865	99
806.966	-145
807.066	322
807.166	491
807.267	591
807.367	-107
807.468	615
807.568	-1301
807.668	979
807.769	607
807.869	-256
807.969	3
808.069	-858
808.170	-302
808.270	30
808.370	469
808.470	1318
808.570	-478
808.670	-576
808.770	1068
808.870	262
808.970	221
809.070	-412
809.170	-133
809.271	443
809.370	-285
809.470	-20
809.570	32
809.670	-212
809.770	789
809.870	250
809.970	-75
810.070	-123
810.169	115
810.269	-1297
810.369	887
810.469	-867
810.568	196
810.668	-452
810.768	343
810.867	-165
810.967	-823
811.066	-36
811.166	672
811.265	576
811.365	-256
811.464	-106
811.564	-446
811.663	29
811.763	-1524
811.862	713
811.962	-94
812.061	-522
812.160	-272
812.260	-228
812.359	326
812.458	-248
812.557	937
812.657	380
812.756	268
812.855	263
812.954	-271
813.053	539
813.153	170
813.252	-883
813.351	698
813.450	-119
813.549	-667
813.648	488
813.747	-717
813.846	327
813.945	-237
814.044	-1027
814.143	428
814.242	220
814.341	-336
814.439	460
814.538	691
814.637	204
814.736	-138
814.835	454
814.933	-555
815.032	392
815.131	114
815.229	-343
815.328	378
815.427	-306
815.525	564
815.624	-431
815.722	-423
815.821	740
815.919	301
816.018	-828
816.116	528
816.215	98
816.313	100
816.412	-143
816.510	108
816.609	1270
816.707	732
816.805	304
816.904	-263
817.002	489
817.100	1532
817.198	1456
817.296	-275
817.395	726
817.493	1251
817.591	520
817.689	2304
817.787	2029
817.885	6974
817.983	12788
818.081	34839
818.179	91295
818.277	207005
818.375	94487
818.473	16223
818.571	6905
818.669	4961
818.767	4344
818.865	6076
818.963	8688
819.061	14094
819.158	28827
819.256	74297
819.354	191117
819.452	345101
819.549	119168
819.647	22630
819.745	9255
819.842	8107
819.940	4570
820.038	3249
820.135	2468
820.233	2519
820.330	519
820.428	630
820.525	1708
820.623	569
820.720	286
820.818	595
820.915	865
821.012	964
821.110	-51
821.207	1301
821.304	-659
821.402	48
821.499	1415
821.596	1717
821.693	467
821.791	1538
821.888	1732
821.985	4428
822.082	1416
822.179	1005
822.276	5
822.373	666
822.470	-66
822.567	1101
822.664	-1061
822.761	-109
822.858	-1248
822.955	-36
823.052	214
823.149	-531
823.246	-124
823.343	-219
823.440	-617
823.536	-846
823.633	-254
823.730	-471
823.827	-185
823.923	78
824.020	985
824.117	38
824.213	-1354
824.310	-604
824.407	-637
824.503	-161
824.600	51
824.696	41
824.793	199
824.889	78
824.986	-355
825.082	-182
825.179	-75
825.275	-320
825.371	-316
825.468	492
825.564	-1170
825.660	1005
825.757	-125
825.853	1029
825.949	-965
826.045	-57
826.142	-770
826.238	224
826.334	852
826.430	-1212
826.526	1169
826.622	-916
826.718	-583
826.814	-903
826.910	650
827.006	-758
827.102	-430
827.198	640
827.294	-213
827.390	-188
827.486	-32
827.582	-1014
827.678	-1118
827.774	-96
827.869	-605
827.965	650
828.061	-1252
828.157	169
828.252	-693
828.348	-694
828.444	659
828.539	-1315
828.635	-527
828.731	753
828.826	-1695
828.922	-101
829.017	-954
829.113	-294
829.208	-723
829.304	-1317
829.399	1263
829.495	-689
829.590	-582
829.685	-656
829.781	-232
829.876	-1031
829.971	-877
830.066	-1071
830.162	-828
830.257	-1063
830.352	-1285
830.447	1241
830.543	-1164
830.638	-1843
830.733	697
830.828	-189
830.923	-172
831.018	-503
831.113	-293
831.208	-766
831.303	-330
831.398	-250
831.493	-3
831.588	-59
831.683	-851
831.778	288
831.873	-871
831.967	-306
832.062	-993
832.157	-990
832.252	399
832.346	-387
832.441	426
832.536	1112
832.631	5305
832.725	1965
832.820	-160
832.914	-1628
833.009	-569
833.104	-169
833.198	434
833.293	-43
833.387	-529
833.482	-172
833.576	-1435
833.670	268
833.765	-51
833.859	-336
833.954	70
834.048	-408
834.142	69
834.237	-872
834.331	-155
834.425	231
834.519	-668
834.613	-114
834.708	-834
834.802	140
834.896	-800
834.990	-610
835.084	-86
835.178	-374
835.272	-856
835.366	-1363
835.460	70
835.554	-501
835.648	-556
835.742	-90
835.836	-413
835.930	-1578
836.024	-196
836.117	132
836.211	-425
836.305	-335
836.399	727
836.493	-1161
836.586	452
836.680	-726
836.774	-551
836.867	-125
836.961	-1340
837.055	-805
837.148	-1426
837.242	27
837.335	-620
837.429	-6
837.522	-1468
837.616	0
837.709	833
837.803	-207
837.896	48
837.989	-873
838.083	850
838.176	874
838.269	-207
838.363	-86
838.456	283
838.549	1307
838.642	1341
838.735	4302
838.829	1284
838.922	-818
839.015	-700
839.108	-765
839.201	-133
839.294	62
839.387	-299
839.480	-737
839.573	-291
839.666	-47
839.759	-781
839.852	-774
839.945	-202
840.038	-599
840.131	-857
840.223	-1225
840.316	298
840.409	-735
840.502	-1993
840.594	-21
840.687	-873
840.780	-284
840.873	-1409
840.965	-912
841.058	210
841.150	1252
841.243	-221
841.336	-387
841.428	-1224
841.521	-607
841.613	-255
841.706	-423
841.798	-92
841.890	-390
841.983	-353
842.075	283
842.167	-871
842.260	-504
842.352	-329
842.444	343
842.537	1496
842.629	1666
842.721	-794
842.813	-670
842.905	-1346
842.997	-1046
843.090	-288
843.182	1412
843.274	1173
843.366	5214
843.458	6780
843.550	3375
843.642	-582
843.734	508
843.826	-759
843.918	-498
844.009	-512
844.101	-886
844.193	-449
844.285	-1164
844.377	-704
844.469	-215
844.560	-1040
844.652	-1004
844.744	-203
844.835	-339
844.927	436
845.019	-387
845.110	-1404
845.202	-607
845.293	-797
845.385	-1305
845.476	-1078
845.568	387
845.659	-1314
845.751	-411
845.842	-1190
845.934	-153
846.025	-208
846.116	-1328
846.208	-483
846.299	-799
846.390	-744
846.482	-175
846.573	550
846.664	-227
846.755	118
846.846	1028
846.937	-1114
847.029	5
847.120	-583
847.211	-1162
847.302	-238
847.393	-2114
847.484	-903
847.575	-1491
847.666	-565
847.757	-452
847.847	-575
847.938	28
848.029	-1027
848.120	-455
848.211	-1094
848.302	-652
848.392	-308
848.483	-639
848.574	-1537
848.664	-1104
848.755	-451
848.846	-93
848.936	-1157
849.027	-810
849.118	-835
849.208	-1223
849.299	-301
849.389	-98
849.480	2153
849.570	2846
849.661	6219
849.751	7456
849.841	374
849.932	-402
850.022	-131
850.112	-77
850.203	-730
850.293	-948
850.383	-87
850.474	-1574
850.564	-1499
850.654	-671
850.744	-1074
850.834	-1193
850.924	-969
851.014	-1160
851.104	-950
851.194	-349
851.284	-333
851.374	-378
851.464	-798
851.554	-1152
851.644	-1087
851.734	696
851.824	-592
851.914	-276
852.004	-917
852.094	-1198
852.183	-566
852.273	294
852.363	-258
852.452	-1455
852.542	-1405
852.632	-877
852.721	-1360
852.811	-1449
852.901	-356
852.990	-711
853.080	-607
853.169	-965
853.259	87
853.348	-49
853.438	445
853.527	-526
853.617	651
853.706	2095
853.795	5370
853.885	13934
853.974	24111
854.063	49711
854.152	56136
854.242	12104
854.331	950
854.420	-432
854.509	223
854.598	380
854.687	-519
854.777	-669
854.866	-1133
854.955	522
855.044	-1490
855.133	-884
855.222	-536
855.311	-943
855.400	-730
855.488	-836
855.577	-1008
855.666	-375
855.755	50
855.844	396
855.933	120
856.021	-134
856.110	-758
856.199	-1308
856.288	-143
856.376	-911
856.465	-499
856.554	-1247
856.642	-985
856.731	-289
856.819	-815
856.908	-1454
856.996	-893
857.085	-1202
857.173	-1162
857.262	-1218
857.350	-304
857.438	-117
857.527	-247
857.615	-598
857.703	-164
857.792	-901
857.880	-887
857.968	-227
858.056	-634
858.145	-1847
858.233	-1519
858.321	-454
858.409	-567
858.497	-1069
858.585	-962
858.673	-615
858.761	-740
858.849	-698
858.937	-924
859.025	-1010
859.113	-620
859.201	-1310
859.289	-498
859.377	-422
859.465	-1117
859.552	-175
859.640	-969
859.728	-617
859.816	-837
859.903	-1074
859.991	-1599
860.079	-461
860.166	-988
860.254	-1089
860.342	-1034
860.429	-691
860.517	-1760
860.604	-771
860.692	-1099
860.779	-689
860.867	-1193
860.954	-589
861.042	-528
861.129	-605
861.216	-830
861.304	-343
861.391	-635
861.478	-310
861.565	-1119
861.653	-1017
861.740	-1288
861.827	-446
861.914	-1216
862.001	-629
862.089	-594
862.176	-1253
862.263	-1279
862.350	-794
862.437	-667
862.524	-1338
862.611	-874
862.698	-1254
862.785	-712
862.871	-1163
862.958	-1043
863.045	-1099
863.132	-671
863.219	-144
863.306	-1868
863.392	-599
863.479	-1032
863.566	-863
863.652	-564
863.739	-1204
863.826	-1191
863.912	-850
863.999	-1110
864.086	-1332
864.172	-808
864.259	-565
864.345	-1554
864.432	-690
864.518	-1224
864.604	-672
864.691	-1474
864.777	54
864.863	-359
864.950	-790
865.036	-542
865.122	-506
865.209	-389
865.295	-697
865.381	-780
865.467	140
865.553	-469
865.639	55
865.726	1734
865.812	5565
865.898	10914
865.984	15300
866.070	32158
866.156	22748
866.242	3122
866.328	55
866.414	-1017
866.499	259
866.585	-1362
866.671	-663
866.757	-109
866.843	-341
866.928	-1256
867.014	-1038
867.100	649
867.186	396
867.271	-70
867.357	-398
867.442	-544
867.528	-578
867.614	-232
867.699	-655
867.785	-657
867.870	-387
867.956	-359
868.041	-149
868.127	-214
868.212	-492
868.297	-189
868.383	-488
868.468	911
868.553	1895
868.639	1866
868.724	5158
868.809	2789
868.894	-126
868.979	-964
869.065	-777
869.150	-1266
869.235	-618
869.320	-880
869.405	-1177
869.490	-1448
869.575	-1310
869.660	-1009
869.745	-668
869.830	-1352
869.915	-757
870.000	-1205
870.085	-840
870.169	-738
870.254	-371
870.339	-923
870.424	-1537
870.509	-484
870.593	-536
870.678	-1300
870.763	-875
870.847	-180
870.932	-1267
871.016	-840
871.101	-1905
871.186	-613
871.270	-600
871.355	-1494
871.439	-233
871.523	-656
871.608	-1493
871.692	-878
871.777	-1457
871.861	-553
871.945	-405
872.030	-1043
872.114	-845
872.198	-1205
872.282	-1490
872.367	-509
872.451	-1204
872.535	-2087
872.619	-1502
872.703	-1354
872.787	-1314
872.871	-1025
872.955	-766
873.039	-906
873.123	-285
873.207	-487
873.291	-981
873.375	-1028
873.459	-422
873.543	-1441
873.627	-628
873.711	-1228
873.794	-648
873.878	-1446
873.962	-1185
874.045	-274
874.129	-1450
874.137	-1433
874.213	-1262
874.245	-978
874.296	-527
874.352	-1080
874.380	-1347
874.460	-799
874.464	-778
874.547	-212
874.568	-227
874.631	-260
874.676	-970
874.714	-1578
874.784	-951
874.798	-824
874.881	25
874.892	-94
874.965	-876
874.999	-848
875.048	-853
875.107	-793
875.131	-761
875.215	-1006
875.215	-1006
875.298	-1153
875.323	-1121
875.381	-1003
875.430	-1070
875.465	-1088
875.538	-810
875.548	-787
875.631	-772
875.646	-738
875.714	-524
875.753	-490
875.798	-478
875.861	-814
875.881	-922
875.964	-1098
875.968	-1086
876.047	-759
876.076	-692
876.130	-628
876.183	-812
876.213	-897
876.291	-477
876.296	-454
876.379	-876
876.398	-768
876.462	-409
876.506	-771
876.545	-989
876.613	-804
876.628	-796
876.711	-489
876.721	-426
876.794	70
876.828	-288
876.877	-839
876.935	-999
876.960	-1054
877.043	-570
877.043	-570
877.125	-450
877.150	-548
877.208	-859
877.258	-566
877.291	-353
877.365	-675
877.374	-705
877.456	-314
877.472	-350
877.539	-635
877.579	-777
877.622	-868
877.687	-687
877.704	-649
877.787	-348
877.794	-400
877.869	-770
877.901	-443
877.952	-142
878.008	-472
878.034	-571
878.115	-176
878.117	-166
878.199	-1381
878.222	-1128
878.282	-494
878.329	-483
878.364	-494
878.437	-769
878.447	-807
878.529	-590
878.544	-555
878.611	-392
878.651	-657
878.694	-821
878.758	-537
878.776	-521
878.858	-535
878.865	-520
878.941	-439
878.972	-516
879.023	-599
879.078	-817
879.105	-766
879.185	18
879.187	24
879.269	-594
879.292	-824
879.351	-1172
879.399	-916
879.433	-868
879.506	-989
879.516	-936
879.598	-519
879.613	-476
879.680	-715
879.720	-783
879.762	-817
879.827	-353
879.844	-225
879.926	-754
879.933	-714
880.007	-200
880.040	-39
880.089	162
880.147	333
880.171	458
880.253	1790
880.254	1794
880.335	2220
880.360	2655
880.417	3686
880.467	5890
880.499	7284
880.574	5768
880.580	5530
880.662	1062
880.680	582
880.744	-329
880.787	-522
880.825	-804
880.893	-602
880.907	-566
880.989	-418
881.000	-511
881.070	-711
881.106	-354
881.152	-38
881.213	-565
881.233	-708
881.315	-615
881.319	-577
881.396	-199
881.426	-487
881.478	-602
881.532	-70
881.559	-99
881.639	-1095
881.641	-1098
881.722	-181
881.745	-208
881.803	-597
881.852	-792
881.885	-780
881.958	-194
881.966	-165
882.047	-64
882.064	-190
882.129	-185
882.171	165
882.210	192
882.277	385
882.291	456
882.372	-429
882.383	-487
882.454	-674
882.489	-359
882.535	-137
882.596	-406
882.616	-564
882.697	-1033
882.702	-1048
882.778	-380
882.808	-316
882.859	-675
882.914	-697
882.940	-568
883.020	-579
883.021	-578
883.102	-444
883.127	-470
883.183	-696
883.233	-701
883.264	-669
883.339	-651
883.345	-622
883.426	-701
883.445	-568
883.507	-122
883.551	-24
883.587	-126
883.657	-244
883.668	-166
883.749	87
883.763	162
883.830	-433
883.869	-623
883.910	-312
883.975	-74
883.991	-96
884.072	-321
884.081	-308
884.152	-342
884.187	-646
884.233	-653
884.292	-359
884.314	-380
884.394	-266
884.398	-280
884.475	-611
884.504	-682
884.555	-572
884.610	-620
884.636	-679
884.716	-770
884.716	-764
884.797	-72
884.821	-4
884.877	-282
884.927	-432
884.958	-327
885.033	-567
885.038	-593
885.118	-451
885.139	-429
885.199	-544
885.244	-793
885.279	-639
885.350	-379
885.359	-382
885.439	-81
885.456	-89
885.520	-93
885.561	-119
885.600	-209
885.667	-124
885.680	-46
885.760	247
885.773	272
885.840	-320
885.878	-609
885.920	-290
885.984	181
886.000	112
886.080	-193
886.089	-253
886.160	-178
886.195	29
886.240	103
886.300	-83
886.320	-107
886.400	-27
886.406	-38
886.480	-133
886.511	-17
886.560	141
886.616	-16
886.640	-113
886.720	-304
886.722	-313
886.800	-575
886.827	-581
886.879	-212
886.932	39
886.959	75
887.038	379
887.039	378
887.119	-308
887.143	-454
887.198	-240
887.248	11
887.278	-113
887.354	-727
887.358	-709
887.437	-181
887.459	-31
887.517	405
887.564	637
887.596	449
887.669	75
887.676	28
887.755	-568
887.774	-698
887.835	-521
887.880	-443
887.914	-450
887.985	-503
887.994	-448
888.073	-5
888.090	135
888.153	6
888.195	-233
888.232	-90
888.300	277
888.311	299
888.391	324
888.405	347
888.470	-90
888.510	-427
888.549	-191
888.615	313
888.628	246
888.708	-221
888.720	-307
888.787	-393
888.825	-446
888.866	-314
888.930	-70
888.945	16
889.024	460
889.035	519
889.103	220
889.140	25
889.182	45
889.245	76
889.261	34
889.340	-115
889.349	-142
889.419	-464
889.454	-593
889.498	-327
889.559	25
889.577	129
889.656	590
889.664	635
889.735	113
889.768	-137
889.814	-40
889.873	92
889.978	-319
890.083	-232
890.187	-46
890.292	-120
890.397	91
890.501	-257
890.606	-531
890.710	478
890.815	122
890.919	-220
891.024	84
891.128	-32
891.233	513
891.337	-318
891.442	182
891.546	-257
891.650	-403
891.755	-188
891.859	1295
891.963	-132
892.068	868
892.172	-297
892.276	-604
892.380	315
892.484	-421
892.589	-198
892.693	924
892.797	-636
892.901	714
893.005	-94
893.109	-106
893.213	-520
893.317	-37
893.421	147
893.525	-326
893.629	-567
893.733	-481
893.837	-155
893.941	-394
894.045	-529
894.148	-259
894.252	216
894.356	-237
894.460	-541
894.564	197
894.667	4
894.771	87
894.875	279
894.978	-426
895.082	-1454
895.186	-539
895.289	101
895.393	3
895.496	331
895.600	-556
895.703	146
895.807	-183
895.910	-563
896.014	-457
896.117	254
896.221	188
896.324	-937
896.427	-333
896.531	-353
896.634	143
896.737	249
896.840	-520
896.944	-444
897.047	145
897.150	499
897.253	1
897.356	374
897.460	-221
897.563	542
897.666	314
897.769	257
897.872	-28
897.975	-400
898.078	-39
898.181	-488
898.284	-200
898.387	-394
898.490	194
898.593	-155
898.695	-22
898.798	-656
898.901	-29
899.004	239
899.107	-754
899.209	-446
899.312	393
899.415	484
899.518	-126
899.620	794
899.723	259
899.826	404
899.928	-309
900.031	249
900.133	-263
900.236	291
900.338	-277
900.441	339
900.543	-519
900.646	-528
900.748	25
900.851	-338
900.953	-505
901.055	243
901.158	193
901.260	-84
901.362	343
901.465	-652
901.567	749
901.669	721
901.771	17
901.873	-360
901.976	92
902.078	-839
902.180	596
902.282	-697
902.384	-28
902.486	-173
902.588	-41
902.690	175
902.792	-757
902.894	-534
902.996	-241
903.098	172
903.200	-40
903.302	89
903.404	-44
903.505	-500
903.607	653
903.709	346
903.811	240
903.913	-83
904.014	-338
904.116	-296
904.218	196
904.319	53
904.421	581
904.523	-170
904.624	-598
904.726	-780
904.827	671
904.929	-506
905.030	381
905.132	-626
905.233	35
905.335	-94
905.436	411
905.537	-677
905.639	-711
905.740	-141
905.841	-541
905.943	-293
906.044	-403
906.145	-581
906.247	-533
906.348	-461
906.449	-162
906.550	-286
906.651	32
906.752	-339
906.854	-458
906.955	-250
907.056	-452
907.157	-341
907.258	198
907.359	-256
907.460	-498
907.561	456
907.662	432
907.762	-581
907.863	-580
907.964	37
908.065	-193
908.166	-5
908.267	-347
908.367	-1339
908.468	231
908.569	-443
908.670	-676
908.770	104
908.871	296
908.971	-1140
909.072	-191
909.173	-461
909.273	-8
909.374	-184
909.474	-747
909.575	-559
909.675	-480
909.776	19
909.876	-71
909.977	-138
910.077	-109
910.177	-40
910.278	-359
910.378	-296
910.478	-489
910.579	-1033
910.679	-257
910.779	-157
910.879	-466
910.980	-252
911.080	-856
911.180	-401
911.280	-150
911.380	-154
911.480	607
911.580	-906
911.680	-309
911.780	138
911.880	-265
911.980	-67
912.080	-981
912.180	-439
912.280	-339
912.380	32
912.480	-340
912.580	22
912.679	-824
912.779	-499
912.879	-418
912.979	-887
913.078	286
913.178	-1044
913.278	-320
913.377	-170
913.477	173
913.577	-557
913.676	465
913.776	-989
913.875	198
913.975	24
914.074	-408
914.174	-535
914.273	-352
914.373	-99
914.472	-131
914.572	-1102
914.671	-590
914.770	-266
914.870	-1049
914.969	-210
915.068	161
915.167	-384
915.267	-882
915.366	-649
915.465	-472
915.564	-1377
915.663	-498
915.763	-148
915.862	88
915.961	-673
916.060	-874
916.159	-626
916.258	-238
916.357	-628
916.456	-469
916.555	-386
916.654	-747
916.752	-279
916.851	-1090
916.950	128
917.049	340
917.148	-369
917.247	-314
917.345	-822
917.444	189
917.543	-805
917.642	-417
917.740	-30
917.839	-68
917.937	-401
918.036	-10
918.135	-626
918.233	-133
918.332	-949
918.430	-386
918.529	-767
918.627	-1398
918.726	-397
918.824	-1000
918.923	-1027
919.021	-389
919.119	-1034
919.218	-638
919.316	-278
919.414	-655
919.512	-763
919.611	-687
919.709	-728
919.807	-686
919.905	-800
920.003	-150
920.102	-731
920.200	-927
920.298	-21
920.396	-709
920.494	-1504
920.592	-1159
920.690	-655
920.788	-614
920.886	-208
920.984	-772
921.082	-752
921.180	-805
921.277	-833
921.375	-72
921.473	-518
921.571	-186
921.669	-476
921.766	-96
921.864	-576
921.962	-414
922.060	-646
922.157	-219
922.255	-944
922.352	-254
922.450	-312
922.548	35
922.645	-756
922.743	-1213
922.840	-281
922.938	-975
923.035	-608
923.133	-870
923.230	-915
923.327	-644
923.425	-148
923.522	-971
923.619	-844
923.717	-104
923.814	191
923.911	-1187
924.008	117
924.106	415
924.203	-509
924.300	-1144
924.397	-599
924.494	-251
924.591	-524
924.688	-822
924.786	-949
924.883	138
924.979	-1083
925.077	-672
925.173	-396
925.270	-100
925.367	-613
925.464	-205
925.561	-1513
925.658	-319
925.755	-531
925.852	-781
925.948	-567
926.045	-898
926.142	-656
926.239	-1033
926.335	-601
926.432	-922
926.529	-1067
926.625	-859
926.722	-1195
926.818	-512
926.915	-729
927.011	-1313
927.108	-396
927.204	-326
927.301	-301
927.397	-1034
927.494	-1264
927.590	-1356
927.687	-1568
927.783	-911
927.879	-615
927.976	-617
928.072	-817
928.168	-462
928.264	-586
928.361	-1127
928.457	-1010
928.553	-869
928.649	-169
928.745	-395
928.841	-750
928.937	-828
929.033	-161
929.129	-847
929.225	-467
929.321	-218
929.417	-555
929.513	-1679
929.609	-1233
929.705	-1516
929.801	-767
929.897	-868
929.993	-904
930.089	-678
930.184	-1089
930.280	-1206
930.376	-716
930.471	-767
930.567	-1201
930.663	-462
930.758	-1669
930.854	-656
930.950	-210
931.045	-612
931.141	-593
931.236	-98
931.332	-1404
931.427	-950
931.523	-1245
931.618	237
931.714	-1148
931.809	-876
931.905	-373
932.000	-580
932.095	-1375
932.191	-1414
932.286	-284
932.381	-1121
932.476	-1177
932.572	-269
932.667	-770
932.762	-877
932.857	-1471
932.952	-572
933.047	-799
933.142	-854
933.237	-626
933.332	-1335
933.427	-415
933.522	-1064
933.617	-1216
933.712	-518
933.807	-1027
933.902	-982
933.997	-1081
934.092	189
934.187	-490
934.282	-92
934.376	-709
934.471	-531
934.566	-950
934.661	-726
934.755	-1566
934.850	-555
934.945	-141
935.039	-1481
935.134	-651
935.228	-970
935.323	-887
935.417	-605
935.512	-806
935.606	-1465
935.701	-1144
935.795	-1028
935.890	-502
935.984	73
936.079	-1268
936.173	-1003
936.267	-1335
936.362	-256
936.456	-247
936.550	-600
936.644	-833
936.738	-1100
936.833	-996
936.927	-312
937.021	-1118
937.115	-824
937.209	-1237
937.303	158
937.397	-851
937.491	-907
937.585	-757
937.679	-595
937.773	-142
937.867	-1005
937.961	-590
938.055	-680
938.149	-753
938.243	-790
938.337	-785
938.430	-773
938.524	-675
938.618	-996
938.712	-472
938.805	-1074
938.899	-487
938.993	-656
939.086	-1001
939.180	-453
939.274	-52
939.367	-1239
939.461	-1198
939.554	-443
939.648	-866
939.741	-789
939.835	-182
939.928	-865
940.022	-530
940.115	-925
940.208	-243
940.302	-197
940.395	-288
940.488	-1491
940.582	-98
940.675	86
940.768	-184
940.861	-814
940.954	-498
941.048	-1163
941.141	-966
941.234	-599
941.327	-365
941.420	-53
941.513	-812
941.606	-1124
941.699	-716
941.792	-812
941.885	-946
941.978	-940
942.071	-1004
942.164	-802
942.257	-499
942.349	212
942.442	-540
942.535	-717
942.628	-566
942.721	-531
942.813	-632
942.906	-625
942.999	-213
943.091	-890
943.184	-231
943.277	-1248
943.369	-525
943.462	-578
943.554	-434
943.647	-818
943.739	-292
943.832	-233
943.924	-1243
944.017	-139
944.109	-971
944.201	-319
944.294	-446
944.386	-61
944.478	279
944.571	-637
944.663	-591
944.755	-344
944.847	-342
944.940	-600
945.032	-1067
945.124	-451
945.216	311
945.308	-1038
945.400	-300
945.492	-456
945.584	-561
945.676	-628
945.768	-201
945.860	362
945.952	-524
946.044	-1014
946.136	-1477
946.228	-863
946.320	-1502
946.412	-399
946.503	-849
946.595	-184
946.687	-895
946.779	-488
946.870	-144
946.962	-74
947.054	200
947.145	-336
947.237	-334
947.329	-328
947.420	-282
947.512	-936
947.603	-834
947.695	-1165
947.786	-860
947.878	-980
947.969	-539
948.061	-1068
948.152	-794
948.243	-712
948.335	-181
948.426	-643
948.517	-703
948.609	-595
948.700	-1169
948.791	-1274
948.882	-771
948.973	-868
949.065	-467
949.156	249
949.247	-1211
949.338	-133
949.429	-799
949.520	71
949.611	-2069
949.702	-448
949.793	347
949.884	-265
949.975	-1203
950.066	-723
950.157	-1195
950.247	-354
950.338	-938
950.429	-1480
950.520	-1000
950.611	-1291
950.701	-283
950.792	-498
950.883	-309
950.973	-272
951.064	-424
951.155	-673
951.245	-276
951.336	-945
951.427	-1183
951.517	915
951.608	43
951.698	-768
951.788	-187
951.879	-1059
951.969	-1132
952.060	-395
952.150	-461
952.240	-132
952.331	-1904
952.421	566
952.511	-1175
952.602	-268
952.692	-492
952.782	-523
952.872	-911
952.962	-658
953.052	-1107
953.143	-539
953.233	-153
953.323	160
953.413	-541
953.503	-270
953.593	-853
953.683	-472
953.773	-1693
953.863	-1239
953.953	-987
954.042	-955
954.132	-1605
954.222	-39
954.312	-736
954.402	-592
954.492	-834
954.581	-665
954.671	-683
954.761	-1277
954.850	906
954.940	-825
955.030	-237
955.119	-313
955.209	-540
955.298	-1634
955.388	-471
955.477	-92
955.567	-1354
955.656	104
955.746	-744
955.835	-961
955.925	-1300
956.014	-585
956.103	-1107
956.193	-113
956.282	-486
956.371	-120
956.461	-1534
956.550	-898
956.639	-1072
956.728	-620
956.817	-960
956.906	-683
956.995	-465
957.085	-1508
957.174	-666
957.263	-542
957.352	-1027
957.441	-211
957.530	-1099
957.619	-602
957.708	-1145
957.796	-174
957.885	-1003
957.974	-1266
958.063	-843
958.152	-1056
958.241	-140
958.329	-1144
958.418	-244
958.507	-989
958.596	-231
958.684	-1179
958.773	-311
958.861	-970
958.950	-544
959.039	-193
959.127	-954
959.216	-298
959.304	-1236
959.393	-506
959.481	-1238
959.570	-186
959.658	-1429
959.746	-926
959.835	-1064
959.923	-1168
960.011	-1038
960.100	-758
960.188	-963
960.276	-1322
960.365	-1051
960.453	-1024
960.541	-1434
960.629	-1706
960.717	-923
960.805	-982
960.893	-1056
960.981	-1109
961.069	155
961.158	-805
961.245	-448
961.333	-1489
961.421	-1859
961.509	-917
961.597	-838
961.685	-507
961.773	-833
961.861	-1676
961.949	333
962.036	-1033
962.124	-686
962.212	-1415
962.299	-1502
962.387	-664
962.475	-959
962.562	-1900
962.650	-730
962.738	-767
962.825	-1337
962.913	-899
963.000	-684
963.088	-1406
963.175	-1028
963.263	-781
963.350	-1813
963.438	-790
963.525	-1192
963.612	27
963.700	-1455
963.787	-447
963.874	-819
963.962	-747
964.049	-729
964.136	-1249
964.223	-1678
964.310	-1043
964.398	175
964.485	-515
964.572	-1917
964.659	-431
964.746	-662
964.833	-402
964.920	-590
965.007	-574
965.094	-342
965.181	-1444
965.268	-960
965.355	-539
965.441	-810
965.528	-449
965.615	-362
965.702	-846
965.789	-1063
965.875	-435
965.962	-185
966.049	-1227
966.136	-1226
966.222	-1025
966.309	-311
966.395	-1366
966.482	-929
966.569	-1937
966.655	-1328
966.742	-1338
966.828	-798
966.915	-1735
967.001	-959
967.087	-1529
967.174	-1651
967.260	-1418
967.347	-765
967.433	-1802
967.519	-482
967.605	-981
967.692	-1043
967.778	-1408
967.864	-836
967.950	-1385
968.036	-1596
968.123	-649
968.209	-719
968.295	-1659
968.381	-49
968.467	-1197
968.553	-1933
968.639	-988
968.725	-2172
968.811	54
968.897	-628
968.983	-1132
969.069	-587
969.154	-334
969.240	-685
969.326	-2046
969.412	-899
969.497	-989
969.583	-1182
969.669	-241
969.755	-878
969.840	-1153
969.926	-851
970.012	-702
970.097	-383
970.183	-1208
970.268	-1019
970.354	-481
970.439	-1639
970.525	-10
970.610	-1034
970.696	-400
970.781	-1017
970.866	-2235
970.952	-842
971.037	-501
971.122	-1768
971.208	-708
971.293	-1876
971.378	-2711
971.463	-939
971.549	-553
971.634	-818
971.719	-832
971.804	-1141
971.889	-1251
971.974	-1305
972.059	-1144
972.144	-838
972.229	-503
972.314	-1088
972.399	-1076
972.484	-966
972.569	-726
972.654	-1530
972.739	208
972.824	-843
972.908	-1457
972.993	-1496
973.078	-723
973.163	-978
973.247	-834
973.332	-3068
973.417	-544
973.501	-1298
973.586	-1366
973.671	-1147
973.755	-1438
973.840	-856
973.924	-728
974.009	-756
974.093	-1919
974.178	-473
974.262	-871
974.346	-1612
974.431	-669
974.515	-569
974.600	-129
974.684	-596
974.768	-1260
974.852	-315
974.937	-2037
975.021	-382
975.105	-621
975.189	-1078
975.273	-515
975.358	-1417
975.442	-1537
975.526	24
975.610	-1819
975.694	-1573
975.778	-288
975.862	-659
975.946	-3122
976.030	918
976.114	-1404
976.198	-1182
976.281	-831
976.365	-367
976.449	-1138
976.533	-494
976.617	-904
976.700	-1565
976.784	-686
976.868	-785
976.951	-723
977.035	-1280
977.119	-1286
977.202	-343
977.286	-938
977.369	-1834
977.453	-371
977.536	-1629
977.620	-1429
977.703	29
977.787	-1888
977.870	-713
977.953	222
978.037	-2085
978.120	-542
978.203	-1542
978.287	-947
978.370	-1668
978.453	-1282
978.536	-1320
978.620	-509
978.703	-724
978.786	-1105
978.869	-1871
978.952	-2164
979.035	19
979.118	-271
979.201	-1531
979.284	-363
979.367	-1960
979.450	-836
979.533	-1485
979.616	-1344
979.699	-1431
979.782	-518
979.865	-684
979.948	-524
980.030	-1057
980.113	-657
980.196	-1847
980.279	-161
980.361	-1004
980.444	-1292
980.526	-469
980.609	-194
980.692	-1143
980.774	-509
980.857	-2763
980.939	11
981.022	-1716
981.104	-985
981.187	-1176
981.269	-472
981.352	-845
981.434	-1937
981.516	-1012
981.599	202
981.681	-505
981.763	-792
981.846	-510
981.928	-756
982.010	-1750
982.092	-1587
982.174	62
982.256	-458
982.339	-557
982.421	-217
982.503	-206
982.585	-1507
982.667	-670
982.749	-93
982.831	-146
982.913	-1275
982.995	-82
983.077	-2017
983.158	-31
983.240	-2640
983.322	-475
983.404	-500
983.486	-1537
983.568	-991
983.649	-367
983.731	-232
983.813	-1199
983.894	-774
983.976	-1023
984.058	-733
984.139	157
984.221	-1728
984.302	-1235
984.384	-919
984.465	-1414
984.547	-1068
984.628	-1372
984.710	-254
984.791	-1044
984.872	-986
984.954	-661
985.035	-703
985.116	-1073
985.198	-1864
985.279	-428
985.360	-2161
985.441	-308
985.522	-1350
985.604	-899
985.685	-1990
985.766	-698
985.847	117
985.928	-1778
986.009	-584
986.090	-1025
986.171	-493
986.252	-1177
986.333	-798
986.414	-1614
986.495	-1229
986.576	-881
986.656	-1351
986.737	-518
986.818	-1436
986.899	-1738
986.980	-948
987.060	-574
987.141	-1647
987.222	-1059
987.302	-1253
987.383	-891
987.464	-1087
987.544	-943
987.625	-961
987.705	-803
987.786	-1073
987.866	-741
987.947	-1478
988.027	-1036
988.108	-62
988.188	-1122
988.268	-701
988.349	-1378
988.429	-1616
988.509	-22
988.589	-1022
988.670	-2550
988.750	185
988.830	-2047
988.910	-780
988.990	-1082
989.070	-932
989.151	-1315
989.231	-847
989.311	-1195
989.391	-1623
989.471	-1349
989.551	-1429
989.631	-1251
989.711	-466
989.791	-1862
989.870	-1858
989.950	-765
990.030	-1126
990.110	-693
990.190	-2057
990.269	-972
990.349	-1197
990.429	-1425
990.509	-750
990.588	-1414
990.668	-819
990.747	-612
990.827	-1022
990.907	-368
990.986	-2558
991.066	-784
991.145	-1941
991.225	-357
991.304	-1257
991.383	-987
991.463	-1600
991.542	-940
991.622	-648
991.701	-1996
991.780	-893
991.859	-1184
991.939	-601
992.018	-863
992.097	-1043
992.176	-537
992.256	-2225
992.335	-1774
992.414	-175
992.493	-2231
992.572	-875
992.651	348
992.730	-975
992.809	-1505
992.888	-952
992.967	-1360
993.046	-410
993.125	-1405
993.203	-1424
993.282	-630
993.361	-422
993.440	-821
993.519	-1806
993.597	-503
993.676	-1378
993.755	-335
993.834	-1248
993.912	-2267
993.991	-617
994.069	-1230
994.148	-1339
994.226	-1351
994.305	-518
994.384	-1520
994.462	-513
994.540	-1451
994.619	-1317
994.697	-160
994.776	-1342
994.854	-1230
994.932	-1697
995.011	-1091
995.089	-1644
995.167	-798
995.245	-1189
995.324	-1380
995.402	-680
995.480	-1556
995.558	-1082
995.636	-1290
995.714	-1111
995.792	-1301
995.870	-1461
995.948	-1651
996.026	-1495
996.104	-2202
996.182	-1367
996.260	-1338
996.338	-1502
996.416	-2172
996.494	-1064
996.572	-864
996.649	-916
996.727	-1668
996.805	-1311
996.883	-1658
996.960	-1063
997.038	-1213
997.116	-921
997.193	-1702
997.271	-1125
997.348	-1153
997.426	-1210
997.504	-1872
997.581	-958
997.658	-989
997.736	-2097
997.813	-1592
997.891	-609
997.968	-2040
998.046	-1309
998.123	-1030
998.200	-1337
998.277	-2137
998.355	-399
998.432	-2467
998.509	-906
998.586	-751
998.663	-480
998.741	-2109
998.818	-1292
998.895	-1538
998.972	-847
999.049	-1665
999.126	-1861
999.203	-692
999.280	-1168
999.357	-2622
999.434	-1306
999.511	-1207
999.587	-423
999.664	-1394
999.741	-846
999.818	-1932
999.895	-1534
999.971	-2507
1000.048	-1450
1000.125	-833
1000.202	-1840
1000.278	-1805
1000.355	-2090
1000.431	-634
1000.508	-1176
1000.584	-2011
1000.661	-781
1000.738	-2956
1000.814	-1200
1000.890	-788
1000.967	-1826
1001.043	-736
1001.120	-1951
1001.196	-1922
1001.272	-1998
1001.349	-1961
1001.425	-1280
1001.501	-1264
1001.577	-819
1001.654	-1220
1001.730	-1487
1001.806	-1398
1001.882	-1908
1001.958	-970
1002.034	-998
1002.110	-1531
1002.186	-2584
1002.262	-1628
1002.338	-1920
1002.414	-645
1002.490	-920
1002.566	-2070
1002.642	-957
1002.718	-833
1002.794	-1276
1002.870	-1995
1002.945	-2003
1003.021	-2119
1003.097	-1315
1003.173	-1385
1003.248	-2811
1003.324	-1183
1003.400	-1164
1003.475	-2022
1003.551	-1587
1003.626	-1360
1003.702	-1343
1003.777	-1574
1003.853	-1961
1003.928	-2123
1004.004	-1286
1004.079	-1750
1004.155	-1003
1004.230	-1887
1004.305	-521
1004.381	-2180
1004.456	-1269
1004.531	-1211
1004.607	-1129
1004.682	-1072
1004.757	-1311
1004.832	-1497
1004.907	-1819
1004.982	-971
1005.057	-1184
1005.133	-2210
1005.208	-2093
1005.283	-1403
1005.358	-346
1005.433	-1870
1005.508	-1010
1005.583	-1659
1005.657	-1983
1005.732	-1342
1005.807	-1551
1005.882	-1578
1005.957	-984
1006.032	-276
1006.106	-2099
1006.181	-1525
1006.256	-1190
1006.331	-2286
1006.405	-2113
1006.480	-1779
1006.554	-1196
1006.629	-1809
1006.704	-2342
1006.778	-1766
1006.853	-1441
1006.927	-1664
1007.002	-1989
1007.076	-1620
1007.150	-1566
1007.225	-1312
1007.299	-2396
1007.373	-1223
1007.448	-2237
1007.522	-1308
1007.596	-1491
1007.671	-1696
1007.745	-1406
1007.819	-2400
1007.893	-1507
1007.967	-1184
1008.041	-2949
1008.115	-1058
1008.190	-1797
1008.264	-973
1008.338	-1938
1008.412	-1347
1008.486	-1455
1008.560	-1193
1008.633	-2652
1008.707	-1838
1008.781	-849
1008.855	-1426
1008.929	-1287
1009.003	-1686
1009.076	-1330
1009.150	-1961
1009.224	-2245
1009.298	-908
1009.371	-2071
1009.445	-1492
1009.519	-1708
1009.592	-2097
1009.666	-1678
1009.739	-1478
1009.813	-2442
1009.886	-1233
1009.960	-2365
1010.033	-1345
1010.107	-1225
1010.180	-1940
1010.253	-1682
1010.327	-1438
1010.400	-1253
1010.473	-1129
1010.547	136
1010.620	-1768
1010.693	-1411
1010.766	-2141
1010.840	-564
1010.913	-1749
1010.986	-1909
1011.059	-1626
1011.132	-1665
1011.205	-1649
1011.278	-1447
1011.351	-2163
1011.424	-60
1011.497	-868
1011.570	-1340
1011.643	-1636
1011.716	-1991
1011.789	-1280
1011.862	-1194
1011.934	-1360
1012.007	-2170
1012.080	-792
1012.153	-1137
1012.225	-1162
1012.298	-869
1012.371	-1676
1012.443	-1313
1012.516	-1733
1012.588	-917
1012.661	-1075
1012.733	-1219
1012.806	-1689
1012.879	-1646
1012.951	-1665
1013.023	-1260
1013.096	-798
1013.168	-1566
1013.241	-939
1013.313	-1606
1013.385	-1621
1013.458	-557
1013.530	-1480
1013.602	-2295
1013.674	-1799
1013.746	-2276
1013.819	-2529
1013.891	-1116
1013.963	-1976
1014.035	-1112
1014.107	-1193
1014.179	-792
1014.251	-1421
1014.323	-1703
1014.395	-1199
1014.467	-1726
1014.539	-2049
1014.611	-1654
1014.683	-871
1014.754	-358
1014.826	-2096
1014.898	-1691
1014.970	-1946
1015.042	-221
1015.113	-1313
1015.185	-997
1015.257	-2277
1015.328	-369
1015.400	-1525
1015.471	-1246
1015.543	-2077
1015.615	-1120
1015.686	-2376
1015.757	-1329
1015.829	-606
1015.901	-1571
1015.972	-1892
1016.043	-1106
1016.115	-975
1016.186	-1596
1016.257	-1784
1016.328	-826
1016.400	-335
1016.471	-1285
1016.542	-1243
1016.613	-1066
1016.685	-1347
1016.756	-1080
1016.827	-1321
1016.898	-991
1016.969	-615
1017.040	-1108
1017.111	-1509
1017.182	-1786
1017.253	-1377
1017.324	-1619
1017.395	-435
1017.466	-1112
1017.537	-1210
1017.608	-1269
1017.678	-911
1017.749	-1935
1017.820	-1933
1017.891	-1104
1017.961	-1260
1018.032	-954
1018.103	-1884
1018.173	-1368
1018.244	-1043
1018.315	-1406
1018.385	-220
1018.456	-1801
1018.526	-2012
1018.597	-1584
1018.667	-1731
1018.738	-1194
1018.808	-1988
1018.878	-973
1018.949	-1218
1019.019	-1362
1019.089	-1726
1019.160	-921
1019.230	-2168
1019.300	-1054
1019.371	-2831
1019.441	-478
1019.511	-1642
1019.581	-1388
1019.651	-1445
1019.721	-1029
1019.791	-1478
1019.861	-1479
1019.931	-979
1020.001	-1843
1020.071	-1277
1020.141	-1941
1020.211	-1285
1020.281	-1005
1020.351	-1661
1020.421	-1295
1020.491	-1205
1020.560	-1373
1020.630	-1176
1020.700	-874
1020.770	-1577
1020.839	-1667
1020.909	-2281
1020.979	-1605
1021.048	-1927
1021.118	-1706
1021.187	-1892
1021.257	-1700
1021.326	-1455
1021.396	-1125
1021.465	-1639
1021.535	-1438
1021.604	-2013
1021.674	-563
1021.743	-1501
1021.812	-1731
1021.882	-1653
1021.951	-2049
1022.020	-879
1022.089	-1251
1022.159	-1038
1022.228	-1694
1022.297	-1595
1022.366	-1320
1022.435	-764
1022.504	-1847
1022.573	-2375
1022.642	-1652
1022.711	-1482
1022.781	-1540
1022.849	-598
1022.918	-1578
1022.987	-1912
1023.056	-2084
1023.125	-1721
1023.194	-1129
1023.263	-1334
1023.331	-1063
1023.400	-2657
1023.469	-2007
1023.538	-1009
1023.606	-975
1023.675	-1556
1023.744	-1642
1023.812	-2427
1023.881	-1693
1023.949	-2097
1024.018	-2055
1024.086	-1544
1024.155	-2441
1024.223	-1240
1024.292	-958
1024.360	-1161
1024.429	-1755
1024.497	-2127
1024.565	-2463
1024.634	-2206
1024.702	-1846
1024.770	-1321
1024.838	-1665
1024.907	-1451
1024.975	-2316
1025.043	-1521
1025.111	-3097
1025.179	-2124
1025.247	-1734
1025.315	-2007
1025.383	-2026
1025.451	-2480
1025.519	-1803
1025.587	-2632
1025.655	-2095
1025.723	-2816
1025.791	-1649
1025.859	-1837
1025.927	-542
1025.995	-2320
1026.062	-2087
1026.130	-1804
1026.198	-1882
1026.266	-2199
1026.333	-1490
1026.401	-1826
1026.469	-1586
1026.536	-1781
1026.604	-2467
1026.671	-1987
1026.739	-1484
1026.806	-2437
1026.874	-2001
1026.941	-1187
1027.009	-1877
1027.076	-2795
1027.144	-448
1027.211	-2862
1027.278	-1230
1027.345	-1759
1027.413	-2083
1027.480	-1894
1027.547	-1461
1027.614	-2213
1027.682	-1451
1027.749	-1929
1027.816	-2189
1027.883	-1647
1027.950	-1458
1028.017	-2426
1028.084	-1876
1028.151	-2844
1028.218	-2898
1028.285	-2389
1028.352	-2217
1028.419	-2468
1028.486	-2191
1028.553	-2363
1028.619	-2286
1028.686	-1960
1028.753	-2160
1028.820	-2078
1028.886	-1744
1028.953	-2351
1029.020	-1971
1029.086	-1955
1029.153	-2150
1029.220	-2993
1029.286	-2143
1029.353	-1367
1029.419	-2900
1029.486	-2128
1029.552	-1738
1029.619	-2643
1029.685	-2035
1029.751	-2752
1029.818	-1738
1029.884	-2671
1029.951	-1631
1030.017	-2417
1030.083	-2521
1030.149	-2112
1030.216	-2286
1030.282	-1653
1030.348	-2071
1030.414	-2874
1030.480	-2154
1030.546	-2578
1030.612	-2360
1030.678	-2735
1030.744	-2145
1030.810	-1688
1030.876	-2586
1030.942	-1594
1031.008	-2476
1031.074	-2966
1031.140	-2826
1031.206	-1941
1031.272	-2654
1031.337	-1649
1031.403	-2030
1031.469	-2968
1031.534	-1909
1031.600	-2078
1031.666	-2964
1031.731	-2279
1031.797	-1760
1031.863	-2031
1031.928	-1916
1031.994	-3106
1032.059	-2797
1032.125	-2092
1032.190	-2194
1032.256	-2507
1032.321	-3298
1032.386	-2532
1032.452	-1751
1032.517	-2123
1032.582	-1947
1032.647	-1840
1032.713	-1709
1032.778	-1610
1032.843	-2596
1032.908	-3039
1032.974	-1861
1033.039	-2631
1033.104	-2029
1033.169	-2373
1033.234	-2815
1033.299	-1398
1033.364	-2162
1033.429	-2831
1033.494	-2145
1033.559	-2079
1033.624	-2061
1033.688	-2187
1033.753	-2439
1033.818	-2889
1033.883	-2465
1033.948	-2330
1034.013	-2044
1034.077	-2026
1034.142	-1853
1034.207	-1760
1034.271	-2403
1034.336	-2269
1034.400	-2022
1034.465	-2018
1034.530	-2135
1034.594	-2359
1034.658	-2007
1034.723	-2166
1034.787	-2334
1034.852	-2527
1034.916	-1306
1034.981	-2416
1035.045	-1611
1035.109	-2827
1035.173	-1841
1035.238	-2685
1035.302	-2553
1035.366	-2178
1035.430	-3024
1035.495	-1426
1035.559	-2830
1035.623	-2281
1035.687	-1796
1035.751	-2541
1035.815	-1797
1035.879	-2582
1035.943	-2705
1036.007	-3608
1036.071	-2380
1036.135	-1864
1036.198	-2676
1036.262	-2179
1036.326	-2393
1036.390	-2399
1036.454	-1121
1036.517	-1812
1036.581	-1906
1036.645	-2069
1036.709	-2659
1036.772	-2696
1036.836	-1406
1036.900	-2314
1036.963	-2775
1037.026	-2066
1037.090	-3371
1037.154	-1944
1037.217	-3107
1037.280	-2759
1037.344	-2545
1037.407	-3198
1037.471	-1901
1037.534	-2364
1037.597	-2609
1037.661	-2062
1037.724	-2288
1037.787	-2946
1037.850	-1615
1037.913	-2178
1037.977	-2226
1038.040	-909
1038.103	-2402
1038.166	-3057
1038.229	-2058
1038.292	-2136
1038.355	-2236
1038.418	-2037
1038.481	-1670
1038.544	-2508
1038.607	-1178
1038.670	-1771
1038.732	-2280
1038.795	-2426
1038.858	-2263
1038.921	-1500
1038.984	-2208
1039.046	-2310
1039.109	-2031
1039.172	-2128
1039.234	-1768
1039.297	-1187
1039.360	-1833
1039.422	-2299
1039.485	-1585
1039.547	-1858
1039.610	-2860
1039.672	-1759
1039.734	-2588
1039.797	-2014
1039.859	-1605
1039.922	-2053
1039.984	-1932
1040.046	-2772
1040.109	-1871
1040.171	-2517
1040.233	-2119
1040.295	-2425
1040.358	-2729
1040.420	-1884
1040.482	-2970
1040.544	-1999
1040.606	-2831
1040.668	-1189
1040.730	-2180
1040.792	-2506
1040.854	-1521
1040.916	-1940
1040.978	-1708
1041.040	-1293
1041.102	-1609
1041.164	-2815
1041.225	-2323
1041.287	-2120
1041.349	-2051
1041.411	-2084
1041.472	-1491
1041.534	-2882
1041.596	-2062
1041.657	-2149
1041.719	-2717
1041.781	-2014
1041.842	-2772
1041.904	-2225
1041.965	-1526
1042.027	-1208
1042.088	-2512
1042.150	-2990
1042.211	-1647
1042.272	-1559
1042.334	-2187
1042.395	-2315
1042.456	-894
1042.518	-1874
1042.579	-1549
1042.640	-1882
1042.701	-2113
1042.763	-2772
1042.824	-2138
1042.885	-2392
1042.946	-1679
1043.007	-2753
1043.068	-1928
1043.129	-2123
1043.190	-1886
1043.251	-1361
1043.312	-1451
1043.373	-1265
1043.434	-2302
1043.495	-2063
1043.556	-1794
1043.616	-1842
1043.677	-1522
1043.738	-1667
1043.799	-2030
1043.859	-1550
1043.920	-1853
1043.981	-1989
1044.041	-1160
1044.102	-1584
1044.162	-1183
1044.223	-1548
1044.284	-2064
1044.344	-1526
1044.405	-2473
1044.465	-1869
1044.525	-2318
1044.586	-1576
1044.646	-2107
1044.707	-1120
1044.767	-1780
1044.827	-1985
1044.887	-1454
1044.948	-1213
1045.008	-1872
1045.068	-1738
1045.128	-1265
1045.188	-1921
1045.249	-1037
1045.309	-1510
1045.369	-1751
1045.429	-1398
1045.489	-1215
1045.549	-1119
1045.609	-2051
1045.669	-1924
1045.729	-1828
1045.789	-2058
1045.848	-1847
1045.908	-816
1045.968	-1185
1046.028	-1571
1046.088	-1225
1046.147	-1053
1046.207	-633
1046.267	-1482
1046.326	-1598
1046.386	-1135
1046.446	-769
1046.505	-378
1046.565	-1244
1046.624	-1070
1046.684	-165
1046.743	-278
1046.803	-218
1046.862	-157
1046.922	0
