'Start Wavelength	183.907
'End Wavelength	1046.922
'Gate Delay	5.000
'Gate Width (ms)	1.050
'Laser Output Level	0.000
'X Position	0.000
'Y Position	0.000
'Z Position	0.000
'Grid Point Number	1.000
'Shot Number	100.000
183.907	809.000
183.977	1295.000
184.047	-287
184.116	771
184.186	544
184.256	374
184.325	192
184.395	-155
184.465	973
184.534	913
184.604	422
184.674	878
184.743	-860
184.813	782
184.883	-287
184.952	1109
185.022	493
185.092	1490
185.161	457
185.231	1429
185.301	399
185.370	1199
185.440	85
185.509	258
185.579	599
185.649	204
185.718	307
185.788	165
185.857	395
185.927	1381
185.996	635
186.066	-163
186.136	587
186.205	653
186.275	191
186.344	660
186.414	-513
186.483	497
186.553	997
186.622	1515
186.692	286
186.761	522
186.831	77
186.900	78
186.970	1712
187.039	1481
187.109	652
187.178	893
187.248	491
187.317	1926
187.387	175
187.456	864
187.526	2360
187.595	1464
187.664	1030
187.734	884
187.803	1648
187.873	195
187.942	316
188.012	870
188.081	499
188.150	834
188.220	1193
188.289	1097
188.358	1280
188.428	2020
188.497	406
188.567	1138
188.636	74
188.705	909
188.775	498
188.844	1126
188.913	1182
188.983	671
189.052	700
189.121	651
189.191	1028
189.260	2000
189.329	2300
189.399	1855
189.468	864
189.537	1316
189.606	1394
189.676	1396
189.745	1497
189.814	1896
189.883	1384
189.953	1559
190.022	2349
190.091	9106
190.161	14082
190.230	4431
190.299	1446
190.368	1638
190.437	291
190.507	1969
190.576	1360
190.645	1469
190.714	541
190.783	602
190.853	1717
190.922	1185
190.991	1666
191.060	2720
191.129	875
191.198	1664
191.268	23
191.337	276
191.406	1102
191.475	1104
191.544	-3
191.613	96
191.682	135
191.752	614
191.821	916
191.890	940
191.959	1506
192.028	1335
192.097	202
192.166	1850
192.235	-218
192.304	1484
192.373	-466
192.442	1294
192.511	428
192.580	469
192.650	622
192.719	1124
192.788	657
192.857	915
192.926	676
192.995	887
193.064	5371
193.133	4142
193.202	1217
193.271	1467
193.340	1326
193.409	1527
193.478	1796
193.547	1437
193.615	872
193.684	1754
193.753	1773
193.822	1486
193.891	1038
193.960	2116
194.029	1702
194.098	1857
194.167	-58
194.236	1304
194.305	1222
194.374	1849
194.443	776
194.512	2038
194.580	1352
194.649	1920
194.718	2894
194.787	1062
194.856	536
194.925	2094
194.994	1287
195.062	2201
195.131	2163
195.200	3722
195.269	4606
195.338	2088
195.407	1444
195.475	2067
195.544	2486
195.613	4067
195.682	1594
195.751	4190
195.819	3897
195.888	2493
195.957	4032
196.026	4862
196.094	3869
196.163	3882
196.232	3042
196.301	3004
196.369	2762
196.438	2062
196.507	1531
196.576	1645
196.644	1057
196.713	903
196.782	665
196.850	1295
196.919	904
196.988	1851
197.056	716
197.125	2117
197.194	1547
197.262	1012
197.331	476
197.400	757
197.468	1488
197.537	1135
197.606	1294
197.674	4338
197.743	12708
197.812	4781
197.880	11128
197.949	8392
198.017	9719
198.086	8313
198.155	2557
198.223	3612
198.292	13856
198.360	6780
198.429	2889
198.497	3070
198.566	6297
198.635	14673
198.703	3886
198.772	4498
198.840	14943
198.909	17684
198.977	3886
199.046	2431
199.114	2417
199.183	3208
199.251	1739
199.320	1619
199.388	1164
199.457	2396
199.525	1982
199.594	2141
199.662	1177
199.731	1529
199.799	2365
199.867	2063
199.936	543
200.004	2346
200.073	2707
200.141	1628
200.210	888
200.278	1103
200.346	1484
200.415	1398
200.483	910
200.552	1936
200.620	1405
200.688	1014
200.757	754
200.825	1798
200.893	918
200.962	1591
201.030	339
201.098	2551
201.167	1323
201.235	1897
201.303	978
201.372	252
201.440	922
201.508	1709
201.577	1184
201.645	2175
201.713	1164
201.781	488
201.850	1288
201.918	2734
201.986	1345
202.055	1964
202.123	2173
202.191	1518
202.259	1154
202.327	877
202.396	1204
202.464	1115
202.532	1805
202.600	5661
202.669	1918
202.737	1682
202.805	583
202.873	955
202.941	1449
203.009	1133
203.078	688
203.146	1015
203.214	641
203.282	1404
203.350	1651
203.418	1610
203.487	863
203.555	1780
203.623	1123
203.691	2115
203.759	640
203.827	946
203.895	740
203.963	2341
204.031	1148
204.099	2937
204.168	1347
204.236	1503
204.304	1282
204.372	2015
204.440	1893
204.508	1068
204.576	1563
204.644	1398
204.712	798
204.780	932
204.848	1648
204.916	879
204.984	735
205.052	2067
205.120	1433
205.188	2540
205.256	1368
205.324	1333
205.392	1151
205.460	2499
205.528	3998
205.596	2835
205.664	1718
205.732	2747
205.799	13849
205.867	26768
205.935	5414
206.003	4056
206.071	2520
206.139	4051
206.207	2260
206.275	1717
206.343	1198
206.411	1905
206.478	983
206.546	1369
206.614	1822
206.682	2009
206.750	831
206.818	1916
206.885	1059
206.953	1265
207.021	1591
207.089	1530
207.157	785
207.225	3367
207.292	1862
207.360	1550
207.428	649
207.496	1543
207.563	1976
207.631	1811
207.699	1388
207.767	1955
207.834	1019
207.902	2041
207.970	1260
208.038	2051
208.105	1169
208.173	2642
208.241	4620
208.309	3226
208.376	3474
208.444	10778
208.512	5601
208.579	1603
208.647	1438
208.715	3548
208.782	2072
208.850	1669
208.918	1624
208.985	1519
209.053	2556
209.120	1902
209.188	625
209.256	2101
209.323	1396
209.391	5969
209.459	3763
209.526	2484
209.594	900
209.661	1678
209.729	1741
209.796	2005
209.864	1750
209.932	1310
209.999	2673
210.067	4119
210.134	4476
210.202	3151
210.269	4685
210.337	4497
210.404	2296
210.472	1885
210.539	2039
210.607	3722
210.674	5420
210.742	2391
210.809	2312
210.877	4844
210.944	4910
211.012	3720
211.079	4437
211.146	2185
211.214	2141
211.281	3425
211.349	3918
211.416	3213
211.484	3778
211.551	3465
211.618	2534
211.686	2834
211.753	1458
211.821	2439
211.888	1617
211.955	2984
212.023	2250
212.090	3580
212.157	3825
212.225	4148
212.292	12144
212.359	29306
212.427	98579
212.494	42634
212.561	11533
212.629	7327
212.696	5367
212.763	4406
212.831	2117
212.898	3602
212.965	2863
213.032	3313
213.100	4285
213.167	4012
213.234	5757
213.301	3303
213.369	2363
213.436	2744
213.503	1523
213.570	3463
213.638	4045
213.705	2894
213.772	1702
213.839	4675
213.906	5909
213.973	6204
214.041	3541
214.108	3320
214.175	3471
214.242	2575
214.309	2056
214.376	2871
214.444	2857
214.511	4698
214.578	2989
214.645	3465
214.712	3784
214.779	3838
214.846	2455
214.913	3689
214.980	2660
215.048	4726
215.115	5219
215.182	6505
215.249	4481
215.316	3948
215.383	3225
215.450	4024
215.517	3400
215.584	3355
215.651	3113
215.718	4116
215.785	6750
215.852	6420
215.919	7806
215.986	7528
216.053	4600
216.120	2990
216.187	6932
216.254	6905
216.321	5004
216.388	6309
216.455	7570
216.522	7019
216.589	8702
216.656	17695
216.722	18567
216.789	6947
216.856	5016
216.923	4525
216.990	3550
217.057	4044
217.124	8065
217.191	5956
217.258	4633
217.324	5803
217.391	4326
217.458	3656
217.525	4002
217.592	4622
217.659	3890
217.725	7227
217.792	14214
217.859	14411
217.926	5861
217.993	3275
218.059	3787
218.126	4077
218.193	3794
218.260	2963
218.327	2933
218.393	4286
218.460	3629
218.527	2916
218.594	5140
218.660	15552
218.727	18297
218.794	7218
218.860	4406
218.927	3287
218.994	3445
219.061	4382
219.127	6738
219.194	15309
219.261	6744
219.327	3681
219.394	3042
219.461	2329
219.527	2626
219.594	11312
219.661	7365
219.727	3292
219.794	3148
219.860	2948
219.927	4008
219.994	9641
220.060	19658
220.127	10985
220.193	4305
220.260	3328
220.326	3754
220.393	3780
220.460	4075
220.526	3424
220.593	2803
220.659	5896
220.726	5820
220.792	31925
220.859	18875
220.925	7007
220.992	8933
221.058	26616
221.125	47630
221.191	38244
221.258	10562
221.324	6707
221.391	6444
221.457	5053
221.524	5324
221.590	9267
221.657	49024
221.723	35466
221.789	28817
221.856	27779
221.922	12623
221.989	8552
222.055	7445
222.121	4833
222.188	4846
222.254	4836
222.321	4775
222.387	3507
222.453	4058
222.520	4041
222.586	3501
222.652	4055
222.719	3644
222.785	6195
222.851	3918
222.918	3747
222.984	5017
223.050	5863
223.116	4063
223.183	3892
223.249	2928
223.315	2735
223.382	3445
223.448	3735
223.514	2512
223.580	3160
223.647	3548
223.713	2637
223.779	2424
223.845	3445
223.911	3450
223.978	2708
224.044	3300
224.110	3067
224.176	2967
224.242	3088
224.309	2087
224.375	3187
224.441	2988
224.507	3445
224.573	3518
224.639	4161
224.705	3143
224.772	3904
224.838	3455
224.904	8209
224.970	5485
225.036	5089
225.102	7545
225.168	6727
225.234	5300
225.300	6919
225.366	5795
225.432	3862
225.499	2735
225.565	5425
225.631	5095
225.697	4244
225.763	3958
225.829	4182
225.895	6296
225.961	16572
226.027	15281
226.093	9829
226.159	6472
226.225	5812
226.291	6346
226.357	9602
226.423	10267
226.489	10792
226.554	6098
226.620	6714
226.686	10047
226.752	17134
226.818	9208
226.884	12820
226.950	12120
227.016	6020
227.082	6001
227.148	7981
227.214	10681
227.279	8137
227.345	4878
227.411	6522
227.477	4889
227.543	7925
227.609	14588
227.674	8991
227.740	6397
227.806	7290
227.872	6389
227.938	6798
228.003	16352
228.069	7623
228.135	3647
228.201	4478
228.267	3926
228.332	7913
228.398	13322
228.464	9256
228.530	3987
228.595	4735
228.661	4967
228.727	14878
228.792	11045
228.858	4981
228.924	6978
228.990	12171
229.055	9188
229.121	11532
229.187	6620
229.252	9664
229.318	5618
229.384	7465
229.449	11814
229.515	5564
229.581	3731
229.646	6960
229.712	9015
229.777	24508
229.843	28398
229.909	15680
229.974	13624
230.040	13507
230.105	9147
230.171	12447
230.236	13328
230.302	25300
230.368	21342
230.433	10786
230.499	9029
230.564	8376
230.630	6175
230.695	6388
230.761	6608
230.826	5235
230.892	13946
230.957	8810
231.023	5186
231.088	8914
231.154	7603
231.219	8831
231.284	12850
231.350	16381
231.415	8556
231.481	6383
231.546	4653
231.612	7269
231.677	5161
231.742	5799
231.808	6579
231.873	5820
231.939	4775
232.004	18240
232.069	17903
232.135	8805
232.200	7610
232.265	5938
232.331	4484
232.396	4834
232.461	3705
232.527	5856
232.592	7317
232.657	8907
232.723	32126
232.788	26984
232.853	9115
232.918	6993
232.984	6474
233.049	7987
233.114	32052
233.179	28566
233.245	38914
233.310	59467
233.375	15080
233.440	11369
233.506	8533
233.571	8302
233.636	6974
233.701	9207
233.766	32197
233.832	51546
233.897	15809
233.962	16864
234.027	15749
234.092	13298
234.157	11474
234.222	12111
234.288	24290
234.353	107309
234.418	105710
234.483	49822
234.548	29163
234.613	19204
234.678	16573
234.743	23059
234.808	111910
234.873	77161
234.938	21068
235.004	15640
235.069	13827
235.134	16410
235.199	11671
235.264	10688
235.329	7798
235.394	11543
235.459	23525
235.524	25447
235.589	12466
235.654	9226
235.719	8516
235.784	10629
235.849	16259
235.913	63392
235.978	72528
236.043	90144
236.108	26387
236.173	25246
236.238	27166
236.303	13402
236.368	13635
236.433	26574
236.498	68992
236.563	23370
236.627	18951
236.692	31665
236.757	20582
236.822	29140
236.887	44461
236.952	19231
237.017	18717
237.081	23195
237.146	16235
237.211	15187
237.276	23107
237.341	69258
237.405	73279
237.470	30769
237.535	43631
237.600	19080
237.664	15466
237.729	12223
237.794	11707
237.859	16320
237.923	44610
237.988	27605
238.053	44501
238.118	54617
238.182	124702
238.247	129969
238.312	74732
238.376	46355
238.441	39801
238.506	29024
238.570	14192
238.635	13870
238.700	11806
238.764	14279
238.829	55666
238.893	85930
238.958	25261
239.023	22349
239.087	14401
239.152	21044
239.216	13957
239.281	11506
239.346	10363
239.410	12572
239.475	22895
239.539	130435
239.604	119691
239.668	29886
239.733	17169
239.797	15703
239.862	25724
239.926	100786
239.991	44623
240.055	20603
240.120	14620
240.184	14557
240.249	16160
240.313	15032
240.378	18000
240.442	80651
240.507	140149
240.571	43265
240.635	62714
240.700	90925
240.764	27635
240.829	17847
240.893	12643
240.957	17082
241.022	70485
241.086	147103
241.151	76222
241.215	24604
241.279	32560
241.344	83113
241.408	31532
241.472	17271
241.537	16704
241.601	13556
241.665	11415
241.730	12218
241.794	17295
241.858	12837
241.922	12217
241.987	12473
242.051	9595
242.115	8842
242.179	8882
242.244	11587
242.308	14042
242.372	19009
242.436	33350
242.501	19364
242.565	12670
242.629	11493
242.693	11207
242.757	9929
242.822	13976
242.886	17345
242.950	18863
243.014	27158
243.078	19164
243.142	18708
243.206	19847
243.271	25962
243.335	19711
243.399	23680
243.463	84074
243.527	247133
243.591	79621
243.655	34238
243.719	21278
243.783	21227
243.847	30827
243.911	49472
243.975	62511
244.040	43625
244.104	19277
244.168	14675
244.232	25513
244.296	36766
244.360	36316
244.424	33860
244.488	34981
244.552	29749
244.615	23039
244.679	19634
244.743	22479
244.807	23791
244.871	13250
244.935	11444
244.999	12953
245.063	14786
245.127	17033
245.191	26310
245.255	25297
245.319	20412
245.383	22548
245.446	19082
245.510	14439
245.574	16560
245.638	18062
245.702	17279
245.766	44837
245.829	27629
245.893	34259
245.957	19579
246.021	18801
246.085	23031
246.149	36234
246.212	64934
246.276	93290
246.340	44965
246.404	34202
246.467	31822
246.531	55571
246.595	33403
246.659	32893
246.722	31903
246.786	31420
246.850	31841
246.913	42413
246.977	23534
247.041	25058
247.104	29552
247.168	21309
247.232	55255
247.295	126310
247.359	66538
247.423	28168
247.486	53990
247.550	33879
247.614	27827
247.677	35107
247.741	24821
247.804	21268
247.868	33222
247.932	49098
247.995	117863
248.059	50649
248.122	25344
248.186	31137
248.249	56220
248.313	181902
248.376	192538
248.440	127075
248.503	48683
248.567	36159
248.630	56357
248.694	69898
248.757	77969
248.821	195805
248.884	108268
248.948	106403
249.011	156033
249.075	234687
249.138	204064
249.202	78105
249.265	58851
249.328	123987
249.392	67459
249.455	37023
249.519	26996
249.582	34190
249.645	55067
249.709	41802
249.772	32167
249.835	33485
249.899	58661
249.962	34099
250.025	27434
250.089	69335
250.152	102604
250.215	50392
250.279	41432
250.342	43602
250.405	41978
250.468	30381
250.532	39909
250.595	60696
250.658	209744
250.721	379369
250.785	125384
250.848	63652
250.911	41963
250.974	36317
251.038	49652
251.101	114684
251.164	77193
251.227	69340
251.290	52337
251.354	70332
251.417	292363
251.480	310752
251.543	175099
251.606	568962
251.669	432447
251.732	147510
251.795	152846
251.859	154943
251.922	356831
251.985	207852
252.048	72411
252.111	60776
252.174	61602
252.237	97134
252.300	234042
252.363	224621
252.426	479154
252.489	211197
252.552	134272
252.615	98100
252.678	86435
252.741	171035
252.804	207757
252.867	476063
252.930	303579
252.993	175647
253.056	93993
253.119	71667
253.182	54858
253.245	91550
253.308	72405
253.371	95678
253.434	85768
253.497	70181
253.559	119792
253.622	86013
253.685	128110
253.748	119641
253.811	59684
253.874	106443
253.937	106665
254.000	50392
254.062	79894
254.125	131219
254.188	98287
254.251	93204
254.314	55152
254.376	91546
254.439	96320
254.502	86082
254.565	84107
254.628	140405
254.690	96138
254.753	56762
254.816	48850
254.878	60596
254.941	104272
255.004	111689
255.067	56033
255.129	49711
255.192	26367
255.255	23675
255.317	29036
255.380	21590
255.443	17083
255.505	18574
255.568	21059
255.631	18104
255.693	18367
255.756	16655
255.819	15800
255.881	14126
255.944	16039
256.006	19929
256.069	20832
256.132	17011
256.194	32523
256.257	138364
256.319	104116
256.382	97749
256.444	31459
256.507	19859
256.569	16598
256.632	20366
256.694	51373
256.757	34009
256.819	32400
256.882	28532
256.944	22323
257.007	22369
257.069	35705
257.132	23380
257.194	14666
257.257	12843
257.319	15642
257.381	14105
257.444	34974
257.506	39042
257.569	48848
257.631	43100
257.693	52123
257.756	35142
257.818	58459
257.880	23817
257.943	18877
258.005	16345
258.067	14836
258.130	16069
258.192	25374
258.254	85083
258.317	53808
258.379	21467
258.441	55921
258.503	64573
258.566	122053
258.628	182696
258.690	41280
258.753	29939
258.815	56541
258.877	29876
258.939	18565
259.001	15838
259.064	17867
259.126	37818
259.188	71225
259.250	31184
259.312	34565
259.375	38922
259.437	33169
259.499	18316
259.561	15269
259.623	16371
259.685	18037
259.747	25969
259.809	111864
259.872	248041
259.934	315218
259.996	265791
260.058	62327
260.120	32124
260.182	25003
260.244	20134
260.306	17694
260.368	17525
260.430	16745
260.492	25895
260.554	34159
260.616	34315
260.678	133631
260.740	245759
260.802	59669
260.864	37451
260.926	32161
260.988	28622
261.050	26863
261.112	46440
261.174	182073
261.236	199248
261.298	53021
261.359	108061
261.421	176920
261.483	45184
261.545	29876
261.607	21231
261.669	24022
261.731	67176
261.793	177125
261.854	61173
261.916	36980
261.978	25504
262.040	35310
262.102	36504
262.164	78322
262.225	64212
262.287	26072
262.349	54863
262.411	48000
262.472	24825
262.534	74493
262.596	192369
262.658	53075
262.719	28748
262.781	43274
262.843	175065
262.904	75547
262.966	45895
263.028	57362
263.090	225148
263.151	566932
263.213	170735
263.275	70564
263.336	38727
263.398	27361
263.459	20732
263.521	21742
263.583	47906
263.644	35964
263.706	16515
263.767	16002
263.829	13449
263.891	10744
263.952	10277
264.014	10148
264.075	11535
264.137	21707
264.198	20902
264.260	10527
264.321	9695
264.383	25533
264.444	46105
264.506	15215
264.567	12689
264.629	14850
264.690	21689
264.752	15364
264.813	13212
264.875	10239
264.936	9397
264.998	9574
265.059	7973
265.120	8456
265.182	10583
265.243	11813
265.305	11731
265.366	8489
265.427	8473
265.489	8512
265.550	5908
265.611	12864
265.673	12394
265.734	8969
265.795	6852
265.857	8344
265.918	6366
265.979	8845
266.040	15260
266.102	15115
266.163	12826
266.224	19232
266.286	12479
266.347	9428
266.408	13064
266.469	29553
266.530	20643
266.592	11602
266.653	32921
266.714	62534
266.775	18556
266.836	10949
266.898	9107
266.959	13779
267.020	10052
267.081	8011
267.142	7196
267.203	7604
267.264	6155
267.326	9331
267.387	7512
267.448	6175
267.509	8103
267.570	9352
267.631	7264
267.692	6846
267.753	7902
267.814	8528
267.875	22403
267.936	62422
267.997	20150
268.058	18523
268.119	12714
268.180	16198
268.241	12537
268.302	9933
268.363	8891
268.424	15160
268.485	21183
268.546	14688
268.607	7620
268.668	7771
268.729	8040
268.790	10680
268.851	10102
268.912	34234
268.972	49151
269.033	24591
269.094	11284
269.155	10478
269.216	11539
269.277	23676
269.338	15182
269.398	10334
269.459	15388
269.520	19694
269.581	29048
269.642	37417
269.702	23461
269.763	16229
269.824	13500
269.885	16639
269.945	30406
270.006	13280
270.067	8246
270.128	9156
270.188	9187
270.249	10578
270.310	9987
270.370	12897
270.431	22756
270.492	11777
270.553	11300
270.613	30932
270.674	63660
270.734	32253
270.795	16808
270.856	23344
270.916	26016
270.977	15295
271.038	18085
271.098	19589
271.159	30967
271.219	41584
271.280	17903
271.340	14626
271.401	28647
271.462	116536
271.522	51263
271.583	22358
271.643	26225
271.704	19356
271.764	20748
271.825	45706
271.885	148379
271.946	223528
272.006	68571
272.066	87021
272.127	173250
272.187	50028
272.248	29789
272.308	31597
272.369	113533
272.429	70943
272.489	55722
272.550	56735
272.610	46178
272.671	42935
272.731	60621
272.791	137523
272.852	49785
272.912	34841
272.972	22277
273.033	24035
273.093	57328
273.153	37057
273.214	19831
273.274	22652
273.334	65377
273.394	160226
273.455	66124
273.515	55725
273.575	136146
273.635	61421
273.696	108209
273.756	200552
273.816	73165
273.876	46310
273.936	146149
273.997	302901
274.057	69536
274.117	42185
274.177	52426
274.237	193360
274.297	219866
274.358	235378
274.418	154653
274.478	110908
274.538	52938
274.598	62174
274.658	260992
274.718	365713
274.778	131594
274.838	65492
274.898	149406
274.958	513335
275.018	274820
275.078	142642
275.138	64386
275.198	39847
275.258	32431
275.318	51294
275.378	80792
275.438	63458
275.498	52309
275.558	173378
275.618	364061
275.678	158152
275.738	77717
275.798	57050
275.858	29540
275.918	22651
275.978	25990
276.038	24647
276.098	19794
276.157	41796
276.217	122465
276.277	56619
276.337	38562
276.397	24252
276.457	28827
276.517	21071
276.576	15011
276.636	16582
276.696	30783
276.756	86921
276.815	71995
276.875	29500
276.935	42109
276.995	30599
277.055	16473
277.114	17193
277.174	24428
277.234	84492
277.293	42314
277.353	22569
277.413	14619
277.472	17522
277.532	18900
277.592	15259
277.651	20850
277.711	28199
277.771	19462
277.830	68829
277.890	58385
277.950	44361
278.009	64902
278.069	30864
278.128	23747
278.188	30935
278.248	21224
278.307	24356
278.367	33155
278.426	30140
278.486	14493
278.545	14311
278.605	11319
278.664	12017
278.724	16713
278.783	52896
278.843	166269
278.902	48452
278.962	24208
279.021	25783
279.081	22925
279.140	24813
279.199	22266
279.259	16669
279.318	14117
279.378	17431
279.437	29098
279.496	75421
279.556	385030
279.615	360757
279.675	77268
279.734	43814
279.793	64205
279.853	59178
279.912	26221
279.971	21080
280.031	15366
280.090	17773
280.149	24540
280.208	46563
280.268	262860
280.327	330972
280.386	72593
280.445	61451
280.505	70665
280.564	30058
280.623	23344
280.682	41591
280.742	74469
280.801	23790
280.860	15461
280.919	13661
280.978	11547
281.037	13260
281.097	11494
281.156	11774
281.215	11399
281.274	20589
281.333	95636
281.392	87142
281.451	19404
281.510	12883
281.569	12185
281.628	10708
281.688	9422
281.747	12707
281.806	12141
281.865	10061
281.924	11085
281.983	11760
282.042	7465
282.101	8914
282.160	8584
282.219	9334
282.278	11943
282.337	50395
282.396	40527
282.454	14767
282.513	18957
282.572	76589
282.631	51500
282.690	15799
282.749	13449
282.808	18473
282.867	18875
282.926	19388
282.985	8901
283.043	8328
283.102	9825
283.161	21477
283.220	45072
283.279	102221
283.338	31294
283.396	16781
283.455	14714
283.514	15225
283.573	28793
283.631	23627
283.690	13145
283.749	11952
283.808	29308
283.866	41030
283.925	13641
283.984	13858
284.043	21438
284.101	29391
284.160	13126
284.219	17907
284.277	15274
284.336	26845
284.395	103819
284.453	96574
284.512	24884
284.570	32986
284.629	26295
284.688	15047
284.746	13409
284.805	14553
284.863	17630
284.922	17639
284.981	14152
285.039	16757
285.098	28645
285.156	84547
285.215	358149
285.273	323578
285.332	84348
285.390	45446
285.449	30186
285.507	21857
285.566	18175
285.624	18897
285.683	14264
285.741	13600
285.799	13929
285.858	20763
285.916	15775
285.975	9701
286.033	7781
286.091	6888
286.150	7701
286.208	10096
286.267	13795
286.325	13783
286.383	26388
286.442	22285
286.500	9926
286.558	8111
286.616	7559
286.675	14389
286.733	14618
286.791	14071
286.850	15767
286.908	24429
286.966	43479
287.024	18505
287.083	10924
287.141	11253
287.199	11809
287.257	23740
287.315	18196
287.374	22325
287.432	42874
287.490	31653
287.548	20355
287.606	16894
287.664	14440
287.723	22560
287.781	31049
287.839	17955
287.897	19184
287.955	24331
288.013	40279
288.071	103490
288.129	369948
288.187	1103535
288.245	513016
288.303	150322
288.361	87667
288.419	71232
288.477	49038
288.535	34982
288.593	24113
288.651	20174
288.709	15158
288.767	15091
288.825	14658
288.883	12902
288.941	10125
288.999	10167
289.057	10179
289.115	11489
289.173	11318
289.231	11034
289.289	11986
289.346	10356
289.404	12873
289.462	26930
289.520	31172
289.578	16276
289.636	8138
289.694	7422
289.751	8068
289.809	8129
289.867	9373
289.925	12170
289.983	16938
290.040	8170
290.098	6728
290.156	11522
290.214	16562
290.271	10709
290.329	6107
290.387	5108
290.444	6533
290.502	5567
290.560	5279
290.617	6586
290.675	7357
290.733	8416
290.790	11334
290.848	8213
290.906	10064
290.963	10572
291.021	9302
291.078	7995
291.136	10505
291.194	29110
291.251	74275
291.309	26141
291.366	9318
291.424	9850
291.481	9144
291.539	6431
291.596	5729
291.654	5796
291.711	7300
291.769	11568
291.826	33027
291.884	22831
291.941	10754
291.999	10533
292.056	13064
292.114	15570
292.171	9018
292.228	10224
292.286	15237
292.343	33755
292.401	37677
292.458	22662
292.515	14276
292.573	19270
292.630	22130
292.687	36297
292.745	20539
292.802	17215
292.859	33603
292.917	94430
292.974	67789
293.031	20647
293.089	12683
293.146	11003
293.203	11150
293.260	7966
293.318	7121
293.375	8468
293.432	7293
293.489	7318
293.546	8793
293.604	19563
293.661	56549
293.718	164667
293.775	81669
293.832	38407
293.889	20992
293.947	18757
294.004	14771
294.061	18607
294.118	36438
294.175	68993
294.232	43890
294.289	21998
294.346	13943
294.403	15268
294.460	31341
294.517	24025
294.574	15504
294.631	13232
294.688	19365
294.745	52899
294.802	173917
294.859	140752
294.916	52227
294.973	30978
295.030	34398
295.087	32262
295.144	19227
295.201	16180
295.258	15492
295.315	24375
295.372	76161
295.429	157766
295.486	66647
295.542	28976
295.599	31446
295.656	52840
295.713	61399
295.770	121878
295.827	52116
295.883	23569
295.940	23742
295.997	40519
296.054	42457
296.111	22227
296.167	14388
296.224	10905
296.281	9626
296.338	10679
296.394	12571
296.451	21476
296.508	58336
296.564	110210
296.621	68625
296.678	133024
296.734	216374
296.791	76935
296.848	38674
296.904	41583
296.961	86381
297.018	148884
297.074	122860
297.131	46204
297.187	31996
297.244	50309
297.301	144594
297.357	292221
297.414	108617
297.470	39986
297.527	26271
297.583	22059
297.640	23638
297.696	18682
297.753	12875
297.809	10917
297.866	9489
297.922	12228
297.979	13874
298.035	17074
298.092	28562
298.148	80765
298.204	90388
298.261	45844
298.317	61395
298.374	179171
298.430	125544
298.486	85843
298.543	78178
298.599	53771
298.656	38506
298.712	56636
298.768	131794
298.824	103456
298.881	37180
298.937	22155
298.993	19010
299.050	25447
299.106	23793
299.162	18227
299.218	17827
299.275	15485
299.331	21016
299.387	42079
299.443	148214
299.500	166318
299.556	54762
299.612	28003
299.668	23576
299.724	19186
299.780	16703
299.837	19701
299.893	36289
299.949	116402
300.005	152389
300.061	116448
300.117	203274
300.173	114059
300.229	56570
300.285	75353
300.341	77886
300.397	41853
300.453	24976
300.510	19850
300.566	18933
300.622	19652
300.678	32121
300.734	85896
300.790	115719
300.845	164595
300.901	96444
300.957	109830
301.013	105990
301.069	43519
301.125	29431
301.181	35343
301.237	27486
301.293	17717
301.349	13692
301.405	12596
301.461	13182
301.516	13987
301.572	18159
301.628	38723
301.684	38133
301.740	52706
301.796	90724
301.851	63578
301.907	96885
301.963	113203
302.019	167101
302.074	450620
302.130	471472
302.186	208849
302.242	82867
302.297	53667
302.353	51071
302.409	92819
302.464	89391
302.520	72096
302.576	160693
302.631	201812
302.687	112439
302.743	48107
302.798	27121
302.854	20821
302.910	21166
302.965	28407
303.021	51569
303.076	54551
303.132	61671
303.187	77503
303.243	40857
303.299	20277
303.354	15777
303.410	13150
303.465	12749
303.521	13083
303.576	15644
303.632	22802
303.687	43460
303.743	137899
303.798	134936
303.853	53875
303.909	26623
303.964	22794
304.020	32149
304.075	54612
304.130	48301
304.186	84504
304.241	90386
304.297	70623
304.352	36252
304.358	34657
304.407	21728
304.449	17520
304.463	16115
304.518	17695
304.539	17631
304.573	17606
304.629	22246
304.630	22567
304.684	38393
304.720	77345
304.739	96499
304.794	170248
304.811	145718
304.850	87705
304.902	39848
304.905	36776
304.960	22435
304.992	19866
305.015	18091
305.071	18654
305.083	18706
305.126	18618
305.173	13450
305.181	12657
305.236	10485
305.264	11137
305.292	11694
305.347	15338
305.354	15172
305.402	14273
305.445	15026
305.457	15301
305.512	20650
305.535	23403
305.567	27327
305.622	28314
305.626	29220
305.678	51816
305.716	105853
305.733	124792
305.788	174041
305.807	151772
305.843	114218
305.897	134528
305.898	134619
305.953	147154
305.988	95606
306.008	68035
306.063	33883
306.078	30598
306.118	23639
306.168	17294
306.173	16728
306.228	14548
306.259	13218
306.283	12242
306.338	11106
306.349	11094
306.393	11043
306.440	11445
306.448	11728
306.503	14766
306.530	17740
306.558	24411
306.613	53507
306.620	58475
306.668	91468
306.711	129411
306.723	134267
306.778	115649
306.801	87807
306.833	56090
306.888	26711
306.892	25703
306.943	17602
306.982	14415
306.997	13489
307.052	13242
307.072	13308
307.107	15186
307.162	22581
307.163	22724
307.217	36662
307.253	44526
307.272	45878
307.327	50184
307.343	45306
307.381	38362
307.434	36443
307.436	37240
307.491	72023
307.524	108128
307.546	116840
307.600	119218
307.614	104393
307.655	63609
307.704	32132
307.710	30563
307.765	34871
307.795	44065
307.819	49469
307.874	78234
307.885	77280
307.929	59927
307.975	31432
307.984	28320
308.038	22371
308.065	22646
308.093	31254
308.148	57504
308.156	64166
308.202	88925
308.246	110362
308.257	114573
308.312	83880
308.336	81437
308.366	74224
308.421	62228
308.426	59047
308.475	31844
308.517	18289
308.530	16013
308.585	13974
308.607	13936
308.639	17529
308.694	26350
308.697	27151
308.748	56522
308.787	91199
308.803	91905
308.857	70009
308.877	53876
308.912	36666
308.967	23542
308.967	23463
309.021	25474
309.058	29280
309.076	35952
309.130	63705
309.148	75548
309.185	111891
309.238	162004
309.239	161709
309.293	168729
309.328	132439
309.348	113523
309.402	52075
309.418	39599
309.457	26029
309.508	17798
309.511	17431
309.566	16386
309.598	16008
309.620	17025
309.674	22433
309.688	24027
309.729	25420
309.778	24335
309.783	24839
309.837	31582
309.868	37043
309.892	63649
309.946	132450
309.959	152523
310.001	179752
310.049	198826
310.055	193080
310.109	114024
310.139	66791
310.163	49928
310.218	27128
310.229	23723
310.272	18484
310.319	14995
310.326	14616
310.381	13865
310.409	13452
310.435	13228
310.489	12615
310.499	12681
310.543	13958
310.589	15082
310.598	14548
310.652	12388
310.679	10402
310.706	8902
310.760	6472
310.769	6136
310.814	5381
310.859	5211
310.868	5457
310.923	6572
310.948	7394
310.977	8524
311.031	10563
311.038	10879
311.085	10389
311.128	9351
311.139	9147
311.193	8401
311.218	8038
311.247	7590
311.301	6724
311.308	6632
311.356	6669
311.398	6880
311.410	6772
311.464	6127
311.488	5890
311.518	7817
311.572	11342
311.578	11758
311.626	15060
311.668	18113
311.680	17449
311.734	13841
311.758	12240
311.788	11573
311.842	10534
311.847	10442
311.896	14873
311.937	18870
311.950	18401
312.004	16265
312.027	15281
312.058	12754
312.112	8320
312.117	7904
312.165	7862
312.207	7889
312.297	7015
312.386	7828
312.476	16646
312.566	32476
312.656	11170
312.745	6076
312.835	7265
312.925	8737
313.015	8799
313.104	9684
313.194	6981
313.284	9343
313.374	18666
313.463	12202
313.553	7345
313.643	6231
313.732	4304
313.822	5029
313.912	7224
314.001	10607
314.091	6930
314.180	10627
314.270	16045
314.360	22257
314.449	14031
314.539	7075
314.628	5958
314.718	9106
314.808	12255
314.897	6439
314.987	8021
315.076	18285
315.166	19898
315.255	17130
315.345	17744
315.434	18133
315.524	15138
315.613	20433
315.703	24940
315.792	19616
315.881	15419
315.971	19091
316.060	42483
316.150	59789
316.239	54018
316.328	16937
316.418	8094
316.507	12072
316.597	17903
316.686	15119
316.775	35944
316.865	52957
316.954	9429
317.043	6378
317.133	9421
317.222	6649
317.311	8779
317.400	8587
317.490	19886
317.579	17977
317.668	10137
317.757	19166
317.847	21246
317.936	40449
318.025	47863
318.114	19234
318.203	15715
318.293	17072
318.382	17693
318.471	26012
318.560	30804
318.649	46461
318.738	15200
318.828	23946
318.917	21636
319.006	33380
319.095	71852
319.184	90560
319.273	88317
319.362	49786
319.451	20919
319.540	24672
319.629	70018
319.718	69714
319.807	24935
319.896	60302
319.985	113377
320.074	48842
320.163	19484
320.252	34477
320.341	18387
320.430	19221
320.519	38528
320.608	15934
320.697	12190
320.786	16082
320.875	29357
320.964	41998
321.053	69708
321.142	105220
321.230	75721
321.319	83800
321.408	129257
321.497	49273
321.586	57234
321.675	66987
321.764	51897
321.852	44026
321.941	88595
322.030	46391
322.119	78552
322.207	150870
322.296	74455
322.385	38853
322.474	77827
322.562	182449
322.651	67163
322.740	84244
322.829	86081
322.917	87522
323.006	53164
323.095	41637
323.183	32735
323.272	58266
323.361	123017
323.449	244162
323.538	93878
323.626	183878
323.715	84822
323.804	62036
323.892	176718
323.981	77704
324.069	31696
324.158	96901
324.246	63716
324.335	38949
324.424	49115
324.512	23112
324.601	51236
324.689	182469
324.778	230512
324.866	68877
324.954	19242
325.043	24034
325.131	47015
325.220	69372
325.308	70976
325.397	59665
325.485	26148
325.574	9289
325.662	11076
325.750	13532
325.839	8654
325.927	10970
326.015	17248
326.104	39069
326.192	40176
326.280	11057
326.369	12022
326.457	26078
326.545	43169
326.634	13530
326.722	7318
326.810	8831
326.898	8667
326.987	16074
327.075	45242
327.163	39218
327.251	34242
327.340	128068
327.428	120926
327.516	14345
327.604	11477
327.692	13530
327.781	20639
327.869	30272
327.957	21470
328.045	17337
328.133	10154
328.221	16135
328.309	11203
328.397	11990
328.485	16800
328.574	40942
328.662	103136
328.750	46584
328.838	16909
328.926	8258
329.014	9335
329.102	18819
329.190	36308
329.278	20742
329.366	6108
329.454	5067
329.542	5525
329.630	4690
329.718	7846
329.806	12039
329.893	6688
329.981	3846
330.069	4358
330.157	5537
330.245	6218
330.333	7048
330.421	11385
330.509	47179
330.597	132832
330.684	53390
330.772	15845
330.860	17634
330.948	14283
331.036	8888
331.123	4772
331.211	5329
331.299	6897
331.387	20085
331.475	28277
331.562	11930
331.650	6431
331.738	11542
331.825	12728
331.913	6092
332.001	7777
332.089	14355
332.176	35404
332.264	90952
332.352	48856
332.439	14019
332.527	9002
332.614	11523
332.702	13866
332.790	14192
332.877	49989
332.965	57239
333.052	10324
333.140	16010
333.228	20315
333.315	7939
333.403	15946
333.490	48585
333.578	25782
333.665	11263
333.753	10960
333.840	9773
333.928	18433
334.015	50767
334.103	79256
334.190	150239
334.278	29809
334.365	16065
334.452	8556
334.540	7667
334.627	15311
334.715	26154
334.802	84606
334.889	342687
334.977	225422
335.064	21501
335.151	11174
335.239	9877
335.326	15806
335.413	59960
335.501	48997
335.588	11623
335.675	8055
335.762	9779
335.850	12956
335.937	19753
336.024	87303
336.111	253234
336.199	64274
336.286	10179
336.373	5755
336.460	5238
336.547	7838
336.635	13566
336.722	10547
336.809	9362
336.896	26516
336.983	54867
337.070	97327
337.157	118659
337.245	197229
337.332	101036
337.419	13092
337.506	6793
337.593	8679
337.680	28880
337.767	46205
337.854	29438
337.941	41740
338.028	65114
338.115	18917
338.202	20392
338.289	77853
338.376	185088
338.463	43329
338.550	40881
338.637	29041
338.724	44196
338.811	46086
338.898	9706
338.984	6769
339.071	9833
339.158	24892
339.245	58285
339.332	29711
339.419	47426
339.506	29469
339.593	7356
339.679	10430
339.766	9365
339.853	23464
339.940	37317
340.027	10223
340.113	16938
340.200	22485
340.287	13153
340.374	29221
340.460	35446
340.547	18623
340.634	50369
340.720	133793
340.807	47007
340.894	11035
340.980	13619
341.067	11364
341.154	15474
341.240	41812
341.327	53542
341.414	27540
341.500	27783
341.587	11680
341.674	16530
341.760	48798
341.847	41369
341.933	10438
342.020	5458
342.106	6812
342.193	21970
342.279	28721
342.366	32215
342.452	37682
342.539	25652
342.625	82491
342.712	125734
342.798	47322
342.885	16018
342.971	5585
343.058	6317
343.144	9381
343.230	9134
343.317	14342
343.403	8877
343.490	5816
343.576	6220
343.662	12121
343.749	14647
343.835	19204
343.921	59224
344.008	329889
344.094	451498
344.180	84107
344.267	55697
344.353	175832
344.439	127153
344.525	56484
344.612	26056
344.698	20942
344.784	11633
344.870	10329
344.957	16389
345.043	20775
345.129	24097
345.215	38071
345.301	25114
345.387	12922
345.474	5778
345.560	7588
345.646	11387
345.732	10800
345.818	20705
345.904	15770
345.990	14464
346.076	22081
346.162	34640
346.249	13634
346.335	9070
346.421	17393
346.507	101058
346.593	189547
346.679	32257
346.765	9445
346.851	10849
346.937	9920
347.023	9830
347.108	16048
347.194	12919
347.280	13311
347.366	22121
347.452	95694
347.538	256169
347.624	181382
347.710	109779
347.796	16541
347.882	8404
347.967	7196
348.053	7936
348.139	7908
348.225	8935
348.311	10119
348.397	9126
348.482	16949
348.568	13856
348.654	5741
348.740	5932
348.825	9339
348.911	36651
348.997	163593
349.083	185271
349.168	27397
349.254	21039
349.340	15245
349.425	10230
349.511	18629
349.597	19603
349.682	66522
349.768	147990
349.854	44079
349.939	9285
350.025	9400
350.110	7833
350.196	10699
350.282	6230
350.367	8398
350.453	26535
350.538	21561
350.624	19533
350.709	11555
350.795	9678
350.880	10049
350.966	16776
351.051	26350
351.137	15128
351.222	18104
351.308	73443
351.393	115020
351.479	33370
351.564	14010
351.649	10723
351.735	6664
351.820	8365
351.906	10288
351.991	26132
352.076	111272
352.162	98884
352.247	21379
352.332	23998
352.418	51509
352.503	75573
352.588	221018
352.673	119935
352.759	31904
352.844	14589
352.929	25962
353.014	25365
353.100	10830
353.185	18081
353.270	55310
353.355	37634
353.441	12461
353.526	22887
353.611	57818
353.696	47115
353.781	27257
353.866	12546
353.952	20195
354.037	67346
354.122	111845
354.207	86862
354.292	22649
354.377	11846
354.462	11290
354.547	20248
354.632	12855
354.717	10215
354.802	7497
354.887	6521
354.972	6705
355.057	6953
355.142	8047
355.227	17800
355.312	38376
355.397	96787
355.482	170526
355.567	59890
355.652	61108
355.737	72856
355.822	199242
355.907	101197
355.991	18371
356.076	10989
356.161	9805
356.246	9289
356.331	16372
356.416	73845
356.501	336199
356.585	221341
356.670	35535
356.755	23348
356.840	52464
356.924	287042
357.009	666386
357.094	179737
357.179	53177
357.263	28690
357.348	36524
357.433	30766
357.517	31719
357.602	20370
357.687	13388
357.771	14601
357.856	23929
357.941	39967
358.025	232782
358.110	623692
358.195	202699
358.279	37360
358.364	47806
358.448	186829
358.533	345930
358.617	235039
358.702	215397
358.787	71065
358.871	52898
358.956	31701
359.040	9815
359.125	8178
359.209	9215
359.294	14631
359.378	23213
359.462	33614
359.547	17900
359.631	12502
359.716	10155
359.800	10425
359.885	16401
359.969	12765
360.053	7466
360.138	11776
360.222	31678
360.306	51354
360.391	28814
360.475	61573
360.559	104310
360.644	136893
360.728	81177
360.812	221596
360.896	387200
360.981	146102
361.065	58708
361.149	22110
361.233	21529
361.318	16109
361.402	17673
361.486	16215
361.570	15009
361.654	30025
361.739	100037
361.823	353200
361.907	348531
361.991	59123
362.075	59131
362.159	100132
362.243	49636
362.327	31351
362.411	23270
362.495	22229
362.580	10834
362.664	7926
362.748	7681
362.832	7811
362.916	11964
363.000	59076
363.084	312171
363.168	396249
363.252	76811
363.336	32438
363.420	52030
363.503	94994
363.587	68552
363.671	25723
363.755	30094
363.839	34476
363.923	19741
364.007	53831
364.091	39541
364.175	45482
364.258	106340
364.342	42619
364.426	21393
364.510	22176
364.594	34698
364.677	115455
364.761	396224
364.845	192309
364.929	91468
365.013	63339
365.096	66327
365.180	54443
365.264	54157
365.347	110207
365.431	34432
365.515	20853
365.598	16198
365.682	12168
365.766	14168
365.849	13959
365.933	20157
366.017	15965
366.100	6549
366.184	7358
366.267	11143
366.351	9784
366.435	8243
366.518	6528
366.602	7700
366.685	13165
366.769	15187
366.852	24527
366.936	44502
367.019	24405
367.103	11870
367.186	12058
367.270	7033
367.353	6952
367.436	8883
367.520	9070
367.603	18773
367.687	41197
367.770	54547
367.853	37237
367.937	138992
368.020	149015
368.104	40230
368.187	53013
368.270	59579
368.353	53035
368.437	84818
368.520	146154
368.603	90771
368.687	173549
368.770	200587
368.853	47062
368.936	47757
369.020	26798
369.103	12646
369.186	6782
369.269	13489
369.352	48479
369.436	48077
369.519	24674
369.602	9107
369.685	17660
369.768	17385
369.851	11412
369.934	8847
370.018	25991
370.101	53304
370.184	25595
370.267	16397
370.350	35683
370.433	69332
370.516	208297
370.599	160333
370.682	73773
370.765	141400
370.848	185741
370.931	268006
371.014	61891
371.097	17193
371.180	10563
371.263	6513
371.346	3917
371.429	6660
371.511	12291
371.594	33151
371.677	31053
371.760	23291
371.843	54710
371.926	296046
372.009	431950
372.091	110258
372.174	141727
372.257	244235
372.340	68490
372.423	47166
372.505	30779
372.588	29923
372.671	138934
372.754	295093
372.836	94809
372.919	46734
373.002	58063
373.085	32340
373.167	57072
373.250	156853
373.332	277468
373.415	433172
373.498	644617
373.580	200620
373.663	343655
373.746	327685
373.828	73043
373.911	32738
373.993	38365
374.076	73175
374.159	61750
374.241	106563
374.324	258318
374.406	135839
374.489	299190
374.571	557468
374.654	174654
374.736	153734
374.819	401250
374.901	552265
374.983	413252
375.066	56858
375.148	25642
375.231	72288
375.313	92310
375.395	36066
375.478	13473
375.560	14422
375.643	33999
375.725	170985
375.807	498680
375.890	289776
375.972	120482
376.054	84856
376.136	109431
376.219	52843
376.301	199567
376.383	383826
376.465	122327
376.548	108608
376.630	158556
376.712	338525
376.794	103058
376.877	14944
376.959	12849
377.041	13322
377.123	14048
377.205	11192
377.287	5833
377.369	8314
377.452	9943
377.534	10070
377.616	12164
377.698	10943
377.780	9751
377.862	12486
377.944	11047
378.026	5027
378.108	7525
378.190	8537
378.272	7446
378.354	5163
378.436	6172
378.518	21840
378.600	53022
378.682	77434
378.764	189960
378.846	95108
378.928	36872
379.010	47213
379.091	19103
379.173	11676
379.255	12543
379.337	30331
379.419	122938
379.501	230952
379.583	60043
379.664	31320
379.746	88670
379.828	193226
379.910	238075
379.991	153200
380.073	24445
380.155	20020
380.237	12439
380.318	8942
380.400	16167
380.482	49492
380.564	56636
380.645	48444
380.727	38908
380.809	22589
380.890	15065
380.972	9264
381.053	12590
381.135	21078
381.217	87706
381.298	170277
381.380	63502
381.461	108802
381.543	410182
381.624	324305
381.706	48295
381.787	23652
381.869	37879
381.951	219913
382.032	577133
382.113	248499
382.195	44741
382.276	30479
382.358	132186
382.439	307931
382.521	371048
382.602	462327
382.684	216317
382.765	402486
382.846	177921
382.928	54949
383.009	25412
383.090	28375
383.172	74158
383.253	97374
383.334	184967
383.416	390565
383.497	122749
383.578	29478
383.659	33924
383.741	78362
383.822	149675
383.903	104970
383.984	285976
384.066	527992
384.147	238573
384.228	42002
384.309	39131
384.390	19013
384.471	16022
384.553	24940
384.634	40426
384.715	30480
384.796	13584
384.877	45360
384.958	181741
385.039	159598
385.120	47450
385.201	22587
385.282	21301
385.363	16485
385.444	19279
385.525	73105
385.606	243991
385.687	141988
385.768	30788
385.849	73269
385.930	310659
386.011	356832
386.092	69797
386.173	19018
386.254	13704
386.335	15351
386.416	29579
386.496	126104
386.577	138514
386.658	39048
386.739	24787
386.820	15364
386.901	14252
386.981	13276
387.062	15083
387.143	64519
387.224	187426
387.304	111122
387.385	34360
387.466	12531
387.547	13243
387.627	16880
387.708	98733
387.789	351104
387.869	303082
387.950	56015
388.031	11792
388.111	9756
388.192	22761
388.273	32110
388.353	23795
388.434	22957
388.514	91379
388.595	321574
388.676	316246
388.756	151517
388.837	165021
388.917	64649
388.998	11850
389.078	12169
389.159	13927
389.239	15717
389.320	29587
389.400	26734
389.480	83388
389.561	168831
389.641	55922
389.722	34198
389.802	49910
389.883	97218
389.963	208490
390.043	89218
390.124	26429
390.204	83926
390.284	199193
390.365	87193
390.445	110121
390.525	323788
390.605	250069
390.686	71839
390.766	20289
390.846	10454
390.927	8828
391.007	9337
391.087	9242
391.167	5653
391.247	8991
391.328	24216
391.408	20060
391.488	9046
391.568	8171
391.648	23788
391.728	28558
391.808	29392
391.888	38759
391.969	114666
392.049	127401
392.129	37878
392.209	91551
392.289	183695
392.369	58378
392.449	24724
392.529	22207
392.609	25705
392.689	67597
392.769	198056
392.849	106296
392.929	88871
393.009	214134
393.089	98084
393.169	28287
393.248	120823
393.328	466535
393.408	344526
393.488	48424
393.568	19651
393.648	10873
393.728	7402
393.807	4333
393.887	5225
393.967	5021
394.047	11838
394.127	13260
394.206	17473
394.286	60638
394.366	208479
394.446	141923
394.525	20873
394.605	8313
394.685	20446
394.764	47468
394.844	65806
394.924	36662
395.003	21695
395.083	17429
395.163	13965
395.242	15391
395.322	11080
395.402	4387
395.481	12012
395.561	48038
395.640	96126
395.720	60671
395.799	69907
395.879	31927
395.958	13542
396.038	85046
396.117	314213
396.197	220424
396.276	42441
396.356	18654
396.435	16755
396.515	17663
396.594	35423
396.673	48664
396.753	156457
396.832	441045
396.912	362975
396.991	99978
397.070	24163
397.150	13594
397.229	6065
397.308	4710
397.388	6163
397.467	5547
397.546	5323
397.625	8593
397.705	19599
397.784	20291
397.863	6130
397.942	2816
398.022	6533
398.101	32551
398.180	60277
398.259	20048
398.338	13503
398.417	12139
398.497	6620
398.576	8630
398.655	3549
398.734	2967
398.813	5400
398.892	33097
398.971	69489
399.050	20263
399.129	1859
399.208	3384
399.287	4137
399.366	2924
399.445	4618
399.524	6548
399.603	8693
399.682	31229
399.761	62718
399.840	92805
399.919	40781
399.998	6777
400.077	4030
400.156	4852
400.235	5862
400.313	5329
400.392	25824
400.471	123597
400.550	125762
400.629	26066
400.708	11222
400.786	7477
400.865	17300
400.944	20377
401.023	12298
401.102	2975
401.180	3142
401.259	3763
401.338	8491
401.416	16167
401.495	9560
401.574	5648
401.652	7234
401.731	8837
401.810	3967
401.888	1799
401.967	2137
402.046	3529
402.124	14306
402.203	17077
402.281	5259
402.360	7494
402.438	19595
402.517	8977
402.596	4210
402.674	3317
402.753	2971
402.831	3017
402.910	5351
402.988	13609
403.066	16414
403.145	9501
403.223	11049
403.302	6225
403.380	3899
403.459	3751
403.537	2871
403.615	2529
403.694	1166
403.772	2042
403.850	2205
403.929	2744
404.007	4484
404.085	6258
404.164	2948
404.242	2764
404.320	9864
404.398	27440
404.477	150164
404.555	492087
404.633	271562
404.711	30542
404.789	6939
404.868	3716
404.946	2586
405.024	3451
405.102	2870
405.180	3484
405.258	3810
405.336	4298
405.415	5335
405.493	9863
405.571	4500
405.649	2698
405.727	4308
405.805	7595
405.883	6206
405.961	6294
406.039	5560
406.117	7266
406.195	30600
406.273	169923
406.351	394496
406.429	139812
406.507	17304
406.585	7614
406.663	16004
406.740	20984
406.818	14098
406.896	5764
406.974	11835
407.052	63166
407.130	282849
407.208	250921
407.285	35236
407.363	10287
407.441	8923
407.519	7375
407.596	14080
407.674	17966
407.752	12227
407.830	15624
407.907	8768
407.985	6787
408.063	4328
408.141	2878
408.218	4887
408.296	3482
408.373	7072
408.451	14696
408.529	12014
408.606	3544
408.684	2655
408.762	1252
408.839	1367
408.917	750
408.994	906
409.072	408
409.149	1540
409.227	2749
409.304	877
409.382	467
409.459	996
409.537	4580
409.614	5220
409.692	2728
409.769	4378
409.846	3668
409.924	3496
410.001	1950
410.079	4296
410.156	3071
410.233	3192
410.311	3762
410.388	3691
410.465	2416
410.543	787
410.620	3757
410.697	10988
410.775	10799
410.852	3076
410.929	9409
411.006	8715
411.083	2581
411.161	3581
411.238	6831
411.315	4257
411.392	4082
411.469	5644
411.547	2278
411.624	440
411.701	3146
411.778	18582
411.855	34117
411.932	9842
412.009	5022
412.086	5056
412.163	7064
412.240	6219
412.317	4440
412.394	2804
412.471	3518
412.548	5251
412.625	6511
412.702	8912
412.779	12415
412.856	3990
412.933	2104
413.010	5048
413.087	26899
413.164	113643
413.241	100191
413.318	20654
413.395	17928
413.471	22408
413.548	6815
413.625	6966
413.702	8952
413.779	3643
413.855	1316
413.932	1203
414.009	942
414.086	2420
414.162	4641
414.239	24091
414.316	126613
414.393	185310
414.469	41522
414.546	5177
414.623	3678
414.699	7027
414.776	9215
414.853	4261
414.929	7017
415.006	4783
415.082	4023
415.159	4843
415.236	5785
415.312	11136
415.389	30102
415.465	30016
415.542	11020
415.618	12519
415.695	20007
415.771	14312
415.848	10562
415.924	5681
416.000	2387
416.077	2403
416.153	1203
416.230	96
416.306	1738
416.383	2521
416.459	1854
416.535	875
416.612	788
416.688	1198
416.764	2264
416.841	986
416.917	1448
416.993	3181
417.069	9689
417.146	10121
417.222	12160
417.298	8581
417.374	5487
417.451	8222
417.527	16401
417.603	14362
417.679	8731
417.755	5959
417.831	2644
417.908	2209
417.984	2773
418.060	8392
418.136	33928
418.212	29395
418.288	7835
418.364	5132
418.440	9979
418.516	11508
418.592	15784
418.668	49353
418.744	68739
418.820	34149
418.896	7627
418.972	3222
419.048	11528
419.124	32454
419.200	16036
419.276	2599
419.352	961
419.428	4110
419.504	11236
419.579	12570
419.655	6986
419.731	16710
419.807	61243
419.883	85262
419.959	39133
420.034	12090
420.110	49064
420.186	141541
420.262	63680
420.337	12980
420.413	9575
420.489	3753
420.565	3330
420.640	3431
420.716	5097
420.792	2515
420.867	4272
420.943	5653
421.019	18205
421.094	8064
421.170	1803
421.245	397
421.321	3490
421.397	2120
421.472	3423
421.548	7594
421.623	10931
421.699	7371
421.774	8314
421.850	9018
421.925	22698
422.001	9950
422.076	3560
422.152	9651
422.227	17204
422.302	6518
422.378	11170
422.453	15245
422.529	24963
422.604	96916
422.679	180322
422.755	85832
422.830	17562
422.905	3708
422.981	1936
423.056	943
423.131	1118
423.207	3368
423.282	16595
423.357	36228
423.432	14096
423.508	26819
423.583	69115
423.658	28500
423.733	8180
423.808	13375
423.883	18490
423.959	9966
424.034	3795
424.109	1311
424.184	863
424.259	1628
424.334	2153
424.409	1551
424.484	4072
424.559	5466
424.634	5748
424.709	14813
424.784	14638
424.859	8046
424.934	32588
425.009	118628
425.084	134852
425.159	29842
425.234	3449
425.309	682
425.384	3173
425.459	3178
425.534	2238
425.609	2172
425.683	1596
425.758	2009
425.833	4873
425.908	15583
425.983	91508
426.058	149986
426.132	36334
426.207	5261
426.282	6595
426.357	2813
426.431	2816
426.506	2758
426.581	2101
426.655	2978
426.730	4412
426.805	3900
426.879	4181
426.954	6226
427.029	39331
427.103	200423
427.178	328362
427.253	90817
427.327	9964
427.402	6729
427.476	8169
427.551	2945
427.625	3135
427.700	1211
427.774	1351
427.849	2577
427.923	809
427.998	1037
428.072	2073
428.147	13577
428.221	39726
428.296	24244
428.370	3398
428.444	2733
428.519	7391
428.593	11928
428.667	9303
428.742	10916
428.816	9628
428.890	15884
428.965	14389
429.039	13461
429.113	13202
429.188	3959
429.262	3970
429.336	30020
429.410	70414
429.485	24848
429.559	10704
429.633	5102
429.707	2760
429.781	12032
429.855	49933
429.930	73371
430.004	54015
430.078	57401
430.152	27831
430.226	13434
430.300	7280
430.374	2185
430.448	6298
430.522	33045
430.596	60321
430.670	53747
430.744	226382
430.818	260866
430.892	47709
430.966	8038
431.040	3123
431.114	954
431.188	1000
431.262	2064
431.336	3010
431.410	12222
431.484	34797
431.557	18019
431.631	2013
431.705	406
431.779	2672
431.853	6401
431.927	2561
432.000	1012
432.074	1730
432.148	3067
432.222	2326
432.295	2429
432.369	4089
432.443	25197
432.516	179408
432.590	311332
432.664	74529
432.737	8875
432.811	1700
432.885	347
432.958	980
433.032	1386
433.106	35
433.179	585
433.253	577
433.326	399
433.400	-637
433.473	140
433.547	163
433.620	5768
433.694	17567
433.767	10308
433.841	2882
433.914	503
433.988	222
434.061	343
434.134	393
434.208	-751
434.281	-216
434.355	675
434.428	1202
434.501	64
434.575	19
434.648	362
434.721	134
434.795	33
434.868	-533
434.941	-864
435.014	-554
435.088	-291
435.161	3304
435.234	9633
435.307	8407
435.381	1217
435.454	-502
435.527	-76
435.600	-1000
435.673	-439
435.746	-2
435.819	1387
435.892	263
435.966	-420
436.039	-213
436.112	254
436.185	-720
436.258	-822
436.331	-770
436.404	-848
436.477	-953
436.550	-540
436.623	135
436.696	1736
436.769	4222
436.842	1877
436.915	4202
436.987	6729
437.060	1197
437.133	-55
437.206	-211
437.279	913
437.352	874
437.425	463
437.498	4426
437.570	17536
437.643	11678
437.716	1557
437.789	610
437.861	1635
437.934	3628
438.007	1962
438.080	1755
438.152	6124
438.225	34119
438.298	240759
438.370	430754
438.443	111664
438.516	13484
438.588	3185
438.661	2046
438.734	2115
438.806	6042
438.879	5106
438.951	2015
439.024	2622
439.096	2141
439.169	1540
439.241	233
439.314	825
439.386	2898
439.459	8141
439.531	11233
439.604	2136
439.676	408
439.749	640
439.821	-187
439.893	620
439.966	2306
440.038	1759
440.110	3749
440.183	2359
440.255	3470
440.327	12553
440.400	101567
440.472	305086
440.544	132038
440.617	14444
440.689	5567
440.761	7193
440.833	9431
440.905	4390
440.978	680
441.050	342
441.122	1294
441.194	516
441.266	595
441.338	1831
441.411	21793
441.483	119446
441.555	111540
441.627	17810
441.699	5179
441.771	4129
441.843	1887
441.915	-322
441.987	-14
442.059	-458
442.131	867
442.203	5249
442.275	7547
442.347	2651
442.419	1151
442.491	2179
442.563	4097
442.635	8619
442.706	26590
442.778	18508
442.850	2263
442.922	205
442.994	3129
443.066	7045
443.137	2995
443.209	291
443.281	3849
443.353	5583
443.425	5703
443.496	6567
443.568	4119
443.640	1553
443.711	643
443.783	439
443.855	227
443.926	412
443.998	648
444.070	1840
444.141	3902
444.213	14994
444.285	18153
444.356	13567
444.428	7322
444.499	987
444.571	-271
444.642	874
444.714	6358
444.785	11862
444.857	8206
444.928	9368
445.000	5596
445.071	7128
445.143	4650
445.214	1162
445.285	4976
445.357	12812
445.428	15114
445.500	19149
445.571	12425
445.642	5399
445.714	11248
445.785	12232
445.856	10063
445.928	15335
445.999	6160
446.070	2670
446.141	9888
446.213	9748
446.284	1829
446.355	1479
446.426	568
446.497	1594
446.569	5824
446.640	19430
446.711	14442
446.782	4790
446.853	9814
446.924	10756
446.995	5290
447.066	3203
447.138	2209
447.209	839
447.280	19
447.351	-1011
447.422	-6
447.493	1833
447.564	11786
447.635	17315
447.706	4557
447.777	-126
447.847	15
447.918	-309
447.989	2552
448.060	3697
448.131	9865
448.202	16626
448.273	13070
448.344	3740
448.414	3156
448.485	3462
448.556	2114
448.627	251
448.698	217
448.768	-693
448.839	1442
448.910	3474
448.981	4535
449.051	2498
449.122	899
449.193	-179
449.263	178
449.334	588
449.405	9280
449.475	20812
449.546	8596
449.616	3718
449.687	1510
449.758	-22
449.828	-1057
449.899	-909
449.969	-488
450.040	548
450.110	4204
450.181	4541
450.251	83
450.322	-665
450.392	463
450.463	-531
450.533	-670
450.604	-750
450.674	-497
450.744	-372
450.815	-486
450.885	285
450.955	53
451.026	-538
451.096	-296
451.166	854
451.237	4532
451.307	8262
451.377	2719
451.447	783
451.518	-408
451.588	-251
451.658	-105
451.728	2597
451.799	12523
451.869	9377
451.939	1852
452.009	212
452.079	-555
452.149	175
452.219	3238
452.289	13066
452.360	6828
452.430	1522
452.500	5047
452.570	5092
452.640	3789
452.710	8041
452.780	14594
452.850	40720
452.920	34957
452.990	8741
453.060	4436
453.129	9136
453.199	8406
453.269	25605
453.339	40431
453.409	55304
453.479	61635
453.549	75443
453.619	66714
453.688	22043
453.758	2296
453.828	1323
453.898	947
453.968	-206
454.037	357
454.087	201
454.107	110
454.168	-577
454.177	-717
454.247	304
454.249	329
454.316	244
454.330	491
454.386	1286
454.411	3819
454.456	7044
454.492	6976
454.525	6843
454.574	3522
454.595	2208
454.655	1024
454.665	878
454.734	4391
454.736	4656
454.804	10100
454.817	12583
454.873	20127
454.898	22093
454.943	22597
454.979	18714
455.013	15173
455.060	8710
455.082	7012
455.141	7836
455.152	8009
455.221	19769
455.222	20252
455.291	39815
455.303	44752
455.360	57220
455.384	70665
455.430	75320
455.465	56556
455.499	43311
455.546	27535
455.569	20720
455.627	13881
455.638	12839
455.707	3964
455.708	3992
455.777	913
455.789	1067
455.846	1644
455.869	1337
455.916	951
455.950	1277
455.985	1343
456.031	1408
456.054	1332
456.112	1661
456.124	1832
456.193	1903
456.193	1863
456.262	4836
456.274	5618
456.332	8630
456.355	10358
456.401	10193
456.436	8166
456.470	6358
456.516	3591
456.540	2858
456.597	2130
456.609	1917
456.678	2025
456.678	1998
456.747	1064
456.759	1061
456.817	1149
456.840	1298
456.886	1526
456.920	1534
456.955	1735
457.001	2686
457.024	4838
457.082	9711
457.093	10788
457.162	21274
457.163	21468
457.232	21662
457.243	20391
457.301	8827
457.324	4422
457.370	2397
457.405	2371
457.439	2212
457.485	2606
457.508	2708
457.566	2029
457.577	1908
457.646	2712
457.647	2728
457.715	2167
457.727	2238
457.784	2362
457.808	2384
457.853	2912
457.889	3407
457.922	3687
457.969	4024
457.991	4161
458.050	5024
458.060	5085
458.129	6134
458.130	6160
458.198	4888
458.211	4660
458.267	3787
458.292	3818
458.336	4687
458.372	5080
458.405	4866
458.453	5238
458.474	5550
458.533	6139
458.543	6276
458.611	7160
458.614	7253
458.680	6080
458.694	5629
458.749	4575
458.775	3930
458.818	3046
458.855	3070
458.887	3828
458.936	4615
458.955	4675
459.016	5594
459.024	5637
459.093	5800
459.097	5802
459.162	8245
459.177	9206
459.230	12405
459.257	14295
459.299	12374
459.338	8593
459.368	7292
459.418	5875
459.437	5720
459.499	6629
459.505	6692
459.574	7246
459.579	7274
459.643	6553
459.659	6424
459.711	7431
459.740	8129
459.780	9121
459.820	10109
459.849	9576
459.900	8457
459.917	8373
459.981	7776
459.986	7648
460.054	6548
460.061	6448
460.123	8586
460.141	9398
460.191	15626
460.222	19873
460.260	22835
460.302	26954
460.328	22568
460.382	9721
460.397	8975
460.462	6261
460.465	6156
460.534	6017
460.543	5938
460.602	6751
460.623	7302
460.671	9849
460.703	11674
460.739	12105
460.783	12103
460.808	10452
460.864	6523
460.876	6654
460.944	7492
460.945	7514
461.013	10235
461.024	10822
461.081	16042
461.104	18472
461.150	16271
461.184	13390
461.218	11628
461.264	9248
461.286	9139
461.345	9934
461.355	9787
461.423	7990
461.425	7948
461.491	8199
461.505	8370
461.559	16957
461.585	21003
461.628	36242
461.665	50430
461.696	54940
461.745	63431
461.764	53696
461.825	17364
461.832	17254
461.901	16563
461.905	16689
461.969	13250
461.985	12041
462.037	9618
462.065	8508
462.105	9344
462.145	10359
462.173	16106
462.225	26962
462.241	30116
462.305	43660
462.310	42322
462.378	20144
462.385	17547
462.446	14597
462.465	13896
462.514	13166
462.545	12733
462.582	10485
462.625	7701
462.650	7393
462.705	6800
462.718	7201
462.785	9656
462.786	9774
462.854	16366
462.865	17494
462.922	22873
462.945	25030
462.990	18308
463.025	12566
463.058	10715
463.104	8255
463.126	8721
463.184	9869
463.194	10233
463.262	13072
463.264	13187
463.330	12350
463.344	11930
463.398	12268
463.424	12400
463.466	12595
463.504	13213
463.533	13702
463.583	14138
463.601	15691
463.663	20932
463.669	21836
463.737	33077
463.743	34041
463.805	40898
463.823	42662
463.873	55456
463.903	63532
463.940	65715
463.982	67962
464.008	53339
464.062	21129
464.076	19735
464.142	12885
464.144	12864
464.211	12299
464.221	12262
464.279	15841
464.301	17196
464.347	18798
464.381	19961
464.414	20500
464.461	21079
464.482	21567
464.540	22915
464.550	22739
464.617	20916
464.620	20828
464.685	27597
464.699	29209
464.753	27924
464.779	26906
464.820	20974
464.859	15122
464.888	15363
464.938	16066
464.956	16499
465.018	18342
465.023	17992
465.091	12419
465.098	11853
465.158	11908
465.177	11973
465.226	12924
465.257	13394
465.293	17226
465.336	21692
465.361	27401
465.416	40481
465.428	41191
465.495	44822
465.496	44951
465.563	53488
465.575	54932
465.631	64816
465.654	69028
465.698	41459
465.734	18157
465.765	15362
465.813	11146
465.833	11003
465.893	10851
465.900	10898
465.968	11154
465.972	11153
466.035	11567
466.052	11627
466.102	12731
466.131	13367
466.170	13586
466.210	13719
466.237	13772
466.290	13786
466.304	14033
466.369	14992
466.372	15053
466.439	15925
466.449	16013
466.506	19578
466.528	20919
466.573	32995
466.607	41970
466.641	66816
466.687	101244
466.708	112171
466.766	141985
466.775	131828
466.842	52965
466.845	49118
466.909	28803
466.925	23918
466.977	19312
467.004	16895
467.044	16341
467.083	15716
467.111	17111
467.163	19652
467.178	20788
467.242	25293
467.245	25485
467.312	28277
467.321	28584
467.379	24083
467.400	22367
467.446	23206
467.480	23727
467.559	21888
467.638	18781
467.717	23951
467.796	41134
467.875	57989
467.955	32587
468.034	35914
468.113	88054
468.192	130061
468.271	29902
468.350	15666
468.429	14196
468.508	13865
468.588	14567
468.667	16944
468.746	19055
468.825	19420
468.904	19214
468.983	27059
469.062	45024
469.141	58421
469.220	20286
469.299	19048
469.378	17708
469.456	17166
469.535	16908
469.614	18870
469.693	21308
469.772	29290
469.851	42839
469.930	31642
470.009	22400
470.088	20288
470.166	19147
470.245	24755
470.324	28949
470.403	23876
470.482	24764
470.560	22985
470.639	35872
470.718	54476
470.797	31572
470.875	32013
470.954	40987
471.033	44574
471.111	16247
471.190	14242
471.269	13062
471.347	14678
471.426	16436
471.505	16532
471.583	14585
471.662	13118
471.740	13912
471.819	14013
471.898	13481
471.976	13251
472.055	14093
472.133	16041
472.212	22383
472.290	23852
472.369	14194
472.447	12668
472.526	12429
472.604	15923
472.683	21345
472.761	29184
472.839	26764
472.918	19631
472.996	17634
473.075	22775
473.153	21212
473.231	17168
473.310	26367
473.388	26996
473.466	21128
473.545	36104
473.623	72685
473.701	72795
473.780	19418
473.858	12552
473.936	16644
474.014	17781
474.093	23441
474.171	35281
474.249	47297
474.327	29733
474.405	15899
474.484	20767
474.562	25363
474.640	20496
474.718	20738
474.796	19845
474.874	16317
474.952	15510
475.030	13978
475.108	13544
475.187	14966
475.265	14599
475.343	15053
475.421	15321
475.499	14360
475.577	17603
475.655	26197
475.733	57963
475.811	102329
475.889	91065
475.966	57414
476.044	14568
476.122	15488
476.200	16910
476.278	17164
476.356	16625
476.434	17743
476.512	17828
476.590	20497
476.667	19804
476.745	19813
476.823	24647
476.901	19432
476.979	18001
477.056	17257
477.134	18699
477.212	21721
477.290	23246
477.367	14456
477.445	13431
477.523	14006
477.601	16032
477.678	14493
477.756	19241
477.834	23753
477.911	17992
477.989	18080
478.066	14533
478.144	15683
478.222	14384
478.299	15010
478.377	15671
478.454	12979
478.532	15730
478.609	24452
478.687	29652
478.764	18172
478.842	26109
478.919	38432
478.997	30335
479.074	15245
479.152	19778
479.229	26326
479.307	16454
479.384	11972
479.461	12495
479.539	15049
479.616	17835
479.694	16421
479.771	19660
479.848	22113
479.926	31214
480.003	34945
480.080	19394
480.157	14375
480.235	18226
480.312	18669
480.389	20331
480.467	39240
480.544	45513
480.621	18578
480.698	18019
480.775	22142
480.853	23092
480.930	16129
481.007	15725
481.084	18878
481.161	18201
481.238	18583
481.315	13687
481.392	12642
481.470	14175
481.547	12772
481.624	12763
481.701	14239
481.778	14987
481.855	16741
481.932	25149
482.009	49341
482.086	30968
482.163	13636
482.240	12742
482.317	15455
482.393	15797
482.470	15425
482.547	17552
482.624	14526
482.701	15951
482.778	15444
482.855	12358
482.932	12584
483.009	12365
483.085	14341
483.162	17010
483.239	17011
483.316	13045
483.393	13286
483.469	14531
483.546	19644
483.623	20650
483.699	15776
483.776	17589
483.853	24239
483.930	32875
484.006	77147
484.083	124001
484.160	35533
484.236	28531
484.313	28541
484.389	23280
484.466	19252
484.543	17410
484.619	18001
484.696	19771
484.772	24599
484.849	30720
484.925	20836
485.002	18380
485.078	20446
485.155	20836
485.231	19613
485.308	19330
485.384	22781
485.461	34729
485.537	77919
485.614	93083
485.690	31196
485.766	28386
485.843	45140
485.919	118516
485.995	133568
486.072	26137
486.148	20961
486.224	21713
486.301	26603
486.377	33869
486.453	27275
486.530	24963
486.606	28331
486.682	32167
486.758	59020
486.835	78894
486.911	65351
486.987	131976
487.063	273035
487.139	467148
487.215	271213
487.292	55748
487.368	27313
487.444	26281
487.520	31775
487.596	28192
487.672	30962
487.748	79373
487.824	122889
487.900	33343
487.976	20504
488.052	27566
488.128	40406
488.204	39088
488.280	27580
488.356	32052
488.432	90947
488.508	158473
488.584	59552
488.660	45994
488.736	44843
488.812	59561
488.888	82717
488.964	137543
489.039	460553
489.115	766750
489.191	375283
489.267	42055
489.343	27739
489.418	20672
489.494	17461
489.570	17363
489.646	22617
489.722	21213
489.797	23751
489.873	41086
489.949	108526
490.024	86660
490.100	23939
490.176	24069
490.251	63908
490.327	113427
490.403	35534
490.478	17917
490.554	16649
490.629	14720
490.705	20856
490.781	26109
490.856	27182
490.932	42904
491.007	59449
491.083	41455
491.158	29160
491.234	32666
491.309	80229
491.385	80698
491.460	30938
491.536	36633
491.611	41225
491.686	58125
491.762	101885
491.837	300609
491.913	487520
491.988	693090
492.063	934499
492.139	135403
492.214	48228
492.289	29980
492.365	45915
492.440	45794
492.515	36632
492.590	25076
492.666	23942
492.741	38999
492.816	56030
492.891	28901
492.967	26366
493.042	30438
493.117	31144
493.192	41528
493.267	89883
493.342	359851
493.418	486510
493.493	56538
493.568	23305
493.643	23105
493.718	35090
493.793	75545
493.868	115096
493.943	67745
494.018	28578
494.093	18888
494.168	21790
494.243	20455
494.318	16206
494.393	15985
494.468	15852
494.543	22899
494.618	40195
494.693	25534
494.768	19147
494.842	18924
494.917	19909
494.992	25637
495.067	21190
495.142	22313
495.217	30480
495.292	34899
495.366	43890
495.441	63904
495.516	85607
495.591	139857
495.665	644599
495.740	1697200
495.815	565315
495.890	51821
495.964	28970
496.039	26681
496.114	22559
496.188	23903
496.263	23694
496.338	22392
496.412	26474
496.487	34269
496.561	63577
496.636	64892
496.710	30458
496.785	40936
496.860	36665
496.934	29493
497.009	36377
497.083	24184
497.158	20458
497.232	31021
497.307	48975
497.381	25185
497.455	29114
497.530	43708
497.604	26394
497.679	29508
497.753	51660
497.827	72631
497.902	61487
497.976	68463
498.050	167953
498.125	754111
498.199	771259
498.273	178610
498.348	134499
498.422	87499
498.496	92107
498.570	80609
498.645	34769
498.719	33165
498.793	48171
498.867	86596
498.941	101115
499.016	275499
499.090	817925
499.164	249529
499.238	30941
499.312	31424
499.386	53592
499.460	37475
499.534	28627
499.609	36219
499.683	54522
499.757	55906
499.831	116216
499.905	511571
499.979	454530
500.053	81100
500.127	129481
500.201	146836
500.275	55590
500.349	43456
500.422	51636
500.496	110167
500.570	304406
500.644	385488
500.718	544463
500.792	115048
500.866	34832
500.940	40717
501.013	37521
501.087	44718
501.161	112023
501.235	127599
501.309	156419
501.382	440839
501.456	403327
501.530	118851
501.603	140554
501.677	53702
501.751	36010
501.825	64028
501.898	64588
501.972	171087
502.046	99038
502.119	41863
502.193	105382
502.266	204306
502.340	83866
502.413	75548
502.487	155638
502.561	95710
502.634	41347
502.708	56682
502.781	46560
502.855	28828
502.928	18249
503.002	17668
503.075	17170
503.149	19608
503.222	19765
503.295	22047
503.369	28061
503.442	36628
503.516	122760
503.589	329695
503.662	196278
503.736	59455
503.809	147719
503.882	111988
503.956	161897
504.029	147606
504.102	104336
504.175	95064
504.249	25321
504.322	23360
504.395	27392
504.468	18571
504.542	17995
504.615	14596
504.688	17074
504.761	20957
504.834	33843
504.907	57261
504.980	122063
505.053	37485
505.127	58547
505.200	53040
505.273	31882
505.346	20859
505.419	16274
505.492	16076
505.565	13624
505.638	15185
505.711	14772
505.784	13845
505.857	13083
505.930	14880
506.003	13526
506.076	17062
506.149	22537
506.221	28956
506.294	27915
506.367	64624
506.440	239885
506.513	142927
506.586	36720
506.659	24724
506.731	26006
506.804	38321
506.877	78001
506.950	28354
507.022	16340
507.095	24052
507.168	39177
507.241	33103
507.313	24132
507.386	38269
507.459	80096
507.531	36496
507.604	24223
507.677	20663
507.749	15843
507.822	33202
507.894	76803
507.967	53163
508.040	18879
508.112	14954
508.185	14600
508.257	20917
508.330	49017
508.402	17249
508.475	13661
508.547	14620
508.620	14259
508.692	25535
508.765	15697
508.837	11285
508.909	11532
508.982	15182
509.054	31881
509.127	20522
509.199	11596
509.271	9847
509.344	10671
509.416	11499
509.488	11930
509.560	14880
509.633	27015
509.705	41829
509.777	29723
509.849	64478
509.922	30629
509.994	11657
510.066	11466
510.138	9783
510.210	13826
510.283	13514
510.355	14135
510.427	15578
510.499	17119
510.571	20391
510.643	19116
510.715	59564
510.787	52732
510.859	19216
510.931	28617
511.003	55721
511.076	42275
511.148	12439
511.219	11204
511.291	24289
511.363	27663
511.435	10899
511.507	10126
511.579	10798
511.651	10492
511.723	9856
511.795	10341
511.867	10810
511.939	16428
512.010	44008
512.082	34377
512.154	23370
512.226	18526
512.298	22759
512.369	43785
512.441	38482
512.513	63965
512.585	32911
512.656	27155
512.728	33526
512.800	18049
512.871	20020
512.943	21680
513.015	15877
513.086	23075
513.158	31227
513.230	35165
513.301	88316
513.373	126315
513.444	39246
513.516	21156
513.588	23825
513.659	37291
513.731	67154
513.802	47714
513.874	142024
513.945	314137
514.016	60648
514.088	21826
514.159	34274
514.231	56029
514.302	49691
514.374	18136
514.445	16829
514.516	44296
514.588	30120
514.659	20369
514.730	42947
514.802	50030
514.873	25773
514.944	17098
515.016	21115
515.087	33482
515.158	33646
515.229	39871
515.301	15406
515.372	16455
515.443	13223
515.514	11485
515.585	12260
515.656	14752
515.728	14773
515.799	13987
515.870	22015
515.941	22490
516.012	19454
516.083	25029
516.154	44432
516.225	104002
516.296	68901
516.367	40294
516.438	46676
516.509	65011
516.580	82459
516.651	190603
516.722	838866
516.793	408902
516.864	97070
516.935	79335
517.006	55110
517.077	90951
517.148	259821
517.219	399211
517.289	535914
517.360	217305
517.431	68629
517.502	20491
517.573	20651
517.643	19182
517.714	19034
517.785	20358
517.856	23190
517.926	28466
517.997	35726
518.068	41548
518.138	54487
518.209	68815
518.280	229867
518.350	933847
518.421	282815
518.492	41389
518.562	29254
518.633	29011
518.703	20850
518.774	32291
518.845	47487
518.915	42206
518.986	35840
519.056	58653
519.127	189000
519.197	263191
519.268	338417
519.338	135673
519.408	49716
519.479	114686
519.549	85128
519.620	36386
519.690	19309
519.760	19209
519.831	28971
519.901	29668
519.971	16712
520.042	18246
520.112	24329
520.182	45770
520.253	59967
520.323	18475
520.393	21368
520.463	34264
520.534	21087
520.604	44500
520.674	24144
520.744	28637
520.814	70830
520.885	73641
520.955	62383
521.025	252925
521.095	82945
521.165	21136
521.235	18955
521.305	17209
521.375	18709
521.445	30173
521.515	67013
521.585	68359
521.655	62843
521.725	49958
521.795	33717
521.865	15922
521.935	23422
522.005	20265
522.075	15544
522.145	18548
522.215	22942
522.285	34628
522.355	47798
522.424	91099
522.494	80188
522.564	62121
522.634	191340
522.704	642185
522.774	195750
522.843	39098
522.913	39069
522.983	72358
523.053	41862
523.122	38512
523.192	76370
523.262	396431
523.331	342158
523.401	36381
523.471	22824
523.540	27292
523.610	15336
523.680	13152
523.749	12083
523.819	17182
523.888	16158
523.958	11505
524.027	12360
524.097	14391
524.166	17443
524.236	35405
524.305	23977
524.375	17060
524.444	12288
524.514	13694
524.583	13426
524.653	16859
524.722	21176
524.791	13123
524.861	14796
524.930	14567
524.999	21457
525.069	41608
525.138	17749
525.207	20504
525.277	14859
525.346	20446
525.415	15314
525.484	15940
525.554	17900
525.623	14911
525.692	10764
525.761	12807
525.830	12468
525.900	11559
525.969	17659
526.038	18451
526.107	16408
526.176	28141
526.245	33220
526.314	69069
526.383	55779
526.452	38383
526.522	61776
526.591	140432
526.660	291292
526.729	107505
526.797	89551
526.867	230033
526.935	1227372
527.004	803433
527.073	247260
527.142	35737
527.211	24664
527.280	44255
527.349	51071
527.418	16421
527.487	19316
527.555	15927
527.624	15435
527.693	11836
527.762	14831
527.831	12617
527.899	15294
527.968	17271
528.037	19575
528.106	35093
528.174	94663
528.243	48185
528.312	85403
528.380	142977
528.449	27161
528.518	15756
528.586	8827
528.655	10709
528.723	9965
528.792	10841
528.861	15682
528.929	9467
528.998	10227
529.066	8806
529.135	8378
529.203	8636
529.272	9104
529.340	10720
529.409	13234
529.477	9828
529.545	13696
529.614	15975
529.682	15548
529.751	17642
529.819	20898
529.887	14890
529.956	11198
530.024	12959
530.092	11700
530.161	25890
530.229	72163
530.297	23258
530.365	10781
530.434	8970
530.502	7954
530.570	9528
530.638	8231
530.707	15691
530.775	16268
530.843	8580
530.911	9006
530.979	8944
531.047	9078
531.115	9581
531.183	9242
531.252	9176
531.320	10173
531.388	8888
531.456	10874
531.524	9809
531.592	12882
531.660	20132
531.728	11764
531.796	11182
531.864	12573
531.932	14517
532.000	14854
532.067	18411
532.135	23829
532.203	30165
532.271	32752
532.339	77469
532.407	309565
532.475	142146
532.542	51106
532.610	53697
532.678	75860
532.746	365972
532.814	1004562
532.881	216106
532.949	31556
533.017	21270
533.084	14794
533.152	13456
533.220	15649
533.287	24768
533.355	12561
533.423	11241
533.490	10634
533.558	11834
533.625	13602
533.693	17975
533.761	15225
533.828	17372
533.896	21514
533.963	75724
534.031	85233
534.098	116682
534.166	34608
534.233	12204
534.300	14313
534.368	14470
534.435	10874
534.503	10092
534.570	10132
534.637	9202
534.705	9241
534.772	9732
534.840	9873
534.907	14784
534.974	16606
535.041	11575
535.109	16061
535.176	10403
535.243	10837
535.310	19458
535.378	15703
535.445	8951
535.512	7971
535.579	9136
535.646	7828
535.714	9003
535.781	10341
535.848	10142
535.915	11784
535.982	11073
536.049	11966
536.116	15600
536.183	16363
536.250	20438
536.317	22127
536.384	33043
536.451	78952
536.518	83134
536.585	41261
536.652	55185
536.719	117990
536.786	88495
536.853	50038
536.920	81614
536.987	176455
537.053	131819
537.120	492563
537.187	390080
537.254	33207
537.321	21798
537.388	20371
537.454	12694
537.521	11202
537.588	10930
537.654	14634
537.721	13272
537.788	14407
537.855	13912
537.921	17884
537.988	19945
538.055	20408
538.121	21819
538.188	29416
538.254	67954
538.321	205777
538.388	94602
538.454	21828
538.521	14571
538.587	13353
538.654	13805
538.720	13242
538.787	14301
538.853	17543
538.920	31113
538.986	28230
539.053	19113
539.119	25100
539.185	25912
539.252	35205
539.318	84040
539.385	36358
539.451	22506
539.517	26002
539.583	35135
539.650	111837
539.716	351590
539.782	77392
539.849	28782
539.915	22554
539.981	30212
540.047	52749
540.114	36117
540.180	32113
540.246	35454
540.312	62718
540.378	183135
540.444	171889
540.510	128372
540.576	411817
540.643	98834
540.709	23348
540.775	19724
540.841	20790
540.907	28825
540.973	39104
541.039	67067
541.105	94427
541.171	30534
541.237	23169
541.303	24631
541.369	33208
541.435	61772
541.500	165993
541.566	86871
541.632	23915
541.698	16517
541.764	15869
541.830	15786
541.896	15101
541.961	15914
542.027	17626
542.093	20373
542.159	25094
542.224	31607
542.290	53718
542.356	148693
542.421	195724
542.487	51273
542.553	25880
542.618	24812
542.684	24416
542.750	26584
542.815	33434
542.881	68379
542.947	341000
543.012	224809
543.078	25963
543.143	20048
543.209	22422
543.274	25307
543.340	32560
543.405	113157
543.471	194474
543.536	26472
543.602	15386
543.667	14389
543.732	12959
543.798	11083
543.863	12507
543.928	10733
543.994	11447
544.059	13634
544.124	14623
544.190	14626
544.255	18018
544.320	20185
544.386	27878
544.451	53433
544.516	72974
544.581	53558
544.646	200247
544.712	317660
544.777	37610
544.842	19919
544.907	17907
544.972	16136
545.037	16053
545.102	17523
545.168	18811
545.233	22573
545.298	26718
545.363	30498
545.428	42762
545.493	112135
545.558	297620
545.623	82171
545.688	20830
545.753	15258
545.818	14842
545.883	15191
545.947	14461
546.012	17840
546.077	19016
546.142	20656
546.207	24752
546.272	56094
546.337	62535
546.401	25250
546.466	16628
546.531	13864
546.596	20265
546.661	23896
546.725	15879
546.790	12013
546.855	13197
546.919	11297
546.984	12450
547.049	13525
547.113	16437
547.178	13894
547.243	17627
547.307	19917
547.372	30783
547.436	28092
547.501	16135
547.565	22283
547.630	52932
547.695	44600
547.759	26383
547.823	19474
547.888	13662
547.952	13293
548.017	14495
548.081	23270
548.146	31031
548.210	19520
548.274	13535
548.339	14096
548.403	13111
548.468	12086
548.532	12742
548.596	13398
548.660	15498
548.725	21844
548.789	30189
548.853	24937
548.917	15630
548.982	23476
549.046	21880
549.110	12615
549.174	13934
549.238	12086
549.303	13208
549.367	15724
549.431	14407
549.495	14064
549.559	12022
549.623	15145
549.687	22717
549.751	53381
549.815	21765
549.879	13999
549.943	13274
550.007	14727
550.071	18364
550.135	41564
550.199	23989
550.263	16467
550.327	20716
550.391	25251
550.455	16327
550.519	16055
550.582	20156
550.646	46232
550.710	45623
550.774	15816
550.838	14531
550.901	13886
550.965	15348
551.029	15570
551.093	18469
551.156	24393
551.220	52574
551.284	48614
551.347	24043
551.411	64112
551.475	64287
551.538	16374
551.602	13672
551.666	12577
551.729	11800
551.793	12944
551.856	12408
551.920	14113
551.983	13437
552.047	11893
552.110	11946
552.174	12836
552.237	14239
552.301	13247
552.364	12466
552.428	13511
552.491	13377
552.554	16693
552.618	13228
552.681	14885
552.745	14878
552.808	23626
552.871	28795
552.934	17049
552.998	14512
553.061	16396
553.124	14210
553.187	15494
553.251	16785
553.314	17997
553.377	16363
553.440	22501
553.503	57633
553.567	79875
553.630	18134
553.693	14245
553.756	13536
553.819	14054
553.882	13974
553.945	12575
554.008	12151
554.071	12646
554.134	12511
554.197	13544
554.260	14806
554.323	22023
554.386	19424
554.449	14761
554.512	13513
554.575	12474
554.638	16173
554.701	15331
554.764	12295
554.827	12090
554.889	11578
554.952	11716
555.015	10967
555.078	11562
555.141	11367
555.203	12130
555.266	11973
555.329	15061
555.391	15443
555.454	23752
555.517	23376
555.580	12589
555.642	11836
555.705	11878
555.768	14302
555.830	13795
555.893	11958
555.955	13946
556.018	16040
556.080	15234
556.143	14245
556.206	16373
556.268	20949
556.330	24551
556.393	22503
556.455	18576
556.518	32865
556.580	38093
556.643	18709
556.705	19150
556.767	17561
556.830	21121
556.892	33659
556.955	90584
557.017	44856
557.079	21068
557.142	23125
557.204	38205
557.266	134054
557.328	88900
557.391	19035
557.453	15692
557.515	17799
557.577	38489
557.639	37555
557.701	13860
557.764	10770
557.826	12253
557.888	13428
557.950	12198
558.012	11679
558.074	12395
558.136	14212
558.198	18528
558.260	17049
558.322	16587
558.384	19309
558.446	23075
558.508	26933
558.570	42923
558.632	131022
558.694	203461
558.756	41798
558.818	29854
558.880	48371
558.942	20846
559.003	17301
559.065	14339
559.127	11805
559.189	13526
559.251	13982
559.312	13972
559.374	17760
559.436	35817
559.498	22998
559.559	13599
559.621	13394
559.683	15125
559.744	22351
559.806	39390
559.868	35976
559.929	17322
559.991	17735
560.052	18140
560.114	20519
560.176	21024
560.237	31980
560.299	53568
560.360	21021
560.422	13906
560.483	13463
560.545	13033
560.606	13143
560.667	12061
560.729	13024
560.790	13649
560.852	13162
560.913	14047
560.974	13805
561.036	14601
561.097	16060
561.158	18938
561.220	21997
561.281	23763
561.342	26829
561.403	35748
561.465	61499
561.526	210711
561.587	270060
561.648	42639
561.709	22035
561.771	19142
561.832	18621
561.893	17850
561.954	15179
562.015	15506
562.076	16333
562.137	15716
562.198	15637
562.259	17009
562.320	18770
562.381	28647
562.442	58143
562.503	33277
562.564	16594
562.625	15003
562.686	14053
562.747	14495
562.808	13912
562.869	14642
562.930	16548
562.991	15434
563.051	15408
563.112	14744
563.173	14912
563.234	14885
563.294	16187
563.355	19227
563.416	21255
563.477	15879
563.537	16911
563.598	17460
563.659	18498
563.720	21636
563.780	23780
563.841	26089
563.901	15833
563.962	14262
564.023	16922
564.083	17081
564.144	19253
564.204	16471
564.265	16349
564.325	18448
564.386	35054
564.446	28426
564.507	15104
564.567	15373
564.628	15541
564.688	14175
564.749	13920
564.809	17746
564.869	20024
564.930	16893
564.990	16753
565.050	16579
565.111	16908
565.171	15299
565.231	16107
565.292	16400
565.352	14617
565.412	18244
565.472	20999
565.532	27115
565.593	21400
565.653	17275
565.713	18005
565.773	21249
565.833	40312
565.893	57527
565.953	22005
566.013	17403
566.074	18483
566.134	23267
566.194	38833
566.254	47853
566.314	26005
566.374	15653
566.434	14413
566.494	14666
566.554	14536
566.614	15336
566.673	15032
566.733	17199
566.793	16111
566.853	14370
566.913	14244
566.973	14304
567.033	15860
567.092	15701
567.152	13577
567.212	14770
567.272	14420
567.331	16103
567.391	14260
567.451	15792
567.511	21644
567.570	22304
567.630	14088
567.690	13964
567.749	13528
567.809	14829
567.868	18735
567.928	18061
567.988	17044
568.047	14905
568.107	13017
568.166	13892
568.226	13577
568.285	15905
568.345	15160
568.404	16811
568.464	17325
568.523	16802
568.582	18159
568.642	22830
568.701	16660
568.761	15284
568.820	15561
568.879	16848
568.939	20362
568.998	15686
569.057	14674
569.116	15075
569.176	13923
569.235	12889
569.294	13247
569.353	15358
569.413	13970
569.472	12158
569.531	12956
569.590	11894
569.649	10956
569.708	11578
569.767	14064
569.827	15468
569.886	13828
569.945	13419
570.004	13002
570.063	14409
570.122	20717
570.181	20952
570.240	17394
570.299	16405
570.358	16820
570.417	15705
570.475	16331
570.534	19909
570.593	24464
570.652	18725
570.711	17797
570.770	18415
570.829	23772
570.887	28614
570.946	34954
571.005	17292
571.064	13866
571.122	15454
571.181	18724
571.240	15211
571.299	13044
571.357	15111
571.416	16242
571.475	17134
571.533	17925
571.592	13364
571.650	14122
571.709	12407
571.768	16336
571.826	13523
571.885	11623
571.943	12272
572.002	11856
572.060	12993
572.119	10075
572.177	10579
572.236	10613
572.294	9926
572.352	11752
572.411	11168
572.469	10664
572.528	10403
572.586	11488
572.644	10831
572.703	14231
572.761	10712
572.819	11194
572.877	10310
572.936	10126
572.994	10790
573.052	9606
573.110	12195
573.169	14126
573.227	11114
573.285	10735
573.343	11576
573.401	10515
573.459	9437
573.517	9312
573.576	10441
573.634	10541
573.692	10477
573.750	9718
573.808	10631
573.866	11572
573.924	15135
573.982	13828
574.040	10790
574.098	10711
574.155	10447
574.213	10948
574.271	9714
574.329	10420
574.387	9745
574.445	9958
574.503	9486
574.560	8816
574.618	9064
574.676	8963
574.734	9856
574.792	11898
574.849	10138
574.907	9110
574.965	10673
575.022	9533
575.080	10538
575.138	12653
575.195	14627
575.253	15961
575.311	22542
575.368	13238
575.426	11585
575.483	11222
575.541	9787
575.598	9999
575.656	11155
575.713	10144
575.771	10952
575.828	9595
575.886	11556
575.943	11753
576.001	11138
576.058	11188
576.115	13123
576.173	17734
576.230	23411
576.287	38069
576.345	21918
576.402	10794
576.459	10294
576.517	10605
576.574	13497
576.631	11767
576.688	11156
576.746	11034
576.803	9453
576.860	9970
576.917	10639
576.974	9643
577.031	10131
577.089	11034
577.146	10502
577.203	11309
577.260	12505
577.317	12880
577.374	14708
577.431	14534
577.488	13951
577.545	11674
577.602	11016
577.659	10471
577.716	10375
577.773	10501
577.830	10017
577.886	9783
577.943	10259
578.000	11199
578.057	11708
578.114	11414
578.171	12293
578.227	12220
578.284	10297
578.341	11079
578.398	11329
578.454	11582
578.511	13429
578.568	16256
578.625	12185
578.681	10155
578.738	8003
578.794	9938
578.851	9932
578.908	10514
578.964	12033
579.021	11833
579.077	11132
579.134	12074
579.190	10430
579.247	10948
579.303	10581
579.360	11617
579.416	9982
579.473	9746
579.529	9073
579.586	10246
579.642	10623
579.698	10349
579.755	11014
579.811	11997
579.867	10121
579.924	9478
579.980	10243
580.036	11247
580.093	10427
580.149	11035
580.205	10975
580.261	10833
580.317	11366
580.374	12701
580.430	15329
580.486	13736
580.542	11591
580.598	12251
580.619	12414
580.654	12705
580.692	11903
580.710	11528
580.765	11701
580.767	11717
580.823	11475
580.838	11495
580.879	11590
580.911	11399
580.935	11269
580.984	10450
580.991	10351
581.047	10159
581.057	10209
581.103	10503
581.130	10498
581.159	10487
581.203	9996
581.215	9885
581.270	10962
581.276	10833
581.326	9605
581.349	10156
581.382	11003
581.422	10447
581.438	10219
581.494	12530
581.494	12528
581.550	13253
581.567	13894
581.606	15180
581.640	14218
581.661	13661
581.713	11255
581.717	11067
581.773	9389
581.786	9476
581.829	9940
581.859	10183
581.885	10317
581.932	10369
581.940	10402
581.996	10841
582.004	10903
582.052	11212
582.077	10555
582.107	9820
582.150	10424
582.163	10597
582.219	10586
582.223	10616
582.274	11028
582.296	11070
582.330	11141
582.368	11072
582.386	11066
582.441	10803
582.441	10804
582.497	10042
582.514	10191
582.552	10768
582.587	10409
582.608	10072
582.659	10618
582.663	10678
582.719	10139
582.732	10335
582.774	10947
582.805	10666
582.830	10469
582.877	10222
582.885	10155
582.941	10431
582.950	10402
582.996	10191
583.023	10338
583.052	10673
583.095	10864
583.107	10881
583.162	9930
583.168	10080
583.218	11534
583.240	10983
583.273	9974
583.313	10560
583.328	10952
583.384	11012
583.385	10996
583.439	10080
583.458	10140
583.494	10374
583.531	9767
583.549	9476
583.603	10570
583.605	10598
583.660	10537
583.676	10617
583.715	10917
583.748	11137
583.770	11299
583.820	11150
583.825	11127
583.881	10701
583.893	10446
583.936	9556
583.965	9511
583.991	9470
584.038	9992
584.046	10114
584.101	11281
584.110	11153
584.156	10398
584.183	10654
584.211	10847
584.255	10163
584.266	10003
584.321	10255
584.328	10305
584.376	11051
584.400	11150
584.431	11018
584.472	10069
584.486	9776
584.541	10713
584.545	10700
584.596	10387
584.617	10407
584.651	10902
584.689	11439
584.706	11408
584.761	11994
584.762	11989
584.816	11962
584.834	11929
584.871	11752
584.906	11499
584.926	11337
584.978	11742
584.980	11763
585.035	11955
585.051	12264
585.090	13455
585.123	13596
585.145	13469
585.195	13927
585.200	13999
585.254	15252
585.267	15841
585.309	17761
585.340	19813
585.364	20948
585.412	16167
585.419	15529
585.473	13172
585.484	13080
585.528	13156
585.556	13916
585.583	14723
585.628	15017
585.637	15074
585.692	16608
585.700	17083
585.747	19491
585.772	18095
585.801	16366
585.845	15108
585.856	15028
585.910	18251
585.917	18422
585.965	18735
585.989	17987
586.019	16694
586.061	15322
586.074	15478
586.128	18585
586.133	18943
586.183	22824
586.205	24037
586.237	24111
586.277	20448
586.292	18973
586.346	15385
586.349	15263
586.401	14711
586.421	14696
586.455	14854
586.493	15777
586.509	16736
586.564	19693
586.565	19899
586.618	29102
586.637	28495
586.672	24056
586.709	17885
586.727	15713
586.781	15237
586.781	15245
586.835	14750
586.853	14650
586.889	14687
586.925	14674
586.944	14555
586.996	14694
586.998	14727
587.052	15382
587.068	15529
587.106	15594
587.140	15504
587.161	15462
587.212	15892
587.215	15950
587.269	16673
587.284	16699
587.323	16254
587.356	16226
587.377	16523
587.427	17476
587.431	17517
587.485	16885
587.499	16849
587.539	17042
587.571	17143
587.593	17197
587.643	17457
587.648	17500
587.702	17309
587.715	17559
587.755	18636
587.786	18666
587.810	18305
587.858	17650
587.864	17726
587.917	18785
587.930	18981
587.971	19540
588.001	20004
588.025	20184
588.073	20301
588.079	20440
588.133	21405
588.145	21679
588.187	22209
588.217	22534
588.241	23388
588.288	25185
588.295	25610
588.348	30182
588.360	31029
588.402	32392
588.431	32806
588.456	33150
588.503	34659
588.510	35121
588.564	39757
588.575	40799
588.617	44636
588.646	47245
588.671	50112
588.718	56216
588.725	58119
588.778	77062
588.789	82662
588.832	142480
588.861	193291
588.886	307985
588.932	573956
588.939	598799
588.993	796357
589.004	779740
589.047	362314
589.075	143309
589.100	95716
589.147	52682
589.154	51684
589.207	47350
589.218	46600
589.261	47544
589.290	49096
589.314	51375
589.361	57738
589.368	61065
589.421	92539
589.433	101482
589.475	204789
589.504	290706
589.528	406049
589.576	667333
589.582	647000
589.635	282869
589.647	213418
589.689	95318
589.718	36798
589.742	33226
589.790	27736
589.795	27558
589.849	26742
589.861	26972
589.902	28211
589.932	27647
589.955	25628
590.004	21111
590.009	20897
590.062	19858
590.075	19524
590.115	19494
590.146	19620
590.168	20195
590.218	21380
590.222	21408
590.275	21466
590.289	21384
590.328	21141
590.360	20742
590.381	20941
590.431	21594
590.435	21670
590.488	22552
590.503	22803
590.541	24139
590.574	25112
590.594	24489
590.645	22261
590.647	22250
590.700	21453
590.716	21114
590.753	20755
590.787	20520
590.806	20791
590.859	21530
590.859	21567
590.912	21403
590.930	21438
590.965	21543
591.001	21605
591.018	21925
591.071	22737
591.072	22708
591.124	23531
591.143	23842
591.177	24379
591.214	24884
591.230	25846
591.283	29022
591.285	29106
591.336	35214
591.356	37732
591.389	37881
591.427	36959
591.442	34569
591.495	25213
591.498	24536
591.547	24174
591.569	23984
591.600	23621
591.640	22913
591.653	23048
591.706	23509
591.711	23514
591.759	22944
591.782	22683
591.811	23409
591.853	24282
591.864	24264
591.917	23829
591.924	23731
591.969	23805
591.995	23828
592.022	23736
592.066	23441
592.075	23613
592.127	24413
592.137	24551
592.180	25194
592.208	25440
592.233	24796
592.279	23427
592.285	23358
592.338	22528
592.350	22303
592.390	22282
592.421	22194
592.443	22542
592.491	23193
592.495	23200
592.548	22723
592.562	22556
592.600	22537
592.633	22461
592.653	22854
592.704	23658
592.705	23819
592.775	25126
592.846	25843
592.916	31184
592.987	39979
593.058	30110
593.128	22247
593.199	22462
593.270	22939
593.341	22765
593.411	25503
593.482	25573
593.553	22670
593.623	20973
593.694	20569
593.764	20625
593.835	22032
593.906	20476
593.976	20715
594.047	21463
594.117	22560
594.188	22048
594.258	19913
594.329	19633
594.399	19718
594.470	19855
594.540	20331
594.611	19946
594.681	20347
594.751	21276
594.822	25075
594.892	24699
594.963	23073
595.033	20135
595.103	20341
595.174	22219
595.244	28296
595.314	27662
595.384	18775
595.455	18796
595.525	19304
595.595	20166
595.665	20596
595.736	18598
595.806	19550
595.876	18594
595.946	17574
596.016	17627
596.087	19096
596.157	18909
596.227	18746
596.297	19242
596.367	19027
596.437	20143
596.507	23437
596.577	24821
596.647	20430
596.717	18761
596.787	18407
596.857	18194
596.927	17736
596.997	18271
597.067	18164
597.137	18832
597.207	18468
597.277	18719
597.347	18458
597.417	19953
597.487	23244
597.557	23166
597.626	23604
597.696	23848
597.766	22121
597.836	25399
597.906	19712
597.975	18466
598.045	17359
598.115	18045
598.185	19003
598.254	20813
598.324	27512
598.394	29261
598.464	29817
598.533	22301
598.603	20418
598.672	24351
598.742	20557
598.812	17756
598.881	16812
598.951	17530
599.020	15771
599.090	17141
599.159	16541
599.229	16935
599.299	15427
599.368	16494
599.437	16520
599.507	16310
599.576	15536
599.646	18504
599.715	18319
599.785	18361
599.854	17381
599.924	17655
599.993	16230
600.062	16272
600.132	15967
600.201	18135
600.270	25476
600.340	19661
600.409	16143
600.478	16108
600.547	15865
600.617	17772
600.686	19253
600.755	24667
600.824	28904
600.894	21334
600.963	15387
601.032	15198
601.101	16058
601.170	15155
601.239	14843
601.308	15164
601.378	14475
601.447	14897
601.516	14367
601.585	15114
601.654	14758
601.723	14758
601.792	15784
601.861	18141
601.930	27262
601.999	34583
602.068	18452
602.137	15870
602.206	17253
602.275	24839
602.343	44548
602.412	44012
602.481	18604
602.550	15597
602.619	16826
602.688	21439
602.756	15143
602.825	13903
602.894	14074
602.963	13385
603.032	13837
603.100	13062
603.169	13751
603.238	12754
603.307	13794
603.375	14018
603.444	13006
603.513	12690
603.581	12799
603.650	12257
603.719	13300
603.787	13174
603.856	13464
603.924	13222
603.993	14167
604.061	13242
604.130	15994
604.198	18250
604.267	13640
604.335	13004
604.404	13589
604.472	12287
604.541	12460
604.609	12293
604.678	12804
604.746	12766
604.815	12378
604.883	12374
604.951	14016
605.020	12937
605.088	12077
605.156	12838
605.225	12436
605.293	12140
605.361	12887
605.429	13509
605.498	17251
605.566	22625
605.634	16100
605.702	13636
605.771	12484
605.839	12811
605.907	13221
605.975	12468
606.043	12874
606.111	13159
606.180	13259
606.248	12935
606.316	13941
606.384	15455
606.452	28266
606.520	52818
606.588	23603
606.656	11477
606.724	11953
606.792	13194
606.860	11877
606.928	11230
606.996	11025
607.064	10617
607.132	12129
607.200	11202
607.267	11363
607.335	11556
607.403	11395
607.471	11069
607.539	11851
607.607	12543
607.674	13683
607.742	16220
607.810	23510
607.878	18523
607.946	12627
608.013	11126
608.081	11722
608.149	11518
608.216	11715
608.284	13422
608.352	11542
608.419	10608
608.487	16415
608.555	13159
608.622	12007
608.690	11746
608.757	10794
608.825	12762
608.893	13439
608.960	13715
609.028	14761
609.095	16269
609.163	12860
609.230	13038
609.298	13975
609.365	13059
609.432	14077
609.500	14691
609.567	14957
609.635	15270
609.702	13797
609.769	13933
609.837	14520
609.904	12648
609.971	12415
610.039	14914
610.106	17069
610.173	24470
610.241	29503
610.308	22308
610.375	13937
610.442	11852
610.509	11581
610.577	12701
610.644	13061
610.711	12108
610.778	13084
610.845	12742
610.912	11947
610.980	11351
611.047	13154
611.114	12290
611.181	12168
611.248	11259
611.315	12736
611.382	11366
611.449	11218
611.516	12965
611.583	12595
611.650	12088
611.717	12465
611.784	11034
611.851	11735
611.918	12048
611.984	12243
612.051	14683
612.118	18191
612.185	30946
612.252	21085
612.319	11812
612.386	12273
612.452	11974
612.519	13584
612.586	16044
612.653	13151
612.719	13164
612.786	14984
612.853	11765
612.919	10677
612.986	12476
613.053	11239
613.120	11515
613.186	10538
613.253	13524
613.319	11429
613.386	12450
613.453	15715
613.519	24575
613.586	56213
613.652	96808
613.719	69346
613.785	45148
613.852	14635
613.918	12836
613.985	15934
614.051	23348
614.118	48609
614.184	41947
614.250	13598
614.317	12557
614.383	11537
614.449	10983
614.516	12470
614.582	11813
614.648	11838
614.715	13124
614.781	12756
614.847	11513
614.914	11477
614.980	11059
615.046	11651
615.112	11956
615.179	12271
615.245	12642
615.311	11929
615.377	11333
615.443	11336
615.509	13254
615.575	13631
615.642	14162
615.708	17540
615.774	17825
615.840	14598
615.906	14450
615.972	14799
616.038	16485
616.104	24471
616.170	41559
616.236	30519
616.302	17506
616.368	14643
616.434	11984
616.500	15198
616.565	13730
616.631	12730
616.697	11512
616.763	12769
616.829	15045
616.895	18234
616.961	19406
617.026	20170
617.092	13641
617.158	12418
617.224	12667
617.289	15392
617.355	13443
617.421	11146
617.487	12518
617.552	12371
617.618	11121
617.684	11202
617.749	13660
617.815	11758
617.880	11840
617.946	13670
618.012	15462
618.077	12682
618.143	13061
618.208	13877
618.274	13676
618.339	13800
618.405	12536
618.470	14553
618.536	14428
618.601	15696
618.667	13904
618.732	15639
618.798	15472
618.863	15345
618.928	15089
618.994	20764
619.059	33584
619.124	72486
619.190	31038
619.255	14093
619.320	14383
619.386	13896
619.451	12545
619.516	13618
619.581	12898
619.647	13659
619.712	13067
619.777	13651
619.842	13590
619.907	13887
619.972	16723
620.038	17186
620.103	12788
620.168	12389
620.233	13619
620.298	12663
620.363	13103
620.428	13502
620.493	12774
620.558	12943
620.623	12753
620.688	13241
620.753	12370
620.818	11968
620.883	12635
620.948	12759
621.013	13503
621.078	12516
621.143	12522
621.207	16657
621.272	17418
621.337	21270
621.402	16289
621.467	20800
621.532	19780
621.596	15674
621.661	15180
621.726	14817
621.791	16989
621.855	21809
621.920	25786
621.985	18156
622.049	18846
622.114	16001
622.179	15516
622.243	16537
622.308	15907
622.373	16523
622.437	16916
622.502	15525
622.566	17598
622.631	16532
622.695	18451
622.760	18938
622.824	18607
622.889	23636
622.953	35427
623.018	84567
623.082	69349
623.147	21461
623.211	24138
623.276	23185
623.340	16276
623.404	16431
623.469	16090
623.533	16327
623.597	15703
623.662	15987
623.726	15657
623.790	16049
623.854	16734
623.919	16308
623.983	17248
624.047	16920
624.111	16287
624.176	15702
624.240	16470
624.304	18093
624.368	16444
624.432	17742
624.496	22316
624.560	34524
624.625	41954
624.689	20540
624.753	15988
624.817	16751
624.881	15396
624.945	16843
625.009	16061
625.073	18901
625.137	24569
625.201	50602
625.265	43258
625.329	21915
625.393	26890
625.456	19598
625.520	17902
625.584	22300
625.648	22105
625.712	25616
625.776	43929
625.839	47494
625.903	21678
625.967	16784
626.031	24983
626.095	29054
626.158	16919
626.222	14069
626.286	16019
626.349	14617
626.413	16187
626.477	25295
626.540	15545
626.604	12815
626.668	15024
626.731	13398
626.795	14351
626.858	14124
626.922	13630
626.986	16458
627.049	13812
627.113	15110
627.176	14166
627.240	13601
627.303	12673
627.366	13423
627.430	14092
627.493	14002
627.557	12744
627.620	14776
627.684	12648
627.747	13316
627.810	11853
627.874	13170
627.937	12529
628.000	15452
628.064	15052
628.127	11139
628.190	13683
628.253	14046
628.317	12451
628.380	13041
628.443	12029
628.506	12814
628.569	13519
628.632	12509
628.696	11842
628.759	11945
628.822	12222
628.885	12163
628.948	12400
629.011	14254
629.074	15977
629.137	12428
629.200	10714
629.263	12366
629.326	11256
629.389	11199
629.452	11483
629.515	12662
629.578	11662
629.641	13154
629.704	14639
629.767	16636
629.830	12790
629.892	12629
629.955	13105
630.018	20060
630.081	30243
630.144	42268
630.207	23082
630.269	18541
630.332	12780
630.395	11612
630.458	12675
630.520	9724
630.583	12081
630.646	11097
630.708	10731
630.771	10437
630.834	11062
630.896	11020
630.959	10028
631.021	10423
631.084	10088
631.146	11782
631.209	12417
631.272	10762
631.334	11798
631.397	11090
631.459	11615
631.522	16345
631.584	12107
631.646	12860
631.709	16559
631.771	28874
631.834	14931
631.896	10722
631.958	9036
632.021	10614
632.083	9640
632.145	11244
632.208	13456
632.270	13435
632.332	8932
632.395	9551
632.457	11013
632.519	10194
632.581	11247
632.643	8844
632.706	9979
632.768	8779
632.830	9126
632.892	9531
632.954	8760
633.016	10955
633.078	10455
633.141	10111
633.203	9898
633.265	9929
633.327	10163
633.389	12011
633.451	18177
633.513	27652
633.575	17889
633.637	28203
633.698	18527
633.760	11299
633.822	10607
633.884	11104
633.946	10363
634.008	8693
634.070	9330
634.132	9132
634.193	9417
634.255	9008
634.317	8882
634.379	12539
634.441	9521
634.502	10153
634.564	11494
634.626	12934
634.687	16059
634.749	11235
634.811	9871
634.873	8105
634.934	7949
634.996	9686
635.057	7266
635.119	7086
635.181	8257
635.242	9857
635.304	6399
635.365	10346
635.427	9499
635.488	11945
635.550	8489
635.611	8050
635.673	6651
635.734	10256
635.796	8970
635.857	12763
635.918	7450
635.980	9109
636.041	7547
636.102	8017
636.164	7586
636.225	9270
636.286	7325
636.348	9135
636.409	9014
636.470	7899
636.531	8208
636.593	8577
636.654	8460
636.715	7875
636.776	6747
636.838	7740
636.899	8440
636.960	8601
637.021	9133
637.082	11041
637.143	10037
637.204	6356
637.265	6365
637.326	8071
637.387	7549
637.448	6169
637.509	7522
637.570	6983
637.631	7901
637.692	6511
637.753	5101
637.814	7428
637.875	7210
637.936	8343
637.997	8166
638.058	9131
638.119	7909
638.179	7166
638.240	6268
638.301	7214
638.362	5572
638.423	6663
638.483	8295
638.544	6407
638.605	7219
638.666	5814
638.726	6762
638.787	7728
638.848	5982
638.908	6918
638.969	7223
639.030	6787
639.090	6709
639.151	9327
639.211	12976
639.272	25034
639.332	55169
639.393	18339
639.453	6923
639.514	6964
639.574	7620
639.635	7287
639.695	9093
639.756	9241
639.816	13128
639.877	23467
639.937	58175
639.997	74761
640.058	14102
640.118	7537
640.178	8141
640.239	7018
640.299	5986
640.359	6345
640.420	5816
640.480	7358
640.540	5674
640.600	6481
640.661	8413
640.721	11483
640.781	20094
640.841	7339
640.901	8136
640.961	9346
641.021	12978
641.082	19525
641.142	41884
641.202	15370
641.262	5837
641.322	7491
641.382	5418
641.442	7192
641.502	5909
641.562	6766
641.622	6236
641.682	6620
641.742	6729
641.802	8482
641.861	9698
641.921	13031
641.981	19408
642.041	16661
642.101	25966
642.161	10358
642.221	5454
642.280	5402
642.340	4772
642.400	4761
642.460	6563
642.519	5422
642.579	6199
642.639	6577
642.698	3911
642.758	7103
642.818	6545
642.877	7176
642.937	9141
642.997	16043
643.056	32902
643.116	10234
643.175	7421
643.235	5506
643.294	4829
643.354	6039
643.414	5356
643.473	6318
643.532	4740
643.592	4714
643.651	5461
643.711	8395
643.770	9534
643.830	14290
643.889	25765
643.948	7962
644.008	5492
644.067	4472
644.126	3983
644.186	4051
644.245	5781
644.304	3212
644.363	6379
644.423	3707
644.482	4719
644.541	4774
644.600	3350
644.659	4566
644.719	3685
644.778	4325
644.837	4484
644.896	5840
644.955	7300
645.014	5845
645.073	5639
645.132	4413
645.191	5307
645.250	4180
645.309	5825
645.368	4935
645.427	5806
645.486	3797
645.545	5986
645.604	4845
645.663	5067
645.722	3622
645.781	4442
645.840	4975
645.898	4090
645.957	6133
646.016	4302
646.075	6507
646.134	7809
646.192	15111
646.251	20744
646.310	5533
646.369	5250
646.427	4645
646.486	3407
646.545	4169
646.603	5123
646.662	3734
646.721	4431
646.779	4096
646.838	4832
646.896	6821
646.955	4611
647.014	4750
647.072	4140
647.131	6236
647.189	4303
647.248	3345
647.306	5238
647.365	4675
647.423	3485
647.481	5807
647.540	4384
647.598	4364
647.657	3878
647.715	5037
647.773	3601
647.832	4983
647.890	2821
647.948	3337
648.007	5227
648.065	3491
648.123	4965
648.181	7708
648.240	5250
648.298	3758
648.356	3862
648.414	5345
648.472	4540
648.531	5507
648.589	4647
648.647	4162
648.705	3783
648.763	3893
648.821	4626
648.879	4485
648.937	4798
648.995	4811
649.053	3702
649.111	4687
649.169	6197
649.227	7600
649.285	10935
649.343	21204
649.401	31399
649.459	82749
649.516	42280
649.574	12759
649.632	22803
649.690	20473
649.748	6661
649.806	3811
649.863	7257
649.921	6046
649.979	3751
650.037	4226
650.094	3587
650.152	4590
650.210	3232
650.268	4457
650.325	3890
650.383	3709
650.440	2505
650.498	4388
650.556	3549
650.613	3279
650.671	3078
650.728	3958
650.786	3505
650.843	3542
650.901	1613
650.958	3627
651.016	3105
651.073	3608
651.131	3029
651.188	2239
651.246	3113
651.303	2297
651.360	3668
651.418	3143
651.475	4393
651.532	3202
651.590	3553
651.647	2737
651.704	3653
651.762	3764
651.819	5193
651.876	3388
651.933	3231
651.990	4587
652.048	2343
652.105	2524
652.162	3574
652.219	1874
652.276	3566
652.333	2861
652.390	2301
652.448	2912
652.505	3630
652.562	2710
652.619	3732
652.676	2682
652.733	4925
652.790	3814
652.847	2359
652.904	3684
652.961	2288
653.017	2095
653.074	3667
653.131	3329
653.188	2566
653.245	3082
653.302	3318
653.359	3431
653.415	4020
653.472	2823
653.529	3847
653.586	2447
653.642	2738
653.699	3044
653.756	2586
653.813	2985
653.869	3097
653.926	2762
653.983	1812
654.039	3158
654.096	2762
654.152	4149
654.209	1807
654.266	3354
654.322	2704
654.379	4035
654.435	5548
654.492	6547
654.548	12148
654.605	19875
654.661	5891
654.717	3575
654.774	3417
654.830	3177
654.887	2958
654.943	3029
655.000	3290
655.056	2891
655.112	2930
655.168	2152
655.225	3396
655.281	3717
655.337	4043
655.394	5107
655.450	4692
655.506	3994
655.562	4940
655.618	6812
655.675	4119
655.731	3809
655.787	3596
655.843	5063
655.899	3759
655.955	5429
656.011	5605
656.067	5468
656.123	7134
656.179	8712
656.235	9900
656.291	7795
656.347	8568
656.403	5968
656.459	5330
656.515	5863
656.571	6012
656.627	5481
656.683	4406
656.739	6059
656.795	5262
656.850	8426
656.906	10396
656.962	5567
657.018	2497
657.074	3352
657.129	3379
657.185	3513
657.241	2621
657.297	2847
657.352	4030
657.408	2723
657.464	5021
657.519	3667
657.575	2083
657.630	3088
657.686	2502
657.742	2705
657.797	2345
657.853	2831
657.908	3836
657.964	1153
658.019	3078
658.075	2728
658.130	3048
658.186	1791
658.241	2700
658.297	2086
658.352	2149
658.407	3580
658.463	2060
658.518	2862
658.573	3010
658.629	1990
658.684	2743
658.739	2939
658.795	1503
658.850	3093
658.905	2240
658.960	3332
659.016	2876
659.071	3485
659.126	5340
659.181	8122
659.236	19334
659.291	18872
659.346	7662
659.401	5359
659.457	3121
659.512	3082
659.567	3617
659.622	3228
659.677	3219
659.732	3117
659.787	3461
659.842	3126
659.897	4124
659.952	2913
660.007	2724
660.061	2524
660.116	2498
660.171	1997
660.226	2760
660.281	3381
660.336	2301
660.391	3636
660.445	2596
660.500	3096
660.555	3011
660.610	2413
660.664	3746
660.719	2336
660.774	3585
660.828	3521
660.883	4738
660.938	4444
660.992	1774
661.047	2759
661.101	2996
661.156	2316
661.211	1431
661.265	2574
661.320	2380
661.374	3047
661.429	1943
661.483	3301
661.538	1643
661.592	1880
661.647	2746
661.701	2845
661.755	2810
661.810	2525
661.864	1001
661.919	1995
661.973	2669
662.027	2501
662.081	1679
662.136	2089
662.190	3010
662.244	3283
662.299	2453
662.353	2428
662.407	2005
662.461	2248
662.515	3143
662.569	2558
662.624	3700
662.678	2619
662.732	3387
662.786	3101
662.840	2818
662.894	3024
662.948	2423
663.002	1883
663.056	2277
663.110	1715
663.164	2487
663.218	2638
663.272	3819
663.326	5972
663.380	5106
663.434	3434
663.488	2611
663.542	2228
663.595	2367
663.649	1827
663.703	3508
663.757	2503
663.811	1951
663.864	1774
663.918	3226
663.972	2377
664.026	1448
664.079	2081
664.133	2503
664.187	1895
664.240	2502
664.294	1878
664.348	2915
664.401	2669
664.455	2589
664.508	1779
664.562	2463
664.615	2761
664.669	1872
664.722	2952
664.776	2624
664.829	1660
664.883	2597
664.936	1988
664.990	3005
665.043	2256
665.097	2586
665.150	3302
665.203	2573
665.257	1779
665.310	2437
665.363	2879
665.417	2838
665.470	2499
665.523	2447
665.576	1687
665.630	2792
665.683	2660
665.736	2953
665.789	2152
665.842	1616
665.895	2631
665.949	2754
666.002	2322
666.055	2266
666.108	3054
666.161	2636
666.214	3461
666.267	5509
666.320	6803
666.373	3526
666.426	2507
666.479	2564
666.532	2676
666.585	3382
666.638	3428
666.691	2757
666.744	3377
666.796	2656
666.849	2725
666.902	2757
666.955	1584
667.008	2707
667.060	2236
667.113	1673
667.166	2386
667.219	2626
667.271	2156
667.324	1691
667.377	2549
667.430	2442
667.482	2753
667.535	3344
667.587	4236
667.640	5620
667.693	9170
667.745	22218
667.798	20716
667.850	4498
667.903	2921
667.955	3013
668.008	2082
668.060	2635
668.113	2444
668.165	3013
668.218	2561
668.270	2978
668.322	2407
668.375	1217
668.427	2363
668.479	1970
668.532	2091
668.584	2513
668.636	1636
668.689	2932
668.741	2458
668.793	2054
668.845	1766
668.898	2311
668.950	2358
669.002	2243
669.054	1977
669.106	2434
669.158	2500
669.211	2631
669.263	1413
669.315	3098
669.367	2376
669.419	2801
669.471	3056
669.523	1517
669.575	3293
669.627	2092
669.679	2002
669.731	2279
669.783	3086
669.835	2790
669.886	2569
669.938	1963
669.990	3024
670.042	1150
670.094	2056
670.146	2456
670.197	1680
670.249	2579
670.301	3429
670.353	2967
670.404	3627
670.456	3525
670.508	4903
670.560	5039
670.611	5620
670.663	9072
670.715	21548
670.766	30245
670.818	9547
670.869	3161
670.921	3436
670.972	2559
671.024	1466
671.075	2714
671.127	2080
671.178	2150
671.230	2251
671.281	2601
671.333	2314
671.384	2404
671.436	2581
671.487	3102
671.538	3294
671.590	2921
671.641	3062
671.692	3155
671.744	2985
671.795	3112
671.846	2199
671.897	2240
671.949	2823
672.000	1882
672.051	1831
672.102	2779
672.153	2121
672.204	2255
672.256	1807
672.307	2637
672.358	3239
672.409	2162
672.460	2622
672.511	2720
672.562	2296
672.613	3369
672.664	3004
672.715	2241
672.766	2282
672.817	1974
672.868	2226
672.919	2485
672.970	2274
673.021	1924
673.071	2411
673.122	2348
673.173	3257
673.224	2925
673.275	2967
673.326	2115
673.376	2314
673.427	1927
673.478	2418
673.528	1986
673.579	1865
673.630	1922
673.680	3568
673.731	2006
673.782	2160
673.832	2488
673.883	2393
673.934	2883
673.984	2237
674.035	2046
674.085	1898
674.136	2753
674.186	2218
674.237	2219
674.287	3887
674.338	3079
674.388	1257
674.438	1951
674.489	2245
674.539	1847
674.589	1975
674.640	2813
674.690	1442
674.740	2401
674.791	1604
674.841	2146
674.891	2386
674.942	4269
674.992	4087
675.042	2454
675.092	1693
675.142	1772
675.193	1981
675.243	2301
675.293	3366
675.343	2080
675.393	2114
675.443	2142
675.493	2248
675.543	1933
675.593	2058
675.643	1419
675.693	2720
675.743	1693
675.793	2805
675.843	1509
675.893	1799
675.943	1205
675.993	2589
676.043	1966
676.093	2561
676.142	2595
676.192	2690
676.242	1420
676.292	1217
676.341	2127
676.391	1958
676.441	1456
676.491	1795
676.540	1753
676.590	2348
676.640	1844
676.689	1360
676.739	1362
676.789	1505
676.838	1126
676.888	2032
676.937	1268
676.987	1762
677.037	949
677.086	1170
677.136	1726
677.185	1638
677.235	1353
677.284	2260
677.333	698
677.383	1586
677.432	966
677.482	1110
677.531	1424
677.580	878
677.630	1784
677.679	576
677.728	1200
677.778	1751
677.827	1345
677.876	1327
677.925	1115
677.975	1426
678.024	1158
678.073	1082
678.122	1614
678.171	1452
678.220	1415
678.269	1431
678.319	1562
678.368	1194
678.417	1703
678.466	1709
678.515	2663
678.564	964
678.613	1519
678.662	1092
678.711	1613
678.760	1098
678.809	1903
678.857	1515
678.906	868
678.955	1239
679.004	1905
679.053	1235
679.102	1704
679.151	1269
679.199	1033
679.248	1846
679.297	1300
679.346	1703
679.394	1325
679.443	1815
679.492	1411
679.540	1049
679.589	2132
679.638	1177
679.686	769
679.735	1175
679.784	1168
679.832	1221
679.881	992
679.929	1644
679.978	269
680.026	1538
680.075	1593
680.123	1563
680.172	1344
680.220	540
680.268	1309
680.317	1120
680.365	1682
680.414	1134
680.462	1456
680.510	1631
680.559	821
680.607	1090
680.655	996
680.703	806
680.752	789
680.800	1407
680.848	1392
680.896	1248
680.945	1752
680.993	2100
681.041	843
681.089	930
681.137	1634
681.185	1180
681.233	683
681.258	518
681.281	347
681.329	1048
681.377	873
681.380	903
681.425	1176
681.473	1004
681.502	1355
681.521	1567
681.569	1523
681.617	844
681.624	1022
681.665	2056
681.713	1451
681.745	1075
681.761	877
681.809	927
681.857	1655
681.867	1590
681.904	1315
681.952	2512
681.989	1841
682.000	1609
682.048	1830
682.096	755
682.111	1161
682.143	1978
682.191	1633
682.233	3339
682.239	3582
682.286	1071
682.334	1206
682.354	1324
682.382	1468
682.430	1749
682.476	1587
682.477	1569
682.525	1477
682.572	1636
682.598	1553
682.620	1512
682.667	2589
682.715	2936
682.720	2907
682.763	2446
682.810	3933
682.841	3109
682.857	2595
682.905	2452
682.952	2480
682.963	2455
683.000	2348
683.047	2630
683.085	2663
683.095	2664
683.142	2299
683.190	2222
683.206	2274
683.237	2358
683.284	2122
683.328	1936
683.332	1912
683.379	1920
683.426	1726
683.449	1991
683.473	2215
683.521	2778
683.568	2521
683.571	2544
683.615	2737
683.662	2834
683.693	3083
683.709	3200
683.757	2843
683.804	3073
683.814	3027
683.851	2893
683.898	3465
683.936	3404
683.945	3395
683.992	3581
684.039	5088
684.057	5441
684.086	5883
684.133	4808
684.179	4454
684.180	4419
684.227	5296
684.274	5686
684.300	6096
684.321	6318
684.368	4885
684.415	4108
684.422	3961
684.462	3030
684.509	3066
684.543	3139
684.556	3227
684.603	3373
684.649	2849
684.665	2993
684.696	3334
684.743	3586
684.786	3218
684.790	3171
684.837	3514
684.883	3691
684.908	3807
684.930	3929
684.977	4120
685.023	3375
685.029	3422
685.070	3631
685.117	3326
685.150	3383
685.164	3446
685.210	4065
685.257	4373
685.272	4460
685.303	4737
685.350	5406
685.393	5570
685.396	5604
685.443	7805
685.490	9788
685.514	9081
685.536	7682
685.583	6192
685.629	5553
685.636	5483
685.675	5786
685.722	5484
685.757	5530
685.768	5497
685.815	5585
685.861	5171
685.878	4973
685.908	4626
685.954	4410
686.000	4952
686.000	4962
686.047	4635
686.093	4897
686.121	4901
686.139	4777
686.185	4712
686.232	4727
686.242	4652
686.278	4405
686.324	3954
686.363	3987
686.370	4002
686.416	4224
686.463	4216
686.484	4172
686.509	4080
686.555	4410
686.601	4154
686.606	4154
686.647	4222
686.693	4352
686.727	3951
686.739	3813
686.785	3783
686.831	3709
686.848	4030
686.877	4573
686.923	4065
686.969	4360
686.969	4360
687.015	3647
687.061	3968
687.090	4089
687.107	4168
687.153	4234
687.199	4615
687.211	4471
687.245	4058
687.291	4562
687.332	4507
687.336	4517
687.382	4548
687.428	4506
687.453	4756
687.474	4779
687.520	4295
687.565	4019
687.574	3890
687.611	3700
687.657	4332
687.695	4326
687.702	4314
687.748	4439
687.794	4916
687.816	4741
687.839	4498
687.885	4852
687.931	4505
687.937	4539
687.976	4928
688.022	5273
688.058	5299
688.067	5306
688.113	5343
688.158	4969
688.179	5060
688.204	5016
688.249	5310
688.295	5095
688.300	5053
688.340	5041
688.386	5704
688.421	5754
688.431	5776
688.477	5893
688.522	6294
688.542	6516
688.567	6631
688.613	5760
688.658	5531
688.663	5514
688.703	5397
688.749	5252
688.784	5256
688.794	5275
688.839	5152
688.884	5361
688.905	5137
688.930	4917
688.975	4758
689.020	4803
689.026	4815
689.065	5036
689.110	4747
689.146	5015
689.155	5069
689.201	5144
689.246	4747
689.267	4790
689.291	4886
689.336	5018
689.381	5134
689.388	5156
689.426	5270
689.471	5542
689.509	5061
689.516	4995
689.561	5448
689.606	5126
689.630	5300
689.651	5392
689.696	5526
689.741	5511
689.750	5430
689.785	5311
689.830	5677
689.871	5555
689.875	5529
689.920	5849
689.965	5494
689.992	5294
690.010	5218
690.054	5677
690.099	5394
690.112	5363
690.144	5401
690.189	5875
690.233	5723
690.233	5730
690.278	5664
690.323	5846
690.354	6103
690.367	6170
690.412	6410
690.457	6316
690.474	6279
690.501	6201
690.546	5978
690.590	5850
690.595	5843
690.635	5908
690.680	5758
690.716	5466
690.724	5419
690.769	5667
690.813	5856
690.836	5753
690.857	5712
690.902	5832
690.946	5693
690.957	5808
690.991	6565
691.035	6929
691.077	7275
691.080	7260
691.124	7087
691.168	6426
691.198	6201
691.213	6317
691.257	6556
691.301	6718
691.318	6831
691.346	6806
691.390	6731
691.434	6680
691.439	6619
691.478	6587
691.522	7016
691.559	7153
691.567	7259
691.611	8167
691.655	8802
691.680	9146
691.699	8813
691.743	7699
691.787	7251
691.800	6901
691.831	6547
691.875	6493
691.919	6364
691.921	6348
691.964	6628
692.008	6970
692.041	7006
692.052	7030
692.096	7113
692.139	7484
692.162	7459
692.183	7188
692.227	7120
692.271	6498
692.282	6388
692.315	6432
692.359	6635
692.402	6757
692.403	6772
692.447	6684
692.490	7179
692.523	7183
692.534	7172
692.578	6562
692.622	6467
692.643	6516
692.666	6768
692.709	6938
692.753	7306
692.763	7382
692.797	7448
692.840	7244
692.884	7268
692.884	7285
692.928	7304
692.971	7285
693.004	7253
693.015	7240
693.059	7317
693.102	7320
693.124	6993
693.146	6827
693.189	7307
693.233	7308
693.245	7333
693.276	7472
693.320	7919
693.363	7790
693.365	7779
693.407	7677
693.450	7604
693.485	7414
693.493	7422
693.537	7565
693.580	7536
693.605	7492
693.624	7618
693.667	8270
693.710	8440
693.725	8511
693.753	8876
693.797	9712
693.840	10365
693.845	10409
693.883	9774
693.926	8939
693.966	8427
693.970	8411
694.013	7980
694.056	7465
694.086	7035
694.099	7137
694.142	7572
694.185	7880
694.206	8084
694.229	8317
694.272	8574
694.315	8943
694.326	8951
694.358	9863
694.401	11522
694.444	13278
694.446	13317
694.487	12843
694.530	12106
694.566	11556
694.573	11351
694.616	9915
694.659	8640
694.686	8016
694.702	8157
694.745	8020
694.787	7888
694.806	7901
694.830	7911
694.873	7900
694.916	7661
694.926	7613
694.959	8247
695.002	9089
695.044	10046
695.046	10050
695.087	9762
695.130	9618
695.166	9469
695.172	9428
695.215	8880
695.258	8499
695.286	8022
695.301	7922
695.343	7824
695.386	7661
695.406	7636
695.428	7663
695.471	7465
695.514	7232
695.526	7181
695.556	7443
695.599	8028
695.641	8169
695.646	8170
695.684	8103
695.726	8246
695.766	8290
695.769	8310
695.811	8134
695.854	8137
695.886	8090
695.896	8097
695.938	8018
695.981	7707
696.005	7686
696.023	7784
696.065	7893
696.108	8054
696.125	8039
696.150	7875
696.192	7577
696.235	7339
696.245	7253
696.277	7299
696.319	7357
696.361	7571
696.365	7535
696.404	7504
696.446	7877
696.485	7904
696.488	7928
696.530	8126
696.572	8269
696.604	8395
696.614	8379
696.656	8103
696.698	8015
696.724	7815
696.740	7903
696.783	8200
696.825	8452
696.844	8523
696.867	8480
696.909	8479
696.951	8322
696.964	8293
696.992	8312
697.034	8240
697.076	8221
697.083	8174
697.118	8441
697.160	8763
697.202	9141
697.203	9125
697.244	9007
697.286	8897
697.323	8776
697.327	8841
697.369	9167
697.411	9426
697.442	9711
697.453	9905
697.494	10504
697.536	11136
697.562	11450
697.578	11492
697.620	11631
697.661	11711
697.682	11691
697.703	12261
697.744	13439
697.786	14659
697.801	15030
697.828	14898
697.869	14553
697.911	14269
697.921	14158
697.952	12916
697.994	11268
698.035	9598
698.040	9369
698.077	9216
698.118	9027
698.160	8810
698.160	8783
698.201	9208
698.243	9624
698.279	9976
698.284	9980
698.325	9748
698.367	9517
698.399	9303
698.408	9335
698.449	9343
698.491	9401
698.518	9393
698.532	9421
698.573	9424
698.614	9430
698.638	9404
698.656	9414
698.697	9393
698.738	9362
698.757	9328
698.779	9445
698.820	9606
698.862	9766
698.877	9800
698.903	9924
698.944	10082
698.985	10241
698.996	10258
699.026	9947
699.067	9481
699.116	8902
699.235	9322
699.354	8997
699.474	10385
699.593	10253
699.713	10875
699.832	12225
699.951	14533
700.070	12439
700.190	11171
700.309	10799
700.428	12065
700.547	10927
700.667	11159
700.786	11751
700.905	9648
701.024	10778
701.143	10037
701.262	8828
701.381	9723
701.500	12392
701.619	18153
701.738	9911
701.857	9258
701.976	9051
702.095	10637
702.214	14272
702.333	15458
702.452	12573
702.571	10134
702.690	10287
702.809	9338
702.928	9311
703.047	10204
703.165	9435
703.284	9720
703.403	10347
703.522	11067
703.640	11048
703.759	14708
703.878	14347
703.997	8923
704.115	8864
704.234	8683
704.353	8809
704.471	8940
704.590	7713
704.708	7262
704.827	8083
704.946	7943
705.064	8011
705.183	8708
705.301	8290
705.420	11213
705.538	9116
705.656	8869
705.775	8486
705.893	11115
706.012	11720
706.130	8186
706.249	8813
706.367	8423
706.485	9861
706.604	10143
706.722	11425
706.840	14356
706.958	9545
707.077	9030
707.195	8905
707.313	8813
707.431	8546
707.549	8590
707.668	7944
707.786	8667
707.904	8660
708.022	9112
708.140	7593
708.258	8597
708.376	8852
708.494	9007
708.612	9354
708.730	11496
708.848	11255
708.966	12615
709.084	12552
709.202	9634
709.320	9345
709.438	9801
709.556	9165
709.674	9871
709.791	9688
709.909	8718
710.027	8463
710.145	8627
710.263	9584
710.380	9013
710.498	9383
710.616	9228
710.733	9197
710.851	9387
710.969	8747
711.086	9562
711.204	8772
711.322	8646
711.439	8671
711.557	8983
711.674	8639
711.792	8771
711.909	9265
712.027	8071
712.144	8018
712.262	8862
712.379	8724
712.497	11127
712.614	12543
712.732	11213
712.849	9737
712.966	14402
713.084	21761
713.201	12784
713.318	10267
713.436	9838
713.553	9848
713.670	10449
713.787	9990
713.905	10251
714.022	9238
714.139	9737
714.256	11000
714.373	9870
714.490	9751
714.608	11100
714.725	17110
714.842	14655
714.959	8514
715.076	9267
715.193	8556
715.310	8969
715.427	9751
715.544	9797
715.661	10693
715.778	9015
715.895	9512
716.011	9811
716.128	9437
716.245	11442
716.362	22315
716.479	19985
716.596	10018
716.713	10229
716.829	8686
716.946	9226
717.063	8381
717.180	8438
717.296	8453
717.413	8696
717.530	10539
717.646	9387
717.763	8758
717.880	8053
717.996	9231
718.113	11847
718.229	9243
718.346	9284
718.462	11038
718.579	22902
718.695	56581
718.812	19218
718.928	11761
719.045	8604
719.161	8445
719.277	9140
719.394	8722
719.510	9124
719.626	7763
719.743	8938
719.859	7124
719.975	7573
720.092	9202
720.208	11388
720.324	9021
720.440	8376
720.557	14273
720.673	36631
720.789	23877
720.905	24183
721.021	9478
721.137	7335
721.253	8378
721.369	8270
721.486	7512
721.602	9409
721.718	7316
721.834	7211
721.950	9123
722.066	8517
722.181	8560
722.297	10398
722.413	7645
722.529	8002
722.645	7349
722.761	7262
722.877	6637
722.993	6738
723.108	6828
723.224	6696
723.340	6302
723.456	7542
723.571	8016
723.687	6458
723.803	6820
723.918	8358
724.034	6850
724.150	6467
724.265	7111
724.381	12385
724.497	12349
724.612	6439
724.728	5718
724.843	6789
724.959	7917
725.074	12428
725.190	10368
725.305	7217
725.421	6746
725.536	5645
725.651	6565
725.767	6411
725.882	6679
725.997	6338
726.113	7423
726.228	6014
726.343	5695
726.459	5442
726.574	6261
726.689	5849
726.804	6464
726.920	5877
727.035	5455
727.150	6492
727.265	6128
727.380	7112
727.495	7259
727.610	6700
727.725	6518
727.841	6404
727.956	7665
728.071	7561
728.186	5655
728.301	5891
728.416	7645
728.531	7861
728.645	6249
728.760	9621
728.875	12926
728.990	9959
729.105	7576
729.220	11118
729.335	9497
729.449	6374
729.564	5415
729.679	4638
729.794	4930
729.908	6325
730.023	5930
730.138	5854
730.253	4565
730.367	4395
730.482	5042
730.596	6145
730.711	7212
730.826	5982
730.940	4923
731.055	7982
731.169	6031
731.284	4602
731.398	4224
731.513	5380
731.627	4932
731.742	5124
731.856	5761
731.970	5740
732.085	5914
732.199	4279
732.313	4289
732.428	4672
732.542	5703
732.656	4936
732.771	4313
732.885	5145
732.999	4517
733.113	4494
733.227	4550
733.342	5354
733.456	3985
733.570	4304
733.684	3888
733.798	3873
733.912	4605
734.026	4143
734.140	4161
734.254	5516
734.368	6230
734.482	7216
734.596	4009
734.710	4776
734.824	4116
734.938	5296
735.052	5297
735.166	7077
735.280	4704
735.393	4456
735.507	3918
735.621	5139
735.735	6838
735.849	4477
735.962	4176
736.076	4154
736.190	4411
736.303	5526
736.417	6268
736.531	4529
736.644	4449
736.758	3997
736.872	3942
736.985	4135
737.099	3556
737.212	4006
737.326	4347
737.439	4325
737.553	4468
737.666	4867
737.780	3449
737.893	3183
738.007	4016
738.120	3875
738.233	4595
738.347	4759
738.460	5334
738.573	6928
738.687	6237
738.800	7722
738.913	13521
739.026	5696
739.140	3528
739.253	3635
739.366	4390
739.479	3068
739.592	4258
739.705	3712
739.818	4281
739.932	3439
740.045	4467
740.158	5264
740.271	4481
740.384	4799
740.497	6634
740.610	7944
740.723	6245
740.836	8165
740.949	8536
741.062	15291
741.174	7709
741.287	3866
741.400	4422
741.513	8223
741.626	8189
741.739	6100
741.851	6687
741.964	5110
742.077	5628
742.189	8486
742.302	14476
742.415	11057
742.527	5638
742.640	4621
742.753	3929
742.865	4090
742.978	3231
743.090	4019
743.203	3527
743.316	4221
743.428	2731
743.541	3508
743.653	2885
743.766	4716
743.878	4338
743.990	5772
744.103	11664
744.215	16568
744.327	7591
744.440	9717
744.552	20321
744.664	6053
744.777	3621
744.889	3169
745.001	3607
745.113	2927
745.226	3363
745.338	3574
745.450	3215
745.562	3682
745.674	3380
745.786	3386
745.898	3167
746.010	3047
746.122	3577
746.234	3229
746.347	3763
746.459	3823
746.570	4791
746.682	9818
746.794	22072
746.906	7973
747.018	3796
747.130	3808
747.242	3865
747.354	2490
747.466	3713
747.577	3804
747.689	3311
747.801	3031
747.913	3369
748.024	2635
748.136	2937
748.248	3765
748.359	4148
748.471	2761
748.583	2432
748.694	2756
748.806	3409
748.918	3372
749.029	4193
749.141	6861
749.252	5768
749.364	9992
749.475	27447
749.587	8762
749.698	3711
749.809	4206
749.921	2150
750.032	3045
750.144	3002
750.255	3398
750.366	3144
750.478	2950
750.589	3543
750.700	5018
750.811	5660
750.923	9112
751.034	35472
751.145	24162
751.256	3415
751.367	2952
751.479	2928
751.590	2528
751.701	2521
751.812	2641
751.923	2367
752.034	2632
752.145	3080
752.256	2585
752.367	2101
752.478	2582
752.589	2843
752.700	2946
752.811	1972
752.922	3568
753.032	5630
753.143	5934
753.254	2591
753.365	2967
753.476	2489
753.586	2198
753.697	2220
753.808	2132
753.919	2215
754.029	2913
754.140	1888
754.251	2203
754.361	2334
754.472	2507
754.582	3782
754.693	3182
754.804	2720
754.914	1714
755.025	2655
755.135	2137
755.246	2191
755.356	1929
755.466	3407
755.577	2224
755.687	2226
755.798	2599
755.908	2616
756.018	2927
756.129	1976
756.239	2225
756.349	2624
756.460	3009
756.570	2739
756.680	3030
756.790	4010
756.900	5677
757.011	1808
757.121	3092
757.231	2908
757.341	2884
757.451	2432
757.561	1877
757.671	2644
757.781	1178
757.891	2785
758.001	1885
758.111	2840
758.221	3896
758.331	5045
758.441	5597
758.551	12394
758.661	7829
758.771	3150
758.880	3131
758.990	2729
759.100	1928
759.210	2138
759.320	2516
759.429	2055
759.539	2420
759.649	2486
759.758	2530
759.868	2677
759.978	1557
760.087	2347
760.197	2100
760.307	2219
760.416	3029
760.526	2521
760.635	2793
760.745	1917
760.854	1677
760.964	2147
761.073	2164
761.182	2110
761.292	2469
761.401	2893
761.511	1902
761.620	2694
761.729	2757
761.839	3142
761.948	3934
762.057	4889
762.166	2009
762.276	1424
762.385	3315
762.494	2796
762.603	1169
762.712	1559
762.822	2998
762.931	2776
763.040	1914
763.149	2153
763.258	2468
763.367	3161
763.476	3013
763.585	2916
763.694	2912
763.803	2194
763.912	1940
764.021	2512
764.130	2096
764.238	2089
764.347	1846
764.456	2015
764.565	2439
764.674	2347
764.783	2008
764.891	1942
765.000	2903
765.109	2841
765.217	3520
765.326	4094
765.435	4067
765.543	3478
765.652	3982
765.761	4266
765.869	6876
765.978	10903
766.086	21225
766.195	42734
766.303	136856
766.412	462395
766.520	242806
766.629	33324
766.737	13702
766.846	9000
766.954	6948
767.062	6000
767.171	5419
767.279	4432
767.387	3652
767.496	4114
767.604	3194
767.712	2994
767.820	2812
767.928	3589
768.037	4010
768.145	4110
768.253	4302
768.361	2748
768.469	2845
768.577	2635
768.685	3001
768.793	3517
768.901	3052
769.009	3727
769.117	4075
769.225	4651
769.333	6170
769.441	8989
769.549	17559
769.657	47355
769.765	187912
769.873	330098
769.981	54620
770.088	11175
770.196	6908
770.304	5218
770.412	5058
770.519	3129
770.627	3109
770.735	2655
770.842	3219
770.950	3392
771.058	3775
771.165	2343
771.273	2925
771.380	2785
771.488	3294
771.595	1574
771.703	1775
771.810	3127
771.918	2126
772.025	1868
772.133	2585
772.240	2026
772.348	2931
772.455	3170
772.562	2006
772.670	1777
772.777	1831
772.884	1802
772.991	2217
773.099	2206
773.206	1606
773.313	2340
773.420	1634
773.528	749
773.635	2269
773.742	3157
773.849	2655
773.956	1270
774.063	2110
774.170	1936
774.277	3012
774.384	1454
774.491	2506
774.598	2367
774.705	4173
774.812	6446
774.919	3436
775.026	2769
775.133	2243
775.239	2097
775.346	1928
775.453	2430
775.560	1972
775.667	1734
775.773	1088
775.880	2014
775.987	1449
776.093	1868
776.200	2252
776.307	2338
776.413	2749
776.520	1268
776.627	2386
776.733	2515
776.840	2174
776.946	7584
777.053	16841
777.159	40263
777.266	21217
777.372	33665
777.478	24731
777.585	11368
777.691	3629
777.798	2862
777.904	4461
778.010	10295
778.117	6418
778.223	2677
778.329	1567
778.435	1913
778.542	3178
778.648	1246
778.754	2041
778.860	1779
778.966	2392
779.072	1745
779.178	1534
779.284	2091
779.391	1068
779.497	-228
779.603	3421
779.708	345
779.815	2630
779.920	2644
780.026	3236
780.132	1624
780.238	1137
780.344	2201
780.450	2246
780.556	1439
780.661	1552
780.767	1732
780.873	2573
780.979	1770
781.085	850
781.190	1154
781.296	2388
781.402	1109
781.507	1759
781.613	988
781.719	1355
781.824	2097
781.930	2216
782.035	1508
782.141	568
782.246	1332
782.352	1771
782.457	667
782.563	1317
782.668	790
782.773	1278
782.879	1365
782.984	2643
783.090	4405
783.195	10832
783.300	3469
783.405	1552
783.511	1040
783.616	1786
783.721	2096
783.826	1163
783.932	1871
784.037	2018
784.142	1171
784.247	1232
784.352	1016
784.457	2143
784.562	1771
784.667	985
784.772	936
784.877	1083
784.982	1232
785.087	981
785.192	2583
785.297	1317
785.402	772
785.507	919
785.611	1151
785.716	1859
785.821	1297
785.926	1323
786.031	553
786.135	2231
786.240	970
786.345	950
786.450	1539
786.554	1387
786.659	1185
786.763	668
786.868	1494
786.973	2057
787.077	1456
787.182	1492
787.286	1160
787.391	1011
787.495	917
787.600	1951
787.704	1646
787.809	1692
787.913	719
788.017	1487
788.122	811
788.226	1560
788.330	489
788.435	858
788.539	446
788.643	681
788.747	725
788.852	1091
788.956	738
789.060	1445
789.164	576
789.268	470
789.372	1439
789.476	1152
789.580	938
789.684	689
789.788	1370
789.892	845
789.996	1552
790.100	665
790.204	1521
790.308	1405
790.412	636
790.516	1891
790.620	1301
790.724	1253
790.828	611
790.931	1082
791.035	2856
791.139	1339
791.242	306
791.346	1336
791.450	1186
791.554	1188
791.657	1181
791.761	2644
791.864	2703
791.968	1978
792.072	1279
792.175	1109
792.279	440
792.382	1989
792.486	1745
792.589	1329
792.693	1490
792.796	920
792.899	1783
793.003	2353
793.106	1183
793.209	1395
793.313	3376
793.416	1230
793.519	4161
793.623	9278
793.726	13466
793.829	3228
793.932	2212
794.035	1614
794.138	3516
794.242	2779
794.345	2610
794.448	5244
794.551	11803
794.654	7356
794.757	3719
794.860	2499
794.963	1432
795.066	1935
795.169	1969
795.272	981
795.375	772
795.477	1728
795.580	1128
795.683	275
795.786	1253
795.889	28
795.991	1817
796.094	2113
796.197	-177
796.300	2002
796.402	483
796.505	153
796.608	383
796.710	1328
796.813	307
796.915	336
797.018	780
797.120	1310
797.223	-1581
797.326	1744
797.428	303
797.530	89
797.633	754
797.735	1649
797.838	1318
797.940	1529
798.042	386
798.145	370
798.247	1377
798.349	-992
798.452	1154
798.554	681
798.656	-839
798.758	1370
798.860	302
798.962	-349
799.065	-223
799.167	-61
799.269	979
799.371	1531
799.473	1796
799.575	-356
799.677	1504
799.779	6020
799.881	9321
799.983	2856
800.085	1358
800.187	541
800.289	-10
800.390	758
800.492	825
800.594	1282
800.696	475
800.798	690
800.899	78
801.001	636
801.103	594
801.205	294
801.306	528
801.408	-731
801.509	553
801.611	662
801.713	-182
801.814	-449
801.916	-2
802.017	106
802.119	-954
802.220	744
802.322	-1247
802.423	2702
802.525	-1055
802.626	386
802.727	889
802.829	1628
802.930	-472
803.031	1457
803.133	-21
803.234	-431
803.335	-229
803.436	-692
803.538	677
803.639	-625
803.740	784
803.841	372
803.942	-138
804.043	1026
804.144	129
804.245	364
804.346	94
804.447	1326
804.548	6800
804.649	5210
804.750	792
804.851	311
804.952	-236
805.053	633
805.154	-957
805.255	1286
805.355	412
805.456	-113
805.557	-493
805.658	-181
805.758	695
805.859	370
805.960	19
806.061	711
806.161	0
806.262	104
806.362	-290
806.463	242
806.564	383
806.664	129
806.765	277
806.865	950
806.966	-311
807.066	309
807.166	1561
807.267	807
807.367	403
807.468	352
807.568	-656
807.668	1008
807.769	436
807.869	215
807.969	171
808.069	-109
808.170	-461
808.270	244
808.370	1989
808.470	4385
808.570	1214
808.670	276
808.770	-334
808.870	-971
808.970	168
809.070	547
809.170	-285
809.271	2214
809.370	358
809.470	152
809.570	-313
809.670	213
809.770	-154
809.870	479
809.970	757
810.070	-11
810.169	528
810.269	-927
810.369	489
810.469	893
810.568	-39
810.668	12
810.768	481
810.867	-339
810.967	-612
811.066	457
811.166	463
811.265	1307
811.365	-239
811.464	-472
811.564	370
811.663	677
811.763	-1308
811.862	667
811.962	689
812.061	-66
812.160	-623
812.260	87
812.359	-122
812.458	-310
812.557	635
812.657	-253
812.756	-1093
812.855	-35
812.954	-295
813.053	472
813.153	353
813.252	-890
813.351	275
813.450	143
813.549	-537
813.648	-81
813.747	-406
813.846	632
813.945	-71
814.044	119
814.143	197
814.242	406
814.341	75
814.439	698
814.538	207
814.637	213
814.736	-49
814.835	1405
814.933	-1232
815.032	1042
815.131	-561
815.229	-101
815.328	-465
815.427	-115
815.525	716
815.624	-138
815.722	128
815.821	408
815.919	-510
816.018	-493
816.116	617
816.215	-249
816.313	-124
816.412	-253
816.510	-183
816.609	707
816.707	598
816.805	158
816.904	-34
817.002	260
817.100	580
817.198	1567
817.296	-367
817.395	495
817.493	624
817.591	-876
817.689	500
817.787	-397
817.885	-40
817.983	1414
818.081	1445
818.179	3713
818.277	6930
818.375	6613
818.473	4834
818.571	2300
818.669	3813
818.767	5085
818.865	1080
818.963	125
819.061	494
819.158	562
819.256	3237
819.354	6289
819.452	13822
819.549	4295
819.647	1300
819.745	875
819.842	2570
819.940	1119
820.038	849
820.135	-746
820.233	1131
820.330	-603
820.428	-285
820.525	1040
820.623	498
820.720	800
820.818	577
820.915	1465
821.012	2475
821.110	158
821.207	500
821.304	574
821.402	2677
821.499	7177
821.596	13099
821.693	5482
821.791	3066
821.888	6597
821.985	18340
822.082	10877
822.179	4411
822.276	4588
822.373	2493
822.470	542
822.567	834
822.664	-683
822.761	772
822.858	-859
822.955	386
823.052	687
823.149	342
823.246	623
823.343	-362
823.440	905
823.536	90
823.633	-941
823.730	-126
823.827	439
823.923	114
824.020	2644
824.117	2495
824.213	3995
824.310	1983
824.407	284
824.503	-477
824.600	51
824.696	-393
824.793	1792
824.889	-427
824.986	-19
825.082	-182
825.179	481
825.275	68
825.371	-83
825.468	356
825.564	-1107
825.660	-6
825.757	471
825.853	566
825.949	-575
826.045	-686
826.142	-704
826.238	-335
826.334	-221
826.430	-812
826.526	933
826.622	-489
826.718	384
826.814	-310
826.910	965
827.006	-69
827.102	-1486
827.198	131
827.294	-434
827.390	-282
827.486	281
827.582	-1250
827.678	-397
827.774	-636
827.869	-787
827.965	978
828.061	-1343
828.157	-148
828.252	298
828.348	-621
828.444	775
828.539	-1113
828.635	-76
828.731	391
828.826	-856
828.922	884
829.017	-242
829.113	506
829.208	-654
829.304	-755
829.399	1767
829.495	-1127
829.590	830
829.685	-1051
829.781	407
829.876	-608
829.971	347
830.066	-436
830.162	-51
830.257	-650
830.352	-972
830.447	803
830.543	-193
830.638	-1810
830.733	481
830.828	-513
830.923	549
831.018	-701
831.113	-103
831.208	-1335
831.303	124
831.398	-1056
831.493	-815
831.588	154
831.683	-435
831.778	-23
831.873	-22
831.967	229
832.062	-448
832.157	-1090
832.252	1369
832.346	220
832.441	2674
832.536	4751
832.631	14765
832.725	8183
832.820	166
832.914	-151
833.009	589
833.104	3377
833.198	4094
833.293	-207
833.387	-91
833.482	-234
833.576	-92
833.670	1723
833.765	325
833.859	305
833.954	1904
834.048	-3
834.142	-257
834.237	-963
834.331	-192
834.425	-649
834.519	-588
834.613	325
834.708	-723
834.802	204
834.896	-363
834.990	-899
835.084	-960
835.178	-354
835.272	-207
835.366	-1757
835.460	-132
835.554	-501
835.648	-227
835.742	-639
835.836	-135
835.930	-1018
836.024	695
836.117	409
836.211	-298
836.305	730
836.399	781
836.493	-1111
836.586	301
836.680	-1846
836.774	-1332
836.867	293
836.961	-634
837.055	-599
837.148	-484
837.242	-528
837.335	-92
837.429	-544
837.522	-364
837.616	-959
837.709	1198
837.803	-748
837.896	-656
837.989	-448
838.083	1246
838.176	1663
838.269	-90
838.363	152
838.456	346
838.549	3540
838.642	8001
838.735	16264
838.829	3595
838.922	-737
839.015	-580
839.108	-660
839.201	-429
839.294	-627
839.387	109
839.480	-1177
839.573	898
839.666	-292
839.759	-234
839.852	-925
839.945	367
840.038	-531
840.131	-320
840.223	-250
840.316	-184
840.409	-913
840.502	-629
840.594	375
840.687	-1123
840.780	281
840.873	-141
840.965	-837
841.058	30
841.150	840
841.243	-270
841.336	146
841.428	-497
841.521	-829
841.613	-531
841.706	172
841.798	481
841.890	-314
841.983	-1459
842.075	368
842.167	-421
842.260	-444
842.352	1029
842.444	584
842.537	1047
842.629	1764
842.721	-290
842.813	-461
842.905	-1000
842.997	171
843.090	-201
843.182	202
843.274	1547
843.366	5139
843.458	8283
843.550	3674
843.642	369
843.734	-348
843.826	1230
843.918	802
844.009	959
844.101	-252
844.193	735
844.285	834
844.377	2979
844.469	6564
844.560	9435
844.652	7486
844.744	1680
844.835	537
844.927	366
845.019	118
845.110	-254
845.202	-297
845.293	-476
845.385	-1153
845.476	-853
845.568	-216
845.659	-142
845.751	74
845.842	-1106
845.934	-388
846.025	-1085
846.116	123
846.208	-877
846.299	-546
846.390	-51
846.482	66
846.573	751
846.664	1500
846.755	3132
846.846	2295
846.937	-954
847.029	-7
847.120	-571
847.211	-6
847.302	858
847.393	-1124
847.484	68
847.575	-883
847.666	-725
847.757	-682
847.847	60
847.938	-87
848.029	175
848.120	-1418
848.211	-169
848.302	-934
848.392	-294
848.483	-274
848.574	-761
848.664	-568
848.755	-484
848.846	-329
848.936	-640
849.027	-924
849.118	-318
849.208	-1081
849.299	781
849.389	-12
849.480	-162
849.570	810
849.661	1795
849.751	1881
849.841	-295
849.932	-417
850.022	-395
850.112	435
850.203	-628
850.293	-968
850.383	356
850.474	-548
850.564	-597
850.654	-387
850.744	350
850.834	-379
850.924	-388
851.014	-1215
851.104	281
851.194	380
851.284	2021
851.374	2621
851.464	797
851.554	50
851.644	-21
851.734	1754
851.824	-983
851.914	-1085
852.004	-262
852.094	-931
852.183	173
852.273	-298
852.363	-987
852.452	-503
852.542	985
852.632	-262
852.721	-608
852.811	-843
852.901	-99
852.990	-1144
853.080	-754
853.169	-1401
853.259	-402
853.348	-1007
853.438	-817
853.527	294
853.617	-504
853.706	318
853.795	777
853.885	3669
853.974	6388
854.063	14403
854.152	19104
854.242	4655
854.331	436
854.420	-983
854.509	-87
854.598	-362
854.687	-417
854.777	-455
854.866	-943
854.955	359
855.044	-333
855.133	-223
855.222	224
855.311	-444
855.400	964
855.488	321
855.577	175
855.666	334
855.755	1039
855.844	334
855.933	-342
856.021	153
856.110	313
856.199	-808
856.288	-575
856.376	-670
856.465	-512
856.554	-409
856.642	46
856.731	-235
856.819	-181
856.908	-403
856.996	274
857.085	-269
857.173	-299
857.262	-1238
857.350	-789
857.438	-1250
857.527	-507
857.615	-299
857.703	-522
857.792	-602
857.880	-1062
857.968	-1237
858.056	-53
858.145	79
858.233	580
858.321	-1042
858.409	356
858.497	-451
858.585	-620
858.673	-686
858.761	-140
858.849	-1368
858.937	-575
859.025	-71
859.113	286
859.201	749
859.289	2402
859.377	134
859.465	307
859.552	-129
859.640	358
859.728	-522
859.816	-887
859.903	-148
859.991	-387
860.079	-348
860.166	-331
860.254	-92
860.342	119
860.429	-1098
860.517	-302
860.604	-185
860.692	31
860.779	-999
860.867	-11
860.954	472
861.042	262
861.129	743
861.216	35
861.304	-365
861.391	104
861.478	-774
861.565	-366
861.653	324
861.740	-230
861.827	-941
861.914	361
862.001	-10
862.089	679
862.176	-120
862.263	-623
862.350	-468
862.437	-1236
862.524	65
862.611	757
862.698	1846
862.785	3214
862.871	2636
862.958	227
863.045	-681
863.132	-327
863.219	-360
863.306	-1287
863.392	-1094
863.479	-35
863.566	-599
863.652	-226
863.739	-838
863.826	-179
863.912	-241
863.999	-888
864.086	-294
864.172	-653
864.259	-740
864.345	-308
864.432	-539
864.518	-293
864.604	235
864.691	503
864.777	210
864.863	399
864.950	44
865.036	-343
865.122	-156
865.209	214
865.295	52
865.381	-245
865.467	573
865.553	670
865.639	22
865.726	490
865.812	3936
865.898	6268
865.984	9036
866.070	19862
866.156	13819
866.242	1442
866.328	-191
866.414	-657
866.499	-588
866.585	-482
866.671	-140
866.757	728
866.843	280
866.928	-803
867.014	-414
867.100	1212
867.186	18
867.271	2047
867.357	2188
867.442	1490
867.528	1228
867.614	1473
867.699	3459
867.785	5830
867.870	8539
867.956	10404
868.041	4992
868.127	4080
868.212	6040
868.297	6090
868.383	3525
868.468	6489
868.553	9970
868.639	11074
868.724	24707
868.809	15933
868.894	2123
868.979	-556
869.065	310
869.150	-513
869.235	-589
869.320	-250
869.405	-68
869.490	-359
869.575	-456
869.660	-494
869.745	-41
869.830	-61
869.915	103
870.000	539
870.085	619
870.169	1594
870.254	1334
870.339	41
870.424	-727
870.509	-235
870.593	-443
870.678	-35
870.763	-180
870.847	1377
870.932	476
871.016	2472
871.101	1472
871.186	836
871.270	142
871.355	-784
871.439	-441
871.523	-280
871.608	-203
871.692	963
871.777	2008
871.861	240
871.945	-955
872.030	-1029
872.114	-1208
872.198	-670
872.282	-1086
872.367	-507
872.451	-315
872.535	70
872.619	-1750
872.703	-690
872.787	-470
872.871	294
872.955	-688
873.039	-448
873.123	-645
873.207	-92
873.291	-1280
873.375	-130
873.459	-472
873.543	-502
873.627	-615
873.711	-857
873.794	-99
873.878	-947
873.962	-1181
874.045	49
874.129	24
874.137	-24
874.213	-504
874.245	-638
874.296	-853
874.352	-154
874.380	184
874.460	-1041
874.464	-1090
874.547	-693
874.568	-548
874.631	-135
874.676	-567
874.714	-915
874.784	-102
874.798	56
874.881	1281
874.892	1075
874.965	-325
874.999	-78
875.048	226
875.107	-489
875.131	-776
875.215	-60
875.215	-60
875.298	-64
875.323	-83
875.381	-107
875.430	31
875.465	116
875.538	229
875.548	245
875.631	-249
875.646	-343
875.714	-862
875.753	-827
875.798	-696
875.861	-703
875.881	-740
875.964	-63
875.968	-32
876.047	666
876.076	440
876.130	-0
876.183	111
876.213	178
876.291	1571
876.296	1650
876.379	-553
876.398	-613
876.462	-661
876.506	-675
876.545	-689
876.613	-448
876.628	-400
876.711	-463
876.721	-466
876.794	-433
876.828	-344
876.877	-260
876.935	-422
876.960	-493
877.043	59
877.043	57
877.125	-255
877.150	-416
877.208	-811
877.258	-654
877.291	-518
877.365	-736
877.374	-771
877.456	-526
877.472	-490
877.539	-274
877.579	-432
877.622	-727
877.687	-157
877.704	78
877.787	-291
877.794	-268
877.869	-238
877.901	-173
877.952	-60
878.008	-383
878.034	-496
878.115	-456
878.117	-455
878.199	-567
878.222	-642
878.282	-858
878.329	-542
878.364	-383
878.437	-390
878.447	-347
878.529	-1006
878.544	-886
878.611	-458
878.651	-149
878.694	160
878.758	-360
878.776	-472
878.858	384
878.865	411
878.941	626
878.972	671
879.023	818
879.078	182
879.105	16
879.185	2300
879.187	2337
879.269	1469
879.292	1236
879.351	259
879.399	-266
879.433	-310
879.506	29
879.516	61
879.598	172
879.613	157
879.680	-88
879.720	-275
879.762	-376
879.827	-386
879.844	-365
879.926	-530
879.933	-491
880.007	-282
880.040	-197
880.089	-61
880.147	-412
880.171	-405
880.253	652
880.254	652
880.335	710
880.360	897
880.417	1404
880.467	2013
880.499	2641
880.574	3076
880.580	2972
880.662	1144
880.680	817
880.744	67
880.787	-239
880.825	-374
880.893	-375
880.907	-341
880.989	-290
881.000	-285
881.070	43
881.106	156
881.152	42
881.213	-9
881.233	-27
881.315	-251
881.319	-246
881.396	591
881.426	635
881.478	35
881.532	-197
881.559	-130
881.639	-21
881.641	-15
881.722	-46
881.745	14
881.803	200
881.852	388
881.885	474
881.958	940
881.966	1029
882.047	2169
882.064	2256
882.129	2811
882.171	4009
882.210	6314
882.277	9531
882.291	9274
882.372	3719
882.383	3324
882.454	1212
882.489	110
882.535	-280
882.596	-245
882.616	-273
882.697	-377
882.702	-390
882.778	201
882.808	372
882.859	302
882.914	315
882.940	296
883.020	-79
883.021	-74
883.102	586
883.127	546
883.183	337
883.233	237
883.264	24
883.339	8
883.345	68
883.426	366
883.445	443
883.507	381
883.551	519
883.587	742
883.657	921
883.668	967
883.749	1226
883.763	1234
883.830	454
883.869	54
883.910	65
883.975	51
883.991	15
884.072	61
884.081	51
884.152	415
884.187	527
884.233	298
884.292	-37
884.314	-50
884.394	260
884.398	249
884.475	213
884.504	323
884.555	548
884.610	561
884.636	552
884.716	702
884.716	706
884.797	284
884.821	201
884.877	299
884.927	243
884.958	168
885.033	61
885.038	71
885.118	381
885.139	353
885.199	349
885.244	414
885.279	325
885.350	331
885.359	341
885.439	287
885.456	158
885.520	-238
885.561	-132
885.600	103
885.667	373
885.680	441
885.760	530
885.773	624
885.840	924
885.878	868
885.920	705
885.984	545
886.000	519
886.080	306
886.089	281
886.160	211
886.195	243
886.240	870
886.300	1765
886.320	1768
886.400	1470
886.406	1470
886.480	2662
886.511	3003
886.560	3649
886.616	4189
886.640	3655
886.720	2024
886.722	1974
886.800	360
886.827	-152
886.879	36
886.932	183
886.959	362
887.038	774
887.039	775
887.119	357
887.143	219
887.198	170
887.248	187
887.278	450
887.354	863
887.358	855
887.437	679
887.459	634
887.517	773
887.564	941
887.596	828
887.669	353
887.676	381
887.755	683
887.774	773
887.835	623
887.880	577
887.914	560
887.985	187
887.994	166
888.073	200
888.090	194
888.153	922
888.195	1445
888.232	1273
888.300	792
888.311	842
888.391	1204
888.405	1273
888.470	858
888.510	553
888.549	835
888.615	1376
888.628	1338
888.708	967
888.720	923
888.787	1093
888.825	1129
888.866	875
888.930	469
888.945	544
889.024	976
889.035	1030
889.103	917
889.140	826
889.182	981
889.245	1209
889.261	1168
889.340	990
889.349	959
889.419	1382
889.454	1605
889.498	1224
889.559	676
889.577	774
889.656	1200
889.664	1240
889.735	730
889.768	487
889.814	860
889.873	1350
889.978	545
890.083	1235
890.187	502
890.292	725
890.397	1399
890.501	588
890.606	712
890.710	1208
890.815	503
890.919	687
891.024	976
891.128	1581
891.233	1018
891.337	1105
891.442	281
891.546	948
891.650	397
891.755	496
891.859	1923
891.963	378
892.068	1119
892.172	710
892.276	56
892.380	383
892.484	23
892.589	1186
892.693	1235
892.797	302
892.901	624
893.005	499
893.109	1972
893.213	1607
893.317	1319
893.421	918
893.525	232
893.629	209
893.733	791
893.837	1280
893.941	-395
894.045	995
894.148	586
894.252	1369
894.356	1440
894.460	3079
894.564	693
894.667	1088
894.771	702
894.875	548
894.978	1133
895.082	123
895.186	671
895.289	818
895.393	659
895.496	671
895.600	-465
895.703	822
895.807	1082
895.910	442
896.014	676
896.117	558
896.221	843
896.324	1024
896.427	1013
896.531	1296
896.634	286
896.737	1263
896.840	237
896.944	354
897.047	8
897.150	491
897.253	452
897.356	721
897.460	1524
897.563	787
897.666	255
897.769	316
897.872	-292
897.975	687
898.078	522
898.181	511
898.284	-241
898.387	1342
898.490	268
898.593	492
898.695	346
898.798	1055
898.901	1997
899.004	726
899.107	144
899.209	1020
899.312	678
899.415	1286
899.518	1043
899.620	1073
899.723	1470
899.826	6573
899.928	8161
900.031	1746
900.133	288
900.236	200
900.338	477
900.441	305
900.543	883
900.646	536
900.748	1220
900.851	523
900.953	327
901.055	1775
901.158	2520
901.260	1910
901.362	1076
901.465	1143
901.567	825
901.669	526
901.771	84
901.873	1749
901.976	685
902.078	1358
902.180	705
902.282	984
902.384	1230
902.486	1277
902.588	938
902.690	2055
902.792	1942
902.894	2163
902.996	-10
903.098	1240
903.200	1158
903.302	1123
903.404	1376
903.505	897
903.607	812
903.709	677
903.811	104
903.913	362
904.014	22
904.116	872
904.218	442
904.319	1562
904.421	2563
904.523	3381
904.624	2589
904.726	1164
904.827	1537
904.929	3259
905.030	2188
905.132	1263
905.233	1210
905.335	532
905.436	954
905.537	551
905.639	725
905.740	557
905.841	1254
905.943	2415
906.044	3512
906.145	2188
906.247	820
906.348	810
906.449	155
906.550	1248
906.651	574
906.752	771
906.854	842
906.955	687
907.056	175
907.157	554
907.258	1047
907.359	82
907.460	1176
907.561	272
907.662	984
907.762	1053
907.863	726
907.964	2435
908.065	1316
908.166	414
908.267	920
908.367	584
908.468	-204
908.569	1198
908.670	1896
908.770	4438
908.871	3091
908.971	2006
909.072	1867
909.173	1071
909.273	435
909.374	826
909.474	225
909.575	797
909.675	751
909.776	547
909.876	111
909.977	997
910.077	1163
910.177	237
910.278	-142
910.378	896
910.478	218
910.579	944
910.679	1061
910.779	536
910.879	685
910.980	674
911.080	678
911.180	388
911.280	446
911.380	670
911.480	602
911.580	595
911.680	1631
911.780	1328
911.880	2102
911.980	800
912.080	553
912.180	466
912.280	1063
912.380	1070
912.480	-152
912.580	841
912.679	-138
912.779	1160
912.879	26
912.979	-332
913.078	142
913.178	837
913.278	179
913.377	-349
913.477	843
913.577	96
913.676	693
913.776	679
913.875	968
913.975	1070
914.074	440
914.174	859
914.273	-138
914.373	1140
914.472	-20
914.572	727
914.671	1089
914.770	1772
914.870	73
914.969	268
915.068	182
915.167	796
915.267	305
915.366	-397
915.465	112
915.564	481
915.663	411
915.763	1153
915.862	577
915.961	604
916.060	125
916.159	103
916.258	14
916.357	809
916.456	1225
916.555	876
916.654	418
916.752	755
916.851	1066
916.950	564
917.049	733
917.148	-95
917.247	851
917.345	825
917.444	630
917.543	493
917.642	511
917.740	432
917.839	-27
917.937	657
918.036	1737
918.135	301
918.233	409
918.332	740
918.430	571
918.529	788
918.627	-431
918.726	128
918.824	626
918.923	-462
919.021	1015
919.119	412
919.218	1225
919.316	757
919.414	602
919.512	468
919.611	406
919.709	668
919.807	977
919.905	634
920.003	285
920.102	88
920.200	-128
920.298	1406
920.396	649
920.494	1009
920.592	311
920.690	943
920.788	1048
920.886	903
920.984	1361
921.082	1701
921.180	4948
921.277	10602
921.375	4108
921.473	856
921.571	69
921.669	839
921.766	1258
921.864	504
921.962	818
922.060	620
922.157	464
922.255	915
922.352	1097
922.450	1253
922.548	882
922.645	2419
922.743	5546
922.840	6358
922.938	834
923.035	850
923.133	1299
923.230	1257
923.327	686
923.425	429
923.522	1120
923.619	1640
923.717	3856
923.814	3049
923.911	1001
924.008	1351
924.106	318
924.203	174
924.300	509
924.397	679
924.494	1174
924.591	963
924.688	724
924.786	328
924.883	584
924.979	354
925.077	-468
925.173	848
925.270	634
925.367	223
925.464	215
925.561	1992
925.658	1110
925.755	1532
925.852	3124
925.948	2955
926.045	4378
926.142	4943
926.239	6782
926.335	6501
926.432	5563
926.529	6273
926.625	6901
926.722	4122
926.818	2866
926.915	1824
927.011	1632
927.108	772
927.204	313
927.301	668
927.397	45
927.494	717
927.590	534
927.687	1102
927.783	528
927.879	215
927.976	547
928.072	169
928.168	609
928.264	151
928.361	444
928.457	745
928.553	163
928.649	503
928.745	263
928.841	283
928.937	320
929.033	447
929.129	455
929.225	780
929.321	480
929.417	792
929.513	-220
929.609	606
929.705	425
929.801	347
929.897	484
929.993	145
930.089	570
930.184	1149
930.280	563
930.376	1254
930.471	26
930.567	330
930.663	529
930.758	627
930.854	753
930.950	230
931.045	-220
931.141	794
931.236	585
931.332	1154
931.427	846
931.523	173
931.618	1171
931.714	-600
931.809	872
931.905	373
932.000	655
932.095	-64
932.191	568
932.286	485
932.381	-851
932.476	210
932.572	-308
932.667	737
932.762	178
932.857	449
932.952	802
933.047	373
933.142	-640
933.237	581
933.332	-180
933.427	308
933.522	567
933.617	478
933.712	622
933.807	106
933.902	80
933.997	496
934.092	632
934.187	148
934.282	996
934.376	258
934.471	452
934.566	574
934.661	-250
934.755	324
934.850	-285
934.945	1303
935.039	1262
935.134	601
935.228	256
935.323	-187
935.417	1074
935.512	372
935.606	177
935.701	-18
935.795	119
935.890	763
935.984	471
936.079	798
936.173	795
936.267	478
936.362	-39
936.456	586
936.550	695
936.644	560
936.738	291
936.833	844
936.927	12
937.021	417
937.115	23
937.209	-26
937.303	2144
937.397	587
937.491	298
937.585	1016
937.679	447
937.773	250
937.867	-108
937.961	690
938.055	320
938.149	-47
938.243	389
938.337	727
938.430	1440
938.524	3727
938.618	8710
938.712	7177
938.805	2672
938.899	1635
938.993	1835
939.086	4436
939.180	10868
939.274	13782
939.367	5236
939.461	1672
939.554	231
939.648	1264
939.741	161
939.835	826
939.928	1105
940.022	1421
940.115	231
940.208	1169
940.302	424
940.395	631
940.488	-150
940.582	522
940.675	-798
940.768	387
940.861	370
940.954	651
941.048	1073
941.141	1752
941.234	3102
941.327	5955
941.420	7213
941.513	3444
941.606	1084
941.699	1432
941.792	-244
941.885	661
941.978	346
942.071	186
942.164	960
942.257	1052
942.349	-384
942.442	480
942.535	-418
942.628	18
942.721	984
942.813	403
942.906	1089
942.999	501
943.091	-323
943.184	374
943.277	-478
943.369	1472
943.462	-524
943.554	716
943.647	-294
943.739	1997
943.832	245
943.924	477
944.017	591
944.109	-144
944.201	-108
944.294	1680
944.386	613
944.478	506
944.571	127
944.663	768
944.755	-225
944.847	-379
944.940	192
945.032	-417
945.124	137
945.216	671
945.308	830
945.400	981
945.492	273
945.584	236
945.676	-775
945.768	331
945.860	348
945.952	439
946.044	1763
946.136	1299
946.228	270
946.320	3
946.412	-170
946.503	-62
946.595	638
946.687	-373
946.779	-548
946.870	280
946.962	-607
947.054	52
947.145	593
947.237	-93
947.329	-650
947.420	20
947.512	-249
947.603	396
947.695	-255
947.786	-114
947.878	-369
947.969	688
948.061	-343
948.152	233
948.243	-114
948.335	-40
948.426	136
948.517	-266
948.609	-198
948.700	-165
948.791	-535
948.882	178
948.973	1
949.065	118
949.156	-348
949.247	-110
949.338	439
949.429	-135
949.520	461
949.611	24
949.702	-496
949.793	-457
949.884	76
949.975	251
950.066	-538
950.157	-186
950.247	303
950.338	-159
950.429	58
950.520	112
950.611	-167
950.701	-351
950.792	152
950.883	944
950.973	175
951.064	253
951.155	353
951.245	537
951.336	10
951.427	155
951.517	-98
951.608	487
951.698	-790
951.788	294
951.879	-195
951.969	-223
952.060	-552
952.150	-440
952.240	109
952.331	-1773
952.421	1333
952.511	-1225
952.602	553
952.692	-429
952.782	-171
952.872	827
952.962	-33
953.052	325
953.143	-1282
953.233	142
953.323	80
953.413	-754
953.503	220
953.593	219
953.683	-296
953.773	-598
953.863	-371
953.953	-531
954.042	365
954.132	-419
954.222	407
954.312	351
954.402	-556
954.492	172
954.581	1145
954.671	-612
954.761	-833
954.850	662
954.940	-305
955.030	4
955.119	-614
955.209	301
955.298	-406
955.388	-52
955.477	135
955.567	-549
955.656	-333
955.746	80
955.835	-545
955.925	-607
956.014	-576
956.103	-1026
956.193	-253
956.282	-80
956.371	-380
956.461	-191
956.550	-683
956.639	-294
956.728	-628
956.817	-181
956.906	-536
956.995	1083
957.085	-1041
957.174	60
957.263	-335
957.352	-428
957.441	-355
957.530	25
957.619	74
957.708	-1071
957.796	13
957.885	162
957.974	-639
958.063	101
958.152	-849
958.241	-364
958.329	-115
958.418	-540
958.507	-724
958.596	-46
958.684	-750
958.773	252
958.861	-139
958.950	413
959.039	-159
959.127	-686
959.216	-395
959.304	477
959.393	-740
959.481	-284
959.570	5
959.658	-342
959.746	79
959.835	866
959.923	579
960.011	160
960.100	-56
960.188	447
960.276	-999
960.365	-267
960.453	-235
960.541	-1219
960.629	163
960.717	-44
960.805	-688
960.893	263
960.981	-716
961.069	-209
961.158	-417
961.245	-86
961.333	759
961.421	-17
961.509	435
961.597	128
961.685	-296
961.773	-655
961.861	-1208
961.949	-361
962.036	-1045
962.124	-150
962.212	-536
962.299	-413
962.387	-647
962.475	-640
962.562	-275
962.650	1025
962.738	-244
962.825	196
962.913	-101
963.000	-323
963.088	-759
963.175	472
963.263	393
963.350	-402
963.438	-208
963.525	605
963.612	744
963.700	3320
963.787	9107
963.874	3009
963.962	-27
964.049	438
964.136	-160
964.223	-528
964.310	146
964.398	826
964.485	-677
964.572	92
964.659	585
964.746	891
964.833	-295
964.920	315
965.007	-172
965.094	-723
965.181	-281
965.268	227
965.355	163
965.441	-574
965.528	-807
965.615	-74
965.702	-419
965.789	-1321
965.875	-700
965.962	27
966.049	-764
966.136	-1033
966.222	-733
966.309	428
966.395	-790
966.482	328
966.569	-1294
966.655	-402
966.742	-1274
966.828	-424
966.915	-772
967.001	-672
967.087	-1463
967.174	-229
967.260	59
967.347	651
967.433	1943
967.519	5359
967.605	480
967.692	-618
967.778	-1205
967.864	-470
967.950	-196
968.036	-75
968.123	-493
968.209	-160
968.295	-1208
968.381	1073
968.467	515
968.553	-726
968.639	-293
968.725	-958
968.811	1007
968.897	410
968.983	-460
969.069	-949
969.154	398
969.240	306
969.326	-389
969.412	-468
969.497	-1060
969.583	-795
969.669	1151
969.755	6
969.840	-949
969.926	-680
970.012	-1464
970.097	396
970.183	-552
970.268	-734
970.354	240
970.439	382
970.525	3903
970.610	-73
970.696	350
970.781	79
970.866	-1529
970.952	-526
971.037	-969
971.122	-788
971.208	-619
971.293	-618
971.378	-931
971.463	-1020
971.549	-142
971.634	-700
971.719	-161
971.804	-361
971.889	87
971.974	-929
972.059	-713
972.144	-194
972.229	-1633
972.314	-1164
972.399	238
972.484	-297
972.569	-803
972.654	-460
972.739	1593
972.824	530
972.908	-135
972.993	-1391
973.078	-832
973.163	-173
973.247	-822
973.332	-1579
973.417	359
973.501	-627
973.586	174
973.671	529
973.755	-30
973.840	1768
973.924	507
974.009	-535
974.093	-1007
974.178	1227
974.262	215
974.346	1478
974.431	-1204
974.515	-508
974.600	-683
974.684	107
974.768	-448
974.852	344
974.937	-1275
975.021	-244
975.105	-732
975.189	-135
975.273	121
975.358	-703
975.442	-1212
975.526	292
975.610	-1056
975.694	-1492
975.778	381
975.862	-589
975.946	-2080
976.030	688
976.114	-67
976.198	-81
976.281	118
976.365	703
976.449	-946
976.533	-349
976.617	-1401
976.700	-583
976.784	-169
976.868	-1062
976.951	395
977.035	-548
977.119	-356
977.202	-581
977.286	-574
977.369	-713
977.453	-280
977.536	-962
977.620	-1628
977.703	-737
977.787	-891
977.870	153
977.953	-309
978.037	-779
978.120	765
978.203	-2
978.287	2264
978.370	393
978.453	-797
978.536	-223
978.620	273
978.703	47
978.786	-563
978.869	-829
978.952	-993
979.035	164
979.118	-467
979.201	-1799
979.284	-956
979.367	-316
979.450	-710
979.533	-1155
979.616	-412
979.699	-375
979.782	261
979.865	322
979.948	115
980.030	-349
980.113	-536
980.196	-1770
980.279	402
980.361	-341
980.444	-1259
980.526	-358
980.609	-721
980.692	-1186
980.774	-737
980.857	-1861
980.939	93
981.022	-452
981.104	-1275
981.187	-453
981.269	-162
981.352	-613
981.434	-1567
981.516	-549
981.599	495
981.681	94
981.763	-1129
981.846	-940
981.928	-599
982.010	-313
982.092	-802
982.174	573
982.256	-1292
982.339	-954
982.421	-465
982.503	-477
982.585	-1734
982.667	-226
982.749	-208
982.831	-135
982.913	-1251
982.995	68
983.077	-1515
983.158	346
983.240	-741
983.322	-105
983.404	327
983.486	-937
983.568	159
983.649	-865
983.731	-294
983.813	-1096
983.894	-253
983.976	-176
984.058	-414
984.139	300
984.221	-1795
984.302	-167
984.384	-935
984.465	-1191
984.547	-560
984.628	-1217
984.710	20
984.791	-518
984.872	-1259
984.954	-499
985.035	-1032
985.116	-500
985.198	-754
985.279	836
985.360	-1103
985.441	-1106
985.522	-332
985.604	-1135
985.685	-2289
985.766	64
985.847	323
985.928	-941
986.009	-588
986.090	-243
986.171	506
986.252	-986
986.333	-94
986.414	-660
986.495	-954
986.576	-710
986.656	-123
986.737	129
986.818	-555
986.899	-865
986.980	-1384
987.060	548
987.141	-1228
987.222	-174
987.302	-639
987.383	-960
987.464	-1256
987.544	-492
987.625	-1323
987.705	-12
987.786	-475
987.866	-886
987.947	-1060
988.027	-48
988.108	-970
988.188	88
988.268	-421
988.349	-578
988.429	-1678
988.509	-13
988.589	-1056
988.670	-1960
988.750	1226
988.830	-227
988.910	-748
988.990	-772
989.070	-454
989.151	-286
989.231	-1259
989.311	237
989.391	-664
989.471	-626
989.551	-1066
989.631	-857
989.711	-663
989.791	-1459
989.870	-1031
989.950	230
990.030	-944
990.110	-718
990.190	-1167
990.269	-608
990.349	-779
990.429	478
990.509	-272
990.588	-1193
990.668	-1051
990.747	-1136
990.827	-784
990.907	58
990.986	-1432
991.066	-121
991.145	-847
991.225	483
991.304	-658
991.383	-95
991.463	-446
991.542	-103
991.622	-895
991.701	-1167
991.780	-1100
991.859	-933
991.939	-834
992.018	-1058
992.097	-1062
992.176	311
992.256	-861
992.335	-812
992.414	300
992.493	-1064
992.572	-278
992.651	891
992.730	-373
992.809	-97
992.888	-1816
992.967	-1507
993.046	-482
993.125	-794
993.203	-684
993.282	-375
993.361	-831
993.440	365
993.519	-1664
993.597	-1156
993.676	-1664
993.755	-82
993.834	-396
993.912	-1215
993.991	182
994.069	-700
994.148	-656
994.226	-1265
994.305	-111
994.384	-761
994.462	374
994.540	-1833
994.619	-638
994.697	-414
994.776	-1680
994.854	-520
994.932	-946
995.011	-371
995.089	-720
995.167	-407
995.245	-224
995.324	-813
995.402	-496
995.480	-704
995.558	-581
995.636	-1697
995.714	-1167
995.792	358
995.870	-210
995.948	-1073
996.026	-110
996.104	-1019
996.182	-420
996.260	-780
996.338	-1364
996.416	-608
996.494	-762
996.572	-14
996.649	-567
996.727	-1449
996.805	-95
996.883	-945
996.960	-1852
997.038	-873
997.116	-412
997.193	-1166
997.271	-621
997.348	-701
997.426	-322
997.504	-1059
997.581	-1248
997.658	-214
997.736	-1541
997.813	-1703
997.891	292
997.968	-634
998.046	-446
998.123	-1064
998.200	-1273
998.277	-1112
998.355	88
998.432	-1857
998.509	-1226
998.586	106
998.663	-352
998.741	-1288
998.818	-904
998.895	-336
998.972	-603
999.049	-869
999.126	-595
999.203	-660
999.280	-1030
999.357	-744
999.434	-1523
999.511	-569
999.587	-443
999.664	-1307
999.741	-520
999.818	-158
999.895	-1078
999.971	-1246
1000.048	-697
1000.125	256
1000.202	-673
1000.278	-960
1000.355	134
1000.431	-974
1000.508	-843
1000.584	12
1000.661	-620
1000.738	-1257
1000.814	-1284
1000.890	-539
1000.967	-1530
1001.043	-1071
1001.120	-1524
1001.196	-789
1001.272	-1170
1001.349	-1150
1001.425	-880
1001.501	-1095
1001.577	-2040
1001.654	-934
1001.730	-1320
1001.806	-680
1001.882	-1270
1001.958	-235
1002.034	-867
1002.110	-503
1002.186	-952
1002.262	-1440
1002.338	-2027
1002.414	-366
1002.490	-747
1002.566	-1735
1002.642	-1182
1002.718	-669
1002.794	-422
1002.870	-833
1002.945	-1208
1003.021	-1028
1003.097	-660
1003.173	-417
1003.248	-1779
1003.324	-320
1003.400	-542
1003.475	-1314
1003.551	-783
1003.626	-1225
1003.702	-1452
1003.777	-291
1003.853	-1378
1003.928	-1677
1004.004	-1247
1004.079	-556
1004.155	-746
1004.230	-1502
1004.305	-123
1004.381	-2352
1004.456	-1458
1004.531	-587
1004.607	-992
1004.682	-186
1004.757	-1364
1004.832	-999
1004.907	-1014
1004.982	-1062
1005.057	102
1005.133	-1463
1005.208	-1608
1005.283	-1457
1005.358	-745
1005.433	-1062
1005.508	-580
1005.583	-1625
1005.657	-657
1005.732	-526
1005.807	-1594
1005.882	-851
1005.957	-1004
1006.032	-78
1006.106	-1251
1006.181	-662
1006.256	-695
1006.331	-1762
1006.405	-1448
1006.480	-1023
1006.554	-1405
1006.629	-866
1006.704	-1070
1006.778	-645
1006.853	-979
1006.927	-1647
1007.002	-1431
1007.076	-672
1007.150	-2442
1007.225	-1420
1007.299	-840
1007.373	-1188
1007.448	-1054
1007.522	-1350
1007.596	-853
1007.671	-1778
1007.745	-485
1007.819	-1566
1007.893	-1754
1007.967	77
1008.041	-1937
1008.115	-54
1008.190	-1926
1008.264	-274
1008.338	-2296
1008.412	-1314
1008.486	-672
1008.560	-955
1008.633	-1635
1008.707	-1107
1008.781	-488
1008.855	-1525
1008.929	-891
1009.003	-1066
1009.076	-1097
1009.150	-1356
1009.224	-430
1009.298	-960
1009.371	-1178
1009.445	-937
1009.519	-1199
1009.592	-1476
1009.666	-1364
1009.739	-998
1009.813	-1410
1009.886	-579
1009.960	-1619
1010.033	-710
1010.107	-413
1010.180	-1583
1010.253	-804
1010.327	-473
1010.400	-1404
1010.473	-590
1010.547	-155
1010.620	-696
1010.693	129
1010.766	-539
1010.840	641
1010.913	-225
1010.986	-461
1011.059	-183
1011.132	-38
1011.205	446
1011.278	604
1011.351	-643
1011.424	955
1011.497	-83
1011.570	-348
1011.643	-764
1011.716	-1495
1011.789	-1214
1011.862	-1329
1011.934	-206
1012.007	-2162
1012.080	-1228
1012.153	-577
1012.225	-392
1012.298	-1232
1012.371	-1156
1012.443	-570
1012.516	-1864
1012.588	-1327
1012.661	-1400
1012.733	-1090
1012.806	-1047
1012.879	-954
1012.951	-1021
1013.023	-1262
1013.096	-1159
1013.168	-1056
1013.241	393
1013.313	-793
1013.385	-1862
1013.458	-1488
1013.530	-715
1013.602	-877
1013.674	-9
1013.746	-1896
1013.819	-1690
1013.891	-657
1013.963	-1813
1014.035	-1183
1014.107	-1072
1014.179	-870
1014.251	-1528
1014.323	201
1014.395	-1322
1014.467	-465
1014.539	-1143
1014.611	-2172
1014.683	-803
1014.754	-2060
1014.826	-1371
1014.898	-1221
1014.970	-1636
1015.042	-464
1015.113	-784
1015.185	-830
1015.257	-1699
1015.328	-468
1015.400	-1703
1015.471	-1165
1015.543	-1569
1015.615	-1570
1015.686	-1197
1015.757	-762
1015.829	-767
1015.901	-1108
1015.972	-1084
1016.043	-882
1016.115	-1176
1016.186	-639
1016.257	-1302
1016.328	-1182
1016.400	-711
1016.471	-1897
1016.542	-1078
1016.613	-648
1016.685	-351
1016.756	-1677
1016.827	-1387
1016.898	-2287
1016.969	-287
1017.040	-773
1017.111	-1857
1017.182	-1270
1017.253	-926
1017.324	-1462
1017.395	-1413
1017.466	-1548
1017.537	-1018
1017.608	-1916
1017.678	-1580
1017.749	-1452
1017.820	-1276
1017.891	-1933
1017.961	-1040
1018.032	-1014
1018.103	-674
1018.173	-896
1018.244	-824
1018.315	-2404
1018.385	-991
1018.456	-795
1018.526	-1306
1018.597	-1531
1018.667	-1434
1018.738	-1246
1018.808	-1303
1018.878	-1232
1018.949	-1335
1019.019	-235
1019.089	-600
1019.160	-1514
1019.230	-1380
1019.300	-1121
1019.371	-2186
1019.441	-1734
1019.511	-928
1019.581	-1035
1019.651	-1731
1019.721	-1519
1019.791	-1418
1019.861	-1513
1019.931	-1213
1020.001	-1200
1020.071	-642
1020.141	-2275
1020.211	-949
1020.281	-1961
1020.351	-956
1020.421	-1531
1020.491	-1169
1020.560	-1555
1020.630	-996
1020.700	-1940
1020.770	-1759
1020.839	-1222
1020.909	-1292
1020.979	-2129
1021.048	-1719
1021.118	-644
1021.187	-1481
1021.257	-1090
1021.326	-1143
1021.396	-1647
1021.465	-664
1021.535	-481
1021.604	-1731
1021.674	-1327
1021.743	-1557
1021.812	-1798
1021.882	-1353
1021.951	-2155
1022.020	-1466
1022.089	-1288
1022.159	-1987
1022.228	-938
1022.297	-1652
1022.366	-1675
1022.435	-1228
1022.504	-1749
1022.573	-2371
1022.642	-1267
1022.711	-834
1022.781	-1414
1022.849	-973
1022.918	-2143
1022.987	-1008
1023.056	-1129
1023.125	-1342
1023.194	-1484
1023.263	-1010
1023.331	-644
1023.400	-1964
1023.469	-1293
1023.538	-522
1023.606	-2130
1023.675	-1672
1023.744	-1427
1023.812	-1270
1023.881	-1507
1023.949	-2088
1024.018	-1104
1024.086	-1612
1024.155	-1418
1024.223	-1399
1024.292	-1114
1024.360	-762
1024.429	-1312
1024.497	-708
1024.565	-595
1024.634	-1713
1024.702	-1263
1024.770	-1475
1024.838	-653
1024.907	-884
1024.975	-1506
1025.043	-858
1025.111	-2517
1025.179	-1139
1025.247	-1532
1025.315	-1258
1025.383	-1404
1025.451	-1695
1025.519	-1471
1025.587	-1455
1025.655	-643
1025.723	-1513
1025.791	-1765
1025.859	-1484
1025.927	-636
1025.995	-1610
1026.062	-1904
1026.130	-785
1026.198	-1454
1026.266	-1416
1026.333	-1585
1026.401	-1629
1026.469	-728
1026.536	-899
1026.604	-1732
1026.671	-1271
1026.739	-1253
1026.806	-2135
1026.874	-1086
1026.941	-1625
1027.009	-1562
1027.076	-1237
1027.144	-539
1027.211	-1774
1027.278	-1753
1027.345	-1447
1027.413	-1432
1027.480	-1553
1027.547	-1309
1027.614	-1279
1027.682	-1615
1027.749	-1278
1027.816	-1069
1027.883	-1355
1027.950	-1761
1028.017	-1580
1028.084	-1696
1028.151	-1399
1028.218	-1339
1028.285	-1531
1028.352	-2228
1028.419	-1904
1028.486	-2270
1028.553	-1889
1028.619	-2839
1028.686	-1752
1028.753	-1611
1028.820	-1326
1028.886	-1957
1028.953	-1406
1029.020	-2103
1029.086	-1673
1029.153	-1931
1029.220	-1279
1029.286	-1367
1029.353	-1122
1029.419	-1612
1029.486	-1091
1029.552	-2346
1029.619	-1522
1029.685	-1000
1029.751	-2059
1029.818	-770
1029.884	-1095
1029.951	-670
1030.017	-2077
1030.083	-2002
1030.149	-1260
1030.216	-1871
1030.282	-1133
1030.348	-1316
1030.414	-1537
1030.480	-2560
1030.546	-830
1030.612	-1766
1030.678	-2322
1030.744	-1219
1030.810	-1483
1030.876	-1820
1030.942	-1410
1031.008	-1873
1031.074	-1880
1031.140	-2038
1031.206	-853
1031.272	-1575
1031.337	-2843
1031.403	-1468
1031.469	-1519
1031.534	-1712
1031.600	-1416
1031.666	-2177
1031.731	-1443
1031.797	-1331
1031.863	-1470
1031.928	-2400
1031.994	-1404
1032.059	-1208
1032.125	-1388
1032.190	-2160
1032.256	-1619
1032.321	-1665
1032.386	-1427
1032.452	-681
1032.517	-2054
1032.582	-2145
1032.647	-740
1032.713	-1886
1032.778	-1711
1032.843	-1314
1032.908	-1182
1032.974	-2786
1033.039	-1924
1033.104	-1687
1033.169	-1399
1033.234	-1420
1033.299	-1793
1033.364	-1000
1033.429	-1035
1033.494	-1635
1033.559	-1726
1033.624	-1375
1033.688	-17
1033.753	-2422
1033.818	-1843
1033.883	-1617
1033.948	-1601
1034.013	-1653
1034.077	-359
1034.142	-1033
1034.207	-1828
1034.271	-2465
1034.336	-1264
1034.400	-1044
1034.465	-1470
1034.530	-1718
1034.594	-1781
1034.658	-1243
1034.723	-1444
1034.787	-1510
1034.852	-1993
1034.916	-2005
1034.981	-1278
1035.045	-1623
1035.109	-1588
1035.173	-1063
1035.238	-2146
1035.302	-1173
1035.366	-1257
1035.430	-2023
1035.495	-1920
1035.559	-1599
1035.623	-1293
1035.687	-2249
1035.751	-2091
1035.815	-2355
1035.879	-1537
1035.943	-641
1036.007	-2283
1036.071	-1336
1036.135	-1226
1036.198	-1654
1036.262	-1792
1036.326	-1490
1036.390	-844
1036.454	-1425
1036.517	-1887
1036.581	-2054
1036.645	-739
1036.709	-1490
1036.772	-1224
1036.836	-1282
1036.900	-1717
1036.963	-1147
1037.026	-966
1037.090	-1532
1037.154	-2272
1037.217	-1689
1037.280	-2144
1037.344	-1433
1037.407	-2030
1037.471	-1860
1037.534	-2273
1037.597	-2120
1037.661	-1892
1037.724	-2129
1037.787	-2046
1037.850	-1550
1037.913	-1921
1037.977	-1413
1038.040	-1936
1038.103	-2092
1038.166	-2346
1038.229	-1698
1038.292	-997
1038.355	-820
1038.418	-1634
1038.481	-1698
1038.544	-1897
1038.607	-1162
1038.670	-1686
1038.732	-2088
1038.795	-2595
1038.858	-1617
1038.921	-2002
1038.984	-663
1039.046	-1908
1039.109	-2627
1039.172	-1444
1039.234	-1625
1039.297	-1584
1039.360	-1472
1039.422	-1674
1039.485	-2258
1039.547	-1469
1039.610	-2051
1039.672	-1855
1039.734	-2761
1039.797	-1672
1039.859	-1982
1039.922	-1307
1039.984	-2169
1040.046	-1274
1040.109	-1242
1040.171	-1825
1040.233	-1202
1040.295	-1540
1040.358	-1501
1040.420	-1405
1040.482	-2262
1040.544	-2107
1040.606	-1930
1040.668	-1201
1040.730	-1969
1040.792	-2115
1040.854	-2095
1040.916	-1901
1040.978	-2524
1041.040	-869
1041.102	-1767
1041.164	-1609
1041.225	-2050
1041.287	-1652
1041.349	-1770
1041.411	-1222
1041.472	-2372
1041.534	-2208
1041.596	-1659
1041.657	-2030
1041.719	-1457
1041.781	-1675
1041.842	-919
1041.904	-1558
1041.965	-1296
1042.027	-1803
1042.088	-1723
1042.150	-1847
1042.211	-2325
1042.272	-1248
1042.334	-2214
1042.395	-1818
1042.456	-1643
1042.518	-1455
1042.579	-1438
1042.640	-2243
1042.701	-1708
1042.763	-1824
1042.824	-1925
1042.885	-1814
1042.946	-2024
1043.007	-1442
1043.068	-1560
1043.129	-2280
1043.190	-1118
1043.251	-1221
1043.312	-2418
1043.373	-1002
1043.434	-1696
1043.495	-1065
1043.556	-1047
1043.616	-1587
1043.677	-1516
1043.738	-1531
1043.799	-2314
1043.859	-1429
1043.920	-1987
1043.981	-1666
1044.041	-2038
1044.102	-1532
1044.162	-2073
1044.223	-1824
1044.284	-2081
1044.344	-1163
1044.405	-1211
1044.465	-1292
1044.525	-1665
1044.586	-1583
1044.646	-1423
1044.707	-1012
1044.767	-1802
1044.827	-1369
1044.887	-1956
1044.948	-847
1045.008	-1320
1045.068	-2192
1045.128	-2080
1045.188	-783
1045.249	-671
1045.309	-1058
1045.369	-702
1045.429	-521
1045.489	-1432
1045.549	-982
1045.609	-1960
1045.669	-1112
1045.729	-1222
1045.789	-1435
1045.848	-1991
1045.908	-422
1045.968	-1334
1046.028	-1573
1046.088	-1142
1046.147	-474
1046.207	-987
1046.267	-1691
1046.326	-1522
1046.386	-1292
1046.446	-1002
1046.505	-517
1046.565	178
1046.624	732
1046.684	-790
1046.743	262
1046.803	-153
1046.862	278
1046.922	0
