'Start Wavelength	183.907
'End Wavelength	1046.922
'Gate Delay	5.000
'Gate Width (ms)	1.050
'Laser Output Level	0.000
'X Position	0.000
'Y Position	0.000
'Z Position	0.000
'Grid Point Number	1.000
'Shot Number	100.000
183.907	194.000
183.977	-396.000
184.047	-88
184.116	551
184.186	451
184.256	-714
184.325	-10
184.395	-268
184.465	500
184.534	-39
184.604	-96
184.674	883
184.743	-90
184.813	39
184.883	-51
184.952	656
185.022	221
185.092	-541
185.161	177
185.231	1153
185.301	166
185.370	883
185.440	422
185.509	-258
185.579	607
185.649	-189
185.718	464
185.788	742
185.857	156
185.927	-311
185.996	139
186.066	-195
186.136	-33
186.205	261
186.275	4
186.344	-25
186.414	-55
186.483	-878
186.553	-39
186.622	766
186.692	510
186.761	50
186.831	-292
186.900	-196
186.970	272
187.039	546
187.109	239
187.178	635
187.248	637
187.317	1191
187.387	-278
187.456	1121
187.526	1154
187.595	-109
187.664	335
187.734	500
187.803	472
187.873	78
187.942	439
188.012	376
188.081	71
188.150	-97
188.220	1125
188.289	763
188.358	621
188.428	812
188.497	43
188.567	1058
188.636	762
188.705	17
188.775	-470
188.844	-352
188.913	746
188.983	-2
189.052	-126
189.121	1
189.191	211
189.260	1648
189.329	818
189.399	701
189.468	840
189.537	652
189.606	1068
189.676	294
189.745	424
189.814	414
189.883	287
189.953	845
190.022	975
190.091	2695
190.161	2617
190.230	1656
190.299	497
190.368	894
190.437	276
190.507	-50
190.576	725
190.645	-421
190.714	72
190.783	178
190.853	872
190.922	350
190.991	173
191.060	-134
191.129	576
191.198	686
191.268	199
191.337	570
191.406	524
191.475	-79
191.544	-154
191.613	508
191.682	-597
191.752	121
191.821	143
191.890	417
191.959	-223
192.028	31
192.097	-380
192.166	189
192.235	195
192.304	-141
192.373	-106
192.442	266
192.511	262
192.580	188
192.650	-253
192.719	343
192.788	178
192.857	664
192.926	85
192.995	402
193.064	853
193.133	1086
193.202	1023
193.271	1041
193.340	1214
193.409	1178
193.478	2237
193.547	724
193.615	852
193.684	1546
193.753	683
193.822	1015
193.891	1002
193.960	981
194.029	486
194.098	382
194.167	22
194.236	657
194.305	525
194.374	787
194.443	589
194.512	1380
194.580	584
194.649	415
194.718	1748
194.787	1180
194.856	383
194.925	605
194.994	717
195.062	1392
195.131	725
195.200	1743
195.269	1960
195.338	573
195.407	1201
195.475	886
195.544	2126
195.613	2212
195.682	938
195.751	1781
195.819	1356
195.888	1851
195.957	2801
196.026	2261
196.094	2244
196.163	1894
196.232	2247
196.301	2220
196.369	1527
196.438	1583
196.507	458
196.576	1157
196.644	619
196.713	506
196.782	-253
196.850	794
196.919	395
196.988	482
197.056	146
197.125	571
197.194	501
197.262	753
197.331	553
197.400	647
197.468	799
197.537	775
197.606	552
197.674	1487
197.743	3529
197.812	1114
197.880	3016
197.949	1734
198.017	2849
198.086	2042
198.155	1637
198.223	1368
198.292	3003
198.360	1891
198.429	696
198.497	1075
198.566	2285
198.635	4086
198.703	1724
198.772	1779
198.840	2833
198.909	5132
198.977	1273
199.046	348
199.114	1456
199.183	542
199.251	913
199.320	448
199.388	282
199.457	1299
199.525	-128
199.594	1418
199.662	1110
199.731	691
199.799	740
199.867	816
199.936	735
200.004	910
200.073	1137
200.141	714
200.210	190
200.278	1030
200.346	920
200.415	1224
200.483	1223
200.552	469
200.620	561
200.688	653
200.757	226
200.825	1052
200.893	781
200.962	1318
201.030	-47
201.098	690
201.167	1524
201.235	973
201.303	1205
201.372	1128
201.440	933
201.508	1072
201.577	1302
201.645	987
201.713	117
201.781	387
201.850	1815
201.918	1382
201.986	498
202.055	1905
202.123	604
202.191	642
202.259	1028
202.327	1159
202.396	1425
202.464	1062
202.532	2346
202.600	7419
202.669	5511
202.737	1450
202.805	972
202.873	810
202.941	819
203.009	901
203.078	891
203.146	746
203.214	434
203.282	5
203.350	661
203.418	355
203.487	974
203.555	52
203.623	813
203.691	532
203.759	302
203.827	991
203.895	1122
203.963	620
204.031	656
204.099	1558
204.168	406
204.236	1592
204.304	1034
204.372	1199
204.440	1066
204.508	615
204.576	444
204.644	719
204.712	250
204.780	734
204.848	602
204.916	559
204.984	604
205.052	1765
205.120	631
205.188	1632
205.256	101
205.324	-46
205.392	1247
205.460	1084
205.528	708
205.596	660
205.664	805
205.732	1078
205.799	3535
205.867	7277
205.935	1869
206.003	2105
206.071	340
206.139	1271
206.207	1336
206.275	996
206.343	824
206.411	1993
206.478	1199
206.546	1201
206.614	241
206.682	610
206.750	1399
206.818	1347
206.885	1032
206.953	-483
207.021	1217
207.089	1269
207.157	138
207.225	836
207.292	1086
207.360	1016
207.428	800
207.496	702
207.563	1166
207.631	1252
207.699	350
207.767	1436
207.834	800
207.902	999
207.970	1138
208.038	521
208.105	541
208.173	1449
208.241	1989
208.309	1950
208.376	1153
208.444	4218
208.512	1795
208.579	487
208.647	1634
208.715	1715
208.782	1234
208.850	1468
208.918	971
208.985	1256
209.053	2299
209.120	1824
209.188	513
209.256	1816
209.323	889
209.391	2741
209.459	2355
209.526	1035
209.594	541
209.661	1475
209.729	1429
209.796	1417
209.864	1289
209.932	541
209.999	2986
210.067	1876
210.134	2259
210.202	2374
210.269	3238
210.337	2882
210.404	1203
210.472	1566
210.539	2410
210.607	2127
210.674	2672
210.742	1765
210.809	1396
210.877	2600
210.944	3766
211.012	1664
211.079	3133
211.146	1608
211.214	1141
211.281	2310
211.349	2469
211.416	1980
211.484	2472
211.551	1889
211.618	1807
211.686	1532
211.753	633
211.821	1693
211.888	1496
211.955	2044
212.023	701
212.090	1784
212.157	2021
212.225	2867
212.292	4550
212.359	9084
212.427	20442
212.494	11356
212.561	4874
212.629	3744
212.696	2228
212.763	2649
212.831	1692
212.898	2495
212.965	1279
213.032	2108
213.100	2570
213.167	1838
213.234	2571
213.301	1272
213.369	2205
213.436	1763
213.503	905
213.570	2170
213.638	1906
213.705	2026
213.772	1537
213.839	4287
213.906	4802
213.973	3258
214.041	1891
214.108	2094
214.175	2067
214.242	1579
214.309	1563
214.376	1919
214.444	2161
214.511	2852
214.578	1622
214.645	2549
214.712	2944
214.779	2412
214.846	1716
214.913	2406
214.980	3140
215.048	2525
215.115	3848
215.182	3765
215.249	3522
215.316	1895
215.383	1667
215.450	2179
215.517	2633
215.584	2254
215.651	2032
215.718	2376
215.785	3786
215.852	2816
215.919	3617
215.986	4257
216.053	2084
216.120	1982
216.187	3301
216.254	4342
216.321	2932
216.388	3224
216.455	4225
216.522	3141
216.589	4547
216.656	7611
216.722	7266
216.789	4761
216.856	3601
216.923	2215
216.990	2977
217.057	3001
217.124	4656
217.191	3331
217.258	4481
217.324	4248
217.391	3820
217.458	2929
217.525	2563
217.592	2307
217.659	2259
217.725	3172
217.792	4877
217.859	5327
217.926	2190
217.993	1949
218.059	1918
218.126	1976
218.193	1912
218.260	1778
218.327	1957
218.393	2659
218.460	2371
218.527	1330
218.594	2202
218.660	6704
218.727	6839
218.794	3436
218.860	2450
218.927	2340
218.994	1686
219.061	2329
219.127	3259
219.194	5491
219.261	2495
219.327	1924
219.394	2785
219.461	716
219.527	2188
219.594	4324
219.661	3752
219.727	1280
219.794	2468
219.860	1911
219.927	2602
219.994	2859
220.060	6446
220.127	3799
220.193	3060
220.260	2146
220.326	3253
220.393	4747
220.460	5257
220.526	4435
220.593	3228
220.659	4795
220.726	3825
220.792	9765
220.859	7291
220.925	7413
220.992	9543
221.058	12163
221.125	13991
221.191	10480
221.258	4667
221.324	3741
221.391	3329
221.457	2971
221.524	2588
221.590	5021
221.657	13518
221.723	10700
221.789	7841
221.856	8963
221.922	4414
221.989	4062
222.055	3320
222.121	2584
222.188	4115
222.254	3121
222.321	2877
222.387	1994
222.453	2617
222.520	1528
222.586	2469
222.652	2125
222.719	941
222.785	2632
222.851	2372
222.918	2328
222.984	2898
223.050	1914
223.116	724
223.183	3164
223.249	1295
223.315	1083
223.382	1799
223.448	2283
223.514	1988
223.580	1232
223.647	2034
223.713	1475
223.779	1506
223.845	2639
223.911	2037
223.978	1099
224.044	2662
224.110	1826
224.176	2752
224.242	2057
224.309	1982
224.375	2041
224.441	1715
224.507	1130
224.573	1293
224.639	2514
224.705	884
224.772	1839
224.838	1238
224.904	3672
224.970	2906
225.036	2907
225.102	2430
225.168	3601
225.234	2957
225.300	2395
225.366	1497
225.432	2077
225.499	1982
225.565	2199
225.631	3170
225.697	3193
225.763	2911
225.829	3991
225.895	3181
225.961	6758
226.027	4617
226.093	3263
226.159	4473
226.225	4914
226.291	9215
226.357	15980
226.423	10326
226.489	7003
226.554	5051
226.620	4623
226.686	6267
226.752	10521
226.818	9755
226.884	21540
226.950	19890
227.016	7946
227.082	7022
227.148	5635
227.214	5883
227.279	4885
227.345	3667
227.411	4915
227.477	3981
227.543	6086
227.609	7230
227.674	5179
227.740	4303
227.806	4173
227.872	3377
227.938	3486
228.003	6942
228.069	3425
228.135	2055
228.201	2532
228.267	3005
228.332	4717
228.398	5480
228.464	4319
228.530	2023
228.595	2195
228.661	2434
228.727	6031
228.792	5361
228.858	2458
228.924	1941
228.990	5575
229.055	4876
229.121	6432
229.187	3704
229.252	3895
229.318	2763
229.384	3823
229.449	5304
229.515	1396
229.581	620
229.646	5160
229.712	4005
229.777	8150
229.843	10159
229.909	7304
229.974	7597
230.040	6653
230.105	4736
230.171	4818
230.236	6215
230.302	9336
230.368	8647
230.433	4728
230.499	4031
230.564	5681
230.630	3572
230.695	4323
230.761	3550
230.826	1507
230.892	7030
230.957	3941
231.023	2590
231.088	2904
231.154	2964
231.219	2976
231.284	4702
231.350	5827
231.415	2660
231.481	3530
231.546	2865
231.612	2967
231.677	1447
231.742	1510
231.808	3666
231.873	1873
231.939	1818
232.004	6606
232.069	7687
232.135	3408
232.200	2534
232.265	3475
232.331	2198
232.396	2473
232.461	1474
232.527	2086
232.592	1836
232.657	3632
232.723	5907
232.788	6175
232.853	3949
232.918	3866
232.984	1857
233.049	2005
233.114	6824
233.179	5999
233.245	8516
233.310	10684
233.375	2527
233.440	3754
233.506	2981
233.571	3452
233.636	3369
233.701	3228
233.766	6435
233.832	9417
233.897	4664
233.962	4436
234.027	7212
234.092	6122
234.157	4946
234.222	4331
234.288	6404
234.353	18917
234.418	20303
234.483	13110
234.548	9855
234.613	7632
234.678	6490
234.743	7432
234.808	21135
234.873	14698
234.938	7506
235.004	5665
235.069	5274
235.134	4675
235.199	4654
235.264	4322
235.329	3113
235.394	4889
235.459	6656
235.524	6250
235.589	5075
235.654	3781
235.719	2979
235.784	4493
235.849	4151
235.913	11402
235.978	13053
236.043	15631
236.108	6907
236.173	5227
236.238	7256
236.303	3948
236.368	3109
236.433	7076
236.498	11949
236.563	7933
236.627	10252
236.692	30040
236.757	25737
236.822	12191
236.887	12653
236.952	9267
237.017	6213
237.081	7965
237.146	9000
237.211	12814
237.276	27683
237.341	54241
237.405	28273
237.470	13956
237.535	11742
237.600	7640
237.664	6238
237.729	4485
237.794	5465
237.859	9556
237.923	10084
237.988	7074
238.053	10491
238.118	11805
238.182	24087
238.247	24955
238.312	13550
238.376	11224
238.441	6677
238.506	7544
238.570	3626
238.635	4829
238.700	4513
238.764	4505
238.829	11304
238.893	14539
238.958	7558
239.023	8239
239.087	4941
239.152	7417
239.216	4106
239.281	4534
239.346	4192
239.410	3801
239.475	5524
239.539	23293
239.604	20062
239.668	6938
239.733	5176
239.797	5225
239.862	8891
239.926	19090
239.991	9723
240.055	5506
240.120	5370
240.184	5909
240.249	4210
240.313	4236
240.378	4882
240.442	15273
240.507	23779
240.571	9789
240.635	11072
240.700	16445
240.764	6772
240.829	5353
240.893	2725
240.957	4249
241.022	14114
241.086	25258
241.151	12316
241.215	4967
241.279	6932
241.344	13756
241.408	8353
241.472	6353
241.537	6647
241.601	6462
241.665	3847
241.730	4842
241.794	6028
241.858	5621
241.922	6326
241.987	6185
242.051	5384
242.115	4072
242.179	4950
242.244	4983
242.308	5515
242.372	6019
242.436	7934
242.501	6455
242.565	4460
242.629	4601
242.693	5641
242.757	3592
242.822	4715
242.886	6429
242.950	6378
243.014	5903
243.078	8459
243.142	8437
243.206	5469
243.271	7404
243.335	6583
243.399	9509
243.463	26850
243.527	68402
243.591	26344
243.655	13281
243.719	7704
243.783	8441
243.847	13254
243.911	16364
243.975	23380
244.040	18867
244.104	9167
244.168	6260
244.232	11599
244.296	17194
244.360	16019
244.424	10412
244.488	9049
244.552	8235
244.615	5263
244.679	5683
244.743	7935
244.807	9336
244.871	5827
244.935	5551
244.999	4174
245.063	6549
245.127	7567
245.191	11439
245.255	11530
245.319	10236
245.383	9746
245.446	9327
245.510	5128
245.574	7590
245.638	8381
245.702	6845
245.766	16952
245.829	11661
245.893	8936
245.957	7118
246.021	8008
246.085	9164
246.149	10473
246.212	23535
246.276	34061
246.340	17586
246.404	13191
246.467	11716
246.531	17115
246.595	12131
246.659	11708
246.722	10785
246.786	14178
246.850	12703
246.913	16577
246.977	7842
247.041	8329
247.104	9857
247.168	8535
247.232	21568
247.295	44042
247.359	24950
247.423	12108
247.486	20100
247.550	14588
247.614	11111
247.677	15282
247.741	9555
247.804	7675
247.868	10489
247.932	20272
247.995	43674
248.059	19139
248.122	8694
248.186	12320
248.249	22489
248.313	62253
248.376	71382
248.440	48623
248.503	20990
248.567	17494
248.630	22979
248.694	31044
248.757	37283
248.821	69215
248.884	50318
248.948	42275
249.011	60319
249.075	80581
249.138	73827
249.202	34355
249.265	21573
249.328	25152
249.392	19321
249.455	16023
249.519	11886
249.582	15241
249.645	23906
249.709	17166
249.772	11496
249.835	11383
249.899	14267
249.962	11401
250.025	10466
250.089	26129
250.152	41049
250.215	21931
250.279	17260
250.342	14535
250.405	14880
250.468	12452
250.532	16060
250.595	25167
250.658	65090
250.721	109382
250.785	46736
250.848	27221
250.911	16512
250.974	15023
251.038	19761
251.101	42105
251.164	24935
251.227	25428
251.290	21663
251.354	27624
251.417	87503
251.480	95487
251.543	68128
251.606	148922
251.669	130141
251.732	57389
251.795	59785
251.859	58515
251.922	104233
251.985	71550
252.048	28252
252.111	23923
252.174	23001
252.237	40904
252.300	82350
252.363	85240
252.426	133794
252.489	71238
252.552	39142
252.615	27036
252.678	29338
252.741	61154
252.804	72765
252.867	135103
252.930	101034
252.993	57660
253.056	36218
253.119	26064
253.182	21209
253.245	32449
253.308	29216
253.371	31022
253.434	28391
253.497	24201
253.559	41241
253.622	33295
253.685	44771
253.748	50786
253.811	24366
253.874	28743
253.937	29584
254.000	21459
254.062	31850
254.125	46987
254.188	39611
254.251	36906
254.314	20572
254.376	34836
254.439	40697
254.502	38083
254.565	34701
254.628	58236
254.690	42108
254.753	23752
254.816	19164
254.878	21432
254.941	32937
255.004	36083
255.067	18530
255.129	19494
255.192	12031
255.255	9161
255.317	14202
255.380	8424
255.443	6685
255.505	6932
255.568	6918
255.631	7013
255.693	9059
255.756	7022
255.819	7533
255.881	6542
255.944	5851
256.006	5940
256.069	7129
256.132	6206
256.194	9364
256.257	24959
256.319	20021
256.382	18402
256.444	10388
256.507	7198
256.569	6856
256.632	6872
256.694	12456
256.757	18276
256.819	46356
256.882	22433
256.944	13122
257.007	12397
257.069	15517
257.132	8331
257.194	7562
257.257	7456
257.319	7779
257.381	6940
257.444	14225
257.506	52558
257.569	71162
257.631	56523
257.693	32099
257.756	15099
257.818	14601
257.880	9074
257.943	8822
258.005	7851
258.067	6988
258.130	7689
258.192	10480
258.254	26086
258.317	14840
258.379	9048
258.441	23468
258.503	23160
258.566	24973
258.628	35496
258.690	10588
258.753	11741
258.815	25347
258.877	15080
258.939	8468
259.001	7105
259.064	6667
259.126	10076
259.188	15756
259.250	10966
259.312	13297
259.375	33861
259.437	24766
259.499	9330
259.561	8797
259.623	9751
259.685	7497
259.747	8569
259.809	23524
259.872	46365
259.934	63189
259.996	61615
260.058	19002
260.120	9859
260.182	7779
260.244	7029
260.306	6851
260.368	7505
260.430	7221
260.492	13393
260.554	27125
260.616	27708
260.678	36605
260.740	50842
260.802	16298
260.864	13352
260.926	11400
260.988	10512
261.050	10325
261.112	16579
261.174	40255
261.236	39587
261.298	14456
261.359	21316
261.421	33733
261.483	11325
261.545	10252
261.607	6858
261.669	7652
261.731	15355
261.793	37872
261.854	18979
261.916	12646
261.978	8118
262.040	9050
262.102	7964
262.164	14704
262.225	13916
262.287	8464
262.349	21601
262.411	17993
262.472	9784
262.534	14815
262.596	34533
262.658	12939
262.719	8178
262.781	10458
262.843	30676
262.904	15686
262.966	10996
263.028	13543
263.090	46096
263.151	116788
263.213	43136
263.275	26521
263.336	12155
263.398	9509
263.459	6593
263.521	8132
263.583	19367
263.644	16512
263.706	6950
263.767	5089
263.829	5149
263.891	3840
263.952	3559
264.014	4011
264.075	5058
264.137	13305
264.198	12086
264.260	4346
264.321	3909
264.383	12921
264.444	25223
264.506	7976
264.567	6348
264.629	8243
264.690	14004
264.752	8761
264.813	8097
264.875	5433
264.936	5483
264.998	3789
265.059	3565
265.120	4944
265.182	6856
265.243	19726
265.305	20821
265.366	6774
265.427	5089
265.489	4856
265.550	3094
265.611	7046
265.673	6975
265.734	5095
265.795	4002
265.857	4267
265.918	3862
265.979	8082
266.040	33593
266.102	30877
266.163	11319
266.224	13297
266.286	8483
266.347	5734
266.408	6789
266.469	9363
266.530	6748
266.592	5285
266.653	14274
266.714	27542
266.775	9106
266.836	6287
266.898	5349
266.959	9021
267.020	6710
267.081	6115
267.142	4399
267.203	4544
267.264	4078
267.326	6322
267.387	5425
267.448	4313
267.509	5930
267.570	5244
267.631	4809
267.692	3321
267.753	5083
267.814	4036
267.875	10117
267.936	27626
267.997	10966
268.058	10664
268.119	8600
268.180	7979
268.241	7070
268.302	4981
268.363	5462
268.424	7262
268.485	6589
268.546	5004
268.607	3212
268.668	3537
268.729	4058
268.790	5293
268.851	5029
268.912	15569
268.972	24327
269.033	13627
269.094	5430
269.155	6125
269.216	4725
269.277	7091
269.338	5069
269.398	4959
269.459	8115
269.520	12091
269.581	16619
269.642	20143
269.702	13470
269.763	8922
269.824	6865
269.885	8684
269.945	16779
270.006	6704
270.067	4495
270.128	4875
270.188	4469
270.249	5251
270.310	4183
270.370	5312
270.431	6172
270.492	4486
270.553	5879
270.613	15021
270.674	29671
270.734	13752
270.795	7673
270.856	12044
270.916	11025
270.977	6222
271.038	9094
271.098	9717
271.159	14637
271.219	16566
271.280	6678
271.340	5215
271.401	8024
271.462	21450
271.522	13750
271.583	7298
271.643	7765
271.704	7163
271.764	9426
271.825	21761
271.885	63192
271.946	89129
272.006	33526
272.066	38959
272.127	66727
272.187	22533
272.248	12120
272.308	12811
272.369	40977
272.429	27224
272.489	22224
272.550	24154
272.610	24904
272.671	21014
272.731	16063
272.791	27660
272.852	17844
272.912	15286
272.972	8026
273.033	7751
273.093	14579
273.153	13790
273.214	8238
273.274	10649
273.334	27428
273.394	64259
273.455	32807
273.515	26613
273.575	57192
273.635	28434
273.696	33949
273.756	63744
273.816	30930
273.876	17865
273.936	29753
273.997	54678
274.057	17460
274.117	13088
274.177	19595
274.237	72453
274.297	67087
274.358	51811
274.418	50470
274.478	44170
274.538	18226
274.598	14210
274.658	43789
274.718	60519
274.778	25795
274.838	14253
274.898	26226
274.958	79873
275.018	66439
275.078	45174
275.138	21937
275.198	11856
275.258	9232
275.318	13326
275.378	24942
275.438	27597
275.498	17308
275.558	33559
275.618	71488
275.678	46786
275.738	29138
275.798	23299
275.858	10886
275.918	7626
275.978	10588
276.038	10689
276.098	6994
276.157	16776
276.217	50494
276.277	24792
276.337	19909
276.397	11582
276.457	14017
276.517	9003
276.576	7257
276.636	6803
276.696	13967
276.756	30513
276.815	24605
276.875	12151
276.935	13686
276.995	12764
277.055	6674
277.114	7083
277.174	10679
277.234	37264
277.293	20416
277.353	12019
277.413	8181
277.472	9654
277.532	9948
277.592	11610
277.651	31376
277.711	59476
277.771	21842
277.830	66102
277.890	59684
277.950	39644
278.009	102285
278.069	44926
278.128	40669
278.188	63998
278.248	29334
278.307	62923
278.367	42266
278.426	15981
278.486	10880
278.545	7730
278.605	7250
278.664	7822
278.724	9922
278.783	22172
278.843	58092
278.902	20945
278.962	14001
279.021	16738
279.081	21661
279.140	22658
279.199	17615
279.259	15192
279.318	16334
279.378	21678
279.437	37192
279.496	112175
279.556	248575
279.615	221844
279.675	78071
279.734	46695
279.793	65002
279.853	94096
279.912	39154
279.971	23226
280.031	21907
280.090	33222
280.149	58153
280.208	50481
280.268	162736
280.327	188862
280.386	61679
280.445	42777
280.505	40070
280.564	20037
280.623	15943
280.682	23115
280.742	35243
280.801	13453
280.860	11022
280.919	8094
280.978	7967
281.037	7214
281.097	6147
281.156	8287
281.215	7578
281.274	9336
281.333	35074
281.392	30366
281.451	8750
281.510	7752
281.569	6981
281.628	6239
281.688	5321
281.747	7223
281.806	8063
281.865	6054
281.924	5483
281.983	6397
282.042	4787
282.101	5368
282.160	4862
282.219	5457
282.278	6911
282.337	24070
282.396	17950
282.454	7006
282.513	10017
282.572	36597
282.631	24390
282.690	8656
282.749	6973
282.808	9894
282.867	8538
282.926	9761
282.985	5602
283.043	4028
283.102	4999
283.161	8043
283.220	15793
283.279	37590
283.338	13398
283.396	8955
283.455	7508
283.514	9950
283.573	15154
283.631	12222
283.690	7962
283.749	7113
283.808	15596
283.866	22775
283.925	8011
283.984	7317
284.043	11581
284.101	13734
284.160	8689
284.219	9362
284.277	9181
284.336	16204
284.395	49983
284.453	43519
284.512	17590
284.570	24811
284.629	22814
284.688	19428
284.746	21437
284.805	24790
284.863	32602
284.922	40914
284.981	49601
285.039	69071
285.098	112849
285.156	211419
285.215	260711
285.273	263925
285.332	231847
285.390	141503
285.449	91769
285.507	63725
285.566	45428
285.624	34625
285.683	26584
285.741	22470
285.799	18877
285.858	17484
285.916	16800
285.975	11890
286.033	9967
286.091	9516
286.150	7233
286.208	8179
286.267	9990
286.325	9933
286.383	17338
286.442	15394
286.500	6797
286.558	6720
286.616	5887
286.675	9814
286.733	9321
286.791	8568
286.850	9348
286.908	12304
286.966	22282
287.024	10070
287.083	5803
287.141	5488
287.199	6909
287.257	11873
287.315	8608
287.374	8270
287.432	21326
287.490	14618
287.548	9421
287.606	7082
287.664	5884
287.723	10462
287.781	13845
287.839	7236
287.897	8534
287.955	10979
288.013	15854
288.071	36075
288.129	117573
288.187	291997
288.245	156737
288.303	53548
288.361	30674
288.419	22038
288.477	15160
288.535	11358
288.593	9217
288.651	7853
288.709	5830
288.767	5430
288.825	5728
288.883	3820
288.941	3555
288.999	4339
289.057	4222
289.115	3080
289.173	3659
289.231	4586
289.289	4473
289.346	3647
289.404	5975
289.462	12577
289.520	14323
289.578	6855
289.636	2894
289.694	2635
289.751	2143
289.809	2726
289.867	4194
289.925	6039
289.983	8685
290.040	3909
290.098	2360
290.156	5910
290.214	7674
290.271	3827
290.329	1821
290.387	2131
290.444	2107
290.502	810
290.560	1546
290.617	2320
290.675	2340
290.733	3950
290.790	5099
290.848	2952
290.906	3360
290.963	4784
291.021	3237
291.078	2752
291.136	3238
291.194	11404
291.251	31000
291.309	9179
291.366	3546
291.424	4385
291.481	4916
291.539	4399
291.596	4850
291.654	2839
291.711	2879
291.769	5223
291.826	14888
291.884	10387
291.941	4661
291.999	4188
292.056	6464
292.114	7442
292.171	4481
292.228	4057
292.286	6738
292.343	15564
292.401	17131
292.458	10023
292.515	6645
292.573	9355
292.630	9373
292.687	8955
292.745	5744
292.802	6983
292.859	16640
292.917	40121
292.974	26155
293.031	8751
293.089	5014
293.146	4234
293.203	4205
293.260	4588
293.318	6954
293.375	6771
293.432	4024
293.489	4117
293.546	3881
293.604	8879
293.661	24313
293.718	59577
293.775	31886
293.832	17758
293.889	14551
293.947	17058
294.004	11504
294.061	10902
294.118	17446
294.175	31879
294.232	26421
294.289	12237
294.346	6806
294.403	6981
294.460	6815
294.517	5570
294.574	5479
294.631	4536
294.688	5287
294.745	17315
294.802	56957
294.859	53959
294.916	26403
294.973	20358
295.030	15446
295.087	13275
295.144	7809
295.201	6186
295.258	4765
295.315	8115
295.372	24275
295.429	48531
295.486	20746
295.542	11015
295.599	15218
295.656	26240
295.713	22981
295.770	41300
295.827	16175
295.883	7983
295.940	8486
295.997	17002
296.054	17452
296.111	8204
296.167	4309
296.224	3823
296.281	3682
296.338	2420
296.394	4068
296.451	6352
296.508	17527
296.564	36600
296.621	24794
296.678	49256
296.734	75138
296.791	27674
296.848	13818
296.904	15608
296.961	39275
297.018	51814
297.074	37400
297.131	14054
297.187	10617
297.244	17141
297.301	44674
297.357	84210
297.414	32140
297.470	12109
297.527	8149
297.583	7427
297.640	7710
297.696	6424
297.753	4014
297.809	3346
297.866	2917
297.922	3287
297.979	3661
298.035	5630
298.092	10099
298.148	26904
298.204	29612
298.261	14320
298.317	21849
298.374	60183
298.430	39002
298.486	19311
298.543	15757
298.599	12205
298.656	11766
298.712	21771
298.768	50914
298.824	35335
298.881	11858
298.937	7157
298.993	6998
299.050	10318
299.106	8622
299.162	5771
299.218	7830
299.275	4493
299.331	7015
299.387	15403
299.443	50213
299.500	55857
299.556	19478
299.612	10463
299.668	9841
299.724	7558
299.780	6999
299.837	7531
299.893	12764
299.949	42018
300.005	53702
300.061	43285
300.117	69864
300.173	36969
300.229	17014
300.285	21026
300.341	28138
300.397	12769
300.453	7633
300.510	6705
300.566	7199
300.622	7549
300.678	15451
300.734	40534
300.790	42686
300.845	52834
300.901	32121
300.957	43354
301.013	38763
301.069	15476
301.125	10853
301.181	13257
301.237	8912
301.293	5135
301.349	5309
301.405	4115
301.461	4434
301.516	5484
301.572	7582
301.628	17289
301.684	16204
301.740	19049
301.796	32635
301.851	23040
301.907	38561
301.963	42541
302.019	55882
302.074	140155
302.130	148276
302.186	67610
302.242	27700
302.297	19123
302.353	17592
302.409	32768
302.464	29381
302.520	24120
302.576	56051
302.631	67773
302.687	40820
302.743	16439
302.798	9258
302.854	7005
302.910	6931
302.965	10143
303.021	19937
303.076	21052
303.132	26671
303.187	34194
303.243	16035
303.299	7568
303.354	5152
303.410	5462
303.465	4190
303.521	4155
303.576	4387
303.632	7402
303.687	13819
303.743	42956
303.798	42194
303.853	15922
303.909	8673
303.964	8542
304.020	13710
304.075	24923
304.130	20363
304.186	40471
304.241	41543
304.297	32117
304.352	15419
304.358	14730
304.407	9131
304.449	9323
304.463	9390
304.518	10732
304.539	10021
304.573	8830
304.629	8731
304.630	8845
304.684	15167
304.720	29125
304.739	35849
304.794	58243
304.811	50207
304.850	29775
304.902	13956
304.905	13020
304.960	8415
304.992	6992
305.015	5994
305.071	6362
305.083	6129
305.126	5298
305.173	4176
305.181	4021
305.236	3843
305.264	4581
305.292	5461
305.347	7076
305.354	7143
305.402	7296
305.445	7965
305.457	8310
305.512	11432
305.535	12669
305.567	13532
305.622	11519
305.626	11737
305.678	23524
305.716	46109
305.733	52625
305.788	65029
305.807	56736
305.843	44521
305.897	56729
305.898	56775
305.953	54794
305.988	35943
306.008	26672
306.063	15122
306.078	13352
306.118	10250
306.168	7635
306.173	7471
306.228	5775
306.259	5548
306.283	5477
306.338	4915
306.349	4982
306.393	5500
306.440	5999
306.448	6057
306.503	6366
306.530	6908
306.558	10804
306.613	21829
306.620	23828
306.668	42347
306.711	65764
306.723	66679
306.778	53618
306.801	41217
306.833	27912
306.888	13022
306.892	12234
306.943	8608
306.982	8243
306.997	8356
307.052	6870
307.072	6638
307.107	7351
307.162	9232
307.163	9242
307.217	13459
307.253	16489
307.272	16812
307.327	17305
307.343	16826
307.381	15707
307.434	15512
307.436	16399
307.491	37754
307.524	54223
307.546	56105
307.600	61064
307.614	56428
307.655	35143
307.704	15315
307.710	15119
307.765	18402
307.795	21597
307.819	25381
307.874	35149
307.885	36107
307.929	28476
307.975	19897
307.984	20583
308.038	28469
308.065	33573
308.093	63921
308.148	132203
308.156	145150
308.202	218811
308.246	278311
308.257	266279
308.312	149360
308.336	104977
308.366	87626
308.421	63388
308.426	60269
308.475	37376
308.517	22619
308.530	21555
308.585	19281
308.607	18574
308.639	19413
308.694	21369
308.697	21468
308.748	39226
308.787	54657
308.803	52442
308.857	40290
308.877	35071
308.912	33922
308.967	34442
308.967	34378
309.021	52690
309.058	66438
309.076	84734
309.130	146132
309.148	166832
309.185	263596
309.238	408913
309.239	410662
309.293	448219
309.328	438279
309.348	379584
309.402	198304
309.418	149799
309.457	115341
309.508	77009
309.511	77196
309.566	83072
309.598	88056
309.620	111912
309.674	177025
309.688	193749
309.729	185196
309.778	160985
309.783	157461
309.837	109460
309.868	84250
309.892	97817
309.946	133403
309.959	143274
310.001	179087
310.049	214137
310.055	205765
310.109	115228
310.139	65195
310.163	51999
310.218	28531
310.229	24155
310.272	20387
310.319	17100
310.326	16777
310.381	13815
310.409	12715
310.435	12382
310.489	11428
310.499	11265
310.543	11799
310.589	12445
310.598	12534
310.652	12609
310.679	12692
310.706	11789
310.760	9765
310.769	9433
310.814	8825
310.859	8187
310.868	8356
310.923	9148
310.948	9529
310.977	10949
311.031	13630
311.038	13963
311.085	13398
311.128	12595
311.139	12587
311.193	12344
311.218	12187
311.247	11237
311.301	9410
311.308	9142
311.356	9605
311.398	10010
311.410	9876
311.464	9137
311.488	8700
311.518	9516
311.572	11106
311.578	11258
311.626	20686
311.668	28918
311.680	27351
311.734	19409
311.758	15861
311.788	15609
311.842	15128
311.847	15022
311.896	22163
311.937	28295
311.950	28353
312.004	28029
312.027	27773
312.058	23381
312.112	15336
312.117	14477
312.165	12857
312.207	11385
312.297	18007
312.386	15053
312.476	15159
312.566	48637
312.656	20846
312.745	8917
312.835	9877
312.925	15229
313.015	10448
313.104	11481
313.194	9552
313.284	11853
313.374	20100
313.463	18148
313.553	10962
313.643	9988
313.732	7481
313.822	7698
313.912	9227
314.001	15296
314.091	14891
314.180	21689
314.270	23799
314.360	25328
314.449	22601
314.539	11232
314.628	8182
314.718	11766
314.808	15121
314.897	9817
314.987	10270
315.076	19864
315.166	25730
315.255	18581
315.345	23806
315.434	20396
315.524	16306
315.613	23592
315.703	36426
315.792	33816
315.881	43102
315.971	26429
316.060	48164
316.150	52346
316.239	48440
316.328	17779
316.418	11271
316.507	14903
316.597	22569
316.686	19243
316.775	21826
316.865	47159
316.954	12067
317.043	8983
317.133	14014
317.222	12339
317.311	10945
317.400	12882
317.490	23936
317.579	31334
317.668	15217
317.757	26390
317.847	40759
317.936	85347
318.025	84879
318.114	37460
318.203	27108
318.293	28313
318.382	41514
318.471	48353
318.560	50237
318.649	121038
318.738	29586
318.828	28946
318.917	34295
319.006	29815
319.095	62458
319.184	168834
319.273	126631
319.362	84822
319.451	30104
319.540	26391
319.629	69324
319.718	121916
319.807	39246
319.896	65278
319.985	219332
320.074	102439
320.163	23168
320.252	32096
320.341	27029
320.430	28385
320.519	57845
320.608	29646
320.697	18758
320.786	21305
320.875	34866
320.964	51101
321.053	86725
321.142	126185
321.230	129055
321.319	78732
321.408	198865
321.497	70956
321.586	77555
321.675	65244
321.764	68964
321.852	44638
321.941	120839
322.030	81237
322.119	73261
322.207	207040
322.296	90809
322.385	49223
322.474	68744
322.562	251123
322.651	116612
322.740	89142
322.829	122661
322.917	82219
323.006	67165
323.095	62885
323.183	32363
323.272	51589
323.361	83349
323.449	192763
323.538	66274
323.626	141289
323.715	87563
323.804	37139
323.892	133038
323.981	98015
324.069	26780
324.158	58525
324.246	60483
324.335	40466
324.424	80167
324.512	23360
324.601	29200
324.689	34556
324.778	42359
324.866	62455
324.954	17274
325.043	21686
325.131	39931
325.220	51826
325.308	63259
325.397	53510
325.485	34690
325.574	14140
325.662	14779
325.750	20801
325.839	13820
325.927	10530
326.015	20126
326.104	20983
326.192	30313
326.280	13062
326.369	14021
326.457	31643
326.545	62391
326.634	23237
326.722	7944
326.810	12129
326.898	11503
326.987	15381
327.075	50669
327.163	40450
327.251	12822
327.340	11183
327.428	12669
327.516	8263
327.604	9294
327.692	11405
327.781	11573
327.869	24017
327.957	17632
328.045	25695
328.133	9246
328.221	14086
328.309	14431
328.397	12612
328.485	21456
328.574	32712
328.662	126832
328.750	57322
328.838	16113
328.926	10801
329.014	10551
329.102	23969
329.190	55730
329.278	43460
329.366	8944
329.454	8267
329.542	7234
329.630	7852
329.718	7993
329.806	18261
329.893	12476
329.981	10482
330.069	13280
330.157	40792
330.245	117887
330.333	60642
330.421	18197
330.509	36109
330.597	165353
330.684	101450
330.772	26070
330.860	26413
330.948	33632
331.036	18020
331.123	7440
331.211	9061
331.299	12094
331.387	30133
331.475	62929
331.562	17974
331.650	9859
331.738	13119
331.825	15167
331.913	8939
332.001	7426
332.089	12988
332.176	26380
332.264	60322
332.352	52334
332.439	22120
332.527	14544
332.614	9443
332.702	13276
332.790	11954
332.877	35891
332.965	68274
333.052	28886
333.140	31781
333.228	82103
333.315	23545
333.403	14977
333.490	37600
333.578	47163
333.665	110526
333.753	52498
333.840	15854
333.928	16366
334.015	41167
334.103	56434
334.190	181166
334.278	47067
334.365	18216
334.452	13239
334.540	11795
334.627	13311
334.715	21094
334.802	40735
334.889	186556
334.977	180939
335.064	23662
335.151	14126
335.239	13627
335.326	21889
335.413	87201
335.501	126595
335.588	21505
335.675	12327
335.762	15547
335.850	27143
335.937	19927
336.024	43717
336.111	196790
336.199	76961
336.286	15200
336.373	8434
336.460	7414
336.547	7136
336.635	14549
336.722	16165
336.809	11041
336.896	23916
336.983	68461
337.070	152303
337.157	196050
337.245	130922
337.332	88737
337.419	13413
337.506	9432
337.593	12781
337.680	39978
337.767	129633
337.854	45870
337.941	50153
338.028	58251
338.115	18215
338.202	22451
338.289	39787
338.376	145627
338.463	48921
338.550	75171
338.637	79918
338.724	28669
338.811	41612
338.898	11282
338.984	8625
339.071	13184
339.158	19188
339.245	70950
339.332	37174
339.419	35004
339.506	31881
339.593	8137
339.679	11704
339.766	12197
339.853	19700
339.940	58274
340.027	15448
340.113	16834
340.200	28221
340.287	17270
340.374	26089
340.460	49908
340.547	18284
340.634	37798
340.720	139280
340.807	78900
340.894	10669
340.980	13252
341.067	12879
341.154	17053
341.240	27235
341.327	76070
341.414	16690
341.500	14177
341.587	14545
341.674	13562
341.760	50766
341.847	65630
341.933	17230
342.020	5888
342.106	6606
342.193	17666
342.279	41476
342.366	28263
342.452	53019
342.539	29123
342.625	68523
342.712	159492
342.798	67668
342.885	26836
342.971	6390
343.058	6162
343.144	8512
343.230	9613
343.317	9082
343.403	8138
343.490	5788
343.576	7184
343.662	11186
343.749	15193
343.835	19161
343.921	38190
344.008	188701
344.094	416888
344.180	100555
344.267	46533
344.353	118922
344.439	127149
344.525	76181
344.612	25373
344.698	24514
344.784	17655
344.870	8555
344.957	11826
345.043	29417
345.129	22157
345.215	49967
345.301	22062
345.387	9746
345.474	5662
345.560	6559
345.646	9937
345.732	9530
345.818	15128
345.904	12277
345.990	20185
346.076	13398
346.162	20476
346.249	11269
346.335	9050
346.421	12157
346.507	46265
346.593	164686
346.679	40742
346.765	11095
346.851	12360
346.937	14337
347.023	10748
347.108	17376
347.194	14025
347.280	10236
347.366	16495
347.452	47722
347.538	202131
347.624	152977
347.710	126059
347.796	20353
347.882	11597
347.967	7751
348.053	13867
348.139	10029
348.225	9636
348.311	11050
348.397	9086
348.482	17005
348.568	21547
348.654	6723
348.740	7620
348.825	10342
348.911	24903
348.997	92015
349.083	172634
349.168	28703
349.254	11079
349.340	10228
349.425	9173
349.511	21541
349.597	21073
349.682	48293
349.768	139188
349.854	60329
349.939	10778
350.025	9287
350.110	9637
350.196	5874
350.282	5277
350.367	5420
350.453	16435
350.538	17712
350.624	19567
350.709	16554
350.795	10352
350.880	12746
350.966	11272
351.051	16691
351.137	12052
351.222	13769
351.308	46796
351.393	132765
351.479	30939
351.564	9193
351.649	13467
351.735	7033
351.820	7461
351.906	10634
351.991	15584
352.076	81459
352.162	127342
352.247	28286
352.332	18975
352.418	38328
352.503	44195
352.588	206752
352.673	187882
352.759	45080
352.844	21328
352.929	23570
353.014	34904
353.100	21624
353.185	50845
353.270	74298
353.355	64240
353.441	16042
353.526	17410
353.611	57795
353.696	73256
353.781	38368
353.866	17497
353.952	18133
354.037	58290
354.122	140605
354.207	127008
354.292	42951
354.377	17155
354.462	13412
354.547	25068
354.632	20032
354.717	33130
354.802	57193
354.887	19696
354.972	9235
355.057	8293
355.142	8963
355.227	17568
355.312	36562
355.397	89356
355.482	215536
355.567	99318
355.652	68441
355.737	69068
355.822	152562
355.907	123382
355.991	22129
356.076	13617
356.161	9582
356.246	10078
356.331	12611
356.416	37083
356.501	219194
356.585	230856
356.670	40622
356.755	29530
356.840	48128
356.924	202496
357.009	600526
357.094	240595
357.179	70132
357.263	42669
357.348	41647
357.433	42452
357.517	38834
357.602	29190
357.687	22439
357.771	34335
357.856	58682
357.941	47217
358.025	133277
358.110	528739
358.195	269135
358.279	55783
358.364	40447
358.448	139645
358.533	337952
358.617	253458
358.702	230057
358.787	93096
358.871	62875
358.956	50697
359.040	14573
359.125	9889
359.209	10297
359.294	24306
359.378	41408
359.462	47453
359.547	25306
359.631	14305
359.716	10073
359.800	11252
359.885	20159
359.969	18361
360.053	11515
360.138	10616
360.222	28773
360.306	62006
360.391	42414
360.475	57313
360.559	131923
360.644	138586
360.728	100162
360.812	129886
360.896	330318
360.981	174214
361.065	104133
361.149	27897
361.233	28654
361.318	21988
361.402	23529
361.486	22113
361.570	16321
361.654	27292
361.739	71235
361.823	241274
361.907	327548
361.991	66671
362.075	46329
362.159	122017
362.243	74423
362.327	50096
362.411	39338
362.495	29902
362.580	17476
362.664	11141
362.748	9713
362.832	13086
362.916	18560
363.000	55993
363.084	218685
363.168	378899
363.252	107317
363.336	41761
363.420	52784
363.503	136913
363.587	152535
363.671	39355
363.755	34265
363.839	53616
363.923	20842
364.007	56643
364.091	56939
364.175	45805
364.258	190148
364.342	114567
364.426	73125
364.510	50165
364.594	47822
364.677	63980
364.761	285192
364.845	200920
364.929	100850
365.013	88721
365.096	66553
365.180	78990
365.264	53272
365.347	197152
365.431	84183
365.515	31263
365.598	21553
365.682	16475
365.766	24144
365.849	28956
365.933	23472
366.017	24445
366.100	15916
366.184	6992
366.267	10463
366.351	10471
366.435	10534
366.518	9285
366.602	8564
366.685	13664
366.769	17675
366.852	27603
366.936	60968
367.019	39060
367.103	18602
367.186	30421
367.270	10598
367.353	7849
367.436	11178
367.520	10228
367.603	20644
367.687	39607
367.770	74552
367.853	33245
367.937	87173
368.020	148070
368.104	43589
368.187	54349
368.270	74751
368.353	60174
368.437	64096
368.520	101124
368.603	88761
368.687	117723
368.770	208783
368.853	54531
368.936	62900
369.020	48609
369.103	21907
369.186	10157
369.269	13484
369.352	48830
369.436	68534
369.519	39891
369.602	13545
369.685	18609
369.768	24919
369.851	16018
369.934	11861
370.018	21284
370.101	66880
370.184	42447
370.267	22520
370.350	40811
370.433	64518
370.516	141399
370.599	162216
370.682	67460
370.765	147798
370.848	152996
370.931	240919
371.014	85135
371.097	21982
371.180	18077
371.263	9056
371.346	7317
371.429	9032
371.511	13001
371.594	34641
371.677	50949
371.760	42041
371.843	44839
371.926	190949
372.009	424890
372.091	146225
372.174	100783
372.257	203796
372.340	80223
372.423	69240
372.505	68528
372.588	32100
372.671	86364
372.754	253944
372.836	119107
372.919	63375
373.002	126370
373.085	54048
373.167	49627
373.250	123958
373.332	220943
373.415	290501
373.498	588703
373.580	230413
373.663	254956
373.746	344491
373.828	102683
373.911	45449
373.993	43504
374.076	120663
374.159	110564
374.241	68410
374.324	225256
374.406	144818
374.489	162782
374.571	448127
374.654	191711
374.736	95782
374.819	274602
374.901	407406
374.983	413148
375.066	79941
375.148	28477
375.231	90011
375.313	182073
375.395	77987
375.478	21605
375.560	15403
375.643	25232
375.725	87182
375.807	349795
375.890	252579
375.972	107049
376.054	68225
376.136	79245
376.219	38783
376.301	99006
376.383	299932
376.465	120073
376.548	108141
376.630	102235
376.712	261656
376.794	117410
376.877	16716
376.959	11507
377.041	15774
377.123	24556
377.205	28809
377.287	8034
377.369	9373
377.452	12835
377.534	11602
377.616	12144
377.698	13412
377.780	9997
377.862	14833
377.944	14824
378.026	6399
378.108	9123
378.190	9894
378.272	8862
378.354	5450
378.436	6843
378.518	19372
378.600	77081
378.682	69674
378.764	157075
378.846	117289
378.928	37792
379.010	64085
379.091	31012
379.173	12824
379.255	13364
379.337	23971
379.419	76729
379.501	207544
379.583	78755
379.664	24496
379.746	71754
379.828	164673
379.910	212422
379.991	171607
380.073	30333
380.155	23930
380.237	18091
380.318	9691
380.400	14227
380.482	44366
380.564	74717
380.645	76091
380.727	70032
380.809	33589
380.890	24447
380.972	19191
381.053	16609
381.135	20792
381.217	56067
381.298	170865
381.380	83232
381.461	66314
381.543	265872
381.624	322759
381.706	68496
381.787	34796
381.869	37712
381.951	118011
382.032	433900
382.113	294379
382.195	80121
382.276	50264
382.358	108624
382.439	251653
382.521	266640
382.602	404423
382.684	206546
382.765	387186
382.846	495032
382.928	780464
383.009	449496
383.090	342633
383.172	969170
383.253	1276342
383.334	507221
383.416	431086
383.497	240074
383.578	165609
383.659	308963
383.741	859630
383.822	1649016
383.903	930678
383.984	386254
384.066	495557
384.147	311207
384.228	79691
384.309	71486
384.390	52148
384.471	33959
384.553	38155
384.634	58461
384.715	58299
384.796	28682
384.877	34928
384.958	142198
385.039	180127
385.120	73138
385.201	31113
385.282	39744
385.363	35475
385.444	35341
385.525	49727
385.606	168411
385.687	146938
385.768	39248
385.849	52466
385.930	211827
386.011	340774
386.092	97473
386.173	27500
386.254	18192
386.335	18552
386.416	21487
386.496	89489
386.577	155453
386.658	53664
386.739	36279
386.820	25328
386.901	20350
386.981	19776
387.062	13407
387.143	34182
387.224	149592
387.304	132664
387.385	49506
387.466	23224
387.547	23073
387.627	17840
387.708	47757
387.789	242265
387.869	288321
387.950	71146
388.031	13374
388.111	11270
388.192	33371
388.273	50642
388.353	34617
388.434	23686
388.514	47886
388.595	204062
388.676	284922
388.756	152848
388.837	165001
388.917	99341
388.998	17532
389.078	15588
389.159	16454
389.239	16633
389.320	31945
389.400	28721
389.480	49423
389.561	144669
389.641	67271
389.722	29650
389.802	60249
389.883	60136
389.963	158741
390.043	95367
390.124	29099
390.204	48260
390.284	186122
390.365	113422
390.445	98180
390.525	267255
390.605	249827
390.686	95858
390.766	31148
390.846	14976
390.927	9961
391.007	13488
391.087	14327
391.167	14124
391.247	10050
391.328	19361
391.408	30218
391.488	19256
391.568	8292
391.648	21818
391.728	37257
391.808	34365
391.888	38915
391.969	78246
392.049	132911
392.129	47166
392.209	54714
392.289	154678
392.369	74925
392.449	50139
392.529	38325
392.609	36592
392.689	40075
392.769	148077
392.849	118425
392.929	66488
393.009	185478
393.089	129581
393.169	66062
393.248	194311
393.328	785565
393.408	823723
393.488	204915
393.568	65376
393.648	34089
393.728	22584
393.807	17362
393.887	13866
393.967	13836
394.047	20410
394.127	27329
394.206	38808
394.286	119057
394.366	553080
394.446	602314
394.525	136517
394.605	34973
394.685	32170
394.764	75505
394.844	128523
394.924	88982
395.003	35928
395.083	26762
395.163	22776
395.242	22280
395.322	22190
395.402	11058
395.481	16456
395.561	52340
395.640	160292
395.720	112280
395.799	138939
395.879	104531
395.958	51573
396.038	169087
396.117	722956
396.197	800446
396.276	232697
396.356	79895
396.435	58589
396.515	39484
396.594	55113
396.673	83978
396.753	230580
396.832	745375
396.912	624211
396.991	185028
397.070	47087
397.150	30380
397.229	16193
397.308	15780
397.388	24215
397.467	15068
397.546	9984
397.625	10757
397.705	20488
397.784	28664
397.863	11982
397.942	5919
398.022	6751
398.101	36297
398.180	122206
398.259	61281
398.338	18549
398.417	19175
398.497	11965
398.576	13522
398.655	8902
398.734	7172
398.813	6449
398.892	34047
398.971	131436
399.050	62921
399.129	7806
399.208	4815
399.287	5187
399.366	5920
399.445	5955
399.524	7216
399.603	8566
399.682	27123
399.761	65944
399.840	150809
399.919	104958
399.998	15786
400.077	5899
400.156	6851
400.235	9351
400.313	6857
400.392	14648
400.471	88615
400.550	149006
400.629	39593
400.708	17039
400.786	11830
400.865	29746
400.944	39693
401.023	21801
401.102	4726
401.180	4423
401.259	5067
401.338	9031
401.416	19406
401.495	17897
401.574	9647
401.652	9356
401.731	17702
401.810	17761
401.888	8937
401.967	4404
402.046	7016
402.124	15496
402.203	25810
402.281	10478
402.360	12723
402.438	39357
402.517	29826
402.596	9884
402.674	10206
402.753	5606
402.831	5976
402.910	10223
402.988	53634
403.066	188716
403.145	101703
403.223	59151
403.302	162482
403.380	117043
403.459	128319
403.537	50523
403.615	19451
403.694	4521
403.772	4323
403.850	4134
403.929	4830
404.007	7885
404.085	30053
404.164	39872
404.242	12736
404.320	14440
404.398	47261
404.477	86867
404.555	323474
404.633	274232
404.711	55070
404.789	21881
404.868	17358
404.946	9730
405.024	4632
405.102	3835
405.180	5332
405.258	5582
405.336	6962
405.415	7387
405.493	23130
405.571	25898
405.649	8209
405.727	6039
405.805	14173
405.883	15415
405.961	14637
406.039	13942
406.117	8953
406.195	19944
406.273	83756
406.351	291620
406.429	162011
406.507	27042
406.585	10688
406.663	15453
406.740	24841
406.818	20388
406.896	9498
406.974	10679
407.052	29021
407.130	173620
407.208	238900
407.285	45317
407.363	11494
407.441	11100
407.519	9405
407.596	12173
407.674	28302
407.752	50480
407.830	55138
407.907	31172
407.985	18360
408.063	8454
408.141	4839
408.218	12623
408.296	19320
408.373	18743
408.451	18427
408.529	16795
408.606	6877
408.684	3411
408.762	2687
408.839	1471
408.917	2345
408.994	3005
409.072	2980
409.149	3267
409.227	5270
409.304	5112
409.382	3924
409.459	3520
409.537	7641
409.614	10281
409.692	5788
409.769	7253
409.846	10101
409.924	9926
410.001	7752
410.079	8911
410.156	6496
410.233	4728
410.311	5646
410.388	5179
410.465	6284
410.543	4651
410.620	5272
410.697	10471
410.775	16175
410.852	3869
410.929	10201
411.006	14053
411.083	4809
411.161	9269
411.238	13093
411.315	9892
411.392	5520
411.469	9897
411.547	7214
411.624	2033
411.701	3943
411.778	11543
411.855	38214
411.932	16895
412.009	7329
412.086	5270
412.163	8224
412.240	9920
412.317	9379
412.394	8166
412.471	3438
412.548	5094
412.625	7626
412.702	10249
412.779	19382
412.856	9303
412.933	4250
413.010	4602
413.087	13787
413.164	83677
413.241	121284
413.318	31604
413.395	17332
413.471	30348
413.548	12369
413.625	6297
413.702	12588
413.779	7655
413.855	2361
413.932	1984
414.009	3581
414.086	2699
414.162	4892
414.239	14100
414.316	82648
414.393	186130
414.469	62232
414.546	6810
414.623	4131
414.699	5475
414.776	11642
414.853	6444
414.929	6968
415.006	6466
415.082	7983
415.159	6435
415.236	6941
415.312	8632
415.389	26818
415.465	37835
415.542	17034
415.618	10593
415.695	23184
415.771	15393
415.848	12526
415.924	9006
416.000	5703
416.077	4147
416.153	2480
416.230	887
416.306	2339
416.383	2402
416.459	3166
416.535	2162
416.612	3339
416.688	2917
416.764	4789
416.841	4780
416.917	5235
416.993	5458
417.069	9321
417.146	13093
417.222	18058
417.298	11758
417.374	6169
417.451	7694
417.527	16057
417.603	17929
417.679	12652
417.755	8340
417.831	3990
417.908	2647
417.984	2812
418.060	4239
418.136	27671
418.212	40842
418.288	12827
418.364	4936
418.440	8191
418.516	16040
418.592	15704
418.668	43482
418.744	77187
418.820	53579
418.896	11902
418.972	4478
419.048	7356
419.124	31485
419.200	26399
419.276	4811
419.352	2272
419.428	3440
419.504	10113
419.579	14356
419.655	10218
419.731	10340
419.807	46972
419.883	89365
419.959	55150
420.034	12554
420.110	25649
420.186	114780
420.262	83496
420.337	14282
420.413	13729
420.489	5374
420.565	4602
420.640	3910
420.716	6865
420.792	3176
420.867	4873
420.943	5336
421.019	19665
421.094	14180
421.170	3560
421.245	339
421.321	4296
421.397	5148
421.472	8402
421.548	23994
421.623	22536
421.699	9779
421.774	10506
421.850	7593
421.925	22184
422.001	17104
422.076	8001
422.152	8991
422.227	24924
422.302	16914
422.378	19049
422.453	32437
422.529	68683
422.604	245858
422.679	499871
422.755	299424
422.830	80566
422.905	24835
422.981	14032
423.056	8237
423.131	6873
423.207	6395
423.282	12660
423.357	40642
423.432	25672
423.508	24684
423.583	72663
423.658	50107
423.733	11132
423.808	13680
423.883	20708
423.959	16596
424.034	8206
424.109	4646
424.184	2433
424.259	2128
424.334	4114
424.409	1996
424.484	5002
424.559	6931
424.634	6168
424.709	12786
424.784	18492
424.859	9358
424.934	19481
425.009	92118
425.084	140751
425.159	44567
425.234	6029
425.309	2724
425.384	7910
425.459	13566
425.534	5093
425.609	3739
425.683	3538
425.758	3769
425.833	6021
425.908	9889
425.983	55202
426.058	159894
426.132	64790
426.207	9768
426.282	11740
426.357	9459
426.431	4677
426.506	3523
426.581	5583
426.655	4827
426.730	5529
426.805	5819
426.879	5531
426.954	5818
427.029	21115
427.103	120566
427.178	256283
427.253	100132
427.327	13184
427.402	10765
427.476	22982
427.551	8940
427.625	4887
427.700	4640
427.774	3131
427.849	4707
427.923	2660
427.998	2660
428.072	4745
428.147	13530
428.221	54986
428.296	100069
428.370	39822
428.444	8485
428.519	14008
428.593	26730
428.667	20994
428.742	26280
428.816	22289
428.890	61938
428.965	84516
429.039	32827
429.113	31406
429.188	11109
429.262	4574
429.336	17277
429.410	67555
429.485	35793
429.559	23468
429.633	16712
429.707	5456
429.781	15549
429.855	86804
429.930	138337
430.004	84584
430.078	120272
430.152	93073
430.226	120855
430.300	114331
430.374	16653
430.448	9227
430.522	39247
430.596	117552
430.670	66311
430.744	160436
430.818	247982
430.892	55649
430.966	12166
431.040	5174
431.114	2192
431.188	2475
431.262	1710
431.336	3735
431.410	12936
431.484	46112
431.557	32414
431.631	4281
431.705	3449
431.779	14018
431.853	66626
431.927	43365
432.000	5343
432.074	3502
432.148	5439
432.222	5639
432.295	3369
432.369	3545
432.443	11667
432.516	92236
432.590	227929
432.664	78270
432.737	11006
432.811	3993
432.885	813
432.958	2131
433.032	466
433.106	1384
433.179	-56
433.253	997
433.326	1132
433.400	2
433.473	988
433.547	968
433.620	3264
433.694	17450
433.767	12761
433.841	3022
433.914	442
433.988	1134
434.061	657
434.134	973
434.208	163
434.281	1097
434.355	1469
434.428	2640
434.501	1112
434.575	1863
434.648	2690
434.721	1553
434.795	814
434.868	1167
434.941	233
435.014	530
435.088	2774
435.161	6182
435.234	14709
435.307	18572
435.381	6186
435.454	4344
435.527	3197
435.600	3903
435.673	2416
435.746	1897
435.819	2484
435.892	2344
435.966	713
436.039	2461
436.112	1696
436.185	1114
436.258	267
436.331	135
436.404	258
436.477	1025
436.550	507
436.623	1066
436.696	1454
436.769	3895
436.842	2498
436.915	3748
436.987	8277
437.060	3241
437.133	1030
437.206	1223
437.279	2613
437.352	1542
437.425	842
437.498	3420
437.570	14955
437.643	15115
437.716	2341
437.789	1501
437.861	3503
437.934	10949
438.007	4931
438.080	2414
438.152	4553
438.225	17406
438.298	114206
438.370	289178
438.443	101793
438.516	17824
438.588	4553
438.661	1961
438.734	2309
438.806	5892
438.879	6201
438.951	4284
439.024	5970
439.096	3421
439.169	1886
439.241	1071
439.314	1014
439.386	4236
439.459	6833
439.531	9150
439.604	3591
439.676	1201
439.749	487
439.821	1369
439.893	545
439.966	1581
440.038	2902
440.110	4758
440.183	3560
440.255	2596
440.327	7288
440.400	47865
440.472	198127
440.544	112371
440.617	12621
440.689	6516
440.761	8803
440.833	13997
440.905	8278
440.978	1226
441.050	533
441.122	1500
441.194	568
441.266	1680
441.338	2314
441.411	10558
441.483	79067
441.555	106216
441.627	16730
441.699	8209
441.771	6744
441.843	2238
441.915	1079
441.987	1587
442.059	1022
442.131	3403
442.203	6489
442.275	9775
442.347	5689
442.419	5692
442.491	22957
442.563	55299
442.635	25909
442.706	36888
442.778	29495
442.850	4521
442.922	1967
442.994	4356
443.066	9390
443.137	5956
443.209	3863
443.281	5768
443.353	12333
443.425	36700
443.496	111373
443.568	91595
443.640	30637
443.711	7496
443.783	3385
443.855	2407
443.926	987
443.998	3271
444.070	4709
444.141	4832
444.213	12724
444.285	17599
444.356	11755
444.428	5934
444.499	1916
444.571	1601
444.642	1410
444.714	6673
444.785	13826
444.857	10390
444.928	21574
445.000	10441
445.071	14198
445.143	19048
445.214	9474
445.285	14029
445.357	39941
445.428	90784
445.500	191182
445.571	103810
445.642	44733
445.714	28747
445.785	34128
445.856	13732
445.928	18416
445.999	9692
446.070	5414
446.141	12376
446.213	16421
446.284	6595
446.355	4420
446.426	3862
446.497	4724
446.569	8575
446.640	18881
446.711	15242
446.782	2874
446.853	5907
446.924	7866
446.995	6474
447.066	4376
447.138	7377
447.209	3572
447.280	915
447.351	563
447.422	735
447.493	3904
447.564	9234
447.635	17507
447.706	4674
447.777	1268
447.847	1275
447.918	1223
447.989	4717
448.060	5664
448.131	16117
448.202	15660
448.273	14096
448.344	3456
448.414	4106
448.485	3689
448.556	1960
448.627	2006
448.698	1479
448.768	711
448.839	1483
448.910	7285
448.981	7217
449.051	3592
449.122	1361
449.193	705
449.263	2370
449.334	877
449.405	6626
449.475	21494
449.546	8845
449.616	7856
449.687	4590
449.758	1570
449.828	1192
449.899	1036
449.969	288
450.040	992
450.110	2688
450.181	2951
450.251	2310
450.322	916
450.392	1339
450.463	667
450.533	666
450.604	1280
450.674	1196
450.744	869
450.815	1242
450.885	515
450.955	541
451.026	47
451.096	768
451.166	2639
451.237	7922
451.307	19676
451.377	5360
451.447	697
451.518	1090
451.588	1289
451.658	1706
451.728	4192
451.799	22978
451.869	19929
451.939	3416
452.009	1236
452.079	912
452.149	1326
452.219	5875
452.289	26228
452.360	13810
452.430	2174
452.500	5222
452.570	6372
452.640	5565
452.710	15375
452.780	23997
452.850	30973
452.920	32067
452.990	5928
453.060	4162
453.129	9134
453.199	9431
453.269	27493
453.339	49199
453.409	70954
453.479	88164
453.549	120251
453.619	125223
453.688	34533
453.758	5379
453.828	2763
453.898	1892
453.968	490
454.037	1768
454.087	1293
454.107	1091
454.168	1404
454.177	1448
454.247	477
454.249	515
454.316	1246
454.330	1340
454.386	1651
454.411	5567
454.456	12142
454.492	13661
454.525	15088
454.574	6361
454.595	2547
454.655	1516
454.665	1371
454.734	3187
454.736	3300
454.804	7367
454.817	10173
454.873	21761
454.898	21030
454.943	19615
454.979	12759
455.013	6604
455.060	3696
455.082	2565
455.141	3933
455.152	4119
455.221	15818
455.222	16008
455.291	32049
455.303	32986
455.360	35572
455.384	57141
455.430	96388
455.465	65332
455.499	35858
455.546	26356
455.569	22054
455.627	12947
455.638	11240
455.707	2896
455.708	2895
455.777	1375
455.789	1378
455.846	1554
455.869	1215
455.916	510
455.950	981
455.985	1437
456.031	1324
456.054	1221
456.112	954
456.124	938
456.193	421
456.193	408
456.262	1196
456.274	1389
456.332	2274
456.355	2585
456.401	3002
456.436	2392
456.470	1895
456.516	1215
456.540	900
456.597	1109
456.609	1111
456.678	1011
456.678	1006
456.747	329
456.759	373
456.817	795
456.840	702
456.886	274
456.920	419
456.955	608
457.001	497
457.024	585
457.082	1604
457.093	1743
457.162	3035
457.163	3045
457.232	4026
457.243	3630
457.301	1759
457.324	1581
457.370	1354
457.405	1351
457.439	1437
457.485	1263
457.508	1058
457.566	802
457.577	784
457.646	945
457.647	950
457.715	1342
457.727	1567
457.784	2551
457.808	3361
457.853	4778
457.889	5625
457.922	5958
457.969	4400
457.991	4053
458.050	3950
458.060	3939
458.129	7138
458.130	7226
458.198	9322
458.211	8375
458.267	3842
458.292	2904
458.336	2331
458.372	2356
458.405	2547
458.453	3353
458.474	4132
458.533	6705
458.543	6940
458.611	13271
458.614	13286
458.680	9445
458.694	7823
458.749	3193
458.775	2508
458.818	1606
458.855	1346
458.887	1474
458.936	1451
458.955	1340
459.016	1063
459.024	1060
459.093	1447
459.097	1482
459.162	2284
459.177	2393
459.230	2790
459.257	3764
459.299	4354
459.338	2827
459.368	2028
459.418	2449
459.437	2557
459.499	2083
459.505	2030
459.574	2255
459.579	2217
459.643	1552
459.659	1483
459.711	1715
459.740	1781
459.780	1741
459.820	2299
459.849	2359
459.900	1715
459.917	1818
459.981	3132
459.986	3164
460.054	2003
460.061	1996
460.123	2794
460.141	2919
460.191	3797
460.222	4947
460.260	5923
460.302	7680
460.328	7489
460.382	3507
460.397	2934
460.462	1534
460.465	1495
460.534	2863
460.543	2883
460.602	6549
460.623	8184
460.671	12316
460.703	17903
460.739	19871
460.783	18120
460.808	15669
460.864	3953
460.876	2698
460.944	2128
460.945	2123
461.013	2280
461.024	2455
461.081	3389
461.104	3917
461.150	4092
461.184	3701
461.218	3498
461.264	2311
461.286	1711
461.345	1864
461.355	2013
461.423	2034
461.425	2044
461.491	1840
461.505	1865
461.559	3507
461.585	4247
461.628	7519
461.665	11388
461.696	13227
461.745	19712
461.764	19555
461.825	6972
461.832	6287
461.901	4265
461.905	4306
461.969	3726
461.985	3289
462.037	2938
462.065	2872
462.105	2445
462.145	2580
462.173	4060
462.225	6305
462.241	6566
462.305	10176
462.310	10150
462.378	8027
462.385	7349
462.446	3838
462.465	3615
462.514	3595
462.545	3528
462.582	2916
462.625	2044
462.650	1927
462.705	2152
462.718	2220
462.785	2185
462.786	2204
462.854	3552
462.865	3794
462.922	5503
462.945	6482
462.990	5906
463.025	3978
463.058	2853
463.104	2263
463.126	2150
463.184	1980
463.194	2154
463.262	3725
463.264	3768
463.330	2961
463.344	2737
463.398	2824
463.424	2870
463.466	2685
463.504	2777
463.533	3181
463.583	3458
463.601	3537
463.663	3983
463.669	4143
463.737	6166
463.743	6397
463.805	9279
463.823	9872
463.873	12112
463.903	13994
463.940	15336
463.982	17560
464.008	15434
464.062	7359
464.076	6490
464.142	2981
464.144	2950
464.211	3194
464.221	3206
464.279	3397
464.301	3685
464.347	3906
464.381	3766
464.414	3971
464.461	4406
464.482	4694
464.540	5871
464.550	5790
464.617	4313
464.620	4264
464.685	5483
464.699	5843
464.753	6114
464.779	6137
464.820	5703
464.859	5145
464.888	4790
464.938	4305
464.956	4778
465.018	6627
465.023	6469
465.091	3984
465.098	3744
465.158	4128
465.177	4241
465.226	3900
465.257	3659
465.293	4411
465.336	5358
465.361	6203
465.416	8069
465.428	8445
465.495	10921
465.496	10956
465.563	14120
465.575	14751
465.631	17609
465.654	19145
465.698	13086
465.734	6596
465.765	4849
465.813	3041
465.833	2997
465.893	3130
465.900	3090
465.968	2743
465.972	2712
466.035	3438
466.052	3650
466.102	3805
466.131	3850
466.170	3926
466.210	4006
466.237	4125
466.290	4341
466.304	4394
466.369	4595
466.372	4599
466.439	4489
466.449	4468
466.506	4984
466.528	5176
466.573	8301
466.607	10616
466.641	15999
466.687	23558
466.708	26404
466.766	34599
466.775	32371
466.842	14746
466.845	13887
466.909	7612
466.925	6223
466.977	5629
467.004	5348
467.044	5357
467.083	5352
467.111	5742
467.163	6476
467.178	6580
467.242	6976
467.245	7041
467.312	8185
467.321	8326
467.379	7451
467.400	7112
467.446	7661
467.480	8038
467.559	7149
467.638	5381
467.717	5563
467.796	9970
467.875	11938
467.955	8970
468.034	10197
468.113	24379
468.192	33245
468.271	12196
468.350	5654
468.429	5695
468.508	5752
468.588	5491
468.667	5314
468.746	5458
468.825	5701
468.904	6023
468.983	7079
469.062	11902
469.141	14344
469.220	5989
469.299	5336
469.378	4494
469.456	6996
469.535	5730
469.614	6038
469.693	6078
469.772	9004
469.851	11182
469.930	9288
470.009	6890
470.088	7512
470.166	10575
470.245	22797
470.324	29390
470.403	18198
470.482	10617
470.560	7141
470.639	9374
470.718	11808
470.797	8706
470.875	8748
470.954	11607
471.033	12227
471.111	5377
471.190	4484
471.269	3703
471.347	4799
471.426	4653
471.505	5161
471.583	4581
471.662	5081
471.740	4563
471.819	5303
471.898	3602
471.976	4984
472.055	4671
472.133	6168
472.212	8439
472.290	7618
472.369	5365
472.447	4612
472.526	3274
472.604	6257
472.683	7944
472.761	8810
472.839	6870
472.918	5150
472.996	4895
473.075	6451
473.153	6286
473.231	5113
473.310	6069
473.388	7417
473.466	5377
473.545	8261
473.623	15648
473.701	16380
473.780	6337
473.858	4087
473.936	7810
474.014	5422
474.093	6922
474.171	9242
474.249	11697
474.327	9823
474.405	4429
474.484	5863
474.562	6038
474.640	5205
474.718	5568
474.796	5386
474.874	5227
474.952	4545
475.030	4341
475.108	5106
475.187	6287
475.265	8611
475.343	19084
475.421	24334
475.499	6881
475.577	4310
475.655	7111
475.733	13638
475.811	24388
475.889	22707
475.966	18126
476.044	7084
476.122	12588
476.200	20453
476.278	15584
476.356	5831
476.434	5988
476.512	10627
476.590	18543
476.667	14902
476.745	5206
476.823	6226
476.901	5443
476.979	4843
477.056	4303
477.134	5310
477.212	4843
477.290	5849
477.367	4062
477.445	4146
477.523	4161
477.601	4197
477.678	3715
477.756	4793
477.834	6782
477.911	5540
477.989	4641
478.066	4630
478.144	6610
478.222	11988
478.299	27727
478.377	28129
478.454	5046
478.532	4672
478.609	5846
478.687	7542
478.764	4388
478.842	6636
478.919	8195
478.997	8103
479.074	4247
479.152	5568
479.229	6369
479.307	4708
479.384	3902
479.461	3543
479.539	3294
479.616	4846
479.694	3593
479.771	5075
479.848	5111
479.926	6972
480.003	10064
480.080	5480
480.157	3645
480.235	5192
480.312	3998
480.389	4345
480.467	6899
480.544	10293
480.621	5974
480.698	5364
480.775	5404
480.853	6204
480.930	5029
481.007	7810
481.084	8075
481.161	5735
481.238	6015
481.315	4247
481.392	3357
481.470	3892
481.547	3456
481.624	3206
481.701	4282
481.778	4096
481.855	5140
481.932	8285
482.009	13315
482.086	12401
482.163	6002
482.240	14550
482.317	38282
482.393	31818
482.470	6244
482.547	4949
482.624	4944
482.701	4925
482.778	3878
482.855	3341
482.932	3978
483.009	3351
483.085	3519
483.162	5000
483.239	5678
483.316	4046
483.393	3963
483.469	4391
483.546	4681
483.623	5686
483.699	3170
483.776	4324
483.853	6578
483.930	8238
484.006	21520
484.083	36255
484.160	18797
484.236	16078
484.313	13971
484.389	9850
484.466	9726
484.543	8396
484.619	8118
484.696	9938
484.772	10293
484.849	11733
484.925	9118
485.002	8852
485.078	9506
485.155	9148
485.231	8098
485.308	7250
485.384	8702
485.461	11346
485.537	21143
485.614	28637
485.690	10821
485.766	9414
485.843	11444
485.919	27975
485.995	33955
486.072	10822
486.148	7633
486.224	8122
486.301	8763
486.377	10255
486.453	8960
486.530	9616
486.606	11917
486.682	12280
486.758	18274
486.835	22707
486.911	18949
486.987	33113
487.063	67059
487.139	103977
487.215	68530
487.292	22716
487.368	9818
487.444	10262
487.520	12492
487.596	11403
487.672	14478
487.748	35773
487.824	58053
487.900	26350
487.976	10818
488.052	10051
488.128	13999
488.204	12652
488.280	10171
488.356	10545
488.432	25395
488.508	44671
488.584	21598
488.660	12778
488.736	12029
488.812	14777
488.888	20264
488.964	31606
489.039	93640
489.115	174231
489.191	111361
489.267	15198
489.343	10233
489.418	8228
489.494	7193
489.570	5753
489.646	9286
489.722	7795
489.797	7088
489.873	11353
489.949	28923
490.024	32617
490.100	8426
490.176	8117
490.251	15220
490.327	27348
490.403	14151
490.478	7778
490.554	7025
490.629	6196
490.705	6392
490.781	8994
490.856	8470
490.932	12151
491.007	14711
491.083	10386
491.158	7830
491.234	10349
491.309	22547
491.385	28225
491.460	9958
491.536	10926
491.611	10705
491.686	14060
491.762	21412
491.837	63385
491.913	111306
491.988	155231
492.063	229433
492.139	51987
492.214	17860
492.289	8842
492.365	8993
492.440	11440
492.515	10821
492.590	8738
492.666	7716
492.741	10819
492.816	15934
492.891	10473
492.967	7904
493.042	9484
493.117	8182
493.192	9836
493.267	20973
493.342	83391
493.418	144101
493.493	32297
493.568	7207
493.643	7256
493.718	10605
493.793	18246
493.868	28416
493.943	21652
494.018	11015
494.093	7457
494.168	8410
494.243	6262
494.318	5853
494.393	6163
494.468	6005
494.543	6848
494.618	10070
494.693	8761
494.768	6880
494.842	8351
494.917	6704
494.992	8236
495.067	7416
495.142	6425
495.217	8335
495.292	8654
495.366	12145
495.441	14802
495.516	21179
495.591	30570
495.665	137036
495.740	381052
495.815	202339
495.890	19504
495.964	8977
496.039	10276
496.114	8796
496.188	8864
496.263	10040
496.338	7429
496.412	8421
496.487	11438
496.561	16556
496.636	19623
496.710	10284
496.785	10898
496.860	13256
496.934	10155
497.009	10913
497.083	9038
497.158	8984
497.232	10396
497.307	14565
497.381	11854
497.455	12344
497.530	16125
497.604	11602
497.679	11282
497.753	17053
497.827	25544
497.902	21653
497.976	22338
498.050	45100
498.125	191793
498.199	291118
498.273	64743
498.348	39763
498.422	29861
498.496	27116
498.570	29176
498.645	14700
498.719	11807
498.793	15104
498.867	23070
498.941	30142
499.016	73397
499.090	227615
499.164	143013
499.238	13857
499.312	10797
499.386	17285
499.460	16145
499.534	11660
499.609	13556
499.683	18279
499.757	18497
499.831	29489
499.905	137356
499.979	195039
500.053	33428
500.127	34256
500.201	35994
500.275	17576
500.349	12730
500.422	14251
500.496	26871
500.570	68950
500.644	114702
500.718	180918
500.792	70644
500.866	12449
500.940	12493
501.013	13153
501.087	12795
501.161	30738
501.235	41168
501.309	45457
501.382	132956
501.456	175556
501.530	42558
501.603	46085
501.677	29220
501.751	8259
501.825	12430
501.898	15975
501.972	53903
502.046	52456
502.119	12088
502.193	26443
502.266	63686
502.340	45742
502.413	23781
502.487	56008
502.561	38494
502.634	15802
502.708	13829
502.781	12268
502.855	9814
502.928	5399
503.002	6393
503.075	5261
503.149	6880
503.222	6360
503.295	6285
503.369	9490
503.442	10574
503.516	33864
503.589	107245
503.662	95257
503.736	26756
503.809	45721
503.882	51479
503.956	53277
504.029	72737
504.102	40457
504.175	47085
504.249	18008
504.322	10088
504.395	9961
504.468	7275
504.542	6805
504.615	4606
504.688	4844
504.761	5088
504.834	9820
504.907	15325
504.980	32863
505.053	15537
505.127	16036
505.200	22394
505.273	9950
505.346	7587
505.419	4883
505.492	6181
505.565	4884
505.638	4903
505.711	3433
505.784	3115
505.857	4196
505.930	6154
506.003	3393
506.076	6992
506.149	6608
506.221	9430
506.294	9918
506.367	18288
506.440	77557
506.513	72842
506.586	12628
506.659	7650
506.731	7014
506.804	10122
506.877	19494
506.950	11832
507.022	6642
507.095	6028
507.168	12010
507.241	10131
507.313	6265
507.386	8758
507.459	18946
507.531	11440
507.604	6053
507.677	6145
507.749	3379
507.822	9602
507.894	19813
507.967	21675
508.040	8638
508.112	7503
508.185	6363
508.257	6232
508.330	18445
508.402	8603
508.475	5371
508.547	6631
508.620	5297
508.692	10033
508.765	8391
508.837	4892
508.909	4586
508.982	5631
509.054	8352
509.127	6524
509.199	5018
509.271	3596
509.344	4270
509.416	4934
509.488	4291
509.560	6989
509.633	7923
509.705	11279
509.777	9203
509.849	16521
509.922	12363
509.994	5107
510.066	6106
510.138	3949
510.210	9835
510.283	7747
510.355	7745
510.427	7512
510.499	6280
510.571	6367
510.643	6575
510.715	18837
510.787	21386
510.859	8505
510.931	8843
511.003	18023
511.076	19544
511.148	5906
511.219	4736
511.291	9581
511.363	13873
511.435	5773
511.507	4025
511.579	5575
511.651	5480
511.723	4249
511.795	5339
511.867	4794
511.939	6265
512.010	13492
512.082	15798
512.154	6527
512.226	6992
512.298	10164
512.369	17406
512.441	14063
512.513	16791
512.585	11454
512.656	9716
512.728	12770
512.800	7864
512.871	6886
512.943	6934
513.015	5452
513.086	7581
513.158	10311
513.230	9552
513.301	20683
513.373	31741
513.444	13095
513.516	9005
513.588	7622
513.659	10849
513.731	16653
513.802	13369
513.874	34849
513.945	85310
514.016	30242
514.088	8714
514.159	10087
514.231	16016
514.302	19588
514.374	9855
514.445	6501
514.516	17035
514.588	16289
514.659	7796
514.730	15822
514.802	20025
514.873	9725
514.944	10705
515.016	9730
515.087	14509
515.158	14612
515.229	21325
515.301	9033
515.372	10706
515.443	7627
515.514	6734
515.585	5540
515.656	8072
515.728	7218
515.799	6977
515.870	9211
515.941	10397
516.012	8946
516.083	12602
516.154	15469
516.225	29428
516.296	27898
516.367	22155
516.438	26580
516.509	36924
516.580	51904
516.651	157759
516.722	670264
516.793	431506
516.864	65109
516.935	50005
517.006	51765
517.077	72082
517.148	168437
517.219	610224
517.289	1189923
517.360	297408
517.431	84994
517.502	23194
517.573	19342
517.643	16232
517.714	16459
517.785	19493
517.856	22491
517.926	29761
517.997	38893
518.068	51813
518.138	71650
518.209	101676
518.280	365547
518.350	1504055
518.421	845871
518.492	102290
518.562	37296
518.633	24750
518.703	18167
518.774	23044
518.845	32974
518.915	38718
518.986	22117
519.056	23162
519.127	52161
519.197	80343
519.268	125880
519.338	92036
519.408	22974
519.479	36181
519.549	31823
519.620	15431
519.690	9686
519.760	8174
519.831	10541
519.901	12280
519.971	8288
520.042	7488
520.112	9004
520.182	14910
520.253	22520
520.323	8913
520.393	7847
520.463	17236
520.534	8326
520.604	20573
520.674	12978
520.744	9267
520.814	23099
520.885	31534
520.955	24286
521.025	102782
521.095	71932
521.165	10478
521.235	7458
521.305	6578
521.375	7923
521.445	9053
521.515	18017
521.585	22998
521.655	25999
521.725	16201
521.795	13103
521.865	4384
521.935	10822
522.005	10685
522.075	6226
522.145	8715
522.215	7675
522.285	13264
522.355	16201
522.424	32049
522.494	34188
522.564	22552
522.634	47257
522.704	189355
522.774	102679
522.843	14439
522.913	13234
522.983	19684
523.053	14196
523.122	12690
523.192	19153
523.262	93793
523.331	127674
523.401	18566
523.471	7826
523.540	8453
523.610	6259
523.680	5422
523.749	4587
523.819	7139
523.888	8051
523.958	4965
524.027	4329
524.097	7172
524.166	5715
524.236	8926
524.305	10670
524.375	5613
524.444	4920
524.514	6708
524.583	5186
524.653	6417
524.722	9770
524.791	5186
524.861	6897
524.930	4122
524.999	6862
525.069	14300
525.138	7834
525.207	7801
525.277	7447
525.346	7397
525.415	6794
525.484	7615
525.554	7577
525.623	7650
525.692	6621
525.761	6658
525.830	6101
525.900	6891
525.969	9525
526.038	14151
526.107	17310
526.176	53680
526.245	59677
526.314	32395
526.383	41985
526.452	48383
526.522	68673
526.591	115524
526.660	97525
526.729	50040
526.797	34834
526.867	74418
526.935	390578
527.004	438567
527.073	213369
527.142	25337
527.211	11193
527.280	13882
527.349	18694
527.418	7313
527.487	7336
527.555	4555
527.624	5182
527.693	3630
527.762	5535
527.831	4572
527.899	5872
527.968	5245
528.037	5421
528.106	11448
528.174	27163
528.243	20054
528.312	23439
528.380	47468
528.449	13475
528.518	6432
528.586	2724
528.655	5140
528.723	4191
528.792	3192
528.861	5566
528.929	3597
528.998	5023
529.066	3272
529.135	3902
529.203	3739
529.272	2587
529.340	4669
529.409	5861
529.477	4639
529.545	4404
529.614	8151
529.682	4685
529.751	7956
529.819	10508
529.887	6766
529.956	4016
530.024	6434
530.092	3847
530.161	7808
530.229	20734
530.297	10893
530.365	5205
530.434	4189
530.502	2664
530.570	3805
530.638	2732
530.707	6009
530.775	7856
530.843	3556
530.911	3837
530.979	2945
531.047	3094
531.115	3563
531.183	4307
531.252	4583
531.320	4202
531.388	3686
531.456	4665
531.524	2981
531.592	5028
531.660	6951
531.728	3075
531.796	3673
531.864	4302
531.932	4956
532.000	5316
532.067	5801
532.135	7432
532.203	10680
532.271	9934
532.339	22293
532.407	82687
532.475	64948
532.542	20081
532.610	18423
532.678	24569
532.746	102330
532.814	375550
532.881	129394
532.949	15319
533.017	8590
533.084	5945
533.152	5071
533.220	6339
533.287	8466
533.355	6150
533.423	5052
533.490	4542
533.558	4526
533.625	4389
533.693	5717
533.761	5966
533.828	7750
533.896	6524
533.963	22019
534.031	33525
534.098	48571
534.166	24580
534.233	5374
534.300	7224
534.368	6612
534.435	5434
534.503	6125
534.570	4818
534.637	5389
534.705	4708
534.772	5874
534.840	6436
534.907	24624
534.974	43895
535.041	10757
535.109	8388
535.176	6096
535.243	6223
535.310	6222
535.378	5902
535.445	4260
535.512	3886
535.579	4740
535.646	3234
535.714	4776
535.781	5980
535.848	6121
535.915	7279
535.982	5286
536.049	6723
536.116	7580
536.183	5620
536.250	7853
536.317	8522
536.384	11095
536.451	21452
536.518	25410
536.585	15519
536.652	17628
536.719	33087
536.786	27339
536.853	17575
536.920	24714
536.987	46947
537.053	43193
537.120	162101
537.187	201911
537.254	19421
537.321	9292
537.388	9246
537.454	5663
537.521	5647
537.588	5200
537.654	6351
537.721	6807
537.788	8563
537.855	6810
537.921	7396
537.988	7727
538.055	8369
538.121	6699
538.188	10338
538.254	19105
538.321	53480
538.388	36532
538.454	9617
538.521	6343
538.587	6082
538.654	5231
538.720	5737
538.787	6208
538.853	7630
538.920	10285
538.986	11126
539.053	7977
539.119	9727
539.185	9637
539.252	13084
539.318	27992
539.385	18944
539.451	10267
539.517	13004
539.583	14426
539.650	35252
539.716	146397
539.782	54652
539.849	10715
539.915	9651
539.981	10544
540.047	15299
540.114	13703
540.180	13519
540.246	12143
540.312	20084
540.378	48043
540.444	56277
540.510	44936
540.576	164775
540.643	71304
540.709	10188
540.775	9390
540.841	7192
540.907	10328
540.973	16403
541.039	20929
541.105	28414
541.171	13040
541.237	8413
541.303	10176
541.369	13279
541.435	18607
541.500	44881
541.566	31015
541.632	9358
541.698	7761
541.764	7490
541.830	6777
541.896	6099
541.961	8273
542.027	9781
542.093	9242
542.159	9783
542.224	11004
542.290	18943
542.356	39849
542.421	58462
542.487	23606
542.553	11681
542.618	11610
542.684	10109
542.750	11119
542.815	14166
542.881	24049
542.947	124286
543.012	132493
543.078	14420
543.143	9487
543.209	9884
543.274	11240
543.340	12747
543.405	37940
543.471	98587
543.536	20860
543.602	8819
543.667	6230
543.732	7020
543.798	5285
543.863	6555
543.928	5872
543.994	4787
544.059	6263
544.124	7146
544.190	6787
544.255	9145
544.320	8865
544.386	10716
544.451	18354
544.516	26282
544.581	20546
544.646	67332
544.712	159257
544.777	30133
544.842	10193
544.907	9910
544.972	8434
545.037	7276
545.102	9880
545.168	9919
545.233	11155
545.298	11698
545.363	13279
545.428	17177
545.493	37371
545.558	116525
545.623	57301
545.688	11243
545.753	8738
545.818	8104
545.883	9524
545.947	7810
546.012	9981
546.077	8911
546.142	9700
546.207	9548
546.272	18414
546.337	22292
546.401	12050
546.466	9360
546.531	7255
546.596	9578
546.661	11274
546.725	9817
546.790	6967
546.855	7965
546.919	7010
546.984	8757
547.049	10029
547.113	11841
547.178	9414
547.243	11280
547.307	11842
547.372	15939
547.436	17700
547.501	12548
547.565	12469
547.630	20318
547.695	21890
547.759	15815
547.823	14979
547.888	11229
547.952	11332
548.017	11035
548.081	13867
548.146	18671
548.210	16196
548.274	11836
548.339	11698
548.403	10721
548.468	10151
548.532	9916
548.596	10118
548.660	10872
548.725	12430
548.789	15590
548.853	18201
548.917	12785
548.982	15385
549.046	18879
549.110	10585
549.174	11047
549.238	9980
549.303	10208
549.367	12344
549.431	11367
549.495	10487
549.559	10736
549.623	11944
549.687	15584
549.751	30988
549.815	20376
549.879	15052
549.943	11523
550.007	13804
550.071	14598
550.135	23927
550.199	19663
550.263	12444
550.327	14280
550.391	18310
550.455	16079
550.519	13689
550.582	15895
550.646	25916
550.710	34588
550.774	16220
550.838	14988
550.901	15712
550.965	16671
551.029	16234
551.093	18846
551.156	23267
551.220	38361
551.284	53631
551.347	26322
551.411	40525
551.475	61075
551.538	20941
551.602	14824
551.666	14397
551.729	12876
551.793	13684
551.856	13272
551.920	14384
551.983	14020
552.047	12858
552.110	12550
552.174	12488
552.237	13527
552.301	14049
552.364	12726
552.428	12905
552.491	13751
552.554	16161
552.618	16012
552.681	17396
552.745	20086
552.808	42195
552.871	71497
552.934	41484
552.998	21584
553.061	18277
553.124	16392
553.187	15119
553.251	16810
553.314	18425
553.377	18005
553.440	24115
553.503	67289
553.567	171369
553.630	43830
553.693	14978
553.756	14743
553.819	13075
553.882	13021
553.945	13020
554.008	11494
554.071	11372
554.134	11858
554.197	11342
554.260	11602
554.323	14617
554.386	13970
554.449	12911
554.512	12667
554.575	10338
554.638	12658
554.701	11644
554.764	10449
554.827	10186
554.889	10035
554.952	9889
555.015	9788
555.078	9248
555.141	10997
555.203	10308
555.266	10430
555.329	10874
555.391	9832
555.454	12262
555.517	13635
555.580	10289
555.642	9467
555.705	9410
555.768	9749
555.830	10550
555.893	10431
555.955	10079
556.018	10344
556.080	9472
556.143	10024
556.206	9781
556.268	12154
556.330	12195
556.393	13203
556.455	10532
556.518	15851
556.580	20923
556.643	11401
556.705	10096
556.767	9529
556.830	11873
556.892	13450
556.955	32188
557.017	25742
557.079	11212
557.142	12137
557.204	15408
557.266	44324
557.328	46095
557.391	12987
557.453	10144
557.515	9562
557.577	15928
557.639	20103
557.701	9678
557.764	8017
557.826	8945
557.888	9799
557.950	9377
558.012	10052
558.074	10718
558.136	18695
558.198	51307
558.260	28973
558.322	13504
558.384	14030
558.446	15887
558.508	18296
558.570	24413
558.632	50091
558.694	96579
558.756	50228
558.818	87519
558.880	289354
558.942	122972
559.003	57116
559.065	37811
559.127	15952
559.189	14425
559.251	16734
559.312	19569
559.374	40478
559.436	153226
559.498	112623
559.559	18746
559.621	15638
559.683	15190
559.744	24200
559.806	63705
559.868	129319
559.929	34418
559.991	17039
560.052	19446
560.114	47334
560.176	42643
560.237	29222
560.299	62625
560.360	23194
560.422	9352
560.483	10455
560.545	8322
560.606	8278
560.667	8178
560.729	7158
560.790	8053
560.852	8047
560.913	8519
560.974	7719
561.036	7470
561.097	9369
561.158	10070
561.220	9872
561.281	11037
561.342	11691
561.403	15094
561.465	20529
561.526	63857
561.587	115279
561.648	28486
561.709	11788
561.771	10613
561.832	10307
561.893	9455
561.954	8609
562.015	8180
562.076	8929
562.137	8688
562.198	8772
562.259	8710
562.320	9761
562.381	12000
562.442	21381
562.503	18482
562.564	9627
562.625	9255
562.686	8158
562.747	8815
562.808	8807
562.869	8415
562.930	10798
562.991	10352
563.051	9718
563.112	8255
563.173	8814
563.234	7188
563.294	8305
563.355	8208
563.416	10129
563.477	9286
563.537	8511
563.598	9456
563.659	9680
563.720	9233
563.780	10878
563.841	11900
563.901	9956
563.962	8495
564.023	8919
564.083	8885
564.144	10345
564.204	9828
564.265	9278
564.325	11300
564.386	19034
564.446	22330
564.507	9137
564.567	9021
564.628	8573
564.688	8215
564.749	7936
564.809	9228
564.869	11668
564.930	9478
564.990	9443
565.050	9351
565.111	8923
565.171	9389
565.231	9378
565.292	8972
565.352	8338
565.412	9074
565.472	10379
565.532	11270
565.593	10704
565.653	8760
565.713	10065
565.773	10329
565.833	15314
565.893	24958
565.953	12490
566.013	9819
566.074	9946
566.134	12726
566.194	19640
566.254	25959
566.314	16436
566.374	10234
566.434	9634
566.494	8681
566.554	9436
566.614	9450
566.673	8832
566.733	10229
566.793	11648
566.853	10995
566.913	10115
566.973	10124
567.033	11560
567.092	10674
567.152	11145
567.212	11610
567.272	10920
567.331	11434
567.391	10977
567.451	11467
567.511	15096
567.570	18416
567.630	11049
567.690	10759
567.749	11036
567.809	11364
567.868	13157
567.928	12435
567.988	14584
568.047	14472
568.107	15979
568.166	19984
568.226	28511
568.285	40005
568.345	38272
568.404	31088
568.464	26902
568.523	23717
568.582	24635
568.642	26750
568.701	31236
568.761	40564
568.820	62369
568.879	67050
568.939	52965
568.998	39760
569.057	29965
569.116	24508
569.176	20963
569.235	17378
569.294	14855
569.353	14802
569.413	12933
569.472	11995
569.531	11272
569.590	10565
569.649	10809
569.708	9520
569.767	11158
569.827	10602
569.886	10176
569.945	8653
570.004	10160
570.063	9868
570.122	10338
570.181	13023
570.240	10204
570.299	11018
570.358	10300
570.417	8172
570.475	9408
570.534	9528
570.593	10168
570.652	9344
570.711	9604
570.770	9111
570.829	10315
570.887	12493
570.946	15361
571.005	11143
571.064	9420
571.122	11320
571.181	12571
571.240	9832
571.299	7553
571.357	9063
571.416	8608
571.475	10492
571.533	11359
571.592	8835
571.650	8378
571.709	7805
571.768	8237
571.826	8295
571.885	6741
571.943	7261
572.002	7163
572.060	8132
572.119	7442
572.177	6582
572.236	5911
572.294	6393
572.352	7250
572.411	6794
572.469	6451
572.528	7021
572.586	6544
572.644	6919
572.703	8759
572.761	8078
572.819	6525
572.877	6598
572.936	5871
572.994	5971
573.052	5759
573.110	6294
573.169	7221
573.227	6305
573.285	6605
573.343	6700
573.401	5926
573.459	6598
573.517	5444
573.576	5870
573.634	6329
573.692	5464
573.750	6563
573.808	5830
573.866	7231
573.924	8655
573.982	9127
574.040	7205
574.098	5935
574.155	5486
574.213	6162
574.271	5473
574.329	6188
574.387	5612
574.445	5419
574.503	5701
574.560	5168
574.618	5464
574.676	5416
574.734	5920
574.792	6013
574.849	5851
574.907	5564
574.965	5569
575.022	5890
575.080	5264
575.138	5964
575.195	7067
575.253	7014
575.311	8037
575.368	7617
575.426	4758
575.483	5772
575.541	5241
575.598	5285
575.656	5711
575.713	5963
575.771	5238
575.828	5655
575.886	6082
575.943	5730
576.001	5677
576.058	6676
576.115	6060
576.173	7145
576.230	9757
576.287	13780
576.345	9929
576.402	6194
576.459	6148
576.517	6161
576.574	7358
576.631	6659
576.688	6031
576.746	5984
576.803	5949
576.860	5356
576.917	5668
576.974	6047
577.031	5366
577.089	5917
577.146	5218
577.203	6447
577.260	6997
577.317	6949
577.374	8613
577.431	7363
577.488	6618
577.545	5761
577.602	6903
577.659	7000
577.716	7447
577.773	8203
577.830	7729
577.886	6194
577.943	5179
578.000	5423
578.057	6837
578.114	6716
578.171	6577
578.227	7081
578.284	7215
578.341	7072
578.398	6512
578.454	7300
578.511	7075
578.568	8608
578.625	6935
578.681	5805
578.738	5554
578.794	5279
578.851	6121
578.908	5683
578.964	6077
579.021	6845
579.077	6494
579.134	6426
579.190	6609
579.247	5383
579.303	6176
579.360	5528
579.416	5087
579.473	5371
579.529	6004
579.586	5028
579.642	5962
579.698	5632
579.755	5702
579.811	6593
579.867	6916
579.924	5751
579.980	5465
580.036	6205
580.093	7037
580.149	7250
580.205	9251
580.261	8563
580.317	8008
580.374	7126
580.430	8551
580.486	8104
580.542	7131
580.598	7208
580.619	7081
580.654	6861
580.692	6154
580.710	5811
580.765	6526
580.767	6551
580.823	6401
580.838	6406
580.879	6406
580.911	6320
580.935	6281
580.984	5433
580.991	5319
581.047	6442
581.057	6261
581.103	5430
581.130	5575
581.159	5721
581.203	6172
581.215	6292
581.270	6743
581.276	6691
581.326	6188
581.349	6149
581.382	6098
581.422	5881
581.438	5806
581.494	6410
581.494	6409
581.550	6355
581.567	6740
581.606	7502
581.640	7084
581.661	6829
581.713	7169
581.717	7200
581.773	5881
581.786	5893
581.829	5931
581.859	5996
581.885	6115
581.932	6531
581.940	6570
581.996	6630
582.004	6563
582.052	6361
582.077	6364
582.107	6331
582.150	6496
582.163	6520
582.219	5962
582.223	6036
582.274	7023
582.296	7079
582.330	7184
582.368	7205
582.386	7230
582.441	6246
582.441	6243
582.497	5664
582.514	6118
582.552	7341
582.587	7853
582.608	8066
582.659	7471
582.663	7429
582.719	7445
582.732	7188
582.774	6300
582.805	6458
582.830	6658
582.877	7000
582.885	7045
582.941	7102
582.950	7108
582.996	7150
583.023	6989
583.052	6934
583.095	7424
583.107	7533
583.162	8462
583.168	8512
583.218	8842
583.240	8600
583.273	8108
583.313	7444
583.328	7282
583.384	7834
583.385	7818
583.439	7139
583.458	6995
583.494	6849
583.531	6682
583.549	6636
583.603	7215
583.605	7227
583.660	7218
583.676	7116
583.715	6927
583.748	7567
583.770	8046
583.820	8133
583.825	8116
583.881	7841
583.893	7567
583.936	6846
583.965	7028
583.991	7100
584.038	7406
584.046	7499
584.101	7755
584.110	7779
584.156	7746
584.183	8086
584.211	8420
584.255	7882
584.266	7813
584.321	7634
584.328	7721
584.376	8384
584.400	8357
584.431	8132
584.472	7931
584.486	7921
584.541	8385
584.545	8394
584.596	8535
584.617	8410
584.651	8660
584.689	9208
584.706	9260
584.761	9449
584.762	9442
584.816	9454
584.834	9615
584.871	9897
584.906	9682
584.926	9648
584.978	9699
584.980	9715
585.035	10637
585.051	10846
585.090	11343
585.123	11515
585.145	11608
585.195	11754
585.200	11883
585.254	13936
585.267	14677
585.309	17643
585.340	20012
585.364	20602
585.412	18769
585.419	18525
585.473	16287
585.484	16215
585.528	18425
585.556	20615
585.583	26258
585.628	37136
585.637	41965
585.692	78663
585.700	85811
585.747	106273
585.772	97491
585.801	67683
585.845	26978
585.856	23084
585.910	17978
585.917	17363
585.965	16294
585.989	15470
586.019	14652
586.061	14551
586.074	14824
586.128	15240
586.133	15374
586.183	17484
586.205	18068
586.237	17469
586.277	15933
586.292	15714
586.346	14845
586.349	14811
586.401	14878
586.421	15135
586.455	15886
586.493	16417
586.509	17683
586.564	22702
586.565	22858
586.618	32465
586.637	33742
586.672	28796
586.709	21100
586.727	19097
586.781	18119
586.781	18147
586.835	17213
586.853	16992
586.889	16476
586.925	16071
586.944	16428
586.996	17440
586.998	17482
587.052	18070
587.068	17977
587.106	18063
587.140	18314
587.161	18426
587.212	18913
587.215	19017
587.269	20505
587.284	20621
587.323	20364
587.356	20506
587.377	20914
587.427	21884
587.431	22001
587.485	22554
587.499	22793
587.539	23851
587.571	24375
587.593	24612
587.643	25275
587.648	25475
587.702	27047
587.715	27404
587.755	28340
587.786	29002
587.810	29717
587.858	30818
587.864	31175
587.917	34448
587.930	35169
587.971	38309
588.001	40434
588.025	41849
588.073	44484
588.079	45129
588.133	50029
588.145	51297
588.187	57077
588.217	60471
588.241	64432
588.288	72718
588.295	74319
588.348	87759
588.360	90449
588.402	102370
588.431	110419
588.456	117924
588.503	133588
588.510	137127
588.564	164783
588.575	170677
588.617	200679
588.646	221617
588.671	252863
588.718	316605
588.725	336348
588.778	498046
588.789	534020
588.832	844772
588.861	1073980
588.886	1353666
588.932	1905645
588.939	1926291
588.993	1936585
589.004	1921364
589.047	1492726
589.075	1163932
589.100	921021
589.147	504055
589.154	483466
589.207	352164
589.218	327196
589.261	306231
589.290	295028
589.314	311085
589.361	347756
589.368	368744
589.421	548490
589.433	590048
589.475	972479
589.504	1259800
589.528	1462645
589.576	1820330
589.582	1777572
589.635	1247355
589.647	1119823
589.689	667635
589.718	372773
589.742	301963
589.790	180354
589.795	175422
589.849	132464
589.861	123207
589.902	108813
589.932	97453
589.955	88899
590.004	70642
590.009	69931
590.062	61873
590.075	59783
590.115	55384
590.146	52011
590.168	50867
590.218	47713
590.222	47626
590.275	45019
590.289	44244
590.328	43307
590.360	42229
590.381	41390
590.431	39025
590.435	39049
590.488	37747
590.503	37212
590.541	37238
590.574	37363
590.594	36616
590.645	34018
590.647	34093
590.700	33336
590.716	33063
590.753	32778
590.787	32219
590.806	31890
590.859	30869
590.859	30958
590.912	30287
590.930	30090
590.965	30537
591.001	30799
591.018	30739
591.071	30099
591.072	29994
591.124	30347
591.143	30291
591.177	30594
591.214	30668
591.230	31233
591.283	33046
591.285	32999
591.336	35785
591.356	36789
591.389	37043
591.427	36797
591.442	35471
591.495	30095
591.498	29593
591.547	28142
591.569	27447
591.600	27585
591.640	27409
591.653	27648
591.706	28407
591.711	28388
591.759	28951
591.782	29084
591.811	30429
591.853	32159
591.864	31685
591.917	28609
591.924	28063
591.969	28366
591.995	28459
592.022	28057
592.066	26998
592.075	27650
592.127	31163
592.137	31716
592.180	32948
592.208	33505
592.233	31783
592.279	28099
592.285	28124
592.338	27643
592.350	27430
592.390	27788
592.421	27900
592.443	27839
592.491	27386
592.495	27419
592.548	26572
592.562	26252
592.600	26566
592.633	26662
592.653	26873
592.704	27035
592.705	27207
592.775	28051
592.846	30358
592.916	32127
592.987	35836
593.058	31276
593.128	27072
593.199	26479
593.270	25905
593.341	26031
593.411	27881
593.482	28698
593.553	26034
593.623	26016
593.694	25559
593.764	26908
593.835	25917
593.906	24358
593.976	25443
594.047	26576
594.117	30289
594.188	29045
594.258	25098
594.329	23674
594.399	26091
594.470	25099
594.540	25626
594.611	25201
594.681	25304
594.751	25506
594.822	29128
594.892	29616
594.963	28509
595.033	27572
595.103	26932
595.174	29844
595.244	39490
595.314	43907
595.384	28470
595.455	26858
595.525	27978
595.595	28988
595.665	28994
595.736	28501
595.806	27397
595.876	27164
595.946	27547
596.016	26944
596.087	28175
596.157	28147
596.227	27628
596.297	28905
596.367	30590
596.437	33065
596.507	39266
596.577	44379
596.647	32919
596.717	31294
596.787	30749
596.857	31642
596.927	31723
596.997	31489
597.067	32810
597.137	35369
597.207	33415
597.277	31764
597.347	32006
597.417	31713
597.487	33523
597.557	34156
597.626	35130
597.696	35823
597.766	38479
597.836	43773
597.906	32178
597.975	29068
598.045	29724
598.115	30402
598.185	32895
598.254	36431
598.324	40685
598.394	41930
598.464	42590
598.533	36311
598.603	34647
598.672	36055
598.742	34077
598.812	32185
598.881	33180
598.951	31865
599.020	31642
599.090	31641
599.159	34114
599.229	32087
599.299	30266
599.368	31910
599.437	32262
599.507	30992
599.576	31088
599.646	32125
599.715	32584
599.785	30408
599.854	30480
599.924	31384
599.993	29804
600.062	28519
600.132	28798
600.201	31902
600.270	38511
600.340	35483
600.409	34178
600.478	33169
600.547	32878
600.617	31310
600.686	29238
600.755	30416
600.824	32990
600.894	28103
600.963	25742
601.032	25049
601.101	24983
601.170	23940
601.239	26443
601.308	30459
601.378	28546
601.447	24893
601.516	25479
601.585	29918
601.654	36241
601.723	27409
601.792	26441
601.861	28826
601.930	35963
601.999	38041
602.068	32168
602.137	40373
602.206	37482
602.275	33823
602.343	44441
602.412	41920
602.481	28755
602.550	26356
602.619	28717
602.688	29987
602.756	27729
602.825	25855
602.894	26677
602.963	26023
603.032	26147
603.100	26509
603.169	27275
603.238	26163
603.307	26582
603.375	27172
603.444	28055
603.513	27097
603.581	28605
603.650	27883
603.719	27176
603.787	27570
603.856	29205
603.924	27821
603.993	29303
604.061	31482
604.130	32894
604.198	33497
604.267	31896
604.335	32025
604.404	32103
604.472	31477
604.541	32349
604.609	32401
604.678	33395
604.746	33415
604.815	33728
604.883	34842
604.951	35465
605.020	34398
605.088	34738
605.156	34413
605.225	35490
605.293	35332
605.361	36081
605.429	36090
605.498	39524
605.566	42956
605.634	40046
605.702	40007
605.771	40227
605.839	39904
605.907	39391
605.975	38312
606.043	38327
606.111	37325
606.180	39097
606.248	42319
606.316	43596
606.384	39924
606.452	48611
606.520	63865
606.588	44959
606.656	38575
606.724	37963
606.792	35647
606.860	32993
606.928	30021
606.996	28473
607.064	28870
607.132	29273
607.200	30698
607.267	32618
607.335	31157
607.403	32691
607.471	30656
607.539	31564
607.607	31389
607.674	28752
607.742	31375
607.810	35802
607.878	32062
607.946	30211
608.013	30686
608.081	31276
608.149	30989
608.216	31719
608.284	32467
608.352	31925
608.419	31889
608.487	39363
608.555	33238
608.622	32163
608.690	33130
608.757	35293
608.825	36781
608.893	37248
608.960	37323
609.028	38358
609.095	40701
609.163	33179
609.230	30622
609.298	30776
609.365	31181
609.432	32281
609.500	34553
609.567	38203
609.635	42111
609.702	44060
609.769	43436
609.837	36773
609.904	31453
609.971	33121
610.039	38550
610.106	53409
610.173	107484
610.241	245804
610.308	121427
610.375	45165
610.442	32557
610.509	31768
610.577	31602
610.644	31933
610.711	33097
610.778	33414
610.845	34837
610.912	36616
610.980	41610
611.047	46605
611.114	40251
611.181	34808
611.248	33106
611.315	36917
611.382	36110
611.449	37300
611.516	39062
611.583	38587
611.650	38520
611.717	39843
611.784	39949
611.851	42836
611.918	47834
611.984	59210
612.051	96794
612.118	221125
612.185	574842
612.252	295897
612.319	65077
612.386	49916
612.452	46305
612.519	46069
612.586	50560
612.653	45597
612.719	44862
612.786	44351
612.853	39723
612.919	37927
612.986	39452
613.053	36320
613.120	34627
613.186	33382
613.253	35651
613.319	34505
613.386	35334
613.453	37880
613.519	44001
613.586	63480
613.652	90787
613.719	72544
613.785	57011
613.852	38179
613.918	38391
613.985	46127
614.051	65687
614.118	127581
614.184	110982
614.250	41052
614.317	36611
614.383	35004
614.449	35318
614.516	34704
614.582	36381
614.648	35347
614.715	35208
614.781	35061
614.847	35061
614.914	34226
614.980	32821
615.046	34779
615.112	35240
615.179	34668
615.245	35096
615.311	38171
615.377	47118
615.443	46949
615.509	38625
615.575	38201
615.642	37052
615.708	41228
615.774	44921
615.840	47909
615.906	57209
615.972	80070
616.038	143852
616.104	311312
616.170	767317
616.236	554395
616.302	101729
616.368	70665
616.434	48907
616.500	48629
616.565	52507
616.631	65438
616.697	50990
616.763	55240
616.829	87139
616.895	156786
616.961	139857
617.026	59392
617.092	40756
617.158	38110
617.224	36067
617.289	36046
617.355	33786
617.421	31812
617.487	32504
617.552	30028
617.618	28520
617.684	29248
617.749	31796
617.815	28091
617.880	28375
617.946	29615
618.012	31013
618.077	30204
618.143	28238
618.208	29162
618.274	31224
618.339	32159
618.405	26252
618.470	27582
618.536	29017
618.601	29622
618.667	26872
618.732	26757
618.798	26397
618.863	25390
618.928	25863
618.994	29165
619.059	38913
619.124	63147
619.190	35403
619.255	25278
619.320	25094
619.386	24446
619.451	22983
619.516	23926
619.581	23396
619.647	24368
619.712	24375
619.777	24038
619.842	23433
619.907	25361
619.972	26209
620.038	26371
620.103	23433
620.168	22577
620.233	23806
620.298	23255
620.363	23895
620.428	24841
620.493	24536
620.558	25495
620.623	23965
620.688	24754
620.753	24694
620.818	24954
620.883	25328
620.948	25449
621.013	25209
621.078	24810
621.143	23722
621.207	28555
621.272	27562
621.337	29733
621.402	28838
621.467	32679
621.532	32603
621.596	28643
621.661	25608
621.726	25513
621.791	26051
621.855	30694
621.920	32562
621.985	29107
622.049	31673
622.114	29441
622.179	27716
622.243	28428
622.308	27133
622.373	29806
622.437	27520
622.502	27339
622.566	25898
622.631	26783
622.695	28619
622.760	28124
622.824	28506
622.889	31402
622.953	38057
623.018	71772
623.082	61822
623.147	31859
623.211	32197
623.276	31581
623.340	26068
623.404	26893
623.469	25746
623.533	26690
623.597	25532
623.662	25340
623.726	24147
623.790	23229
623.854	23393
623.919	24329
623.983	24129
624.047	24950
624.111	23695
624.176	25085
624.240	24680
624.304	27486
624.368	23236
624.432	25199
624.496	27331
624.560	37687
624.625	41564
624.689	29874
624.753	25204
624.817	25737
624.881	24714
624.945	23435
625.009	22962
625.073	25563
625.137	29478
625.201	47398
625.265	42798
625.329	28023
625.393	32171
625.456	27516
625.520	25433
625.584	31671
625.648	34517
625.712	44770
625.776	84942
625.839	91094
625.903	38200
625.967	26194
626.031	39550
626.095	55094
626.158	26330
626.222	20322
626.286	19919
626.349	19010
626.413	19226
626.477	25666
626.540	19482
626.604	18521
626.668	18786
626.731	17318
626.795	18540
626.858	18517
626.922	17751
626.986	18911
627.049	16670
627.113	19220
627.176	17176
627.240	17416
627.303	15949
627.366	17271
627.430	18205
627.493	17909
627.557	16941
627.620	18613
627.684	17354
627.747	17729
627.810	15605
627.874	17226
627.937	15227
628.000	18234
628.064	17285
628.127	13109
628.190	16424
628.253	14980
628.317	14874
628.380	14388
628.443	14584
628.506	13870
628.569	14536
628.632	13303
628.696	13366
628.759	12524
628.822	12538
628.885	12497
628.948	14091
629.011	15095
629.074	15912
629.137	12405
629.200	11873
629.263	14561
629.326	12275
629.389	12442
629.452	12724
629.515	12725
629.578	12939
629.641	14264
629.704	13914
629.767	16373
629.830	12573
629.892	12913
629.955	12189
630.018	17620
630.081	23279
630.144	31777
630.207	18372
630.269	18338
630.332	14668
630.395	13146
630.458	11904
630.520	11563
630.583	12335
630.646	12442
630.708	11121
630.771	10730
630.834	11504
630.896	11269
630.959	11760
631.021	10249
631.084	11302
631.146	13307
631.209	14100
631.272	12048
631.334	11789
631.397	12544
631.459	12719
631.522	16461
631.584	13715
631.646	14530
631.709	16952
631.771	24999
631.834	16479
631.896	13130
631.958	11216
632.021	11743
632.083	10337
632.145	11888
632.208	13483
632.270	13923
632.332	10321
632.395	10554
632.457	11722
632.519	10540
632.581	11962
632.643	10535
632.706	10713
632.768	9625
632.830	10132
632.892	10519
632.954	10788
633.016	11734
633.078	10010
633.141	10389
633.203	10166
633.265	10325
633.327	10694
633.389	10983
633.451	16092
633.513	22541
633.575	16301
633.637	21815
633.698	17548
633.760	12072
633.822	11766
633.884	12240
633.946	11531
634.008	11474
634.070	12614
634.132	15122
634.193	13184
634.255	14019
634.317	13384
634.379	15403
634.441	11632
634.502	11404
634.564	11691
634.626	11290
634.687	11090
634.749	10318
634.811	10000
634.873	8738
634.934	9859
634.996	10192
635.057	9350
635.119	8664
635.181	9722
635.242	11075
635.304	8542
635.365	11807
635.427	10005
635.488	11980
635.550	9321
635.611	10078
635.673	7843
635.734	11316
635.796	11162
635.857	14299
635.918	10653
635.980	13089
636.041	11675
636.102	14238
636.164	13451
636.225	14873
636.286	10768
636.348	11839
636.409	11359
636.470	10346
636.531	10501
636.593	10212
636.654	10363
636.715	8920
636.776	8183
636.838	7369
636.899	9327
636.960	8234
637.021	8120
637.082	8202
637.143	8947
637.204	7907
637.265	7006
637.326	8912
637.387	8351
637.448	6466
637.509	8619
637.570	7947
637.631	8255
637.692	6803
637.753	6163
637.814	7427
637.875	7697
637.936	9190
637.997	8028
638.058	9032
638.119	9094
638.179	7071
638.240	7596
638.301	7314
638.362	6238
638.423	7100
638.483	8184
638.544	5994
638.605	6727
638.666	6434
638.726	7839
638.787	8057
638.848	6748
638.908	6485
638.969	7720
639.030	7375
639.090	6523
639.151	7593
639.211	11337
639.272	19390
639.332	38030
639.393	14246
639.453	6875
639.514	7222
639.574	7671
639.635	7445
639.695	7536
639.756	7329
639.816	10897
639.877	17099
639.937	38206
639.997	47803
640.058	11282
640.118	7425
640.178	7859
640.239	6463
640.299	6866
640.359	6120
640.420	6793
640.480	7456
640.540	7461
640.600	7378
640.661	7866
640.721	9936
640.781	16386
640.841	8591
640.901	8900
640.961	7795
641.021	10365
641.082	14719
641.142	27763
641.202	14098
641.262	5970
641.322	6913
641.382	6134
641.442	6134
641.502	6031
641.562	6912
641.622	6312
641.682	7064
641.742	7189
641.802	7717
641.861	8774
641.921	10004
641.981	13131
642.041	12680
642.101	18385
642.161	8488
642.221	4635
642.280	6126
642.340	5565
642.400	4662
642.460	7185
642.519	5708
642.579	6368
642.639	6935
642.698	4099
642.758	7859
642.818	6085
642.877	6225
642.937	8511
642.997	13356
643.056	23354
643.116	9460
643.175	7221
643.235	6172
643.294	5749
643.354	6829
643.414	7010
643.473	8208
643.532	10056
643.592	15332
643.651	25928
643.711	48472
643.770	99420
643.830	252718
643.889	507915
643.948	92137
644.008	16186
644.067	10282
644.126	8879
644.186	7649
644.245	7111
644.304	6066
644.363	7498
644.423	4384
644.482	5318
644.541	6565
644.600	3976
644.659	7983
644.719	8897
644.778	13264
644.837	21486
644.896	44495
644.955	95711
645.014	28101
645.073	10393
645.132	6351
645.191	6422
645.250	6200
645.309	7799
645.368	6970
645.427	8141
645.486	11010
645.545	19970
645.604	6194
645.663	5688
645.722	6036
645.781	6687
645.840	8080
645.898	9823
645.957	15294
646.016	20725
646.075	42523
646.134	84996
646.192	245205
646.251	318686
646.310	35938
646.369	12031
646.427	9979
646.486	5642
646.545	6824
646.603	5353
646.662	6035
646.721	6476
646.779	5058
646.838	4219
646.896	8432
646.955	8647
647.014	13685
647.072	22322
647.131	60085
647.189	24062
647.248	5768
647.306	5544
647.365	5097
647.423	3073
647.481	6217
647.540	3552
647.598	5333
647.657	3735
647.715	5166
647.773	3735
647.832	5604
647.890	3371
647.948	4176
648.007	4725
648.065	3680
648.123	4767
648.181	7263
648.240	7238
648.298	5447
648.356	4223
648.414	4437
648.472	4164
648.531	4633
648.589	3862
648.647	3530
648.705	3856
648.763	4020
648.821	4614
648.879	3891
648.937	5431
648.995	5551
649.053	6665
649.111	12462
649.169	17678
649.227	33028
649.285	69848
649.343	192958
649.401	87438
649.459	62715
649.516	36003
649.574	22595
649.632	46611
649.690	49912
649.748	15462
649.806	17013
649.863	27700
649.921	44939
649.979	23826
650.037	6041
650.094	3909
650.152	4244
650.210	3002
650.268	4442
650.325	4793
650.383	4630
650.440	2852
650.498	4680
650.556	2281
650.613	3575
650.671	4155
650.728	4040
650.786	3726
650.843	4616
650.901	1907
650.958	3780
651.016	3870
651.073	3227
651.131	2571
651.188	2200
651.246	3326
651.303	2314
651.360	3635
651.418	3125
651.475	2812
651.532	2580
651.590	2814
651.647	2367
651.704	3007
651.762	2996
651.819	4812
651.876	2750
651.933	3976
651.990	3926
652.048	1890
652.105	2514
652.162	2918
652.219	2757
652.276	2613
652.333	3517
652.390	2512
652.448	3189
652.505	3322
652.562	4178
652.619	4124
652.676	7538
652.733	7625
652.790	3180
652.847	2260
652.904	3414
652.961	1848
653.017	1963
653.074	2282
653.131	3390
653.188	1305
653.245	2853
653.302	2867
653.359	3535
653.415	3269
653.472	2398
653.529	2738
653.586	2872
653.642	2672
653.699	3395
653.756	1258
653.813	2977
653.869	2114
653.926	2653
653.983	1936
654.039	2967
654.096	2513
654.152	3422
654.209	1655
654.266	2732
654.322	2359
654.379	3977
654.435	4755
654.492	5498
654.548	9248
654.605	15189
654.661	4651
654.717	3576
654.774	3104
654.830	2772
654.887	2459
654.943	3138
655.000	3811
655.056	3298
655.112	2914
655.168	2684
655.225	2864
655.281	4062
655.337	4099
655.394	8103
655.450	4999
655.506	4444
655.562	7270
655.618	6305
655.675	1928
655.731	3108
655.787	2024
655.843	3577
655.899	2190
655.955	3597
656.011	3222
656.067	1844
656.123	2654
656.179	3515
656.235	3602
656.291	2518
656.347	3421
656.403	2306
656.459	2545
656.515	4283
656.571	3556
656.627	2986
656.683	3364
656.739	3768
656.795	3800
656.850	5141
656.906	5979
656.962	5155
657.018	2490
657.074	2762
657.129	3165
657.185	4278
657.241	5622
657.297	4141
657.352	4092
657.408	2890
657.464	4657
657.519	2945
657.575	1875
657.630	2505
657.686	2296
657.742	1875
657.797	2149
657.853	1474
657.908	3248
657.964	1967
658.019	2595
658.075	2332
658.130	2826
658.186	866
658.241	2640
658.297	1844
658.352	2419
658.407	3261
658.463	2191
658.518	3063
658.573	2761
658.629	1787
658.684	2029
658.739	2726
658.795	1326
658.850	1905
658.905	2242
658.960	2889
659.016	2715
659.071	3933
659.126	4266
659.181	5161
659.236	13646
659.291	12607
659.346	6494
659.401	4250
659.457	4625
659.512	6317
659.567	4380
659.622	3304
659.677	2756
659.732	2363
659.787	2989
659.842	2883
659.897	3701
659.952	2426
660.007	2252
660.061	2005
660.116	1659
660.171	1552
660.226	2565
660.281	3606
660.336	1740
660.391	2925
660.445	1688
660.500	2982
660.555	2534
660.610	1727
660.664	2953
660.719	2508
660.774	2919
660.828	2770
660.883	3450
660.938	2998
660.992	1118
661.047	3036
661.101	1649
661.156	2226
661.211	1742
661.265	2575
661.320	1590
661.374	2399
661.429	1565
661.483	2966
661.538	1029
661.592	2115
661.647	2865
661.701	2671
661.755	1800
661.810	2692
661.864	2018
661.919	1975
661.973	3093
662.027	2216
662.081	2213
662.136	2414
662.190	2673
662.244	2519
662.299	2354
662.353	2701
662.407	2419
662.461	2115
662.515	2811
662.569	2566
662.624	3351
662.678	2023
662.732	2463
662.786	2763
662.840	2652
662.894	2699
662.948	2544
663.002	2330
663.056	1740
663.110	2172
663.164	2030
663.218	2461
663.272	2817
663.326	3960
663.380	3782
663.434	3133
663.488	1771
663.542	1733
663.595	2493
663.649	3122
663.703	2343
663.757	2294
663.811	1791
663.864	2295
663.918	2068
663.972	2583
664.026	2014
664.079	2411
664.133	2390
664.187	1609
664.240	2282
664.294	1963
664.348	2565
664.401	2980
664.455	1454
664.508	1705
664.562	1314
664.615	2947
664.669	2266
664.722	1676
664.776	1673
664.829	2274
664.883	1925
664.936	1304
664.990	1716
665.043	2879
665.097	1757
665.150	3163
665.203	1392
665.257	2300
665.310	2300
665.363	2794
665.417	1892
665.470	2942
665.523	1905
665.576	1877
665.630	2150
665.683	2451
665.736	2131
665.789	2614
665.842	2940
665.895	2339
665.949	2761
666.002	2393
666.055	2782
666.108	2656
666.161	2505
666.214	2977
666.267	3392
666.320	4262
666.373	3122
666.426	2128
666.479	2534
666.532	2657
666.585	1923
666.638	3629
666.691	2632
666.744	3444
666.796	2943
666.849	3189
666.902	2755
666.955	1849
667.008	2006
667.060	2053
667.113	2030
667.166	2296
667.219	1856
667.271	2868
667.324	1831
667.377	3048
667.430	2589
667.482	3888
667.535	3750
667.587	4847
667.640	5239
667.693	5520
667.745	14924
667.798	12994
667.850	2912
667.903	3498
667.955	1695
668.008	2312
668.060	3296
668.113	2887
668.165	2606
668.218	2883
668.270	2264
668.322	2043
668.375	1602
668.427	2621
668.479	2014
668.532	2501
668.584	2902
668.636	2684
668.689	1861
668.741	2631
668.793	2002
668.845	1523
668.898	3202
668.950	2934
669.002	2393
669.054	1661
669.106	1702
669.158	2581
669.211	2993
669.263	3281
669.315	3009
669.367	4320
669.419	3108
669.471	4008
669.523	4480
669.575	5456
669.627	3632
669.679	2410
669.731	2592
669.783	3165
669.835	4225
669.886	3128
669.938	2531
669.990	3735
670.042	2022
670.094	2737
670.146	2209
670.197	3212
670.249	2841
670.301	3847
670.353	4653
670.404	6752
670.456	8435
670.508	12806
670.560	18226
670.611	29566
670.663	48527
670.715	116441
670.766	176379
670.818	47751
670.869	8755
670.921	5608
670.972	3612
671.024	3947
671.075	4123
671.127	2181
671.178	2627
671.230	3001
671.281	2939
671.333	2551
671.384	3013
671.436	2977
671.487	4772
671.538	4728
671.590	5643
671.641	10010
671.692	15337
671.744	26232
671.795	14446
671.846	5322
671.897	3720
671.949	3659
672.000	2125
672.051	2604
672.102	2986
672.153	2059
672.204	1750
672.256	3198
672.307	2435
672.358	3609
672.409	2511
672.460	2313
672.511	1335
672.562	1885
672.613	2650
672.664	2452
672.715	2125
672.766	1949
672.817	1564
672.868	2334
672.919	1631
672.970	2268
673.021	2013
673.071	2326
673.122	1874
673.173	2601
673.224	1290
673.275	2007
673.326	2113
673.376	1883
673.427	1251
673.478	1982
673.528	2308
673.579	2687
673.630	2311
673.680	2721
673.731	1358
673.782	2062
673.832	1253
673.883	1888
673.934	1055
673.984	1628
674.035	2575
674.085	1625
674.136	1974
674.186	2514
674.237	2557
674.287	4759
674.338	2059
674.388	1276
674.438	1697
674.489	2502
674.539	2227
674.589	1810
674.640	1572
674.690	1881
674.740	826
674.791	2458
674.841	2058
674.891	2148
674.942	2187
674.992	2857
675.042	1706
675.092	1732
675.142	1674
675.193	1921
675.243	1227
675.293	2572
675.343	1467
675.393	1220
675.443	1506
675.493	2220
675.543	1389
675.593	2320
675.643	2010
675.693	1988
675.743	2739
675.793	2019
675.843	241
675.893	2053
675.943	2502
675.993	1755
676.043	1092
676.093	2190
676.142	1137
676.192	2082
676.242	602
676.292	1432
676.341	1280
676.391	1403
676.441	1065
676.491	996
676.540	1747
676.590	1512
676.640	1650
676.689	1327
676.739	677
676.789	1500
676.838	1398
676.888	1584
676.937	1928
676.987	1313
677.037	1202
677.086	1053
677.136	1010
677.185	1229
677.235	289
677.284	1003
677.333	1195
677.383	1080
677.432	583
677.482	1570
677.531	1300
677.580	1529
677.630	753
677.679	1360
677.728	607
677.778	1199
677.827	1114
677.876	1411
677.925	936
677.975	2164
678.024	1633
678.073	634
678.122	893
678.171	736
678.220	984
678.269	1852
678.319	1153
678.368	1570
678.417	893
678.466	1854
678.515	2051
678.564	454
678.613	1315
678.662	2263
678.711	1352
678.760	2023
678.809	877
678.857	1173
678.906	1111
678.955	1311
679.004	1872
679.053	1341
679.102	589
679.151	1355
679.199	1626
679.248	1388
679.297	2209
679.346	1868
679.394	1286
679.443	897
679.492	1568
679.540	788
679.589	698
679.638	1082
679.686	780
679.735	1137
679.784	1513
679.832	885
679.881	-45
679.929	1208
679.978	249
680.026	985
680.075	1310
680.123	307
680.172	-15
680.220	770
680.268	514
680.317	1104
680.365	465
680.414	1991
680.462	491
680.510	539
680.559	1385
680.607	1443
680.655	894
680.703	1105
680.752	743
680.800	1434
680.848	722
680.896	914
680.945	585
680.993	1258
681.041	1271
681.089	1143
681.137	497
681.185	829
681.233	475
681.258	518
681.281	554
681.329	914
681.377	908
681.380	934
681.425	1313
681.473	1092
681.502	875
681.521	716
681.569	1389
681.617	656
681.624	757
681.665	1376
681.713	963
681.745	796
681.761	706
681.809	94
681.857	697
681.867	702
681.904	721
681.952	1425
681.989	988
682.000	844
682.048	1096
682.096	895
682.111	699
682.143	256
682.191	557
682.233	1299
682.239	1408
682.286	597
682.334	666
682.354	569
682.382	424
682.430	1518
682.476	698
682.477	677
682.525	1058
682.572	760
682.598	723
682.620	722
682.667	863
682.715	1859
682.720	1867
682.763	1759
682.810	1062
682.841	939
682.857	890
682.905	390
682.952	1023
682.963	1019
683.000	943
683.047	850
683.085	1205
683.095	1312
683.142	1435
683.190	713
683.206	799
683.237	898
683.284	1347
683.328	796
683.332	745
683.379	1025
683.426	1122
683.449	794
683.473	485
683.521	892
683.568	1241
683.571	1227
683.615	940
683.662	1777
683.693	1206
683.709	902
683.757	837
683.804	1440
683.814	1363
683.851	1094
683.898	951
683.936	1224
683.945	1272
683.992	670
684.039	1684
684.057	1793
684.086	2003
684.133	1817
684.179	1267
684.180	1246
684.227	2376
684.274	1886
684.300	2263
684.321	2493
684.368	1231
684.415	1699
684.422	1538
684.462	563
684.509	1207
684.543	790
684.556	649
684.603	995
684.649	835
684.665	1025
684.696	1455
684.743	732
684.786	1241
684.790	1276
684.837	365
684.883	1734
684.908	1678
684.930	1603
684.977	1758
685.023	1201
685.029	1291
685.070	1960
685.117	1865
685.150	1663
685.164	1602
685.210	1738
685.257	1811
685.272	1768
685.303	1609
685.350	1799
685.393	1603
685.396	1599
685.443	2854
685.490	3196
685.514	2708
685.536	2147
685.583	2040
685.629	2189
685.636	2009
685.675	1031
685.722	2185
685.757	2270
685.768	2272
685.815	1766
685.861	1457
685.878	1713
685.908	2194
685.954	1724
686.000	2317
686.000	2326
686.047	1802
686.093	2485
686.121	2523
686.139	2446
686.185	1870
686.232	1829
686.242	1738
686.278	1660
686.324	1510
686.363	1876
686.370	1924
686.416	1435
686.463	2695
686.484	2109
686.509	1378
686.555	1598
686.601	1495
686.606	1481
686.647	1392
686.693	1365
686.727	1554
686.739	1660
686.785	1733
686.831	1485
686.848	1516
686.877	1507
686.923	1486
686.969	1712
686.969	1713
687.015	1110
687.061	1892
687.090	2126
687.107	2246
687.153	2084
687.199	1799
687.211	1689
687.245	1480
687.291	1935
687.332	2698
687.336	2738
687.382	2412
687.428	1749
687.453	1519
687.474	1452
687.520	1890
687.565	2123
687.574	2023
687.611	1601
687.657	1631
687.695	1085
687.702	1022
687.748	2241
687.794	2660
687.816	2438
687.839	2060
687.885	2017
687.931	2386
687.937	2364
687.976	2304
688.022	2593
688.058	2038
688.067	1915
688.113	2225
688.158	1976
688.179	2230
688.204	2495
688.249	1892
688.295	2424
688.300	2439
688.340	2398
688.386	2617
688.421	1523
688.431	1314
688.477	1951
688.522	2382
688.542	2449
688.567	2457
688.613	2054
688.658	2399
688.663	2404
688.703	2279
688.749	2121
688.784	2273
688.794	2340
688.839	1722
688.884	1905
688.905	1895
688.930	1917
688.975	1912
689.020	2147
689.026	2151
689.065	2195
689.110	1854
689.146	2031
689.155	2078
689.201	2410
689.246	2118
689.267	2216
689.291	2316
689.336	2182
689.381	2162
689.388	2057
689.426	1704
689.471	2535
689.509	2603
689.516	2584
689.561	2404
689.606	2300
689.630	2420
689.651	2495
689.696	2288
689.741	2537
689.750	2475
689.785	2452
689.830	2472
689.871	2414
689.875	2380
689.920	2355
689.965	1953
689.992	1687
690.010	1742
690.054	2519
690.099	3101
690.112	3135
690.144	2870
690.189	2772
690.233	2213
690.233	2217
690.278	2678
690.323	2646
690.354	2827
690.367	2834
690.412	2983
690.457	2805
690.474	2753
690.501	2728
690.546	2941
690.590	2504
690.595	2507
690.635	2756
690.680	2568
690.716	3123
690.724	3215
690.769	2794
690.813	3374
690.836	3199
690.857	3359
690.902	3908
690.946	4922
690.957	5022
690.991	5338
691.035	6284
691.077	7714
691.080	7730
691.124	6006
691.168	4929
691.198	4096
691.213	3860
691.257	3696
691.301	3085
691.318	3059
691.346	3262
691.390	3243
691.434	2946
691.439	2960
691.478	3133
691.522	3390
691.559	3133
691.567	3101
691.611	3933
691.655	3920
691.680	3701
691.699	3369
691.743	3262
691.787	3254
691.800	2966
691.831	2616
691.875	3228
691.919	3532
691.921	3527
691.964	3471
692.008	3422
692.041	3351
692.052	3344
692.096	3458
692.139	3534
692.162	3610
692.183	3531
692.227	3586
692.271	2801
692.282	2740
692.315	3003
692.359	3221
692.402	3675
692.403	3683
692.447	3339
692.490	3374
692.523	3275
692.534	3308
692.578	3244
692.622	3014
692.643	3117
692.666	3251
692.709	3283
692.753	3675
692.763	3589
692.797	3282
692.840	3534
692.884	3469
692.884	3476
692.928	3209
692.971	3367
693.004	3244
693.015	3273
693.059	3708
693.102	3737
693.124	3729
693.146	3685
693.189	4178
693.233	4046
693.245	4154
693.276	4211
693.320	3839
693.363	3336
693.365	3318
693.407	3710
693.450	4248
693.485	4492
693.493	4562
693.537	5033
693.580	5073
693.605	5382
693.624	5828
693.667	6541
693.710	7903
693.725	8242
693.753	10052
693.797	13180
693.840	16330
693.845	16574
693.883	13662
693.926	9859
693.966	6883
693.970	6803
694.013	5999
694.056	5482
694.086	4997
694.099	4884
694.142	4317
694.185	4205
694.206	3981
694.229	3997
694.272	3920
694.315	4160
694.326	4168
694.358	4519
694.401	4932
694.444	5672
694.446	5671
694.487	5231
694.530	4903
694.566	4759
694.573	4727
694.616	4039
694.659	3995
694.686	3768
694.702	3763
694.745	3585
694.787	3565
694.806	3626
694.830	3959
694.873	4069
694.916	4473
694.926	4534
694.959	4436
695.002	4518
695.044	4384
695.046	4370
695.087	4387
695.130	4101
695.166	4319
695.172	4351
695.215	3891
695.258	3802
695.286	3725
695.301	3713
695.343	3637
695.386	3266
695.406	3312
695.428	3616
695.471	3890
695.514	4112
695.526	4181
695.556	4202
695.599	4479
695.641	4248
695.646	4252
695.684	4279
695.726	4080
695.766	4084
695.769	4093
695.811	3865
695.854	3738
695.886	3650
695.896	3759
695.938	4077
695.981	4288
696.005	4567
696.023	4656
696.065	4642
696.108	4702
696.125	4693
696.150	4670
696.192	4644
696.235	4614
696.245	4592
696.277	4773
696.319	4937
696.361	5144
696.365	5153
696.404	5297
696.446	5277
696.485	5448
696.488	5461
696.530	5181
696.572	5024
696.604	5010
696.614	5016
696.656	4678
696.698	4585
696.724	4405
696.740	4446
696.783	4609
696.825	4909
696.844	4911
696.867	4784
696.909	4658
696.951	4511
696.964	4463
696.992	4419
697.034	4334
697.076	4143
697.083	4119
697.118	4408
697.160	4659
697.202	4921
697.203	4913
697.244	4541
697.286	4246
697.323	3829
697.327	3868
697.369	4184
697.411	4539
697.442	4715
697.453	4782
697.494	5001
697.536	5383
697.562	5503
697.578	5575
697.620	5778
697.661	5945
697.682	6042
697.703	6002
697.744	5865
697.786	5840
697.801	5739
697.828	5766
697.869	5831
697.911	5892
697.921	5913
697.952	5797
697.994	5555
698.035	5343
698.040	5298
698.077	5130
698.118	4902
698.160	4733
698.160	4716
698.201	4656
698.243	4609
698.279	4540
698.284	4583
698.325	4843
698.367	5118
698.399	5310
698.408	5280
698.449	5073
698.491	4872
698.518	4723
698.532	4792
698.573	4929
698.614	5121
698.638	5195
698.656	5248
698.697	5361
698.738	5433
698.757	5457
698.779	5320
698.820	5045
698.862	4756
698.877	4637
698.903	4865
698.944	5199
698.985	5539
698.996	5619
699.026	5481
699.067	5272
699.116	5010
699.235	5907
699.354	4990
699.474	6077
699.593	5999
699.713	5234
699.832	6089
699.951	6889
700.070	6345
700.190	5378
700.309	5321
700.428	5275
700.547	5780
700.667	5228
700.786	6267
700.905	5459
701.024	5868
701.143	5566
701.262	5250
701.381	5170
701.500	5530
701.619	5803
701.738	5795
701.857	5206
701.976	4859
702.095	6046
702.214	6329
702.333	6149
702.452	5443
702.571	5359
702.690	5496
702.809	4424
702.928	4731
703.047	5681
703.165	5161
703.284	6056
703.403	5659
703.522	5922
703.640	6157
703.759	6990
703.878	6764
703.997	4281
704.115	5635
704.234	5082
704.353	5284
704.471	4819
704.590	5171
704.708	4558
704.827	4568
704.946	4317
705.064	5724
705.183	4559
705.301	6172
705.420	7938
705.538	6261
705.656	5330
705.775	7780
705.893	16120
706.012	10843
706.130	6046
706.249	6610
706.367	6426
706.485	5997
706.604	5413
706.722	7420
706.840	7989
706.958	7346
707.077	7255
707.195	5120
707.313	5455
707.431	6236
707.549	4861
707.668	5775
707.786	5822
707.904	5936
708.022	4731
708.140	5005
708.258	5045
708.376	6029
708.494	5760
708.612	7118
708.730	8385
708.848	7021
708.966	7144
709.084	7768
709.202	5694
709.320	7105
709.438	6879
709.556	6382
709.674	6602
709.791	6558
709.909	5978
710.027	7364
710.145	6356
710.263	6891
710.380	5967
710.498	5914
710.616	6499
710.733	6184
710.851	5696
710.969	6235
711.086	6738
711.204	6704
711.322	6043
711.439	6022
711.557	6053
711.674	5840
711.792	6214
711.909	7740
712.027	6358
712.144	6069
712.262	6088
712.379	7086
712.497	9197
712.614	9219
712.732	8127
712.849	8026
712.966	9090
713.084	9719
713.201	7983
713.318	8338
713.436	7711
713.553	7695
713.670	7563
713.787	7899
713.905	8013
714.022	7699
714.139	7346
714.256	9046
714.373	8647
714.490	13846
714.608	29799
714.725	112828
714.842	67633
714.959	9411
715.076	6605
715.193	7818
715.310	7200
715.427	7686
715.544	6880
715.661	7079
715.778	7102
715.895	7345
716.011	7283
716.128	7029
716.245	7498
716.362	9979
716.479	8675
716.596	7259
716.713	7142
716.829	6856
716.946	5937
717.063	6625
717.180	6496
717.296	6370
717.413	6740
717.530	7503
717.646	6410
717.763	6434
717.880	6174
717.996	6996
718.113	6891
718.229	6966
718.346	5685
718.462	6996
718.579	8595
718.695	15802
718.812	8624
718.928	7581
719.045	5971
719.161	6292
719.277	5534
719.394	7358
719.510	6289
719.626	6776
719.743	7095
719.859	7998
719.975	11592
720.092	33270
720.208	44901
720.324	8325
720.440	6438
720.557	8037
720.673	12778
720.789	13629
720.905	16018
721.021	5726
721.137	6620
721.253	5362
721.369	6511
721.486	6675
721.602	6646
721.718	5593
721.834	6262
721.950	5998
722.066	6280
722.181	6023
722.297	5832
722.413	6112
722.529	5305
722.645	5882
722.761	6052
722.877	5522
722.993	5369
723.108	5739
723.224	5566
723.340	5838
723.456	4924
723.571	5747
723.687	4926
723.803	6297
723.918	5242
724.034	6090
724.150	5139
724.265	6459
724.381	10042
724.497	6923
724.612	5424
724.728	5190
724.843	5007
724.959	5907
725.074	8659
725.190	6831
725.305	5307
725.421	5088
725.536	5104
725.651	4866
725.767	4183
725.882	4854
725.997	3966
726.113	4930
726.228	4663
726.343	4032
726.459	5044
726.574	4989
726.689	3725
726.804	4368
726.920	4423
727.035	4975
727.150	4450
727.265	4971
727.380	5191
727.495	5456
727.610	3898
727.725	5907
727.841	7277
727.956	13094
728.071	5760
728.186	4658
728.301	4208
728.416	5875
728.531	4597
728.645	4610
728.760	4822
728.875	5159
728.990	5209
729.105	4947
729.220	4840
729.335	4227
729.449	4921
729.564	3987
729.679	4711
729.794	4819
729.908	4343
730.023	4745
730.138	3800
730.253	4521
730.367	3664
730.482	4421
730.596	4648
730.711	4912
730.826	4595
730.940	4652
731.055	4268
731.169	4313
731.284	3666
731.398	3985
731.513	3756
731.627	4054
731.742	4018
731.856	4127
731.970	4149
732.085	4708
732.199	4849
732.313	5881
732.428	12201
732.542	31563
732.656	12816
732.771	5493
732.885	4734
732.999	4778
733.113	4502
733.227	4397
733.342	3885
733.456	4831
733.570	3795
733.684	4493
733.798	4289
733.912	3518
734.026	4230
734.140	3979
734.254	5070
734.368	7062
734.482	5938
734.596	3729
734.710	3707
734.824	3273
734.938	3340
735.052	4463
735.166	4998
735.280	4209
735.393	4192
735.507	3597
735.621	5196
735.735	6444
735.849	3758
735.962	4240
736.076	4875
736.190	3549
736.303	4723
736.417	4512
736.531	4028
736.644	4091
736.758	3949
736.872	2819
736.985	3842
737.099	4118
737.212	3518
737.326	4408
737.439	4196
737.553	4075
737.666	4496
737.780	3840
737.893	3072
738.007	3510
738.120	2468
738.233	3713
738.347	3518
738.460	4217
738.573	3450
738.687	3920
738.800	3988
738.913	5884
739.026	3482
739.140	4215
739.253	3142
739.366	3788
739.479	3042
739.592	3308
739.705	3284
739.818	4539
739.932	3101
740.045	2848
740.158	3569
740.271	3665
740.384	3222
740.497	4079
740.610	4345
740.723	3166
740.836	4307
740.949	4158
741.062	6100
741.174	4393
741.287	3654
741.400	3389
741.513	4031
741.626	3582
741.739	3461
741.851	3215
741.964	3420
742.077	3323
742.189	3771
742.302	5108
742.415	3172
742.527	3057
742.640	3283
742.753	3433
742.865	2255
742.978	3115
743.090	2525
743.203	3051
743.316	2771
743.428	2742
743.541	2941
743.653	2989
743.766	2317
743.878	2982
743.990	3835
744.103	3689
744.215	2981
744.327	3355
744.440	4801
744.552	7013
744.664	3869
744.777	2937
744.889	2240
745.001	3327
745.113	2464
745.226	2476
745.338	3363
745.450	2169
745.562	3293
745.674	2973
745.786	2215
745.898	2796
746.010	2621
746.122	1615
746.234	2012
746.347	2864
746.459	3385
746.570	2761
746.682	2678
746.794	3349
746.906	3043
747.018	3011
747.130	2849
747.242	2773
747.354	1804
747.466	3477
747.577	2402
747.689	2621
747.801	1963
747.913	3626
748.024	2082
748.136	2753
748.248	2193
748.359	2002
748.471	2031
748.583	2293
748.694	2759
748.806	3750
748.918	2941
749.029	3192
749.141	3279
749.252	2885
749.364	5331
749.475	7922
749.587	3763
749.698	2765
749.809	2734
749.921	2389
750.032	2188
750.144	2142
750.255	2091
750.366	2531
750.478	2158
750.589	2867
750.700	3066
750.811	3387
750.923	4681
751.034	10535
751.145	6982
751.256	2616
751.367	2155
751.479	2382
751.590	2294
751.701	1753
751.812	1934
751.923	3230
752.034	2293
752.145	2741
752.256	2981
752.367	2717
752.478	3336
752.589	2807
752.700	1875
752.811	2596
752.922	2175
753.032	3029
753.143	3550
753.254	1618
753.365	2539
753.476	2054
753.586	1748
753.697	2546
753.808	2863
753.919	1531
754.029	2899
754.140	2087
754.251	2641
754.361	2013
754.472	2857
754.582	2626
754.693	2768
754.804	2385
754.914	2516
755.025	2415
755.135	2503
755.246	2753
755.356	1849
755.466	3385
755.577	2307
755.687	2922
755.798	1705
755.908	2673
756.018	2825
756.129	2660
756.239	2378
756.349	2640
756.460	1898
756.570	2465
756.680	2553
756.790	2389
756.900	3131
757.011	1816
757.121	3198
757.231	2345
757.341	1841
757.451	2042
757.561	2033
757.671	3238
757.781	893
757.891	3565
758.001	3007
758.111	3200
758.221	3339
758.331	3239
758.441	3686
758.551	4462
758.661	3004
758.771	3806
758.880	2295
758.990	2540
759.100	2656
759.210	2556
759.320	3183
759.429	2746
759.539	3220
759.649	1685
759.758	3012
759.868	3167
759.978	2367
760.087	3600
760.197	3392
760.307	3415
760.416	2910
760.526	3458
760.635	3419
760.745	2593
760.854	2811
760.964	3584
761.073	2774
761.182	3639
761.292	3466
761.401	3355
761.511	2777
761.620	3554
761.729	2792
761.839	3417
761.948	2773
762.057	3437
762.166	3455
762.276	2318
762.385	3883
762.494	3541
762.603	3006
762.712	3121
762.822	2973
762.931	3687
763.040	3177
763.149	4858
763.258	3688
763.367	4728
763.476	4234
763.585	4367
763.694	4375
763.803	4406
763.912	4423
764.021	4315
764.130	5036
764.238	5141
764.347	4304
764.456	5752
764.565	5883
764.674	5564
764.783	6315
764.891	6545
765.000	7805
765.109	8735
765.217	9659
765.326	11874
765.435	14039
765.543	16970
765.652	19062
765.761	26790
765.869	40297
765.978	67040
766.086	123688
766.195	261867
766.303	633387
766.412	1033499
766.520	713429
766.629	221041
766.737	98600
766.846	59177
766.954	42079
767.062	32195
767.171	25222
767.279	18755
767.387	15966
767.496	12663
767.604	11571
767.712	11214
767.820	9759
767.928	9604
768.037	8543
768.145	9884
768.253	8656
768.361	8149
768.469	7389
768.577	8541
768.685	8674
768.793	9344
768.901	9763
769.009	11905
769.117	12892
769.225	18483
769.333	28061
769.441	48188
769.549	98824
769.657	243149
769.765	668166
769.873	772946
769.981	230491
770.088	70641
770.196	39587
770.304	27686
770.412	19938
770.519	15856
770.627	11955
770.735	9459
770.842	9022
770.950	8614
771.058	6844
771.165	6998
771.273	5687
771.380	5930
771.488	5327
771.595	5109
771.703	4913
771.810	5433
771.918	4680
772.025	4943
772.133	3437
772.240	3205
772.348	4143
772.455	3892
772.562	4210
772.670	4336
772.777	4494
772.884	3594
772.991	3458
773.099	3894
773.206	2991
773.313	3516
773.420	2638
773.528	2473
773.635	3098
773.742	3913
773.849	3384
773.956	2591
774.063	2312
774.170	2713
774.277	3698
774.384	2455
774.491	2691
774.598	3692
774.705	3643
774.812	4434
774.919	3546
775.026	3302
775.133	2927
775.239	2611
775.346	2457
775.453	3241
775.560	2360
775.667	3025
775.773	1857
775.880	3479
775.987	2669
776.093	3118
776.200	2050
776.307	2976
776.413	3020
776.520	2292
776.627	2942
776.733	2340
776.840	1343
776.946	3643
777.053	3033
777.159	5740
777.266	2493
777.372	5834
777.478	4476
777.585	4362
777.691	2406
777.798	3269
777.904	3884
778.010	6147
778.117	3021
778.223	2878
778.329	2523
778.435	2622
778.542	2986
778.648	1586
778.754	1697
778.860	2789
778.966	1743
779.072	2139
779.178	1614
779.284	2886
779.391	2226
779.497	2008
779.603	4863
779.708	2270
779.815	10581
779.920	38408
780.026	26109
780.132	3600
780.238	1905
780.344	2146
780.450	2851
780.556	2787
780.661	1935
780.767	1964
780.873	935
780.979	2416
781.085	1428
781.190	2348
781.296	1136
781.402	1599
781.507	1278
781.613	1752
781.719	1724
781.824	2223
781.930	2188
782.035	2117
782.141	1928
782.246	1636
782.352	2244
782.457	1880
782.563	1408
782.668	2528
782.773	2102
782.879	2031
782.984	2216
783.090	2740
783.195	4831
783.300	2538
783.405	2653
783.511	1116
783.616	2411
783.721	1774
783.826	2081
783.932	2231
784.037	1064
784.142	1648
784.247	1005
784.352	2804
784.457	1320
784.562	2623
784.667	2052
784.772	1251
784.877	1647
784.982	2107
785.087	1787
785.192	2204
785.297	1823
785.402	1839
785.507	1491
785.611	1361
785.716	1478
785.821	1014
785.926	462
786.031	2120
786.135	1430
786.240	1461
786.345	887
786.450	1672
786.554	1425
786.659	1607
786.763	689
786.868	2419
786.973	3067
787.077	1514
787.182	2187
787.286	1670
787.391	1707
787.495	1426
787.600	1059
787.704	521
787.809	1698
787.913	1501
788.017	1910
788.122	1730
788.226	1572
788.330	1703
788.435	1429
788.539	1658
788.643	1576
788.747	1777
788.852	1503
788.956	599
789.060	1494
789.164	1457
789.268	163
789.372	1834
789.476	1633
789.580	1232
789.684	1092
789.788	2052
789.892	1382
789.996	1757
790.100	1365
790.204	1949
790.308	1340
790.412	1249
790.516	2224
790.620	1332
790.724	2436
790.828	1213
790.931	496
791.035	3247
791.139	1148
791.242	1026
791.346	2390
791.450	989
791.554	1321
791.657	369
791.761	2675
791.864	1702
791.968	1253
792.072	1606
792.175	527
792.279	1724
792.382	1322
792.486	1654
792.589	1016
792.693	1589
792.796	138
792.899	1741
793.003	1580
793.106	122
793.209	999
793.313	2734
793.416	-126
793.519	3055
793.623	3644
793.726	2884
793.829	1752
793.932	1446
794.035	515
794.138	1928
794.242	2099
794.345	1742
794.448	2994
794.551	6750
794.654	17733
794.757	13418
794.860	2235
794.963	1160
795.066	1195
795.169	1840
795.272	-280
795.375	1099
795.477	509
795.580	1843
795.683	-85
795.786	1099
795.889	155
795.991	1465
796.094	2024
796.197	275
796.300	1796
796.402	783
796.505	-116
796.608	634
796.710	1207
796.813	1238
796.915	494
797.018	1359
797.120	1004
797.223	-524
797.326	2272
797.428	350
797.530	787
797.633	853
797.735	780
797.838	1496
797.940	673
798.042	-25
798.145	99
798.247	869
798.349	-282
798.452	1143
798.554	480
798.656	130
798.758	1930
798.860	879
798.962	317
799.065	873
799.167	-801
799.269	837
799.371	647
799.473	1859
799.575	-104
799.677	1071
799.779	2808
799.881	1130
799.983	1595
800.085	1380
800.187	1305
800.289	126
800.390	602
800.492	1091
800.594	1336
800.696	205
800.798	1192
800.899	-189
801.001	92
801.103	964
801.205	-316
801.306	954
801.408	-235
801.509	255
801.611	739
801.713	1097
801.814	-322
801.916	287
802.017	264
802.119	89
802.220	-305
802.322	-1145
802.423	2002
802.525	-534
802.626	-261
802.727	909
802.829	923
802.930	-1122
803.031	1442
803.133	608
803.234	-326
803.335	583
803.436	-700
803.538	445
803.639	-660
803.740	1068
803.841	116
803.942	73
804.043	686
804.144	-359
804.245	-156
804.346	-78
804.447	-57
804.548	2024
804.649	1674
804.750	-54
804.851	-199
804.952	-2
805.053	358
805.154	-1200
805.255	790
805.355	230
805.456	57
805.557	-482
805.658	-263
805.758	1068
805.859	686
805.960	795
806.061	82
806.161	-234
806.262	711
806.362	256
806.463	402
806.564	549
806.664	391
806.765	1035
806.865	-81
806.966	638
807.066	-54
807.166	877
807.267	739
807.367	72
807.468	339
807.568	-987
807.668	444
807.769	961
807.869	-872
807.969	454
808.069	657
808.170	9
808.270	-107
808.370	1751
808.470	825
808.570	-237
808.670	-965
808.770	681
808.870	-992
808.970	24
809.070	101
809.170	-1340
809.271	352
809.370	417
809.470	-266
809.570	-523
809.670	-779
809.770	13
809.870	379
809.970	337
810.070	-694
810.169	139
810.269	-1597
810.369	1198
810.469	632
810.568	617
810.668	-1299
810.768	681
810.867	669
810.967	251
811.066	124
811.166	98
811.265	1565
811.365	-601
811.464	115
811.564	261
811.663	313
811.763	-1070
811.862	247
811.962	1822
812.061	313
812.160	-121
812.260	-84
812.359	121
812.458	-1017
812.557	525
812.657	100
812.756	-151
812.855	166
812.954	124
813.053	-41
813.153	709
813.252	-1030
813.351	780
813.450	605
813.549	-802
813.648	24
813.747	443
813.846	955
813.945	112
814.044	115
814.143	430
814.242	972
814.341	29
814.439	327
814.538	379
814.637	315
814.736	134
814.835	1020
814.933	-383
815.032	716
815.131	431
815.229	209
815.328	946
815.427	453
815.525	1040
815.624	461
815.722	-31
815.821	-195
815.919	601
816.018	-510
816.116	1071
816.215	193
816.313	540
816.412	945
816.510	423
816.609	2166
816.707	1042
816.805	281
816.904	448
817.002	928
817.100	1265
817.198	1141
817.296	986
817.395	545
817.493	1705
817.591	905
817.689	1982
817.787	1954
817.885	5115
817.983	9674
818.081	23673
818.179	63784
818.277	136007
818.375	53417
818.473	9263
818.571	4205
818.669	3771
818.767	3699
818.865	3776
818.963	4957
819.061	9555
819.158	19931
819.256	51349
819.354	136130
819.452	224427
819.549	64215
819.647	12807
819.745	5112
819.842	5072
819.940	2574
820.038	2011
820.135	1441
820.233	2176
820.330	1250
820.428	848
820.525	2289
820.623	1300
820.720	627
820.818	1501
820.915	617
821.012	910
821.110	-133
821.207	1683
821.304	154
821.402	809
821.499	1474
821.596	2255
821.693	605
821.791	1592
821.888	1286
821.985	4016
822.082	1520
822.179	1224
822.276	-164
822.373	481
822.470	390
822.567	152
822.664	-222
822.761	927
822.858	-216
822.955	295
823.052	410
823.149	362
823.246	-161
823.343	-33
823.440	639
823.536	503
823.633	-148
823.730	-1210
823.827	69
823.923	549
824.020	688
824.117	622
824.213	33
824.310	921
824.407	353
824.503	268
824.600	-21
824.696	223
824.793	398
824.889	-46
824.986	131
825.082	-256
825.179	792
825.275	-23
825.371	-773
825.468	936
825.564	-160
825.660	205
825.757	-602
825.853	1560
825.949	-35
826.045	78
826.142	-773
826.238	188
826.334	729
826.430	-1006
826.526	704
826.622	-890
826.718	-385
826.814	-5
826.910	689
827.006	22
827.102	-641
827.198	1369
827.294	-1009
827.390	1011
827.486	186
827.582	-621
827.678	-722
827.774	49
827.869	-1077
827.965	519
828.061	-737
828.157	121
828.252	-156
828.348	-1284
828.444	624
828.539	-278
828.635	-257
828.731	752
828.826	-1352
828.922	488
829.017	6
829.113	466
829.208	-795
829.304	-111
829.399	432
829.495	-729
829.590	136
829.685	-567
829.781	190
829.876	-198
829.971	89
830.066	328
830.162	-711
830.257	-745
830.352	-484
830.447	84
830.543	-540
830.638	-1961
830.733	-160
830.828	-209
830.923	25
831.018	-354
831.113	-451
831.208	-975
831.303	-1182
831.398	-292
831.493	-497
831.588	-1235
831.683	-1156
831.778	-138
831.873	-150
831.967	-451
832.062	-841
832.157	-1143
832.252	-240
832.346	-921
832.441	403
832.536	972
832.631	4088
832.725	1794
832.820	-427
832.914	-44
833.009	-717
833.104	-209
833.198	675
833.293	-315
833.387	149
833.482	-226
833.576	-849
833.670	72
833.765	-43
833.859	-420
833.954	-176
834.048	-204
834.142	-50
834.237	-638
834.331	-202
834.425	-39
834.519	-895
834.613	-317
834.708	-756
834.802	-814
834.896	-1006
834.990	-407
835.084	-262
835.178	-725
835.272	-1154
835.366	-517
835.460	-201
835.554	-558
835.648	-83
835.742	-1374
835.836	210
835.930	-932
836.024	-695
836.117	246
836.211	-1199
836.305	385
836.399	-209
836.493	-978
836.586	-162
836.680	-948
836.774	-774
836.867	986
836.961	-1278
837.055	-184
837.148	-239
837.242	140
837.335	-516
837.429	432
837.522	-1093
837.616	-229
837.709	43
837.803	-914
837.896	567
837.989	-148
838.083	-360
838.176	823
838.269	-1262
838.363	585
838.456	-206
838.549	1262
838.642	2156
838.735	3660
838.829	895
838.922	-679
839.015	-505
839.108	-883
839.201	404
839.294	313
839.387	1153
839.480	-1662
839.573	344
839.666	-124
839.759	-256
839.852	-1218
839.945	123
840.038	-1254
840.131	-503
840.223	65
840.316	-105
840.409	-572
840.502	-1008
840.594	397
840.687	-866
840.780	-275
840.873	-992
840.965	-82
841.058	318
841.150	439
841.243	-1264
841.336	1099
841.428	415
841.521	-941
841.613	-344
841.706	-136
841.798	-59
841.890	-293
841.983	-1970
842.075	605
842.167	-834
842.260	-585
842.352	72
842.444	-678
842.537	1182
842.629	479
842.721	-577
842.813	86
842.905	-1062
842.997	325
843.090	-750
843.182	666
843.274	37
843.366	3234
843.458	3399
843.550	1404
843.642	-1220
843.734	132
843.826	145
843.918	456
844.009	-117
844.101	-553
844.193	-220
844.285	-316
844.377	308
844.469	1243
844.560	-226
844.652	438
844.744	-122
844.835	-335
844.927	-392
845.019	-469
845.110	-1161
845.202	-81
845.293	-695
845.385	-1075
845.476	-160
845.568	312
845.659	-835
845.751	126
845.842	-194
845.934	-829
846.025	-1426
846.116	-211
846.208	-3
846.299	-1244
846.390	-500
846.482	352
846.573	441
846.664	381
846.755	248
846.846	-332
846.937	-1801
847.029	-1120
847.120	-1619
847.211	-404
847.302	815
847.393	-871
847.484	-326
847.575	-276
847.666	-1277
847.757	-785
847.847	379
847.938	193
848.029	-1541
848.120	-596
848.211	-209
848.302	-731
848.392	-568
848.483	-330
848.574	-986
848.664	-314
848.755	-727
848.846	476
848.936	-479
849.027	-569
849.118	-1034
849.208	-552
849.299	28
849.389	453
849.480	875
849.570	1992
849.661	5173
849.751	9368
849.841	2044
849.932	-417
850.022	-1415
850.112	454
850.203	-571
850.293	-753
850.383	-163
850.474	-542
850.564	-824
850.654	-695
850.744	-928
850.834	-765
850.924	-412
851.014	-309
851.104	-549
851.194	-418
851.284	-216
851.374	120
851.464	-916
851.554	-691
851.644	-249
851.734	90
851.824	-477
851.914	-597
852.004	-212
852.094	-567
852.183	-883
852.273	-665
852.363	-1098
852.452	-120
852.542	-346
852.632	-327
852.721	-1303
852.811	-1382
852.901	-12
852.990	-1634
853.080	-761
853.169	-1259
853.259	-816
853.348	-106
853.438	-801
853.527	246
853.617	-326
853.706	1089
853.795	3523
853.885	11905
853.974	21861
854.063	42421
854.152	61635
854.242	16126
854.331	694
854.420	168
854.509	400
854.598	-198
854.687	-134
854.777	-683
854.866	-496
854.955	-36
855.044	-1522
855.133	-1080
855.222	-1291
855.311	-958
855.400	-263
855.488	-385
855.577	-983
855.666	-337
855.755	-844
855.844	-502
855.933	-1159
856.021	-853
856.110	-847
856.199	-1616
856.288	-1404
856.376	-1062
856.465	-1559
856.554	-711
856.642	-1293
856.731	-468
856.819	-1135
856.908	-899
856.996	-1244
857.085	-1693
857.173	-898
857.262	-1169
857.350	-452
857.438	-559
857.527	-522
857.615	-209
857.703	-310
857.792	-604
857.880	-995
857.968	-1014
858.056	-1394
858.145	-1236
858.233	-1098
858.321	-1074
858.409	-838
858.497	-996
858.585	-1110
858.673	-1082
858.761	-1081
858.849	-911
858.937	-1405
859.025	-911
859.113	-1054
859.201	-960
859.289	-724
859.377	-1112
859.465	-288
859.552	-488
859.640	-1230
859.728	-325
859.816	-911
859.903	-851
859.991	-1017
860.079	-780
860.166	-1021
860.254	-431
860.342	173
860.429	-1269
860.517	-975
860.604	-517
860.692	-526
860.779	-620
860.867	-780
860.954	-1015
861.042	44
861.129	304
861.216	-294
861.304	-959
861.391	-639
861.478	-821
861.565	-1485
861.653	-346
861.740	-1070
861.827	-1342
861.914	-1101
862.001	-778
862.089	-959
862.176	-701
862.263	-1108
862.350	-851
862.437	-991
862.524	-631
862.611	-656
862.698	-558
862.785	-1308
862.871	-182
862.958	-995
863.045	-1133
863.132	-1160
863.219	54
863.306	-1170
863.392	114
863.479	-1037
863.566	-738
863.652	-238
863.739	-758
863.826	-894
863.912	-873
863.999	-1188
864.086	-1353
864.172	-1031
864.259	-997
864.345	-1053
864.432	-160
864.518	-980
864.604	-892
864.691	-652
864.777	-647
864.863	-328
864.950	-660
865.036	-1253
865.122	-150
865.209	64
865.295	-475
865.381	-764
865.467	-369
865.553	-131
865.639	858
865.726	1425
865.812	4758
865.898	9425
865.984	15032
866.070	30677
866.156	28142
866.242	4381
866.328	746
866.414	26
866.499	-230
866.585	357
866.671	-572
866.757	-295
866.843	7
866.928	-301
867.014	541
867.100	-383
867.186	81
867.271	-93
867.357	484
867.442	-883
867.528	-289
867.614	-151
867.699	-134
867.785	556
867.870	-148
867.956	-692
868.041	470
868.127	414
868.212	150
868.297	-227
868.383	-682
868.468	756
868.553	1261
868.639	1730
868.724	4465
868.809	2680
868.894	-331
868.979	-43
869.065	-359
869.150	-1215
869.235	-482
869.320	-491
869.405	-1075
869.490	-718
869.575	-576
869.660	-994
869.745	-370
869.830	-329
869.915	-955
870.000	-103
870.085	-147
870.169	284
870.254	-199
870.339	-1095
870.424	-1509
870.509	-65
870.593	-584
870.678	-468
870.763	-310
870.847	-215
870.932	-516
871.016	-419
871.101	-590
871.186	-255
871.270	387
871.355	-817
871.439	-144
871.523	-1576
871.608	301
871.692	-418
871.777	302
871.861	-96
871.945	-159
872.030	-534
872.114	-1237
872.198	-1195
872.282	-1020
872.367	-1173
872.451	-534
872.535	-702
872.619	-780
872.703	-424
872.787	-817
872.871	-864
872.955	-1204
873.039	-770
873.123	-787
873.207	-98
873.291	-966
873.375	-1282
873.459	-263
873.543	-1411
873.627	-1139
873.711	-1078
873.794	-138
873.878	-1021
873.962	-178
874.045	-251
874.129	-791
874.137	-813
874.213	-1035
874.245	-841
874.296	-532
874.352	-950
874.380	-1154
874.460	-469
874.464	-443
874.547	-746
874.568	-605
874.631	-190
874.676	-280
874.714	-356
874.784	-430
874.798	-436
874.881	438
874.892	265
874.965	-985
874.999	-849
875.048	-663
875.107	-1145
875.131	-1325
875.215	-459
875.215	-458
875.298	-296
875.323	-576
875.381	-1246
875.430	-1047
875.465	-873
875.538	-602
875.548	-582
875.631	-1041
875.646	-1168
875.714	-1655
875.753	-1425
875.798	-1213
875.861	-458
875.881	-218
875.964	-1015
875.968	-1010
876.047	-814
876.076	-729
876.130	-618
876.183	-488
876.213	-427
876.291	267
876.296	318
876.379	-814
876.398	-695
876.462	-311
876.506	-802
876.545	-1264
876.613	-277
876.628	-60
876.711	-287
876.721	-291
876.794	-248
876.828	-471
876.877	-866
876.935	-298
876.960	-11
877.043	-703
877.043	-703
877.125	-858
877.150	-734
877.208	-445
877.258	-446
877.291	-389
877.365	-879
877.374	-954
877.456	-740
877.472	-664
877.539	-359
877.579	-491
877.622	-435
877.687	-427
877.704	-508
877.787	-436
877.794	-468
877.869	-669
877.901	-530
877.952	-360
878.008	-521
878.034	-549
878.115	-502
878.117	-502
878.199	-452
878.222	-406
878.282	-156
878.329	-386
878.364	-649
878.437	-479
878.447	-409
878.529	-862
878.544	-735
878.611	-523
878.651	-774
878.694	-882
878.758	-574
878.776	-514
878.858	-263
878.865	-228
878.941	425
878.972	192
879.023	-335
879.078	-400
879.105	-376
879.185	-37
879.187	-35
879.269	-869
879.292	-914
879.351	-764
879.399	-466
879.433	-326
879.506	-300
879.516	-284
879.598	-25
879.613	-27
879.680	-81
879.720	-89
879.762	-73
879.827	-385
879.844	-505
879.926	-165
879.933	-175
880.007	-32
880.040	-133
880.089	-174
880.147	334
880.171	490
880.253	1828
880.254	1830
880.335	2573
880.360	3010
880.417	4873
880.467	7526
880.499	9171
880.574	10091
880.580	9779
880.662	3352
880.680	2283
880.744	539
880.787	-113
880.825	-321
880.893	-312
880.907	-334
880.989	-384
881.000	-345
881.070	52
881.106	-151
881.152	-314
881.213	23
881.233	107
881.315	-72
881.319	-63
881.396	-78
881.426	-272
881.478	-408
881.532	-375
881.559	-407
881.639	-394
881.641	-389
881.722	-8
881.745	-52
881.803	72
881.852	-2
881.885	-325
881.958	-299
881.966	-226
882.047	497
882.064	416
882.129	-59
882.171	385
882.210	1196
882.277	2257
882.291	2186
882.372	488
882.383	383
882.454	77
882.489	-146
882.535	-126
882.596	-177
882.616	-159
882.697	-232
882.702	-207
882.778	-174
882.808	-126
882.859	19
882.914	-192
882.940	-129
883.020	185
883.021	188
883.102	117
883.127	159
883.183	102
883.233	-378
883.264	-460
883.339	-56
883.345	-38
883.426	-3
883.445	-10
883.507	-209
883.551	-310
883.587	-151
883.657	62
883.668	62
883.749	73
883.763	71
883.830	-140
883.869	-334
883.910	-339
883.975	30
883.991	161
884.072	277
884.081	299
884.152	190
884.187	80
884.233	163
884.292	739
884.314	756
884.394	-487
884.398	-498
884.475	11
884.504	60
884.555	-111
884.610	-264
884.636	-204
884.716	-188
884.716	-183
884.797	109
884.821	75
884.877	156
884.927	135
884.958	-27
885.033	-373
885.038	-360
885.118	128
885.139	156
885.199	180
885.244	318
885.279	315
885.350	192
885.359	168
885.439	-61
885.456	-166
885.520	130
885.561	489
885.600	341
885.667	91
885.680	159
885.760	587
885.773	590
885.840	487
885.878	552
885.920	561
885.984	548
886.000	466
886.080	-11
886.089	-80
886.160	377
886.195	841
886.240	860
886.300	360
886.320	312
886.400	457
886.406	454
886.480	527
886.511	569
886.560	881
886.616	1222
886.640	1216
886.720	1062
886.722	1054
886.800	849
886.827	752
886.879	519
886.932	251
886.959	384
887.038	918
887.039	919
887.119	227
887.143	108
887.198	199
887.248	242
887.278	332
887.354	452
887.358	463
887.437	699
887.459	699
887.517	783
887.564	971
887.596	855
887.669	479
887.676	489
887.755	548
887.774	574
887.835	522
887.880	502
887.914	443
887.985	155
887.994	150
888.073	216
888.090	216
888.153	72
888.195	-26
888.232	164
888.300	480
888.311	551
888.391	979
888.405	1070
888.470	849
888.510	647
888.549	504
888.615	365
888.628	443
888.708	807
888.720	860
888.787	249
888.825	-133
888.866	132
888.930	633
888.945	636
889.024	517
889.035	513
889.103	706
889.140	750
889.182	786
889.245	882
889.261	803
889.340	389
889.349	338
889.419	719
889.454	902
889.498	786
889.559	626
889.577	714
889.656	1078
889.664	1111
889.735	925
889.768	831
889.814	921
889.873	1035
889.978	533
890.083	737
890.187	216
890.292	465
890.397	756
890.501	657
890.606	186
890.710	484
890.815	1061
890.919	756
891.024	6
891.128	721
891.233	588
891.337	219
891.442	823
891.546	577
891.650	1011
891.755	839
891.859	1895
891.963	563
892.068	1113
892.172	766
892.276	188
892.380	1189
892.484	123
892.589	795
892.693	1185
892.797	540
892.901	657
893.005	391
893.109	624
893.213	773
893.317	838
893.421	409
893.525	-156
893.629	-568
893.733	588
893.837	-840
893.941	832
894.045	797
894.148	58
894.252	537
894.356	866
894.460	718
894.564	1205
894.667	333
894.771	829
894.875	152
894.978	942
895.082	-292
895.186	976
895.289	-147
895.393	412
895.496	1113
895.600	1147
895.703	446
895.807	1205
895.910	-455
896.014	469
896.117	763
896.221	294
896.324	190
896.427	802
896.531	368
896.634	515
896.737	-259
896.840	1092
896.944	402
897.047	355
897.150	-194
897.253	1003
897.356	-288
897.460	1438
897.563	670
897.666	782
897.769	176
897.872	-72
897.975	633
898.078	-98
898.181	379
898.284	35
898.387	633
898.490	-1
898.593	502
898.695	533
898.798	407
898.901	153
899.004	804
899.107	444
899.209	992
899.312	508
899.415	-13
899.518	1209
899.620	-348
899.723	204
899.826	2174
899.928	2136
900.031	851
900.133	240
900.236	-240
900.338	288
900.441	608
900.543	658
900.646	154
900.748	906
900.851	472
900.953	532
901.055	213
901.158	555
901.260	440
901.362	439
901.465	180
901.567	-212
901.669	458
901.771	43
901.873	631
901.976	383
902.078	-300
902.180	648
902.282	608
902.384	-158
902.486	-301
902.588	319
902.690	1281
902.792	626
902.894	727
902.996	532
903.098	-131
903.200	102
903.302	418
903.404	-351
903.505	301
903.607	1210
903.709	1058
903.811	1138
903.913	-56
904.014	509
904.116	-352
904.218	375
904.319	802
904.421	777
904.523	1558
904.624	626
904.726	410
904.827	469
904.929	146
905.030	609
905.132	577
905.233	561
905.335	314
905.436	289
905.537	717
905.639	1186
905.740	632
905.841	434
905.943	782
906.044	557
906.145	-5
906.247	-43
906.348	377
906.449	587
906.550	170
906.651	751
906.752	858
906.854	484
906.955	106
907.056	1029
907.157	-61
907.258	-17
907.359	613
907.460	339
907.561	-124
907.662	386
907.762	277
907.863	198
907.964	198
908.065	1075
908.166	-451
908.267	229
908.367	132
908.468	615
908.569	105
908.670	252
908.770	278
908.871	472
908.971	692
909.072	-44
909.173	232
909.273	529
909.374	476
909.474	-29
909.575	-71
909.675	412
909.776	14
909.876	79
909.977	331
910.077	332
910.177	-89
910.278	134
910.378	272
910.478	1421
910.579	1028
910.679	-6
910.779	251
910.879	-40
910.980	192
911.080	391
911.180	-609
911.280	846
911.380	749
911.480	-89
911.580	163
911.680	657
911.780	579
911.880	972
911.980	240
912.080	72
912.180	410
912.280	-142
912.380	893
912.480	573
912.580	149
912.679	392
912.779	607
912.879	228
912.979	-919
913.078	-50
913.178	361
913.278	502
913.377	150
913.477	586
913.577	-105
913.676	916
913.776	464
913.875	34
913.975	179
914.074	423
914.174	318
914.273	335
914.373	101
914.472	188
914.572	260
914.671	753
914.770	906
914.870	391
914.969	399
915.068	563
915.167	430
915.267	323
915.366	180
915.465	629
915.564	335
915.663	67
915.763	8
915.862	1142
915.961	301
916.060	-179
916.159	-78
916.258	315
916.357	101
916.456	1546
916.555	271
916.654	308
916.752	-350
916.851	66
916.950	245
917.049	47
917.148	409
917.247	67
917.345	236
917.444	40
917.543	-438
917.642	-205
917.740	417
917.839	479
917.937	-132
918.036	539
918.135	503
918.233	213
918.332	-711
918.430	254
918.529	487
918.627	432
918.726	-147
918.824	437
918.923	-425
919.021	399
919.119	-206
919.218	-367
919.316	-68
919.414	-174
919.512	-34
919.611	455
919.709	510
919.807	389
919.905	442
920.003	433
920.102	-696
920.200	-38
920.298	119
920.396	271
920.494	615
920.592	-71
920.690	-109
920.788	1075
920.886	292
920.984	714
921.082	-508
921.180	1260
921.277	-470
921.375	518
921.473	358
921.571	466
921.669	626
921.766	441
921.864	477
921.962	509
922.060	418
922.157	-47
922.255	246
922.352	-304
922.450	465
922.548	757
922.645	718
922.743	232
922.840	491
922.938	338
923.035	438
923.133	639
923.230	354
923.327	458
923.425	205
923.522	1022
923.619	-133
923.717	274
923.814	1097
923.911	751
924.008	724
924.106	639
924.203	446
924.300	-106
924.397	-464
924.494	1086
924.591	593
924.688	599
924.786	227
924.883	1285
924.979	749
925.077	308
925.173	389
925.270	466
925.367	1063
925.464	674
925.561	447
925.658	876
925.755	580
925.852	1243
925.948	846
926.045	894
926.142	485
926.239	804
926.335	186
926.432	1180
926.529	682
926.625	1018
926.722	-354
926.818	301
926.915	1044
927.011	196
927.108	121
927.204	-57
927.301	-651
927.397	857
927.494	322
927.590	65
927.687	-160
927.783	415
927.879	-123
927.976	226
928.072	263
928.168	580
928.264	267
928.361	392
928.457	195
928.553	347
928.649	383
928.745	612
928.841	-77
928.937	891
929.033	61
929.129	472
929.225	623
929.321	369
929.417	206
929.513	136
929.609	788
929.705	88
929.801	422
929.897	-53
929.993	-149
930.089	-396
930.184	39
930.280	57
930.376	-62
930.471	-23
930.567	-22
930.663	-4
930.758	146
930.854	-49
930.950	351
931.045	-440
931.141	666
931.236	-99
931.332	447
931.427	316
931.523	-83
931.618	-57
931.714	-464
931.809	420
931.905	-115
932.000	-477
932.095	120
932.191	-318
932.286	149
932.381	274
932.476	-543
932.572	-178
932.667	346
932.762	476
932.857	378
932.952	1089
933.047	480
933.142	476
933.237	206
933.332	194
933.427	632
933.522	64
933.617	-183
933.712	1584
933.807	165
933.902	17
933.997	435
934.092	-245
934.187	-397
934.282	479
934.376	-367
934.471	-428
934.566	-108
934.661	673
934.755	-89
934.850	-517
934.945	35
935.039	-495
935.134	-327
935.228	884
935.323	-184
935.417	44
935.512	241
935.606	-132
935.701	-492
935.795	220
935.890	92
935.984	434
936.079	-646
936.173	662
936.267	-235
936.362	-1106
936.456	21
936.550	633
936.644	-312
936.738	-172
936.833	304
936.927	343
937.021	-633
937.115	-134
937.209	-1271
937.303	1073
937.397	144
937.491	-755
937.585	-854
937.679	-300
937.773	-153
937.867	-461
937.961	-39
938.055	-296
938.149	1033
938.243	482
938.337	396
938.430	32
938.524	56
938.618	-198
938.712	349
938.805	-645
938.899	456
938.993	293
939.086	128
939.180	328
939.274	481
939.367	352
939.461	865
939.554	442
939.648	-330
939.741	-632
939.835	761
939.928	-349
940.022	-184
940.115	215
940.208	-781
940.302	659
940.395	141
940.488	35
940.582	-475
940.675	-60
940.768	-516
940.861	-899
940.954	201
941.048	418
941.141	-652
941.234	-308
941.327	819
941.420	360
941.513	656
941.606	463
941.699	707
941.792	-127
941.885	-418
941.978	-751
942.071	35
942.164	-414
942.257	-31
942.349	445
942.442	371
942.535	-1158
942.628	85
942.721	249
942.813	-1182
942.906	376
942.999	-258
943.091	466
943.184	-790
943.277	105
943.369	700
943.462	-192
943.554	249
943.647	-644
943.739	-642
943.832	-305
943.924	-1296
944.017	32
944.109	-589
944.201	-288
944.294	-421
944.386	-202
944.478	-104
944.571	79
944.663	-87
944.755	-262
944.847	-57
944.940	59
945.032	-48
945.124	476
945.216	299
945.308	-389
945.400	145
945.492	442
945.584	-95
945.676	-376
945.768	-217
945.860	-132
945.952	-281
946.044	202
946.136	-691
946.228	-494
946.320	-916
946.412	-49
946.503	-475
946.595	90
946.687	-286
946.779	-340
946.870	-533
946.962	16
947.054	19
947.145	-387
947.237	391
947.329	-527
947.420	-1086
947.512	-69
947.603	-723
947.695	321
947.786	-620
947.878	-875
947.969	-154
948.061	-211
948.152	-1308
948.243	221
948.335	-453
948.426	-212
948.517	-1074
948.609	-494
948.700	-688
948.791	-1263
948.882	-608
948.973	-516
949.065	-510
949.156	-98
949.247	-1056
949.338	-388
949.429	-302
949.520	654
949.611	-1907
949.702	305
949.793	-820
949.884	-58
949.975	-368
950.066	-547
950.157	-256
950.247	-53
950.338	-1431
950.429	-746
950.520	-402
950.611	-91
950.701	397
950.792	-9
950.883	57
950.973	-238
951.064	-364
951.155	-84
951.245	-123
951.336	-476
951.427	-1381
951.517	112
951.608	-378
951.698	-709
951.788	-1385
951.879	-545
951.969	-498
952.060	-385
952.150	-903
952.240	-7
952.331	-1555
952.421	498
952.511	-562
952.602	180
952.692	-742
952.782	355
952.872	-1153
952.962	-729
953.052	-1352
953.143	-797
953.233	-614
953.323	6
953.413	-1004
953.503	-851
953.593	-279
953.683	-18
953.773	-1362
953.863	283
953.953	-714
954.042	-302
954.132	-695
954.222	-461
954.312	-297
954.402	-497
954.492	-194
954.581	-761
954.671	-899
954.761	-819
954.850	-278
954.940	-685
955.030	-436
955.119	-1426
955.209	-286
955.298	-374
955.388	-586
955.477	257
955.567	-194
955.656	-246
955.746	-158
955.835	192
955.925	-1733
956.014	-312
956.103	-101
956.193	-731
956.282	-974
956.371	-428
956.461	52
956.550	-666
956.639	-419
956.728	-1295
956.817	-166
956.906	-556
956.995	218
957.085	-1502
957.174	-392
957.263	-500
957.352	-563
957.441	-1185
957.530	-341
957.619	-434
957.708	-580
957.796	-802
957.885	-1196
957.974	-962
958.063	-944
958.152	-896
958.241	-1223
958.329	-35
958.418	-1260
958.507	-1302
958.596	72
958.684	-657
958.773	11
958.861	-895
958.950	166
959.039	-84
959.127	-601
959.216	-202
959.304	-570
959.393	-1413
959.481	-672
959.570	67
959.658	-1294
959.746	-405
959.835	-411
959.923	-518
960.011	-933
960.100	-120
960.188	-1032
960.276	-413
960.365	-705
960.453	-785
960.541	-1094
960.629	-529
960.717	-890
960.805	-367
960.893	-698
960.981	-989
961.069	-515
961.158	-482
961.245	-43
961.333	-776
961.421	-1243
961.509	-825
961.597	-1236
961.685	-777
961.773	-583
961.861	-1128
961.949	-321
962.036	-993
962.124	-271
962.212	-1300
962.299	-180
962.387	-609
962.475	-966
962.562	-1044
962.650	50
962.738	-465
962.825	-324
962.913	-459
963.000	-1309
963.088	-584
963.175	-755
963.263	-1191
963.350	-124
963.438	-336
963.525	-1279
963.612	542
963.700	-189
963.787	876
963.874	-763
963.962	-816
964.049	-274
964.136	-1255
964.223	-788
964.310	-442
964.398	-1021
964.485	-714
964.572	-380
964.659	-689
964.746	-647
964.833	-855
964.920	-1347
965.007	-758
965.094	-891
965.181	-836
965.268	-361
965.355	-1479
965.441	-395
965.528	-1362
965.615	310
965.702	-941
965.789	-742
965.875	-901
965.962	-1177
966.049	-1512
966.136	-839
966.222	-736
966.309	-1071
966.395	-1214
966.482	-395
966.569	-1234
966.655	-1368
966.742	-827
966.828	-813
966.915	-847
967.001	-901
967.087	-799
967.174	-974
967.260	8
967.347	-556
967.433	-877
967.519	-228
967.605	-1128
967.692	-225
967.778	-395
967.864	-323
967.950	-810
968.036	-447
968.123	-885
968.209	-1214
968.295	-1691
968.381	-404
968.467	-1109
968.553	-1439
968.639	190
968.725	-1632
968.811	-551
968.897	-471
968.983	-1170
969.069	-1204
969.154	-507
969.240	-552
969.326	-1209
969.412	-1371
969.497	-1378
969.583	-2037
969.669	251
969.755	-1256
969.840	-489
969.926	-615
970.012	-1686
970.097	-885
970.183	-284
970.268	-1206
970.354	-791
970.439	-2243
970.525	116
970.610	-1496
970.696	-328
970.781	-818
970.866	-1360
970.952	-790
971.037	-1658
971.122	-1519
971.208	-929
971.293	-831
971.378	-1898
971.463	-667
971.549	-336
971.634	-1161
971.719	-858
971.804	-597
971.889	330
971.974	-969
972.059	-921
972.144	-685
972.229	-796
972.314	-1512
972.399	-832
972.484	-536
972.569	-57
972.654	-1271
972.739	332
972.824	-1015
972.908	-1722
972.993	-1624
973.078	-1185
973.163	-860
973.247	-1495
973.332	-2087
973.417	229
973.501	-1070
973.586	-701
973.671	-180
973.755	-889
973.840	714
973.924	-162
974.009	-732
974.093	-819
974.178	490
974.262	-833
974.346	-1513
974.431	-1089
974.515	-922
974.600	-582
974.684	-467
974.768	-767
974.852	-351
974.937	-788
975.021	-295
975.105	-1153
975.189	-931
975.273	-693
975.358	-1226
975.442	-656
975.526	-964
975.610	-1577
975.694	-1372
975.778	348
975.862	-642
975.946	-2531
976.030	203
976.114	-825
976.198	-737
976.281	-983
976.365	212
976.449	-809
976.533	-751
976.617	-1167
976.700	-770
976.784	-261
976.868	-1343
976.951	-556
977.035	-1350
977.119	-458
977.202	-450
977.286	-935
977.369	-1274
977.453	-729
977.536	-865
977.620	-1014
977.703	-546
977.787	-1011
977.870	-226
977.953	73
978.037	-2449
978.120	-480
978.203	-1676
978.287	-808
978.370	-1485
978.453	-1029
978.536	-110
978.620	16
978.703	-983
978.786	-966
978.869	-2030
978.952	-1899
979.035	93
979.118	-691
979.201	-1717
979.284	-383
979.367	-1031
979.450	-684
979.533	-1608
979.616	-1170
979.699	-1325
979.782	-1073
979.865	-737
979.948	-642
980.030	-818
980.113	-733
980.196	-1430
980.279	-287
980.361	-1583
980.444	-1347
980.526	-393
980.609	-1060
980.692	-1403
980.774	-306
980.857	-2478
980.939	141
981.022	-805
981.104	-2036
981.187	-1913
981.269	-19
981.352	-1720
981.434	-1521
981.516	-2092
981.599	-187
981.681	-1442
981.763	-1389
981.846	-1822
981.928	-386
982.010	-1133
982.092	-1725
982.174	-423
982.256	-1007
982.339	-1453
982.421	-713
982.503	-981
982.585	-1911
982.667	-1153
982.749	-1196
982.831	-1410
982.913	-2326
982.995	-325
983.077	-1588
983.158	151
983.240	-1862
983.322	-910
983.404	-991
983.486	-2338
983.568	-379
983.649	-2012
983.731	-614
983.813	-661
983.894	-1467
983.976	-2214
984.058	-1502
984.139	-191
984.221	-1786
984.302	-531
984.384	-1776
984.465	-1535
984.547	-1853
984.628	-1712
984.710	-1195
984.791	-1314
984.872	-1198
984.954	-1940
985.035	-1421
985.116	-1521
985.198	-2080
985.279	-515
985.360	-899
985.441	-1526
985.522	-650
985.604	-1571
985.685	-2787
985.766	-101
985.847	-375
985.928	-1555
986.009	-1172
986.090	-1182
986.171	-977
986.252	-1454
986.333	-1498
986.414	-1405
986.495	-774
986.576	-1444
986.656	-956
986.737	-1106
986.818	-1017
986.899	-2632
986.980	-1088
987.060	-1055
987.141	-2218
987.222	-1185
987.302	-1027
987.383	-1301
987.464	-1939
987.544	-1032
987.625	-1346
987.705	-751
987.786	-1583
987.866	-1258
987.947	-1544
988.027	-909
988.108	-1890
988.188	-675
988.268	-682
988.349	-1247
988.429	-947
988.509	-695
988.589	-1231
988.670	-3353
988.750	184
988.830	-1483
988.910	-1130
988.990	-1916
989.070	-1536
989.151	-1140
989.231	-2152
989.311	-1556
989.391	-1017
989.471	-1435
989.551	-2163
989.631	-1811
989.711	-711
989.791	-1483
989.870	-2152
989.950	-152
990.030	-2139
990.110	-1868
990.190	-1662
990.269	-766
990.349	-1820
990.429	-1047
990.509	-935
990.588	-2069
990.668	-979
990.747	-1303
990.827	-1697
990.907	-583
990.986	-1882
991.066	-1881
991.145	-2191
991.225	-934
991.304	-1509
991.383	-1261
991.463	-894
991.542	-1593
991.622	-1907
991.701	-2192
991.780	-1420
991.859	-553
991.939	-2110
992.018	-1754
992.097	-1656
992.176	-1106
992.256	-791
992.335	-1994
992.414	-884
992.493	-2263
992.572	-1114
992.651	-953
992.730	-2065
992.809	-2097
992.888	-2134
992.967	-1741
993.046	-836
993.125	-2157
993.203	-1692
993.282	-1405
993.361	-1458
993.440	-1909
993.519	-2241
993.597	-1399
993.676	-2818
993.755	-641
993.834	-1357
993.912	-1717
993.991	-599
994.069	-1793
994.148	-808
994.226	-1635
994.305	-842
994.384	-2498
994.462	-762
994.540	-1934
994.619	-1627
994.697	-1411
994.776	-1643
994.854	-1146
994.932	-1853
995.011	-1352
995.089	-1595
995.167	-2844
995.245	-1614
995.324	-2392
995.402	-1263
995.480	-1931
995.558	-1766
995.636	-2268
995.714	-2144
995.792	-1219
995.870	-867
995.948	-1799
996.026	-1119
996.104	-2773
996.182	-929
996.260	-2669
996.338	-1253
996.416	-2808
996.494	-2577
996.572	-1032
996.649	-2308
996.727	-2366
996.805	-735
996.883	-2262
996.960	-1338
997.038	-1774
997.116	-1291
997.193	-2362
997.271	-632
997.348	-2870
997.426	-1339
997.504	-2744
997.581	-899
997.658	-544
997.736	-1794
997.813	-2189
997.891	-1438
997.968	-2477
998.046	-1734
998.123	-1626
998.200	-852
998.277	-1860
998.355	-1792
998.432	-2440
998.509	-1797
998.586	-975
998.663	-1036
998.741	-1892
998.818	-1911
998.895	-2457
998.972	-1330
999.049	-1382
999.126	-2077
999.203	-1957
999.280	-2049
999.357	-1364
999.434	-1920
999.511	-2173
999.587	-1040
999.664	-2214
999.741	-527
999.818	-1575
999.895	-1295
999.971	-2341
1000.048	-1686
1000.125	-969
1000.202	-1895
1000.278	-1506
1000.355	-970
1000.431	-2042
1000.508	-1512
1000.584	-1734
1000.661	-796
1000.738	-3042
1000.814	-2162
1000.890	-1524
1000.967	-1495
1001.043	-1252
1001.120	-2659
1001.196	-1751
1001.272	-1894
1001.349	-1705
1001.425	-1210
1001.501	-1182
1001.577	-1941
1001.654	-1765
1001.730	-1725
1001.806	-1865
1001.882	-2362
1001.958	-1473
1002.034	-1301
1002.110	-3156
1002.186	-1244
1002.262	-2263
1002.338	-2650
1002.414	-1793
1002.490	-1238
1002.566	-1555
1002.642	-1913
1002.718	-1397
1002.794	-1517
1002.870	-2341
1002.945	-1278
1003.021	-1627
1003.097	-1871
1003.173	-1595
1003.248	-2132
1003.324	-1800
1003.400	-1409
1003.475	-1341
1003.551	-1277
1003.626	-2535
1003.702	-1504
1003.777	-1659
1003.853	-1651
1003.928	-1721
1004.004	-1556
1004.079	-1134
1004.155	-1741
1004.230	-2380
1004.305	-636
1004.381	-2558
1004.456	-1162
1004.531	-1515
1004.607	-2075
1004.682	-1891
1004.757	-1312
1004.832	-2228
1004.907	-1461
1004.982	-1834
1005.057	-1822
1005.133	-1460
1005.208	-1923
1005.283	-2539
1005.358	-1523
1005.433	-2189
1005.508	-1310
1005.583	-2332
1005.657	-2143
1005.732	-1152
1005.807	-2212
1005.882	-1583
1005.957	-1790
1006.032	-774
1006.106	-784
1006.181	-1716
1006.256	-1115
1006.331	-2326
1006.405	-2083
1006.480	-872
1006.554	-1366
1006.629	-1815
1006.704	-1990
1006.778	-1136
1006.853	-1249
1006.927	-1332
1007.002	-2153
1007.076	-2159
1007.150	-1891
1007.225	-976
1007.299	-1434
1007.373	-2245
1007.448	-1180
1007.522	-1287
1007.596	-968
1007.671	-1911
1007.745	-1321
1007.819	-2263
1007.893	-2167
1007.967	-2151
1008.041	-2105
1008.115	-1436
1008.190	-1656
1008.264	-1205
1008.338	-2118
1008.412	-2257
1008.486	-2568
1008.560	-1757
1008.633	-1893
1008.707	-1615
1008.781	-1687
1008.855	-2432
1008.929	-1823
1009.003	-1595
1009.076	-1410
1009.150	-1660
1009.224	-1637
1009.298	-2208
1009.371	-1498
1009.445	-2168
1009.519	-1804
1009.592	-1945
1009.666	-1502
1009.739	-1390
1009.813	-2699
1009.886	-1209
1009.960	-2636
1010.033	-722
1010.107	-1469
1010.180	-2876
1010.253	-1340
1010.327	-2302
1010.400	-1870
1010.473	-1924
1010.547	-354
1010.620	-2203
1010.693	-1960
1010.766	-2010
1010.840	-1670
1010.913	-1703
1010.986	-2276
1011.059	-1614
1011.132	-1840
1011.205	-986
1011.278	-1962
1011.351	-2621
1011.424	-2070
1011.497	-2810
1011.570	-1962
1011.643	-2250
1011.716	-1998
1011.789	-1635
1011.862	-1082
1011.934	-1446
1012.007	-2632
1012.080	-1991
1012.153	-1804
1012.225	-1276
1012.298	-2274
1012.371	-2267
1012.443	-1281
1012.516	-2182
1012.588	-1488
1012.661	-2055
1012.733	-1761
1012.806	-1383
1012.879	-2062
1012.951	-2180
1013.023	-2124
1013.096	-1733
1013.168	-1593
1013.241	-1263
1013.313	-2036
1013.385	-2106
1013.458	-2172
1013.530	-1035
1013.602	-2097
1013.674	-1070
1013.746	-2208
1013.819	-2143
1013.891	-1109
1013.963	-1910
1014.035	-1511
1014.107	-1883
1014.179	-809
1014.251	-2997
1014.323	-1193
1014.395	-1896
1014.467	-1625
1014.539	-1694
1014.611	-2349
1014.683	-2320
1014.754	-1293
1014.826	-1806
1014.898	-1879
1014.970	-2300
1015.042	-1695
1015.113	-1908
1015.185	-1515
1015.257	-2451
1015.328	-1331
1015.400	-2489
1015.471	-1851
1015.543	-2167
1015.615	-1686
1015.686	-2039
1015.757	-1725
1015.829	-1765
1015.901	-1416
1015.972	-2288
1016.043	-1998
1016.115	-2052
1016.186	-2113
1016.257	-2264
1016.328	-987
1016.400	-1698
1016.471	-2171
1016.542	-1890
1016.613	-1873
1016.685	-1756
1016.756	-1765
1016.827	-1503
1016.898	-2151
1016.969	-1093
1017.040	-1696
1017.111	-2065
1017.182	-2243
1017.253	-2083
1017.324	-2464
1017.395	-1114
1017.466	-1297
1017.537	-1496
1017.608	-2237
1017.678	-1961
1017.749	-1635
1017.820	-1835
1017.891	-2527
1017.961	-2670
1018.032	-2083
1018.103	-1602
1018.173	-2131
1018.244	-1950
1018.315	-2507
1018.385	-1155
1018.456	-1481
1018.526	-2421
1018.597	-2251
1018.667	-2183
1018.738	-1646
1018.808	-2506
1018.878	-2135
1018.949	-2154
1019.019	-1222
1019.089	-2905
1019.160	-1737
1019.230	-2223
1019.300	-1711
1019.371	-1909
1019.441	-1006
1019.511	-1550
1019.581	-1972
1019.651	-1934
1019.721	-1909
1019.791	-2238
1019.861	-2179
1019.931	-1413
1020.001	-2189
1020.071	-1713
1020.141	-2220
1020.211	-2145
1020.281	-2909
1020.351	-2290
1020.421	-1412
1020.491	-1341
1020.560	-2810
1020.630	-2065
1020.700	-2615
1020.770	-2928
1020.839	-1042
1020.909	-1939
1020.979	-1615
1021.048	-2816
1021.118	-2895
1021.187	-2435
1021.257	-1649
1021.326	-1935
1021.396	-1529
1021.465	-1869
1021.535	-2497
1021.604	-1953
1021.674	-2459
1021.743	-2515
1021.812	-1986
1021.882	-2101
1021.951	-2027
1022.020	-2929
1022.089	-1878
1022.159	-3106
1022.228	-1604
1022.297	-2213
1022.366	-2679
1022.435	-2405
1022.504	-1519
1022.573	-2777
1022.642	-1756
1022.711	-2615
1022.781	-1269
1022.849	-1789
1022.918	-2058
1022.987	-1523
1023.056	-1664
1023.125	-2117
1023.194	-2096
1023.263	-2161
1023.331	-1855
1023.400	-3215
1023.469	-2006
1023.538	-1676
1023.606	-2293
1023.675	-1664
1023.744	-2863
1023.812	-2704
1023.881	-2155
1023.949	-2884
1024.018	-1970
1024.086	-2813
1024.155	-2085
1024.223	-2365
1024.292	-2274
1024.360	-2266
1024.429	-2327
1024.497	-1723
1024.565	-2271
1024.634	-2182
1024.702	-1989
1024.770	-1704
1024.838	-3544
1024.907	-2206
1024.975	-2341
1025.043	-1514
1025.111	-2252
1025.179	-1561
1025.247	-1949
1025.315	-2182
1025.383	-2837
1025.451	-2430
1025.519	-2332
1025.587	-2037
1025.655	-2211
1025.723	-2004
1025.791	-1489
1025.859	-2144
1025.927	-1560
1025.995	-2264
1026.062	-1321
1026.130	-2396
1026.198	-2234
1026.266	-2316
1026.333	-2214
1026.401	-2082
1026.469	-1907
1026.536	-2175
1026.604	-2788
1026.671	-2321
1026.739	-2241
1026.806	-2767
1026.874	-1426
1026.941	-1882
1027.009	-2020
1027.076	-3103
1027.144	-925
1027.211	-2107
1027.278	-2258
1027.345	-2358
1027.413	-2194
1027.480	-2392
1027.547	-1583
1027.614	-2213
1027.682	-1966
1027.749	-1076
1027.816	-3340
1027.883	-1289
1027.950	-1885
1028.017	-2726
1028.084	-1344
1028.151	-1815
1028.218	-2580
1028.285	-2470
1028.352	-1957
1028.419	-2480
1028.486	-2457
1028.553	-1904
1028.619	-3237
1028.686	-1992
1028.753	-2885
1028.820	-2922
1028.886	-2339
1028.953	-2519
1029.020	-2457
1029.086	-2584
1029.153	-2038
1029.220	-3064
1029.286	-1711
1029.353	-2148
1029.419	-2163
1029.486	-2163
1029.552	-1785
1029.619	-2277
1029.685	-2210
1029.751	-2299
1029.818	-1194
1029.884	-2673
1029.951	-1607
1030.017	-2338
1030.083	-2169
1030.149	-1946
1030.216	-2287
1030.282	-2900
1030.348	-2001
1030.414	-2203
1030.480	-1989
1030.546	-2134
1030.612	-2211
1030.678	-1870
1030.744	-2269
1030.810	-1161
1030.876	-1941
1030.942	-2023
1031.008	-2303
1031.074	-2267
1031.140	-2771
1031.206	-1745
1031.272	-2125
1031.337	-1932
1031.403	-2212
1031.469	-2661
1031.534	-2738
1031.600	-2004
1031.666	-2351
1031.731	-2662
1031.797	-1761
1031.863	-2757
1031.928	-2487
1031.994	-2952
1032.059	-1762
1032.125	-2620
1032.190	-1773
1032.256	-2859
1032.321	-2867
1032.386	-3093
1032.452	-1962
1032.517	-2523
1032.582	-1808
1032.647	-2557
1032.713	-2080
1032.778	-1364
1032.843	-1919
1032.908	-2935
1032.974	-2086
1033.039	-2147
1033.104	-2020
1033.169	-2587
1033.234	-1805
1033.299	-2515
1033.364	-1807
1033.429	-2196
1033.494	-1113
1033.559	-2500
1033.624	-2565
1033.688	-2030
1033.753	-2285
1033.818	-2619
1033.883	-2581
1033.948	-1851
1034.013	-2233
1034.077	-1954
1034.142	-1415
1034.207	-1663
1034.271	-1512
1034.336	-2046
1034.400	-1286
1034.465	-1259
1034.530	-2047
1034.594	-2008
1034.658	-2586
1034.723	-2840
1034.787	-2020
1034.852	-1810
1034.916	-1682
1034.981	-2908
1035.045	-1457
1035.109	-2334
1035.173	-1101
1035.238	-2215
1035.302	-1855
1035.366	-1941
1035.430	-1928
1035.495	-2572
1035.559	-1824
1035.623	-1387
1035.687	-2520
1035.751	-2740
1035.815	-1801
1035.879	-2630
1035.943	-2071
1036.007	-2257
1036.071	-1969
1036.135	-2412
1036.198	-1600
1036.262	-2933
1036.326	-2056
1036.390	-2207
1036.454	-1303
1036.517	-1819
1036.581	-1035
1036.645	-1701
1036.709	-937
1036.772	-2223
1036.836	-1855
1036.900	-2212
1036.963	-2321
1037.026	-2062
1037.090	-2040
1037.154	-1887
1037.217	-1992
1037.280	-2545
1037.344	-2019
1037.407	-2121
1037.471	-1951
1037.534	-2344
1037.597	-2189
1037.661	-1573
1037.724	-1992
1037.787	-2446
1037.850	-2040
1037.913	-1382
1037.977	-1630
1038.040	-2185
1038.103	-2650
1038.166	-2089
1038.229	-1858
1038.292	-2876
1038.355	-1556
1038.418	-2638
1038.481	-1616
1038.544	-2215
1038.607	-2230
1038.670	-1974
1038.732	-2148
1038.795	-2762
1038.858	-2274
1038.921	-1688
1038.984	-2030
1039.046	-1507
1039.109	-2024
1039.172	-1886
1039.234	-2765
1039.297	-2149
1039.360	-1800
1039.422	-2410
1039.485	-1634
1039.547	-2854
1039.610	-1395
1039.672	-1725
1039.734	-1613
1039.797	-2321
1039.859	-1816
1039.922	-1980
1039.984	-1610
1040.046	-1873
1040.109	-1629
1040.171	-2825
1040.233	-2748
1040.295	-2333
1040.358	-2722
1040.420	-1602
1040.482	-1998
1040.544	-2483
1040.606	-2648
1040.668	-2294
1040.730	-2556
1040.792	-2290
1040.854	-1739
1040.916	-2485
1040.978	-1901
1041.040	-1592
1041.102	-1549
1041.164	-1501
1041.225	-1669
1041.287	-3016
1041.349	-2509
1041.411	-2322
1041.472	-2329
1041.534	-2812
1041.596	-1553
1041.657	-1645
1041.719	-2997
1041.781	-2345
1041.842	-2023
1041.904	-1902
1041.965	-2564
1042.027	-2087
1042.088	-2625
1042.150	-1839
1042.211	-2437
1042.272	-2348
1042.334	-1359
1042.395	-2778
1042.456	-2036
1042.518	-3041
1042.579	-1265
1042.640	-2784
1042.701	-1490
1042.763	-2448
1042.824	-2799
1042.885	-2150
1042.946	-1641
1043.007	-2183
1043.068	-1681
1043.129	-1785
1043.190	-3096
1043.251	-2488
1043.312	-2125
1043.373	-2323
1043.434	-2449
1043.495	-1932
1043.556	-1882
1043.616	-2188
1043.677	-2114
1043.738	-2068
1043.799	-1780
1043.859	-2195
1043.920	-1471
1043.981	-2805
1044.041	-2113
1044.102	-2396
1044.162	-1939
1044.223	-1831
1044.284	-1929
1044.344	-2433
1044.405	-2775
1044.465	-1601
1044.525	-2311
1044.586	-2340
1044.646	-1684
1044.707	-1456
1044.767	-1619
1044.827	-2966
1044.887	-2041
1044.948	-1598
1045.008	-2152
1045.068	-2369
1045.128	-1416
1045.188	-2144
1045.249	-1725
1045.309	-2204
1045.369	-1770
1045.429	-1568
1045.489	-1840
1045.549	-2167
1045.609	-2001
1045.669	-2561
1045.729	-1582
1045.789	-2211
1045.848	-1912
1045.908	-1524
1045.968	-1065
1046.028	-1934
1046.088	-767
1046.147	-1555
1046.207	-1033
1046.267	-1004
1046.326	-1522
1046.386	-1349
1046.446	-1536
1046.505	-979
1046.565	-908
1046.624	-1235
1046.684	-384
1046.743	-1360
1046.803	-466
1046.862	-478
1046.922	0
