'Start Wavelength	183.907
'End Wavelength	1046.922
'Gate Delay	5.000
'Gate Width (ms)	1.050
'Laser Output Level	0.000
'X Position	0.000
'Y Position	0.000
'Z Position	0.000
'Grid Point Number	1.000
'Shot Number	100.000
183.907	238.000
183.977	-152.000
184.047	-1091
184.116	568
184.186	485
184.256	271
184.325	71
184.395	-797
184.465	778
184.534	-222
184.604	-4
184.674	-895
184.743	-458
184.813	239
184.883	343
184.952	334
185.022	-50
185.092	174
185.161	195
185.231	422
185.301	698
185.370	467
185.440	-444
185.509	-133
185.579	702
185.649	-299
185.718	-460
185.788	431
185.857	132
185.927	-61
185.996	-140
186.066	208
186.136	180
186.205	-294
186.275	141
186.344	420
186.414	-321
186.483	309
186.553	476
186.622	710
186.692	178
186.761	425
186.831	-291
186.900	-417
186.970	619
187.039	722
187.109	634
187.178	106
187.248	658
187.317	268
187.387	26
187.456	-12
187.526	570
187.595	1131
187.664	-238
187.734	259
187.803	-96
187.873	359
187.942	780
188.012	-157
188.081	447
188.150	-182
188.220	-306
188.289	334
188.358	496
188.428	964
188.497	53
188.567	714
188.636	282
188.705	-1210
188.775	-321
188.844	-569
188.913	895
188.983	197
189.052	-595
189.121	298
189.191	-375
189.260	984
189.329	1172
189.399	450
189.468	772
189.537	286
189.606	863
189.676	583
189.745	-62
189.814	492
189.883	655
189.953	285
190.022	1002
190.091	1801
190.161	2857
190.230	566
190.299	58
190.368	48
190.437	212
190.507	297
190.576	341
190.645	410
190.714	-121
190.783	-44
190.853	37
190.922	-86
190.991	817
191.060	341
191.129	120
191.198	-68
191.268	85
191.337	46
191.406	585
191.475	244
191.544	91
191.613	223
191.682	-471
191.752	745
191.821	1012
191.890	186
191.959	3
192.028	62
192.097	26
192.166	881
192.235	-547
192.304	224
192.373	430
192.442	1220
192.511	260
192.580	187
192.650	-59
192.719	514
192.788	837
192.857	671
192.926	424
192.995	1026
193.064	1400
193.133	945
193.202	1660
193.271	1997
193.340	972
193.409	1756
193.478	1553
193.547	2163
193.615	3519
193.684	2667
193.753	1812
193.822	1265
193.891	806
193.960	1016
194.029	613
194.098	682
194.167	534
194.236	1245
194.305	225
194.374	491
194.443	357
194.512	1200
194.580	1002
194.649	774
194.718	1833
194.787	536
194.856	382
194.925	1199
194.994	255
195.062	1034
195.131	864
195.200	1353
195.269	2380
195.338	1719
195.407	1540
195.475	747
195.544	1177
195.613	1821
195.682	1305
195.751	1629
195.819	1400
195.888	2364
195.957	1537
196.026	1456
196.094	1986
196.163	1630
196.232	1340
196.301	873
196.369	773
196.438	1463
196.507	716
196.576	1197
196.644	1164
196.713	761
196.782	925
196.850	976
196.919	864
196.988	668
197.056	541
197.125	1282
197.194	863
197.262	729
197.331	562
197.400	1124
197.468	399
197.537	167
197.606	-135
197.674	1968
197.743	3211
197.812	2128
197.880	3458
197.949	2864
198.017	2448
198.086	2475
198.155	1846
198.223	1896
198.292	3803
198.360	1817
198.429	1086
198.497	1040
198.566	2640
198.635	4253
198.703	1562
198.772	1565
198.840	4709
198.909	5058
198.977	1775
199.046	1992
199.114	2522
199.183	728
199.251	977
199.320	636
199.388	559
199.457	1108
199.525	1361
199.594	1548
199.662	995
199.731	985
199.799	849
199.867	1568
199.936	383
200.004	896
200.073	1176
200.141	1002
200.210	627
200.278	1208
200.346	1471
200.415	1047
200.483	1377
200.552	1392
200.620	729
200.688	910
200.757	616
200.825	729
200.893	1956
200.962	994
201.030	252
201.098	1216
201.167	1500
201.235	721
201.303	942
201.372	1040
201.440	1767
201.508	2056
201.577	789
201.645	1760
201.713	570
201.781	569
201.850	2058
201.918	1407
201.986	1284
202.055	2282
202.123	1193
202.191	1412
202.259	1977
202.327	803
202.396	1427
202.464	1079
202.532	1844
202.600	6615
202.669	3675
202.737	888
202.805	939
202.873	1565
202.941	1267
203.009	1379
203.078	1264
203.146	1186
203.214	1449
203.282	227
203.350	2067
203.418	1514
203.487	1648
203.555	1481
203.623	1015
203.691	1189
203.759	1276
203.827	631
203.895	1084
203.963	1647
204.031	918
204.099	1069
204.168	979
204.236	2003
204.304	1117
204.372	1243
204.440	2144
204.508	1369
204.576	1176
204.644	934
204.712	1705
204.780	1850
204.848	1624
204.916	970
204.984	1412
205.052	2071
205.120	1518
205.188	1496
205.256	1268
205.324	1705
205.392	1472
205.460	1320
205.528	1576
205.596	1244
205.664	1125
205.732	1850
205.799	4841
205.867	8565
205.935	2744
206.003	2157
206.071	1528
206.139	893
206.207	2467
206.275	1193
206.343	1445
206.411	1848
206.478	1563
206.546	1940
206.614	1123
206.682	1639
206.750	1604
206.818	2326
206.885	2325
206.953	437
207.021	2200
207.089	1639
207.157	1920
207.225	2607
207.292	1374
207.360	1475
207.428	2337
207.496	1733
207.563	1970
207.631	1932
207.699	1753
207.767	1992
207.834	1421
207.902	2568
207.970	1305
208.038	2122
208.105	1928
208.173	2011
208.241	2921
208.309	2910
208.376	2767
208.444	5238
208.512	3267
208.579	1273
208.647	2470
208.715	2994
208.782	2712
208.850	2926
208.918	2733
208.985	1798
209.053	2478
209.120	2378
209.188	829
209.256	1563
209.323	2222
209.391	4362
209.459	3496
209.526	1944
209.594	1277
209.661	1713
209.729	2980
209.796	2301
209.864	2057
209.932	1848
209.999	3170
210.067	3639
210.134	3329
210.202	3090
210.269	4852
210.337	4619
210.404	2606
210.472	2287
210.539	2159
210.607	3320
210.674	4300
210.742	2566
210.809	1693
210.877	3436
210.944	4498
211.012	2231
211.079	4100
211.146	2784
211.214	2763
211.281	3831
211.349	3619
211.416	2767
211.484	4118
211.551	2755
211.618	3018
211.686	3641
211.753	2752
211.821	2419
211.888	2173
211.955	2628
212.023	3049
212.090	2437
212.157	3080
212.225	3034
212.292	6412
212.359	10005
212.427	26897
212.494	12789
212.561	5705
212.629	3677
212.696	3365
212.763	3810
212.831	2646
212.898	3725
212.965	2554
213.032	3571
213.100	3436
213.167	3490
213.234	4816
213.301	3878
213.369	2901
213.436	2747
213.503	3251
213.570	3485
213.638	3721
213.705	3076
213.772	2370
213.839	4812
213.906	5578
213.973	3816
214.041	3395
214.108	3565
214.175	3209
214.242	3304
214.309	2646
214.376	2605
214.444	3565
214.511	4184
214.578	3074
214.645	3425
214.712	4002
214.779	3911
214.846	3666
214.913	4102
214.980	4624
215.048	4737
215.115	5813
215.182	5154
215.249	4034
215.316	3020
215.383	3123
215.450	3625
215.517	2898
215.584	2936
215.651	2736
215.718	2692
215.785	4698
215.852	3423
215.919	4102
215.986	4111
216.053	3668
216.120	2917
216.187	3667
216.254	4048
216.321	2718
216.388	3859
216.455	4636
216.522	4246
216.589	5262
216.656	8971
216.722	9810
216.789	5826
216.856	6790
216.923	5666
216.990	5391
217.057	4548
217.124	6464
217.191	4913
217.258	7799
217.324	9460
217.391	10099
217.458	7952
217.525	5606
217.592	5010
217.659	3747
217.725	5477
217.792	7556
217.859	8103
217.926	2985
217.993	2687
218.059	3404
218.126	2854
218.193	2869
218.260	3239
218.327	3174
218.393	3123
218.460	2652
218.527	2221
218.594	3495
218.660	7721
218.727	8144
218.794	2941
218.860	3811
218.927	2688
218.994	2755
219.061	2800
219.127	3410
219.194	7296
219.261	3279
219.327	2553
219.394	2721
219.461	1690
219.527	2400
219.594	4410
219.661	3849
219.727	2038
219.794	2769
219.860	1657
219.927	3224
219.994	4774
220.060	11263
220.127	6806
220.193	5040
220.260	4249
220.326	6661
220.393	11461
220.460	15937
220.526	9516
220.593	6425
220.659	6616
220.726	5946
220.792	15974
220.859	14804
220.925	18884
220.992	26880
221.058	25348
221.125	23624
221.191	16989
221.258	7800
221.324	5445
221.391	5303
221.457	3458
221.524	4263
221.590	5447
221.657	19293
221.723	14229
221.789	12824
221.856	11372
221.922	6765
221.989	4466
222.055	3873
222.121	3044
222.188	6281
222.254	4052
222.321	3637
222.387	2179
222.453	2355
222.520	2313
222.586	2635
222.652	2878
222.719	1779
222.785	3270
222.851	1987
222.918	2461
222.984	2661
223.050	2783
223.116	1966
223.183	3259
223.249	1320
223.315	1846
223.382	2129
223.448	2503
223.514	968
223.580	1762
223.647	1998
223.713	1956
223.779	2186
223.845	2269
223.911	2602
223.978	1745
224.044	3043
224.110	2066
224.176	2601
224.242	1848
224.309	852
224.375	2947
224.441	1910
224.507	1423
224.573	2210
224.639	3277
224.705	1572
224.772	2667
224.838	1223
224.904	3338
224.970	2789
225.036	2186
225.102	2812
225.168	3565
225.234	3117
225.300	2566
225.366	1639
225.432	3272
225.499	2169
225.565	2111
225.631	3585
225.697	3500
225.763	4233
225.829	4825
225.895	6039
225.961	8908
226.027	6828
226.093	5112
226.159	6790
226.225	10824
226.291	23991
226.357	43543
226.423	21065
226.489	11486
226.554	7937
226.620	7293
226.686	9296
226.752	13809
226.818	20629
226.884	56288
226.950	50508
227.016	18339
227.082	10376
227.148	8250
227.214	8907
227.279	7321
227.345	3700
227.411	4810
227.477	5452
227.543	11208
227.609	12269
227.674	5993
227.740	4568
227.806	5726
227.872	4198
227.938	3582
228.003	5997
228.069	4205
228.135	2309
228.201	3373
228.267	3423
228.332	4849
228.398	6654
228.464	4803
228.530	2547
228.595	3463
228.661	3413
228.727	8170
228.792	6819
228.858	2572
228.924	2866
228.990	5395
229.055	3780
229.121	5954
229.187	3147
229.252	4828
229.318	2840
229.384	3379
229.449	5598
229.515	1986
229.581	1202
229.646	4835
229.712	4291
229.777	11181
229.843	12252
229.909	8589
229.974	7727
230.040	7516
230.105	4735
230.171	6480
230.236	7829
230.302	11588
230.368	10471
230.433	5153
230.499	4931
230.564	5555
230.630	3941
230.695	4385
230.761	4185
230.826	2609
230.892	8159
230.957	4201
231.023	3464
231.088	3626
231.154	3744
231.219	3528
231.284	6276
231.350	7573
231.415	2867
231.481	4017
231.546	3309
231.612	3708
231.677	2390
231.742	1420
231.808	4654
231.873	2529
231.939	1880
232.004	7277
232.069	8873
232.135	3989
232.200	3661
232.265	3535
232.331	2579
232.396	1973
232.461	2732
232.527	2414
232.592	2334
232.657	2773
232.723	5279
232.788	4760
232.853	3106
232.918	3070
232.984	2635
233.049	2814
233.114	5026
233.179	6238
233.245	8343
233.310	10888
233.375	3581
233.440	3614
233.506	2595
233.571	2588
233.636	3303
233.701	2723
233.766	5659
233.832	9581
233.897	4460
233.962	4262
234.027	5950
234.092	4848
234.157	3690
234.222	5469
234.288	6074
234.353	19194
234.418	17680
234.483	11643
234.548	7649
234.613	7002
234.678	6336
234.743	6431
234.808	20108
234.873	13278
234.938	7478
235.004	5482
235.069	5748
235.134	4665
235.199	4560
235.264	4273
235.329	3920
235.394	4744
235.459	6012
235.524	4643
235.589	4055
235.654	4548
235.719	3003
235.784	4309
235.849	5438
235.913	10010
235.978	11564
236.043	13859
236.108	6412
236.173	5977
236.238	6271
236.303	4887
236.368	4274
236.433	7703
236.498	13913
236.563	9714
236.627	18697
236.692	74284
236.757	58688
236.822	21331
236.887	16610
236.952	12914
237.017	9964
237.081	10957
237.146	13571
237.211	29127
237.276	71643
237.341	128082
237.405	52822
237.470	21056
237.535	15183
237.600	9388
237.664	8339
237.729	7212
237.794	8882
237.859	20449
237.923	13513
237.988	7985
238.053	10015
238.118	11784
238.182	27067
238.247	24775
238.312	12013
238.376	9273
238.441	7108
238.506	7554
238.570	4110
238.635	5438
238.700	3753
238.764	5086
238.829	11708
238.893	15228
238.958	8582
239.023	8747
239.087	5372
239.152	6216
239.216	4973
239.281	5391
239.346	4264
239.410	4880
239.475	5113
239.539	24126
239.604	20515
239.668	6749
239.733	4980
239.797	7271
239.862	17706
239.926	22664
239.991	10042
240.055	5811
240.120	4796
240.184	5651
240.249	4327
240.313	4166
240.378	4469
240.442	14984
240.507	25067
240.571	7743
240.635	11107
240.700	15814
240.764	6219
240.829	5106
240.893	2915
240.957	5557
241.022	14190
241.086	25987
241.151	13073
241.215	4061
241.279	7414
241.344	14019
241.408	8564
241.472	5224
241.537	7197
241.601	6776
241.665	4567
241.730	5497
241.794	6337
241.858	4992
241.922	6212
241.987	6335
242.051	4494
242.115	4248
242.179	4959
242.244	5040
242.308	5458
242.372	5729
242.436	6745
242.501	5787
242.565	4651
242.629	4270
242.693	6104
242.757	3843
242.822	4790
242.886	5465
242.950	5829
243.014	5457
243.078	7432
243.142	7821
243.206	5982
243.271	6704
243.335	5368
243.399	10395
243.463	34341
243.527	101485
243.591	31883
243.655	14055
243.719	8911
243.783	9483
243.847	15378
243.911	19514
243.975	22795
244.040	15708
244.104	7924
244.168	6247
244.232	11903
244.296	16938
244.360	17497
244.424	9346
244.488	7470
244.552	6639
244.615	4130
244.679	5561
244.743	8998
244.807	9750
244.871	6682
244.935	4752
244.999	4007
245.063	6099
245.127	6863
245.191	11995
245.255	13376
245.319	9614
245.383	9339
245.446	7671
245.510	5235
245.574	7461
245.638	7360
245.702	7377
245.766	20887
245.829	12222
245.893	6865
245.957	7109
246.021	7541
246.085	7606
246.149	10080
246.212	26587
246.276	42274
246.340	17685
246.404	12174
246.467	11866
246.531	20606
246.595	11927
246.659	10538
246.722	9230
246.786	13073
246.850	13434
246.913	19120
246.977	7719
247.041	7338
247.104	8567
247.168	9577
247.232	25407
247.295	58047
247.359	26579
247.423	11784
247.486	22726
247.550	13730
247.614	10225
247.677	15413
247.741	7900
247.804	8010
247.868	8433
247.932	21888
247.995	52444
248.059	17145
248.122	8893
248.186	11567
248.249	21087
248.313	87065
248.376	90351
248.440	56059
248.503	20638
248.567	16429
248.630	25014
248.694	32813
248.757	41205
248.821	94994
248.884	51306
248.948	46950
249.011	68520
249.075	108814
249.138	91607
249.202	32732
249.265	20971
249.328	21855
249.392	17983
249.455	14197
249.519	11724
249.582	14930
249.645	25445
249.709	18389
249.772	11271
249.835	10313
249.899	12338
249.962	11225
250.025	10968
250.089	33110
250.152	46907
250.215	19735
250.279	13814
250.342	13468
250.405	12673
250.468	11707
250.532	16926
250.595	27229
250.658	99154
250.721	165357
250.785	57026
250.848	29255
250.911	18068
250.974	16694
251.038	25333
251.101	54708
251.164	24816
251.227	25305
251.290	22764
251.354	33619
251.417	138392
251.480	136689
251.543	88229
251.606	254744
251.669	185163
251.732	68140
251.795	73559
251.859	75190
251.922	161845
251.985	91141
252.048	31420
252.111	24766
252.174	24400
252.237	46624
252.300	112444
252.363	105967
252.426	214869
252.489	87109
252.552	38107
252.615	26817
252.678	30983
252.741	79780
252.804	98778
252.867	211822
252.930	127915
252.993	66811
253.056	37821
253.119	27226
253.182	21966
253.245	36932
253.308	25898
253.371	24573
253.434	22121
253.497	21808
253.559	47770
253.622	32861
253.685	37509
253.748	41136
253.811	19002
253.874	21652
253.937	21129
254.000	17907
254.062	33641
254.125	53248
254.188	37618
254.251	35082
254.314	18190
254.376	33324
254.439	37604
254.502	31750
254.565	34090
254.628	61936
254.690	34937
254.753	19156
254.816	16164
254.878	17727
254.941	35812
255.004	38683
255.067	15848
255.129	15761
255.192	9718
255.255	9200
255.317	10648
255.380	8116
255.443	5522
255.505	5740
255.568	6562
255.631	6756
255.693	7307
255.756	5675
255.819	6183
255.881	5547
255.944	5197
256.006	5093
256.069	6704
256.132	5949
256.194	8699
256.257	22653
256.319	16557
256.382	14866
256.444	9406
256.507	8038
256.569	7010
256.632	7587
256.694	13740
256.757	39057
256.819	116903
256.882	40841
256.944	17671
257.007	14765
257.069	16264
257.132	9098
257.194	9134
257.257	8601
257.319	9695
257.381	10579
257.444	29034
257.506	139433
257.569	142781
257.631	67666
257.693	37721
257.756	17844
257.818	14436
257.880	10344
257.943	10293
258.005	7618
258.067	7617
258.130	6938
258.192	10335
258.254	22294
258.317	12019
258.379	9821
258.441	28990
258.503	27276
258.566	28792
258.628	36834
258.690	10466
258.753	11624
258.815	22480
258.877	11429
258.939	7705
259.001	6841
259.064	6821
259.126	9458
259.188	12281
259.250	8686
259.312	10850
259.375	29705
259.437	19650
259.499	8496
259.561	7904
259.623	8436
259.685	6724
259.747	8693
259.809	25821
259.872	50184
259.934	73532
259.996	62825
260.058	16313
260.120	9219
260.182	7265
260.244	7276
260.306	5890
260.368	7846
260.430	6609
260.492	11116
260.554	23643
260.616	24086
260.678	44135
260.740	56105
260.802	15163
260.864	12323
260.926	9696
260.988	9337
261.050	8733
261.112	14462
261.174	43204
261.236	40781
261.298	14036
261.359	22613
261.421	32890
261.483	10298
261.545	8959
261.607	5566
261.669	6838
261.731	15662
261.793	39156
261.854	18131
261.916	10536
261.978	7406
262.040	7812
262.102	8045
262.164	12932
262.225	11485
262.287	8082
262.349	25105
262.411	18373
262.472	8849
262.534	14898
262.596	34067
262.658	10779
262.719	6680
262.781	11230
262.843	30853
262.904	14857
262.966	10633
263.028	13479
263.090	60072
263.151	151007
263.213	45902
263.275	23913
263.336	11825
263.398	9404
263.459	6764
263.521	8183
263.583	22732
263.644	14988
263.706	6776
263.767	4449
263.829	4332
263.891	2884
263.952	4249
264.014	3491
264.075	5109
264.137	11070
264.198	9743
264.260	3474
264.321	4358
264.383	13203
264.444	23572
264.506	7099
264.567	5622
264.629	7990
264.690	11089
264.752	8845
264.813	6094
264.875	3683
264.936	5021
264.998	4035
265.059	3720
265.120	5910
265.182	11633
265.243	55609
265.305	50551
265.366	11784
265.427	7664
265.489	6424
265.550	4025
265.611	7640
265.673	5961
265.734	4275
265.795	4441
265.857	4760
265.918	6090
265.979	18029
266.040	95435
266.102	70576
266.163	18303
266.224	13899
266.286	9881
266.347	6698
266.408	6888
266.469	6998
266.530	5907
266.592	4696
266.653	13696
266.714	24550
266.775	7920
266.836	5320
266.898	5028
266.959	7515
267.020	5572
267.081	4893
267.142	4714
267.203	4458
267.264	4074
267.326	6313
267.387	3928
267.448	3787
267.509	4657
267.570	6083
267.631	3710
267.692	3606
267.753	4750
267.814	4992
267.875	13042
267.936	30953
267.997	11047
268.058	9920
268.119	6407
268.180	7103
268.241	4993
268.302	5026
268.363	4451
268.424	5450
268.485	5054
268.546	4473
268.607	3600
268.668	3264
268.729	3205
268.790	5020
268.851	5163
268.912	18250
268.972	22232
269.033	10504
269.094	5462
269.155	4773
269.216	4027
269.277	5528
269.338	4970
269.398	4601
269.459	6695
269.520	8989
269.581	13144
269.642	16002
269.702	9109
269.763	6480
269.824	6411
269.885	8925
269.945	13407
270.006	6877
270.067	3395
270.128	3835
270.188	3982
270.249	5260
270.310	4251
270.370	4598
270.431	4611
270.492	3852
270.553	5554
270.613	13921
270.674	29864
270.734	11459
270.795	6966
270.856	9840
270.916	8374
270.977	5588
271.038	7533
271.098	7287
271.159	13160
271.219	12605
271.280	5804
271.340	4799
271.401	6647
271.462	16457
271.522	10314
271.583	5976
271.643	6049
271.704	6281
271.764	8856
271.825	22548
271.885	76379
271.946	103257
272.006	31829
272.066	44126
272.127	78816
272.187	22541
272.248	12558
272.308	14847
272.369	56122
272.429	29674
272.489	20349
272.550	19115
272.610	21308
272.671	16182
272.731	12547
272.791	22102
272.852	13324
272.912	11406
272.972	6717
273.033	6568
273.093	10973
273.153	10572
273.214	7363
273.274	9168
273.334	34516
273.394	74136
273.455	30218
273.515	28317
273.575	63051
273.635	25616
273.696	35046
273.756	74959
273.816	28247
273.876	16326
273.936	29193
273.997	47032
274.057	14017
274.117	11631
274.177	21077
274.237	89812
274.297	74588
274.358	46897
274.418	62712
274.478	43582
274.538	17160
274.598	13812
274.658	40781
274.718	51768
274.778	19739
274.838	12602
274.898	24030
274.958	72341
275.018	74732
275.078	46743
275.138	16918
275.198	9631
275.258	7617
275.318	10342
275.378	20822
275.438	21893
275.498	14470
275.558	33690
275.618	74052
275.678	52613
275.738	28715
275.798	19329
275.858	9484
275.918	6213
275.978	9356
276.038	8585
276.098	7412
276.157	16826
276.217	48615
276.277	21893
276.337	15467
276.397	9084
276.457	10312
276.517	7340
276.576	5315
276.636	6281
276.696	12662
276.756	29035
276.815	20227
276.875	9313
276.935	10110
276.995	8544
277.055	6250
277.114	5660
277.174	12974
277.234	40571
277.293	17888
277.353	9454
277.413	6004
277.472	7591
277.532	7725
277.592	10364
277.651	34330
277.711	59024
277.771	22080
277.830	73636
277.890	57426
277.950	43602
278.009	117735
278.069	43053
278.128	43241
278.188	59420
278.248	27026
278.307	64768
278.367	37718
278.426	13585
278.486	8659
278.545	7228
278.605	6351
278.664	6269
278.724	9346
278.783	28138
278.843	73242
278.902	20505
278.962	11644
279.021	11874
279.081	13135
279.140	12673
279.199	12503
279.259	10953
279.318	12608
279.378	16078
279.437	32460
279.496	116474
279.556	267620
279.615	203864
279.675	54879
279.734	34458
279.793	54346
279.853	90065
279.912	33257
279.971	17159
280.031	17483
280.090	36710
280.149	65428
280.208	43780
280.268	171717
280.327	175091
280.386	44543
280.445	36598
280.505	33766
280.564	15639
280.623	13008
280.682	23276
280.742	34314
280.801	11091
280.860	8371
280.919	6671
280.978	6124
281.037	5807
281.097	5761
281.156	6417
281.215	6098
281.274	10264
281.333	46957
281.392	33260
281.451	8930
281.510	6836
281.569	5438
281.628	4684
281.688	4442
281.747	6358
281.806	5148
281.865	4637
281.924	4613
281.983	4605
282.042	3234
282.101	3344
282.160	3538
282.219	4948
282.278	5878
282.337	25147
282.396	15739
282.454	7218
282.513	10196
282.572	37904
282.631	20549
282.690	6767
282.749	4491
282.808	7270
282.867	6533
282.926	7493
282.985	4477
283.043	3289
283.102	4929
283.161	7314
283.220	18474
283.279	41836
283.338	11768
283.396	7184
283.455	6748
283.514	7741
283.573	11525
283.631	8252
283.690	6052
283.749	6665
283.808	16304
283.866	17908
283.925	6164
283.984	5864
284.043	9024
284.101	9472
284.160	5445
284.219	6925
284.277	8116
284.336	15377
284.395	50789
284.453	40134
284.512	14060
284.570	19044
284.629	14967
284.688	12447
284.746	14351
284.805	15908
284.863	22488
284.922	25697
284.981	29772
285.039	44311
285.098	84927
285.156	212269
285.215	461966
285.273	442205
285.332	213387
285.390	105653
285.449	65368
285.507	45158
285.566	32195
285.624	24165
285.683	18147
285.741	13565
285.799	12742
285.858	11188
285.916	11088
285.975	8676
286.033	6640
286.091	6798
286.150	4676
286.208	5419
286.267	7377
286.325	8310
286.383	14007
286.442	10696
286.500	4938
286.558	4169
286.616	5043
286.675	7338
286.733	6528
286.791	6108
286.850	7925
286.908	10852
286.966	18584
287.024	6773
287.083	5270
287.141	4588
287.199	5228
287.257	9283
287.315	7243
287.374	8121
287.432	20655
287.490	13136
287.548	7246
287.606	5471
287.664	4997
287.723	8204
287.781	9777
287.839	6723
287.897	8494
287.955	10729
288.013	18010
288.071	45586
288.129	166574
288.187	419833
288.245	183317
288.303	59435
288.361	33387
288.419	23763
288.477	17188
288.535	12372
288.593	8154
288.651	6484
288.709	6515
288.767	5058
288.825	4502
288.883	3291
288.941	4140
288.999	3789
289.057	3947
289.115	3785
289.173	3935
289.231	2775
289.289	4236
289.346	3451
289.404	5442
289.462	9578
289.520	11062
289.578	4754
289.636	2743
289.694	2659
289.751	2106
289.809	2674
289.867	3184
289.925	4115
289.983	6234
290.040	3285
290.098	2561
290.156	4639
290.214	5991
290.271	2770
290.329	2851
290.387	2070
290.444	2529
290.502	2405
290.560	1652
290.617	1781
290.675	1946
290.733	2401
290.790	3958
290.848	2235
290.906	2962
290.963	3746
291.021	3123
291.078	1644
291.136	4382
291.194	15208
291.251	32019
291.309	9032
291.366	3455
291.424	3380
291.481	2821
291.539	3410
291.596	3377
291.654	1390
291.711	2718
291.769	4213
291.826	11311
291.884	6723
291.941	2592
291.999	3450
292.056	4040
292.114	4372
292.171	2710
292.228	3847
292.286	5753
292.343	10825
292.401	11905
292.458	7536
292.515	4896
292.573	6699
292.630	6152
292.687	6308
292.745	4394
292.802	5308
292.859	14792
292.917	40296
292.974	22383
293.031	7109
293.089	3648
293.146	3716
293.203	3224
293.260	3086
293.318	4170
293.375	4799
293.432	2801
293.489	3006
293.546	3408
293.604	7986
293.661	26127
293.718	68746
293.775	29942
293.832	14643
293.889	11431
293.947	11577
294.004	7006
294.061	8819
294.118	17537
294.175	30207
294.232	20994
294.289	9590
294.346	6311
294.403	6224
294.460	5626
294.517	4699
294.574	4483
294.631	3626
294.688	6290
294.745	19705
294.802	67170
294.859	51190
294.916	19596
294.973	14043
295.030	12305
295.087	10409
295.144	6112
295.201	5140
295.258	5078
295.315	9263
295.372	29113
295.429	57598
295.486	21528
295.542	10468
295.599	13807
295.656	22987
295.713	26905
295.770	48967
295.827	18192
295.883	7893
295.940	7560
295.997	13549
296.054	12349
296.111	6785
296.167	3900
296.224	3186
296.281	3148
296.338	2880
296.394	4222
296.451	6790
296.508	22238
296.564	42080
296.621	26590
296.678	59027
296.734	84826
296.791	26702
296.848	14522
296.904	16332
296.961	37282
297.018	61095
297.074	41202
297.131	14245
297.187	12196
297.244	20906
297.301	64701
297.357	114468
297.414	36646
297.470	15312
297.527	9298
297.583	7297
297.640	7123
297.696	5497
297.753	4825
297.809	2827
297.866	3253
297.922	2832
297.979	3199
298.035	4989
298.092	11658
298.148	34503
298.204	31801
298.261	15370
298.317	25197
298.374	72008
298.430	39926
298.486	17901
298.543	11669
298.599	10337
298.656	11467
298.712	21394
298.768	54635
298.824	37440
298.881	11476
298.937	7064
298.993	6193
299.050	8331
299.106	6541
299.162	5000
299.218	6089
299.275	5153
299.331	7535
299.387	17305
299.443	65477
299.500	64147
299.556	21875
299.612	10240
299.668	8777
299.724	10079
299.780	11080
299.837	7672
299.893	15693
299.949	52024
300.005	59347
300.061	48098
300.117	83937
300.173	38466
300.229	16526
300.285	18792
300.341	22402
300.397	11112
300.453	6779
300.510	4917
300.566	6924
300.622	9477
300.678	23967
300.734	47853
300.790	49649
300.845	65138
300.901	36461
300.957	48783
301.013	39437
301.069	14800
301.125	10637
301.181	10509
301.237	7062
301.293	4464
301.349	4286
301.405	3776
301.461	3261
301.516	4460
301.572	5805
301.628	13953
301.684	13086
301.740	19926
301.796	34485
301.851	23129
301.907	37779
301.963	42928
302.019	70373
302.074	185584
302.130	174841
302.186	70107
302.242	28602
302.297	19604
302.353	20813
302.409	37093
302.464	33269
302.520	26052
302.576	63606
302.631	71103
302.687	37886
302.743	16095
302.798	7688
302.854	7481
302.910	6969
302.965	9468
303.021	17319
303.076	17622
303.132	20868
303.187	26066
303.243	11923
303.299	5894
303.354	5130
303.410	4793
303.465	4293
303.521	4614
303.576	5271
303.632	8012
303.687	18560
303.743	55648
303.798	46484
303.853	15983
303.909	9625
303.964	7708
304.020	11974
304.075	20448
304.130	17241
304.186	32591
304.241	33015
304.297	24252
304.352	12125
304.358	11638
304.407	7688
304.449	7074
304.463	6873
304.518	7282
304.539	6946
304.573	6438
304.629	8130
304.630	8268
304.684	14876
304.720	32231
304.739	40879
304.794	64211
304.811	53222
304.850	27174
304.902	12156
304.905	11199
304.960	7154
304.992	7390
305.015	7573
305.071	6080
305.083	5549
305.126	3672
305.173	3045
305.181	2949
305.236	3097
305.264	3300
305.292	3503
305.347	5353
305.354	5237
305.402	4553
305.445	5718
305.457	6043
305.512	8358
305.535	8808
305.567	9529
305.622	11062
305.626	11419
305.678	19607
305.716	42586
305.733	51043
305.788	60600
305.807	51116
305.843	35125
305.897	52424
305.898	52606
305.953	52599
305.988	32954
306.008	22249
306.063	12153
306.078	10822
306.118	8021
306.168	6328
306.173	6185
306.228	5115
306.259	4499
306.283	4048
306.338	3023
306.349	3091
306.393	3361
306.440	4337
306.448	4539
306.503	4864
306.530	5456
306.558	7211
306.613	15252
306.620	16645
306.668	26176
306.711	42181
306.723	44860
306.778	36519
306.801	27115
306.833	16246
306.888	8682
306.892	8320
306.943	5236
306.982	4848
306.997	4733
307.052	4268
307.072	4249
307.107	4458
307.162	4853
307.163	4868
307.217	7108
307.253	8351
307.272	8404
307.327	9046
307.343	8531
307.381	7732
307.434	8440
307.436	8761
307.491	18576
307.524	28337
307.546	30894
307.600	35569
307.614	31159
307.655	17777
307.704	8771
307.710	8302
307.765	9433
307.795	10772
307.819	12244
307.874	18224
307.885	18385
307.929	15087
307.975	12536
307.984	13221
308.038	22169
308.065	29845
308.093	53296
308.148	116479
308.156	132328
308.202	195965
308.246	223060
308.257	220608
308.312	110336
308.336	78304
308.366	57088
308.421	37541
308.426	35644
308.475	21346
308.517	15362
308.530	14274
308.585	11782
308.607	11254
308.639	10931
308.694	11157
308.697	11231
308.748	16845
308.787	23498
308.803	23179
308.857	17401
308.877	14877
308.912	13424
308.967	14085
308.967	14122
309.021	21959
309.058	30076
309.076	39568
309.130	76148
309.148	91096
309.185	162475
309.238	290061
309.239	290324
309.293	308249
309.328	252709
309.348	212852
309.402	92520
309.418	67195
309.457	44600
309.508	28432
309.511	27917
309.566	28133
309.598	29345
309.620	33166
309.674	47755
309.688	51500
309.729	46831
309.778	32551
309.783	31658
309.837	23153
309.868	20353
309.892	25664
309.946	42282
309.959	47806
310.001	58059
310.049	63506
310.055	61525
310.109	35201
310.139	20621
310.163	15111
310.218	8391
310.229	7448
310.272	6302
310.319	5699
310.326	5494
310.381	4038
310.409	3507
310.435	3547
310.489	3401
310.499	3439
310.543	3690
310.589	4021
310.598	3963
310.652	3711
310.679	3431
310.706	3209
310.760	3039
310.769	2988
310.814	2796
310.859	2672
310.868	2677
310.923	2702
310.948	2815
310.977	3144
311.031	3763
311.038	3824
311.085	3626
311.128	3428
311.139	3364
311.193	3052
311.218	2874
311.247	2856
311.301	2847
311.308	2853
311.356	2657
311.398	2528
311.410	2543
311.464	2426
311.488	2408
311.518	2744
311.572	3461
311.578	3544
311.626	4813
311.668	5887
311.680	5791
311.734	5184
311.758	4910
311.788	4659
311.842	4282
311.847	4238
311.896	6060
311.937	7642
311.950	7437
312.004	6445
312.027	5994
312.058	5056
312.112	3389
312.117	3226
312.165	3320
312.207	3412
312.297	4636
312.386	4001
312.476	4947
312.566	9445
312.656	3924
312.745	2351
312.835	2951
312.925	4367
313.015	3479
313.104	3952
313.194	3232
313.284	3313
313.374	4696
313.463	3793
313.553	3672
313.643	2171
313.732	2246
313.822	2474
313.912	4023
314.001	4148
314.091	3755
314.180	5580
314.270	5186
314.360	6473
314.449	4695
314.539	3014
314.628	2773
314.718	3907
314.808	4770
314.897	3172
314.987	2940
315.076	4320
315.166	5699
315.255	4783
315.345	4574
315.434	4682
315.524	5139
315.613	5718
315.703	7183
315.792	10017
315.881	18332
315.971	7669
316.060	10137
316.150	15042
316.239	13500
316.328	5693
316.418	3539
316.507	4045
316.597	5564
316.686	4691
316.775	6378
316.865	14210
316.954	3989
317.043	3843
317.133	2763
317.222	2352
317.311	3032
317.400	2440
317.490	5758
317.579	5139
317.668	3773
317.757	7003
317.847	14716
317.936	34643
318.025	18408
318.114	10495
318.203	6365
318.293	9201
318.382	14705
318.471	13294
318.560	17611
318.649	34385
318.738	7645
318.828	6421
318.917	6330
319.006	8196
319.095	20347
319.184	48212
319.273	28637
319.362	13934
319.451	5170
319.540	4702
319.629	14367
319.718	18988
319.807	9983
319.896	19737
319.985	58765
320.074	19298
320.163	5410
320.252	8956
320.341	7312
320.430	7224
320.519	9690
320.608	5721
320.697	4165
320.786	4201
320.875	6719
320.964	10000
321.053	14838
321.142	22637
321.230	19315
321.319	17934
321.408	34776
321.497	14104
321.586	14345
321.675	16213
321.764	14063
321.852	10629
321.941	19695
322.030	12120
322.119	17025
322.207	35818
322.296	23164
322.385	11663
322.474	17522
322.562	45250
322.651	19999
322.740	17982
322.829	21804
322.917	21052
323.006	12713
323.095	11165
323.183	7525
323.272	11911
323.361	23267
323.449	60584
323.538	20893
323.626	43004
323.715	23951
323.804	11335
323.892	41150
323.981	19972
324.069	7560
324.158	21188
324.246	18898
324.335	8783
324.424	12286
324.512	4753
324.601	5378
324.689	6917
324.778	10436
324.866	13442
324.954	4787
325.043	5762
325.131	9351
325.220	17419
325.308	18128
325.397	14478
325.485	8116
325.574	3158
325.662	3069
325.750	3119
325.839	3360
325.927	2938
326.015	4201
326.104	6565
326.192	8212
326.280	2572
326.369	3722
326.457	6968
326.545	10995
326.634	3708
326.722	2735
326.810	2327
326.898	2802
326.987	5265
327.075	10303
327.163	8515
327.251	4200
327.340	3448
327.428	3979
327.516	1999
327.604	2801
327.692	3122
327.781	4180
327.869	7378
327.957	4774
328.045	3756
328.133	3116
328.221	3526
328.309	3427
328.397	2987
328.485	5823
328.574	9401
328.662	23127
328.750	10185
328.838	4324
328.926	2941
329.014	2534
329.102	4626
329.190	12629
329.278	7630
329.366	2022
329.454	1604
329.542	1853
329.630	1952
329.718	2611
329.806	3354
329.893	3172
329.981	3739
330.069	8548
330.157	38171
330.245	75757
330.333	26872
330.421	5743
330.509	10013
330.597	30036
330.684	15227
330.772	5609
330.860	7445
330.948	8183
331.036	3771
331.123	2054
331.211	1413
331.299	3470
331.387	8734
331.475	13455
331.562	4267
331.650	2837
331.738	3702
331.825	4682
331.913	2307
332.001	2412
332.089	3748
332.176	7978
332.264	20341
332.352	13680
332.439	4951
332.527	3774
332.614	2435
332.702	4252
332.790	3710
332.877	10042
332.965	18925
333.052	5281
333.140	7487
333.228	12345
333.315	3141
333.403	4104
333.490	12674
333.578	11869
333.665	16856
333.753	6143
333.840	2997
333.928	4408
334.015	13931
334.103	22747
334.190	59032
334.278	13930
334.365	6420
334.452	4739
334.540	3854
334.627	4697
334.715	7461
334.802	15883
334.889	73198
334.977	66185
335.064	9392
335.151	4006
335.239	4639
335.326	7403
335.413	32954
335.501	37082
335.588	5565
335.675	2919
335.762	4561
335.850	7926
335.937	6697
336.024	20460
336.111	77283
336.199	29449
336.286	6082
336.373	3205
336.460	2469
336.547	3011
336.635	4897
336.722	3517
336.809	2696
336.896	6312
336.983	19638
337.070	47310
337.157	62365
337.245	46779
337.332	30229
337.419	4119
337.506	2891
337.593	4071
337.680	15628
337.767	37433
337.854	11117
337.941	12103
338.028	15688
338.115	5080
338.202	6807
338.289	14460
338.376	47255
338.463	14707
338.550	24641
338.637	22796
338.724	9440
338.811	14527
338.898	2964
338.984	2282
339.071	3608
339.158	6959
339.245	13472
339.332	6934
339.419	11407
339.506	9540
339.593	1278
339.679	2750
339.766	2111
339.853	5055
339.940	9848
340.027	3127
340.113	3777
340.200	5210
340.287	4144
340.374	6438
340.460	8484
340.547	3225
340.634	11024
340.720	30944
340.807	13179
340.894	3114
340.980	2888
341.067	2655
341.154	4285
341.240	7916
341.327	12509
341.414	3814
341.500	1353
341.587	3359
341.674	3804
341.760	10659
341.847	9737
341.933	3266
342.020	1119
342.106	1570
342.193	4094
342.279	7067
342.366	5031
342.452	9235
342.539	6241
342.625	17312
342.712	30607
342.798	11648
342.885	4649
342.971	1680
343.058	1754
343.144	1620
343.230	2323
343.317	1857
343.403	1892
343.490	1702
343.576	2101
343.662	3050
343.749	4205
343.835	6272
343.921	17877
344.008	111367
344.094	175719
344.180	31804
344.267	16198
344.353	52611
344.439	39327
344.525	13689
344.612	5097
344.698	4503
344.784	3438
344.870	2317
344.957	2567
345.043	5489
345.129	5054
345.215	8407
345.301	4527
345.387	1625
345.474	1973
345.560	1308
345.646	2770
345.732	2173
345.818	2608
345.904	2728
345.990	3098
346.076	3539
346.162	6322
346.249	3498
346.335	2452
346.421	5189
346.507	30715
346.593	66148
346.679	11062
346.765	3998
346.851	3783
346.937	2603
347.023	3680
347.108	3568
347.194	3561
347.280	2529
347.366	6825
347.452	30057
347.538	88862
347.624	59540
347.710	36343
347.796	5152
347.882	3084
347.967	2293
348.053	3759
348.139	3050
348.225	2278
348.311	2761
348.397	1946
348.482	3998
348.568	4226
348.654	2809
348.740	3222
348.825	2699
348.911	10141
348.997	52265
349.083	69521
349.168	8733
349.254	2872
349.340	1906
349.425	2514
349.511	4163
349.597	5677
349.682	16852
349.768	45329
349.854	15116
349.939	3414
350.025	2414
350.110	2086
350.196	1126
350.282	1153
350.367	1870
350.453	4458
350.538	3923
350.624	4163
350.709	3285
350.795	1541
350.880	1453
350.966	3747
351.051	4372
351.137	2648
351.222	4251
351.308	17606
351.393	31869
351.479	5824
351.564	1228
351.649	2387
351.735	1957
351.820	2147
351.906	2333
351.991	6587
352.076	29138
352.162	29016
352.247	5248
352.332	4003
352.418	7212
352.503	15960
352.588	56455
352.673	31839
352.759	6856
352.844	2421
352.929	4459
353.014	5728
353.100	4120
353.185	8759
353.270	11691
353.355	9968
353.441	3536
353.526	3571
353.611	11687
353.696	9828
353.781	6078
353.866	2263
353.952	4789
354.037	11596
354.122	23837
354.207	18022
354.292	6504
354.377	3155
354.462	2882
354.547	4178
354.632	3356
354.717	6581
354.802	7860
354.887	3039
354.972	1965
355.057	1379
355.142	1549
355.227	4411
355.312	6695
355.397	18619
355.482	36821
355.567	14233
355.652	13197
355.737	19309
355.822	58169
355.907	30787
355.991	6032
356.076	2266
356.161	2422
356.246	2825
356.331	4352
356.416	19663
356.501	105901
356.585	73382
356.670	9242
356.755	7736
356.840	14992
356.924	85246
357.009	210574
357.094	58145
357.179	12734
357.263	8215
357.348	9168
357.433	7883
357.517	6994
357.602	5175
357.687	4798
357.771	7349
357.856	10105
357.941	13096
358.025	71809
358.110	216956
358.195	72620
358.279	10652
358.364	11472
358.448	43987
358.533	93463
358.617	62584
358.702	60330
358.787	18081
358.871	10932
358.956	7684
359.040	3026
359.125	2424
359.209	2995
359.294	4976
359.378	7049
359.462	7560
359.547	4277
359.631	3394
359.716	1126
359.800	2453
359.885	5574
359.969	2986
360.053	2358
360.138	3044
360.222	5608
360.306	10868
360.391	7273
360.475	13489
360.559	24241
360.644	32007
360.728	22222
360.812	68695
360.896	127761
360.981	40681
361.065	16807
361.149	6051
361.233	5439
361.318	3620
361.402	5269
361.486	4116
361.570	3644
361.654	6865
361.739	23326
361.823	106343
361.907	117013
361.991	16107
362.075	12150
362.159	20365
362.243	13837
362.327	13250
362.411	14597
362.495	7089
362.580	3781
362.664	2541
362.748	2400
362.832	3296
362.916	7370
363.000	36279
363.084	117834
363.168	137902
363.252	23812
363.336	9416
363.420	15558
363.503	48785
363.587	46272
363.671	8794
363.755	7158
363.839	10258
363.923	4747
364.007	12277
364.091	11228
364.175	20391
364.258	73674
364.342	50101
364.426	50335
364.510	20845
364.594	14025
364.677	35850
364.761	130283
364.845	65216
364.929	21316
365.013	14767
365.096	14929
365.180	13717
365.264	24372
365.347	73606
365.431	26140
365.515	7423
365.598	3475
365.682	4699
365.766	6301
365.849	7640
365.933	5136
366.017	6277
366.100	3103
366.184	1094
366.267	3514
366.351	2108
366.435	2596
366.518	806
366.602	1510
366.685	2858
366.769	3438
366.852	7079
366.936	12183
367.019	6212
367.103	4743
367.186	9598
367.270	2533
367.353	1426
367.436	2663
367.520	1814
367.603	4038
367.687	7010
367.770	12167
367.853	10383
367.937	44697
368.020	49985
368.104	9483
368.187	11996
368.270	13956
368.353	11801
368.437	14226
368.520	33753
368.603	23510
368.687	47208
368.770	62169
368.853	12951
368.936	12492
369.020	9884
369.103	3807
369.186	1746
369.269	3063
369.352	9652
369.436	11574
369.519	6700
369.602	1685
369.685	5166
369.768	3223
369.851	3299
369.934	2154
370.018	4002
370.101	10565
370.184	8249
370.267	5778
370.350	10398
370.433	22289
370.516	72287
370.599	62262
370.682	17532
370.765	37974
370.848	55350
370.931	84518
371.014	23007
371.097	3849
371.180	3516
371.263	1916
371.346	820
371.429	3091
371.511	3401
371.594	6917
371.677	10905
371.760	12176
371.843	18274
371.926	102970
372.009	171274
372.091	42794
372.174	43742
372.257	89790
372.340	24500
372.423	16782
372.505	16342
372.588	9679
372.671	36427
372.754	88002
372.836	31778
372.919	23711
373.002	37909
373.085	11717
373.167	15138
373.250	45931
373.332	92592
373.415	142897
373.498	229507
373.580	71861
373.663	131832
373.746	134453
373.828	23471
373.911	10486
373.993	12053
374.076	40062
374.159	33651
374.241	29646
374.324	74225
374.406	41783
374.489	99246
374.571	204112
374.654	64234
374.736	50552
374.819	140716
374.901	190659
374.983	150128
375.066	21088
375.148	10152
375.231	36497
375.313	59721
375.395	19259
375.478	4826
375.560	5094
375.643	10279
375.725	51360
375.807	161819
375.890	87719
375.972	30408
376.054	17023
376.136	26328
376.219	16370
376.301	61867
376.383	127729
376.465	36328
376.548	25074
376.630	45935
376.712	109051
376.794	34749
376.877	4508
376.959	1936
377.041	4289
377.123	7956
377.205	7515
377.287	1608
377.369	1327
377.452	2303
377.534	2918
377.616	2812
377.698	2504
377.780	1097
377.862	3108
377.944	3562
378.026	1188
378.108	1795
378.190	1895
378.272	2033
378.354	1141
378.436	1893
378.518	5367
378.600	18016
378.682	22779
378.764	53208
378.846	28890
378.928	8875
379.010	12237
379.091	5710
379.173	3089
379.255	2045
379.337	6526
379.419	33586
379.501	69553
379.583	19594
379.664	6344
379.746	19985
379.828	53961
379.910	68430
379.991	48073
380.073	6132
380.155	4584
380.237	3293
380.318	2486
380.400	3784
380.482	10614
380.564	12476
380.645	13530
380.727	10191
380.809	6665
380.890	4549
380.972	2382
381.053	3517
381.135	5104
381.217	22476
381.298	48164
381.380	18803
381.461	30838
381.543	123779
381.624	105973
381.706	15627
381.787	8328
381.869	12892
381.951	69770
382.032	198011
382.113	86040
382.195	14341
382.276	13593
382.358	45385
382.439	108592
382.521	127654
382.602	163095
382.684	72228
382.765	132639
382.846	117437
382.928	147097
383.009	62151
383.090	67061
383.172	256948
383.253	293896
383.334	110814
383.416	143014
383.497	52880
383.578	22633
383.659	53194
383.741	237819
383.822	486150
383.903	187952
383.984	106758
384.066	170416
384.147	77532
384.228	15629
384.309	11836
384.390	7804
384.471	5729
384.553	7007
384.634	9355
384.715	9587
384.796	5547
384.877	13054
384.958	52020
385.039	44825
385.120	13402
385.201	6952
385.282	7151
385.363	7509
385.444	7215
385.525	25655
385.606	86422
385.687	53444
385.768	11640
385.849	22570
385.930	108657
386.011	141693
386.092	27217
386.173	5298
386.254	4439
386.335	5113
386.416	8560
386.496	35218
386.577	41355
386.658	11645
386.739	6522
386.820	6762
386.901	4751
386.981	4778
387.062	3883
387.143	15837
387.224	52618
387.304	34530
387.385	10892
387.466	5253
387.547	8284
387.627	6166
387.708	28984
387.789	106863
387.869	100074
387.950	21107
388.031	2917
388.111	1638
388.192	9901
388.273	14785
388.353	7941
388.434	6151
388.514	28587
388.595	112721
388.676	107591
388.756	42610
388.837	43812
388.917	18302
388.998	3151
389.078	4229
389.159	3586
389.239	2221
389.320	7453
389.400	5384
389.480	26458
389.561	55321
389.641	19779
389.722	8945
389.802	13095
389.883	29750
389.963	69609
390.043	28856
390.124	8602
390.204	22690
390.284	54315
390.365	25038
390.445	38427
390.525	92533
390.605	64460
390.686	21295
390.766	7122
390.846	3913
390.927	1845
391.007	2094
391.087	4549
391.167	4350
391.247	1944
391.328	6496
391.408	9488
391.488	5587
391.568	2199
391.648	5599
391.728	7965
391.808	7809
391.888	10323
391.969	35651
392.049	42774
392.129	15844
392.209	32066
392.289	64708
392.369	23839
392.449	17484
392.529	10468
392.609	10311
392.689	24151
392.769	67690
392.849	40809
392.929	37701
393.009	86301
393.089	48767
393.169	45049
393.248	194781
393.328	644262
393.408	507249
393.488	95701
393.568	26114
393.648	13795
393.728	10398
393.807	6764
393.887	7241
393.967	5856
394.047	8584
394.127	11320
394.206	23852
394.286	132749
394.366	445876
394.446	322218
394.525	51140
394.605	13685
394.685	12772
394.764	26522
394.844	43050
394.924	26361
395.003	8804
395.083	7354
395.163	5722
395.242	5465
395.322	5776
395.402	3589
395.481	7519
395.561	21333
395.640	51826
395.720	37199
395.799	54344
395.879	39828
395.958	37298
396.038	184124
396.117	584168
396.197	441851
396.276	88401
396.356	28618
396.435	21458
396.515	16231
396.594	20427
396.673	47884
396.753	223116
396.832	564415
396.912	309495
396.991	59686
397.070	17006
397.150	9034
397.229	8154
397.308	12108
397.388	14175
397.467	6097
397.546	3481
397.625	1299
397.705	6883
397.784	5543
397.863	2072
397.942	1836
398.022	3021
398.101	16661
398.180	43059
398.259	18479
398.338	5047
398.417	3493
398.497	2213
398.576	4161
398.655	625
398.734	1619
398.813	2401
398.892	16972
398.971	48582
399.050	18185
399.129	1949
399.208	2126
399.287	1819
399.366	221
399.445	1414
399.524	1567
399.603	1007
399.682	6988
399.761	19430
399.840	55592
399.919	33907
399.998	4165
400.077	722
400.156	15
400.235	3140
400.313	703
400.392	5254
400.471	29733
400.550	34468
400.629	5994
400.708	3315
400.786	1607
400.865	10303
400.944	9747
401.023	5626
401.102	709
401.180	4
401.259	1167
401.338	1814
401.416	3361
401.495	2137
401.574	1514
401.652	839
401.731	4200
401.810	2516
401.888	849
401.967	407
402.046	1542
402.124	3679
402.203	2642
402.281	2917
402.360	4143
402.438	12108
402.517	6258
402.596	1973
402.674	2017
402.753	381
402.831	1353
402.910	4575
402.988	28080
403.066	65221
403.145	26174
403.223	25746
403.302	52153
403.380	34522
403.459	31932
403.537	7900
403.615	3009
403.694	-39
403.772	1245
403.850	892
403.929	258
404.007	1451
404.085	6245
404.164	5548
404.242	1698
404.320	3570
404.398	8466
404.477	43687
404.555	154963
404.633	89238
404.711	10470
404.789	3254
404.868	2052
404.946	164
405.024	1299
405.102	292
405.180	-289
405.258	129
405.336	1586
405.415	301
405.493	4776
405.571	4187
405.649	784
405.727	-8
405.805	3946
405.883	2824
405.961	2598
406.039	2449
406.117	839
406.195	7333
406.273	46660
406.351	118988
406.429	45272
406.507	5655
406.585	1389
406.663	2982
406.740	4516
406.818	2296
406.896	1450
406.974	3038
407.052	16221
407.130	81336
407.208	77090
407.285	11617
407.363	900
407.441	1476
407.519	1238
407.596	3492
407.674	11417
407.752	28557
407.830	19602
407.907	7193
407.985	1526
408.063	709
408.141	346
408.218	2707
408.296	2832
408.373	1320
408.451	3374
408.529	1913
408.606	-145
408.684	-96
408.762	-108
408.839	-566
408.917	367
408.994	570
409.072	-607
409.149	1274
409.227	2742
409.304	2276
409.382	1622
409.459	2435
409.537	3589
409.614	2474
409.692	1322
409.769	2177
409.846	4888
409.924	6039
410.001	1696
410.079	870
410.156	1474
410.233	777
410.311	1168
410.388	1100
410.465	2230
410.543	77
410.620	1812
410.697	2038
410.775	1552
410.852	-1007
410.929	2689
411.006	3975
411.083	1075
411.161	4091
411.238	3964
411.315	1500
411.392	1094
411.469	2618
411.547	2249
411.624	-1185
411.701	-336
411.778	1812
411.855	5518
411.932	1195
412.009	599
412.086	152
412.163	1192
412.240	1347
412.317	3155
412.394	572
412.471	474
412.548	483
412.625	756
412.702	1873
412.779	4167
412.856	1520
412.933	-232
413.010	-85
413.087	6406
413.164	27648
413.241	26434
413.318	4241
413.395	3827
413.471	4075
413.548	1224
413.625	1589
413.702	1318
413.779	966
413.855	-404
413.932	-700
414.009	-626
414.086	266
414.162	594
414.239	5008
414.316	30001
414.393	48043
414.469	10457
414.546	508
414.623	232
414.699	192
414.776	1265
414.853	-178
414.929	262
415.006	617
415.082	1246
415.159	387
415.236	492
415.312	1206
415.389	5016
415.465	5228
415.542	1636
415.618	1102
415.695	3907
415.771	1696
415.848	963
415.924	990
416.000	802
416.077	735
416.153	-226
416.230	-853
416.306	-422
416.383	179
416.459	484
416.535	-1006
416.612	-111
416.688	126
416.764	61
416.841	-21
416.917	676
416.993	1148
417.069	746
417.146	2734
417.222	3879
417.298	1258
417.374	752
417.451	1500
417.527	2262
417.603	1541
417.679	1015
417.755	796
417.831	-577
417.908	529
417.984	-420
418.060	745
418.136	6322
418.212	5712
418.288	673
418.364	764
418.440	812
418.516	2378
418.592	3809
418.668	10633
418.744	13846
418.820	6904
418.896	1232
418.972	-610
419.048	1411
419.124	7173
419.200	2211
419.276	355
419.352	-638
419.428	314
419.504	1687
419.579	1896
419.655	401
419.731	2202
419.807	10258
419.883	16326
419.959	7889
420.034	2944
420.110	11259
420.186	35231
420.262	17210
420.337	2847
420.413	1389
420.489	619
420.565	494
420.640	198
420.716	800
420.792	-343
420.867	1038
420.943	240
421.019	3234
421.094	1045
421.170	821
421.245	-52
421.321	1278
421.397	1045
421.472	6263
421.548	14673
421.623	7126
421.699	2220
421.774	2852
421.850	1936
421.925	4727
422.001	3654
422.076	3203
422.152	4115
422.227	6834
422.302	9263
422.378	13250
422.453	27511
422.529	91481
422.604	308940
422.679	465452
422.755	192235
422.830	44816
422.905	17422
422.981	8250
423.056	6476
423.131	5256
423.207	3137
423.282	4100
423.357	9387
423.432	5180
423.508	7190
423.583	14478
423.658	7750
423.733	2814
423.808	3796
423.883	4643
423.959	2840
424.034	2006
424.109	2309
424.184	-623
424.259	66
424.334	-216
424.409	-796
424.484	885
424.559	776
424.634	594
424.709	2414
424.784	2859
424.859	1497
424.934	5619
425.009	26055
425.084	33256
425.159	7356
425.234	1300
425.309	-158
425.384	1579
425.459	298
425.534	806
425.609	74
425.683	445
425.758	422
425.833	522
425.908	3108
425.983	17546
426.058	34341
426.132	9136
426.207	1428
426.282	3123
426.357	1761
426.431	640
426.506	1353
426.581	424
426.655	160
426.730	1028
426.805	717
426.879	900
426.954	834
427.029	8120
427.103	52892
427.178	94809
427.253	25841
427.327	1980
427.402	1500
427.476	4233
427.551	695
427.625	145
427.700	877
427.774	15
427.849	820
427.923	-153
427.998	185
428.072	81
428.147	6596
428.221	34160
428.296	64754
428.370	17866
428.444	2687
428.519	3385
428.593	7622
428.667	6818
428.742	8594
428.816	12940
428.890	49531
428.965	46999
429.039	10719
429.113	7687
429.188	2417
429.262	598
429.336	5712
429.410	16009
429.485	6389
429.559	7071
429.633	4366
429.707	1382
429.781	9949
429.855	51710
429.930	53211
430.004	26177
430.078	40599
430.152	50578
430.226	112082
430.300	68508
430.374	6479
430.448	3267
430.522	15355
430.596	39880
430.670	35119
430.744	111245
430.818	104398
430.892	15132
430.966	2729
431.040	1417
431.114	-493
431.188	-592
431.262	91
431.336	-182
431.410	4580
431.484	11869
431.557	5829
431.631	27
431.705	2231
431.779	19962
431.853	60143
431.927	22432
432.000	1897
432.074	644
432.148	1581
432.222	210
432.295	368
432.369	603
432.443	6542
432.516	52622
432.590	90740
432.664	20850
432.737	543
432.811	-732
432.885	-1068
432.958	582
433.032	-1184
433.106	-989
433.179	-675
433.253	-1016
433.326	-414
433.400	-642
433.473	-1300
433.547	-680
433.620	777
433.694	1924
433.767	1469
433.841	-254
433.914	-400
433.988	-1375
434.061	-670
434.134	-491
434.208	-1343
434.281	-1419
434.355	-891
434.428	9
434.501	-1168
434.575	-1156
434.648	-678
434.721	-1400
434.795	-1711
434.868	-793
434.941	-975
435.014	-256
435.088	-710
435.161	573
435.234	2397
435.307	2095
435.381	457
435.454	584
435.527	1566
435.600	791
435.673	438
435.746	-384
435.819	-46
435.892	-344
435.966	236
436.039	-1417
436.112	-95
436.185	-712
436.258	-669
436.331	-1649
436.404	-253
436.477	-510
436.550	-281
436.623	-1290
436.696	-673
436.769	-121
436.842	-501
436.915	-272
436.987	470
437.060	-492
437.133	-981
437.206	-743
437.279	-70
437.352	-715
437.425	-973
437.498	703
437.570	3844
437.643	1706
437.716	-85
437.789	-791
437.861	1186
437.934	5133
438.007	619
438.080	-776
438.152	1554
438.225	9048
438.298	73939
438.370	131369
438.443	31099
438.516	4528
438.588	133
438.661	-20
438.734	-183
438.806	-130
438.879	638
438.951	277
439.024	1200
439.096	-144
439.169	-859
439.241	-1018
439.314	-490
439.386	4
439.459	1796
439.531	2863
439.604	240
439.676	169
439.749	-753
439.821	-780
439.893	-551
439.966	-784
440.038	47
440.110	482
440.183	-730
440.255	70
440.327	3025
440.400	28132
440.472	85626
440.544	30083
440.617	2310
440.689	2323
440.761	3320
440.833	3549
440.905	1052
440.978	-812
441.050	-792
441.122	100
441.194	-906
441.266	-1526
441.338	-642
441.411	4949
441.483	28652
441.555	24428
441.627	3025
441.699	1580
441.771	118
441.843	-694
441.915	-563
441.987	-437
442.059	-1026
442.131	333
442.203	646
442.275	2038
442.347	1053
442.419	5000
442.491	31217
442.563	46265
442.635	11627
442.706	10353
442.778	5202
442.850	-513
442.922	-1038
442.994	960
443.066	1164
443.137	753
443.209	8
443.281	1709
443.353	6824
443.425	43600
443.496	112991
443.568	68754
443.640	14800
443.711	1971
443.783	493
443.855	-673
443.926	96
443.998	49
444.070	-49
444.141	591
444.213	2879
444.285	2603
444.356	1521
444.428	455
444.499	-425
444.571	-1027
444.642	75
444.714	692
444.785	1804
444.857	1366
444.928	4563
445.000	1313
445.071	3588
445.143	3347
445.214	2728
445.285	5965
445.357	23107
445.428	99742
445.500	148081
445.571	66631
445.642	25588
445.714	10092
445.785	9144
445.856	2537
445.928	3258
445.999	801
446.070	620
446.141	1493
446.213	1900
446.284	370
446.355	311
446.426	-468
446.497	-509
446.569	1420
446.640	3400
446.711	1529
446.782	-741
446.853	1202
446.924	512
446.995	343
447.066	2
447.138	641
447.209	278
447.280	-1084
447.351	-699
447.422	-1004
447.493	-62
447.564	918
447.635	1943
447.706	-752
447.777	-963
447.847	-769
447.918	-1414
447.989	-247
448.060	467
448.131	3050
448.202	3046
448.273	869
448.344	-767
448.414	-401
448.485	-927
448.556	-877
448.627	-1544
448.698	-1106
448.768	-1403
448.839	-765
448.910	100
448.981	459
449.051	-684
449.122	-1216
449.193	-1383
449.263	-1149
449.334	-731
449.405	1145
449.475	3250
449.546	823
449.616	1486
449.687	245
449.758	153
449.828	-1277
449.899	-723
449.969	-1294
450.040	-734
450.110	45
450.181	215
450.251	-692
450.322	-508
450.392	-410
450.463	-498
450.533	-1017
450.604	-763
450.674	-1269
450.744	-1030
450.815	-1142
450.885	-1051
450.955	-1193
451.026	-965
451.096	-1789
451.166	-1345
451.237	794
451.307	5020
451.377	-58
451.447	-1606
451.518	-1712
451.588	-713
451.658	-627
451.728	-3
451.799	6691
451.869	4651
451.939	-726
452.009	-208
452.079	-1022
452.149	-553
452.219	806
452.289	7391
452.360	2174
452.430	-798
452.500	-380
452.570	355
452.640	2307
452.710	7124
452.780	7792
452.850	7241
452.920	4188
452.990	-560
453.060	277
453.129	973
453.199	912
453.269	10947
453.339	15999
453.409	21102
453.479	30700
453.549	38547
453.619	38578
453.688	7825
453.758	871
453.828	-681
453.898	-264
453.968	-284
454.037	-1122
454.087	-942
454.107	-877
454.168	-332
454.177	-266
454.247	-1282
454.249	-1261
454.316	-1010
454.330	-984
454.386	-928
454.411	697
454.456	3293
454.492	3101
454.525	2945
454.574	547
454.595	-503
454.655	-1043
454.665	-1127
454.734	-144
454.736	-97
454.804	694
454.817	1948
454.873	6877
454.898	6417
454.943	5397
454.979	3163
455.013	1207
455.060	163
455.082	-210
455.141	-44
455.152	-64
455.221	4774
455.222	4843
455.291	7315
455.303	7160
455.360	6214
455.384	7878
455.430	10761
455.465	7307
455.499	3834
455.546	5181
455.569	5717
455.627	3052
455.638	2611
455.707	-311
455.708	-301
455.777	-848
455.789	-727
455.846	-198
455.869	-456
455.916	-938
455.950	-912
455.985	-984
456.031	-670
456.054	-504
456.112	-638
456.124	-631
456.193	-384
456.193	-394
456.262	-739
456.274	-616
456.332	-37
456.355	341
456.401	1076
456.436	416
456.470	-408
456.516	-872
456.540	-1101
456.597	-1101
456.609	-1095
456.678	-621
456.678	-630
456.747	-1015
456.759	-999
456.817	-565
456.840	-690
456.886	-1065
456.920	-766
456.955	-402
457.001	-698
457.024	-925
457.082	-225
457.093	-30
457.162	525
457.163	538
457.232	616
457.243	507
457.301	-217
457.324	-462
457.370	-775
457.405	-426
457.439	-60
457.485	-298
457.508	-451
457.566	-572
457.577	-569
457.646	-188
457.647	-170
457.715	882
457.727	1125
457.784	3011
457.808	4379
457.853	6196
457.889	6093
457.922	5144
457.969	2716
457.991	2456
458.050	4650
458.060	4989
458.129	10581
458.130	10634
458.198	8877
458.211	7690
458.267	2124
458.292	900
458.336	130
458.372	451
458.405	1656
458.453	3183
458.474	4255
458.533	9876
458.543	10535
458.611	18386
458.614	18312
458.680	7301
458.694	5344
458.749	1665
458.775	1146
458.818	735
458.855	520
458.887	554
458.936	623
458.955	579
459.016	337
459.024	346
459.093	820
459.097	842
459.162	865
459.177	712
459.230	505
459.257	962
459.299	987
459.338	558
459.368	623
459.418	981
459.437	897
459.499	386
459.505	400
459.574	900
459.579	929
459.643	799
459.659	673
459.711	459
459.740	605
459.780	819
459.820	946
459.849	804
459.900	582
459.917	636
459.981	933
459.986	932
460.054	727
460.061	693
460.123	736
460.141	861
460.191	1244
460.222	1681
460.260	2280
460.302	2533
460.328	2092
460.382	1041
460.397	935
460.462	681
460.465	703
460.534	1869
460.543	1985
460.602	6791
460.623	9081
460.671	14280
460.703	19768
460.739	21339
460.783	16304
460.808	11799
460.864	1759
460.876	1058
460.944	1104
460.945	1099
461.013	1468
461.024	1389
461.081	1190
461.104	1250
461.150	1404
461.184	1403
461.218	1087
461.264	788
461.286	779
461.345	1013
461.355	1050
461.423	1038
461.425	1035
461.491	982
461.505	1020
461.559	2124
461.585	2705
461.628	4832
461.665	6949
461.696	8227
461.745	11037
461.764	9827
461.825	2638
461.832	2439
461.901	1665
461.905	1711
461.969	1497
461.985	1251
462.037	1700
462.065	2062
462.105	1919
462.145	1665
462.173	2499
462.225	3953
462.241	4264
462.305	6531
462.310	6448
462.378	4151
462.385	3833
462.446	2183
462.465	1939
462.514	2183
462.545	2052
462.582	1673
462.625	1340
462.650	1220
462.705	1209
462.718	1331
462.785	1954
462.786	1964
462.854	1965
462.865	2010
462.922	3425
462.945	4155
462.990	3353
463.025	2197
463.058	1810
463.104	1597
463.126	1383
463.184	738
463.194	881
463.262	2068
463.264	2103
463.330	2354
463.344	2427
463.398	2605
463.424	2605
463.466	2524
463.504	2708
463.533	2922
463.583	2741
463.601	2609
463.663	2547
463.669	2631
463.737	3643
463.743	3706
463.805	5237
463.823	5716
463.873	8043
463.903	9643
463.940	10964
463.982	12526
464.008	10367
464.062	4703
464.076	4228
464.142	2200
464.144	2199
464.211	2283
464.221	2320
464.279	2120
464.301	2011
464.347	2539
464.381	2916
464.414	3005
464.461	3180
464.482	3403
464.540	3859
464.550	3670
464.617	2538
464.620	2479
464.685	3701
464.699	4041
464.753	4001
464.779	3996
464.820	4039
464.859	3932
464.888	3813
464.938	3544
464.956	3739
465.018	4625
465.023	4554
465.091	3237
465.098	3102
465.158	2803
465.177	2755
465.226	3256
465.257	3516
465.293	3998
465.336	4513
465.361	4844
465.416	5642
465.428	5994
465.495	7897
465.496	7934
465.563	11315
465.575	11946
465.631	15046
465.654	16385
465.698	10738
465.734	5564
465.765	4696
465.813	3548
465.833	3701
465.893	4440
465.900	4386
465.968	3751
465.972	3692
466.035	4212
466.052	4366
466.102	3705
466.131	3290
466.170	3384
466.210	3466
466.237	3996
466.290	5143
466.304	5012
466.369	4176
466.372	4180
466.439	4062
466.449	4045
466.506	5237
466.528	5666
466.573	7465
466.607	8796
466.641	12886
466.687	18575
466.708	20824
466.766	27062
466.775	25275
466.842	11260
466.845	10573
466.909	7052
466.925	6233
466.977	5755
467.004	5494
467.044	5431
467.083	5359
467.111	5964
467.163	7064
467.178	7257
467.242	7995
467.245	7968
467.312	7079
467.321	6948
467.379	6824
467.400	6757
467.446	6953
467.480	7072
467.559	7248
467.638	5754
467.717	5213
467.796	7639
467.875	7395
467.955	6838
468.034	9370
468.113	20116
468.192	29768
468.271	9261
468.350	5744
468.429	6188
468.508	7195
468.588	5913
468.667	7029
468.746	6876
468.825	6229
468.904	5058
468.983	6006
469.062	8495
469.141	10546
469.220	5245
469.299	5031
469.378	4475
469.456	5880
469.535	4971
469.614	5320
469.693	4993
469.772	7358
469.851	9443
469.930	7717
470.009	4383
470.088	5561
470.166	6796
470.245	9829
470.324	12943
470.403	9562
470.482	7061
470.560	5553
470.639	6509
470.718	7401
470.797	5504
470.875	6593
470.954	8901
471.033	10787
471.111	5087
471.190	4958
471.269	3578
471.347	4036
471.426	4001
471.505	5100
471.583	4861
471.662	5193
471.740	4497
471.819	4937
471.898	3517
471.976	4733
472.055	3712
472.133	4645
472.212	7376
472.290	6951
472.369	4141
472.447	4715
472.526	3133
472.604	5401
472.683	4904
472.761	5406
472.839	5042
472.918	5796
472.996	4491
473.075	5648
473.153	5055
473.231	4097
473.310	4989
473.388	5531
473.466	4831
473.545	6219
473.623	8348
473.701	9845
473.780	5111
473.858	4081
473.936	6413
474.014	5228
474.093	5132
474.171	6714
474.249	9892
474.327	7651
474.405	3295
474.484	4718
474.562	4415
474.640	4545
474.718	5173
474.796	4743
474.874	5341
474.952	3457
475.030	4083
475.108	5161
475.187	4940
475.265	6419
475.343	9335
475.421	12021
475.499	4746
475.577	5130
475.655	5582
475.733	10060
475.811	16635
475.889	16456
475.966	12794
476.044	4876
476.122	7011
476.200	9895
476.278	9214
476.356	4433
476.434	5069
476.512	6869
476.590	9854
476.667	9155
476.745	4978
476.823	5355
476.901	4615
476.979	5053
477.056	5202
477.134	5466
477.212	5933
477.290	5298
477.367	4485
477.445	4241
477.523	3637
477.601	4287
477.678	3792
477.756	5482
477.834	5601
477.911	4962
477.989	3838
478.066	3483
478.144	4778
478.222	5768
478.299	10983
478.377	12899
478.454	4149
478.532	3878
478.609	4082
478.687	6278
478.764	3385
478.842	4278
478.919	5616
478.997	6301
479.074	2935
479.152	5115
479.229	5739
479.307	4561
479.384	3831
479.461	3944
479.539	3830
479.616	4057
479.694	3728
479.771	4663
479.848	4038
479.926	4619
480.003	7394
480.080	4818
480.157	4689
480.235	4160
480.312	4303
480.389	4452
480.467	6991
480.544	9345
480.621	4498
480.698	4869
480.775	5387
480.853	4908
480.930	4374
481.007	5369
481.084	5834
481.161	5760
481.238	5439
481.315	4739
481.392	4506
481.470	4998
481.547	5351
481.624	4186
481.701	4009
481.778	4595
481.855	5696
481.932	7585
482.009	11387
482.086	9334
482.163	4979
482.240	9023
482.317	15554
482.393	15287
482.470	4730
482.547	5447
482.624	3989
482.701	4431
482.778	4720
482.855	3951
482.932	3562
483.009	3832
483.085	5820
483.162	6324
483.239	5798
483.316	3919
483.393	3583
483.469	4367
483.546	5048
483.623	5317
483.699	3714
483.776	3827
483.853	4418
483.930	6805
484.006	16484
484.083	29119
484.160	15689
484.236	17082
484.313	13494
484.389	9472
484.466	8993
484.543	8863
484.619	8767
484.696	10591
484.772	10585
484.849	10905
484.925	9254
485.002	9174
485.078	9397
485.155	10296
485.231	8443
485.308	8875
485.384	8825
485.461	9572
485.537	16807
485.614	21932
485.690	10189
485.766	8076
485.843	9352
485.919	15567
485.995	19591
486.072	9086
486.148	7937
486.224	7502
486.301	7813
486.377	9711
486.453	9034
486.530	10607
486.606	11819
486.682	11208
486.758	15048
486.835	17831
486.911	12649
486.987	22591
487.063	34695
487.139	50714
487.215	35354
487.292	15792
487.368	8441
487.444	9614
487.520	12330
487.596	12513
487.672	16561
487.748	44559
487.824	72674
487.900	31186
487.976	11323
488.052	10255
488.128	12034
488.204	10553
488.280	9090
488.356	10161
488.432	19859
488.508	31695
488.584	13871
488.660	9450
488.736	8946
488.812	9190
488.888	12019
488.964	17344
489.039	42911
489.115	80865
489.191	57170
489.267	10279
489.343	8749
489.418	6502
489.494	7261
489.570	5348
489.646	9336
489.722	7236
489.797	7232
489.873	10161
489.949	22055
490.024	22546
490.100	7444
490.176	6630
490.251	10306
490.327	15880
490.403	9693
490.478	6760
490.554	5731
490.629	6979
490.705	6359
490.781	6463
490.856	6620
490.932	9017
491.007	9386
491.083	8169
491.158	6434
491.234	8216
491.309	17066
491.385	20214
491.460	7314
491.536	7914
491.611	6977
491.686	8943
491.762	11473
491.837	29788
491.913	55042
491.988	72913
492.063	110007
492.139	30783
492.214	11311
492.289	6385
492.365	4223
492.440	7153
492.515	6403
492.590	7047
492.666	5581
492.741	7674
492.816	10555
492.891	7393
492.967	5281
493.042	5361
493.117	4732
493.192	5263
493.267	8451
493.342	21806
493.418	32377
493.493	9124
493.568	5057
493.643	4355
493.718	6977
493.793	10408
493.868	14564
493.943	11873
494.018	6214
494.093	4411
494.168	5316
494.243	4227
494.318	4454
494.393	5332
494.468	3948
494.543	4741
494.618	6005
494.693	5895
494.768	4679
494.842	5585
494.917	3990
494.992	5139
495.067	4572
495.142	4708
495.217	5487
495.292	6193
495.366	6867
495.441	8642
495.516	12729
495.591	16225
495.665	61986
495.740	176758
495.815	108571
495.890	12118
495.964	6147
496.039	9309
496.114	7135
496.188	8232
496.263	8225
496.338	6468
496.412	6926
496.487	9467
496.561	10891
496.636	13191
496.710	7847
496.785	9029
496.860	10316
496.934	8486
497.009	8633
497.083	8024
497.158	8106
497.232	9679
497.307	12682
497.381	9702
497.455	10114
497.530	13719
497.604	11155
497.679	10881
497.753	16551
497.827	23006
497.902	22060
497.976	23700
498.050	42274
498.125	166193
498.199	222999
498.273	46796
498.348	31466
498.422	25529
498.496	21657
498.570	21534
498.645	12932
498.719	11571
498.793	14738
498.867	20439
498.941	22894
499.016	61137
499.090	188471
499.164	100130
499.238	11523
499.312	8036
499.386	11134
499.460	10886
499.534	9241
499.609	10012
499.683	13668
499.757	14824
499.831	24867
499.905	114933
499.979	144161
500.053	22181
500.127	21637
500.201	20785
500.275	12249
500.349	9339
500.422	10178
500.496	16194
500.570	35607
500.644	76418
500.718	136368
500.792	47399
500.866	9086
500.940	11398
501.013	10880
501.087	9396
501.161	17589
501.235	23669
501.309	35522
501.382	105074
501.456	124219
501.530	27552
501.603	36341
501.677	19337
501.751	6220
501.825	9537
501.898	14002
501.972	42181
502.046	36593
502.119	8736
502.193	18824
502.266	48331
502.340	30788
502.413	19031
502.487	40944
502.561	27231
502.634	10833
502.708	8455
502.781	8193
502.855	7596
502.928	4986
503.002	5800
503.075	5210
503.149	6243
503.222	5429
503.295	5521
503.369	7366
503.442	8871
503.516	26595
503.589	77380
503.662	60762
503.736	18271
503.809	34279
503.882	34823
503.956	44314
504.029	53170
504.102	33515
504.175	49780
504.249	20578
504.322	9576
504.395	8544
504.468	6498
504.542	5085
504.615	4308
504.688	4822
504.761	4214
504.834	7755
504.907	8814
504.980	16887
505.053	9051
505.127	7748
505.200	13619
505.273	7173
505.346	6431
505.419	4631
505.492	5276
505.565	4087
505.638	4220
505.711	3240
505.784	3433
505.857	3848
505.930	4928
506.003	2868
506.076	6533
506.149	6085
506.221	6955
506.294	7938
506.367	14426
506.440	61557
506.513	49341
506.586	10235
506.659	6371
506.731	4912
506.804	5723
506.877	9664
506.950	7872
507.022	4672
507.095	4180
507.168	8402
507.241	6822
507.313	4748
507.386	5555
507.459	10508
507.531	6463
507.604	4455
507.677	4752
507.749	2749
507.822	6336
507.894	10749
507.967	13924
508.040	6366
508.112	5964
508.185	6059
508.257	4939
508.330	9777
508.402	6321
508.475	4041
508.547	5125
508.620	4295
508.692	9097
508.765	6356
508.837	4049
508.909	4320
508.982	4028
509.054	5738
509.127	5178
509.199	4048
509.271	2971
509.344	3592
509.416	4034
509.488	3779
509.560	5098
509.633	4636
509.705	7326
509.777	6265
509.849	9500
509.922	6821
509.994	3453
510.066	5614
510.138	2447
510.210	8532
510.283	6869
510.355	6753
510.427	6477
510.499	5103
510.571	5283
510.643	5079
510.715	11243
510.787	12000
510.859	7870
510.931	5902
511.003	10057
511.076	11700
511.148	3705
511.219	4106
511.291	7622
511.363	10859
511.435	4889
511.507	2881
511.579	4579
511.651	5366
511.723	3337
511.795	3783
511.867	4380
511.939	4858
512.010	9820
512.082	11614
512.154	5127
512.226	4768
512.298	7531
512.369	11247
512.441	9956
512.513	11045
512.585	6592
512.656	7528
512.728	8470
512.800	5617
512.871	5735
512.943	5540
513.015	4278
513.086	5207
513.158	6963
513.230	6077
513.301	11495
513.373	19938
513.444	8867
513.516	4845
513.588	5770
513.659	6570
513.731	9852
513.802	7666
513.874	19000
513.945	42120
514.016	16771
514.088	5680
514.159	5914
514.231	9946
514.302	12152
514.374	7461
514.445	4668
514.516	14124
514.588	11244
514.659	7080
514.730	13322
514.802	13585
514.873	8145
514.944	10725
515.016	7377
515.087	8610
515.158	9361
515.229	16091
515.301	8070
515.372	12308
515.443	6691
515.514	5980
515.585	4286
515.656	5608
515.728	6985
515.799	4607
515.870	7111
515.941	7461
516.012	5155
516.083	8560
516.154	8582
516.225	16006
516.296	16963
516.367	11683
516.438	14090
516.509	18097
516.580	23873
516.651	71111
516.722	305343
516.793	228882
516.864	31563
516.935	26085
517.006	27135
517.077	37052
517.148	77657
517.219	278279
517.289	643960
517.360	175223
517.431	49124
517.502	12906
517.573	12353
517.643	11473
517.714	10812
517.785	12173
517.856	13258
517.926	17239
517.997	21645
518.068	26914
518.138	37149
518.209	49783
518.280	172255
518.350	781025
518.421	510685
518.492	47308
518.562	19924
518.633	15543
518.703	13737
518.774	22326
518.845	45951
518.915	58738
518.986	22136
519.056	16578
519.127	29495
519.197	44613
519.268	84183
519.338	63212
519.408	14428
519.479	19319
519.549	18355
519.620	11724
519.690	6897
519.760	6334
519.831	7544
519.901	7682
519.971	5985
520.042	6237
520.112	6852
520.182	9282
520.253	13882
520.323	6724
520.393	6523
520.463	10083
520.534	4107
520.604	12687
520.674	8616
520.744	7259
520.814	12242
520.885	17965
520.955	20030
521.025	81094
521.095	49548
521.165	8552
521.235	6873
521.305	4925
521.375	5925
521.445	7073
521.515	10948
521.585	13695
521.655	13651
521.725	10511
521.795	9710
521.865	3152
521.935	8788
522.005	7669
522.075	5168
522.145	7078
522.215	6196
522.285	9690
522.355	11696
522.424	22753
522.494	21756
522.564	12746
522.634	24686
522.704	92630
522.774	55516
522.843	9341
522.913	7638
522.983	10912
523.053	8118
523.122	8160
523.192	9531
523.262	44149
523.331	67496
523.401	11617
523.471	5618
523.540	6035
523.610	4995
523.680	4712
523.749	4678
523.819	6352
523.888	5809
523.958	4059
524.027	5021
524.097	6082
524.166	4534
524.236	5678
524.305	8143
524.375	3891
524.444	4405
524.514	6542
524.583	5076
524.653	4820
524.722	7762
524.791	4035
524.861	5989
524.930	3424
524.999	4670
525.069	9813
525.138	7073
525.207	6378
525.277	6572
525.346	5475
525.415	5848
525.484	4625
525.554	5050
525.623	5841
525.692	5904
525.761	6403
525.830	7174
525.900	8147
525.969	12266
526.038	18469
526.107	27168
526.176	94507
526.245	99033
526.314	34465
526.383	50532
526.452	76164
526.522	107016
526.591	159238
526.660	63088
526.729	33468
526.797	25378
526.867	45646
526.935	225179
527.004	381125
527.073	245312
527.142	24827
527.211	10148
527.280	8943
527.349	11732
527.418	5227
527.487	6226
527.555	4979
527.624	3904
527.693	2763
527.762	5033
527.831	3313
527.899	5232
527.968	3863
528.037	3678
528.106	6922
528.174	15117
528.243	12028
528.312	12597
528.380	26206
528.449	8188
528.518	4869
528.586	2461
528.655	4258
528.723	2854
528.792	3215
528.861	4208
528.929	2011
528.998	4466
529.066	3125
529.135	3386
529.203	1725
529.272	2055
529.340	3525
529.409	4738
529.477	2734
529.545	3650
529.614	6184
529.682	3297
529.751	6288
529.819	7898
529.887	4379
529.956	2837
530.024	4224
530.092	2588
530.161	5508
530.229	11254
530.297	6980
530.365	4649
530.434	3449
530.502	1944
530.570	3521
530.638	1814
530.707	2661
530.775	5933
530.843	3141
530.911	3900
530.979	3607
531.047	1808
531.115	3828
531.183	2834
531.252	3658
531.320	3007
531.388	3046
531.456	3564
531.524	1838
531.592	4134
531.660	5309
531.728	3689
531.796	2740
531.864	3560
531.932	3327
532.000	3135
532.067	4196
532.135	4776
532.203	6223
532.271	5751
532.339	11411
532.407	40420
532.475	33830
532.542	10628
532.610	10278
532.678	12194
532.746	49712
532.814	195382
532.881	70656
532.949	8279
533.017	5389
533.084	3865
533.152	3459
533.220	3860
533.287	4238
533.355	4754
533.423	4676
533.490	3914
533.558	3792
533.625	3080
533.693	4316
533.761	4122
533.828	4551
533.896	4162
533.963	10865
534.031	17158
534.098	22446
534.166	12823
534.233	3282
534.300	4887
534.368	4378
534.435	3064
534.503	4773
534.570	5340
534.637	4454
534.705	5110
534.772	5887
534.840	8414
534.907	38740
534.974	74029
535.041	12226
535.109	6035
535.176	4584
535.243	5479
535.310	3869
535.378	4331
535.445	4173
535.512	3248
535.579	3200
535.646	3075
535.714	3240
535.781	3966
535.848	4079
535.915	4909
535.982	2950
536.049	3757
536.116	5180
536.183	4010
536.250	4569
536.317	5111
536.384	6316
536.451	11307
536.518	15214
536.585	8046
536.652	10579
536.719	17628
536.786	16328
536.853	9818
536.920	12994
536.987	25794
537.053	23467
537.120	78181
537.187	107700
537.254	9797
537.321	4596
537.388	6194
537.454	3246
537.521	3611
537.588	3023
537.654	4717
537.721	4604
537.788	6736
537.855	3726
537.921	4931
537.988	5445
538.055	5347
538.121	4454
538.188	5033
538.254	9382
538.321	28488
538.388	21692
538.454	6479
538.521	4715
538.587	3072
538.654	4028
538.720	3989
538.787	4443
538.853	3895
538.920	7097
538.986	7060
539.053	5217
539.119	5926
539.185	6463
539.252	7968
539.318	13303
539.385	11490
539.451	5165
539.517	8068
539.583	8033
539.650	17001
539.716	69439
539.782	28371
539.849	6425
539.915	6500
539.981	6135
540.047	9123
540.114	7635
540.180	7607
540.246	6653
540.312	10042
540.378	23702
540.444	33010
540.510	22162
540.576	77930
540.643	36931
540.709	5924
540.775	5575
540.841	4794
540.907	6329
540.973	10496
541.039	10301
541.105	17123
541.171	7951
541.237	5041
541.303	6690
541.369	7982
541.435	9974
541.500	24823
541.566	18699
541.632	6071
541.698	4022
541.764	6182
541.830	3403
541.896	3926
541.961	4608
542.027	5043
542.093	5381
542.159	6249
542.224	5763
542.290	10684
542.356	20025
542.421	35554
542.487	14039
542.553	6411
542.618	6669
542.684	6729
542.750	6009
542.815	8548
542.881	11943
542.947	58086
543.012	67585
543.078	8204
543.143	4445
543.209	5676
543.274	5426
543.340	7323
543.405	17870
543.471	47711
543.536	11859
543.602	4742
543.667	2792
543.732	4940
543.798	3460
543.863	4688
543.928	2531
543.994	2871
544.059	4199
544.124	5067
544.190	4088
544.255	4324
544.320	4724
544.386	5510
544.451	10641
544.516	14960
544.581	10353
544.646	31806
544.712	80392
544.777	17881
544.842	6754
544.907	7340
544.972	6190
545.037	5541
545.102	6137
545.168	6534
545.233	6996
545.298	7901
545.363	8583
545.428	10748
545.493	20241
545.558	57537
545.623	30593
545.688	6712
545.753	6777
545.818	5769
545.883	6447
545.947	5663
546.012	6665
546.077	7138
546.142	8048
546.207	7829
546.272	11294
546.337	14219
546.401	8993
546.466	7266
546.531	5473
546.596	7477
546.661	8529
546.725	8403
546.790	5861
546.855	7227
546.919	5768
546.984	7373
547.049	7287
547.113	8668
547.178	7786
547.243	9099
547.307	9549
547.372	11589
547.436	13482
547.501	9954
547.565	10555
547.630	14031
547.695	14922
547.759	12364
547.823	12714
547.888	8877
547.952	10032
548.017	10211
548.081	12151
548.146	14729
548.210	13604
548.274	9949
548.339	9919
548.403	10331
548.468	9108
548.532	8487
548.596	8845
548.660	9163
548.725	11295
548.789	12844
548.853	13721
548.917	10606
548.982	12108
549.046	13850
549.110	9210
549.174	9670
549.238	8715
549.303	9614
549.367	10936
549.431	10396
549.495	9226
549.559	8672
549.623	9903
549.687	12427
549.751	19816
549.815	15638
549.879	14317
549.943	11289
550.007	12760
550.071	13832
550.135	15954
550.199	14648
550.263	13420
550.327	12806
550.391	14420
550.455	12822
550.519	13020
550.582	13689
550.646	18257
550.710	22915
550.774	13898
550.838	14558
550.901	14654
550.965	16741
551.029	17007
551.093	19910
551.156	22754
551.220	37328
551.284	52878
551.347	30630
551.411	32010
551.475	42660
551.538	17317
551.602	14981
551.666	13768
551.729	11159
551.793	12554
551.856	11273
551.920	11368
551.983	11430
552.047	10715
552.110	11636
552.174	10701
552.237	12418
552.301	10867
552.364	10466
552.428	11089
552.491	10673
552.554	11417
552.618	12580
552.681	13528
552.745	14481
552.808	23866
552.871	40853
552.934	24167
552.998	13546
553.061	12870
553.124	11811
553.187	10323
553.251	11330
553.314	11171
553.377	11701
553.440	12488
553.503	17489
553.567	27543
553.630	13684
553.693	10367
553.756	10954
553.819	10379
553.882	9561
553.945	10085
554.008	10070
554.071	9205
554.134	10087
554.197	9000
554.260	9364
554.323	11142
554.386	10751
554.449	8995
554.512	10567
554.575	8387
554.638	10313
554.701	9782
554.764	9337
554.827	8926
554.889	8017
554.952	8116
555.015	7541
555.078	8398
555.141	9006
555.203	8627
555.266	9025
555.329	9493
555.391	8836
555.454	9512
555.517	10079
555.580	8064
555.642	6920
555.705	7305
555.768	8128
555.830	7991
555.893	6948
555.955	8110
556.018	7297
556.080	6547
556.143	8057
556.206	7645
556.268	8930
556.330	8723
556.393	8988
556.455	8419
556.518	10803
556.580	13794
556.643	8666
556.705	8193
556.767	6618
556.830	8153
556.892	9343
556.955	17948
557.017	15693
557.079	7632
557.142	7649
557.204	10177
557.266	24142
557.328	26508
557.391	8391
557.453	6051
557.515	6466
557.577	9502
557.639	13358
557.701	7178
557.764	5770
557.826	7089
557.888	8865
557.950	8518
558.012	9986
558.074	11634
558.136	25551
558.198	80097
558.260	39511
558.322	11448
558.384	13253
558.446	15945
558.508	16912
558.570	23308
558.632	37771
558.694	68337
558.756	53325
558.818	130933
558.880	467711
558.942	187083
559.003	88894
559.065	56212
559.127	18143
559.189	17413
559.251	18462
559.312	25318
559.374	57462
559.436	250829
559.498	178240
559.559	23665
559.621	18322
559.683	19121
559.744	29705
559.806	97372
559.868	206883
559.929	46255
559.991	18663
560.052	23981
560.114	73850
560.176	61702
560.237	39755
560.299	87616
560.360	26140
560.422	8149
560.483	8395
560.545	7125
560.606	6197
560.667	6093
560.729	5976
560.790	5661
560.852	6401
560.913	6553
560.974	6772
561.036	4655
561.097	6121
561.158	7194
561.220	7355
561.281	7730
561.342	6624
561.403	9354
561.465	11062
561.526	33543
561.587	64595
561.648	15540
561.709	7553
561.771	6460
561.832	6756
561.893	6269
561.954	5633
562.015	5050
562.076	5938
562.137	5536
562.198	5781
562.259	5965
562.320	6348
562.381	6398
562.442	12913
562.503	11446
562.564	5335
562.625	5603
562.686	5441
562.747	5983
562.808	5477
562.869	4579
562.930	7146
562.991	7410
563.051	6315
563.112	6221
563.173	6195
563.234	4994
563.294	5448
563.355	5630
563.416	6524
563.477	5419
563.537	5694
563.598	5469
563.659	5633
563.720	6577
563.780	6659
563.841	7400
563.901	6842
563.962	4850
564.023	6048
564.083	5398
564.144	6865
564.204	6264
564.265	6474
564.325	7281
564.386	11545
564.446	13145
564.507	6062
564.567	5623
564.628	5270
564.688	5135
564.749	5361
564.809	6443
564.869	7605
564.930	5047
564.990	5881
565.050	4937
565.111	5295
565.171	4359
565.231	4498
565.292	5177
565.352	4547
565.412	5862
565.472	5866
565.532	6366
565.593	5669
565.653	5882
565.713	5464
565.773	5811
565.833	8152
565.893	14676
565.953	6652
566.013	5139
566.074	6469
566.134	7645
566.194	12449
566.254	15016
566.314	10199
566.374	5350
566.434	7069
566.494	5806
566.554	5456
566.614	6122
566.673	6665
566.733	7156
566.793	7496
566.853	6611
566.913	7688
566.973	7338
567.033	8543
567.092	7572
567.152	7883
567.212	8544
567.272	8310
567.331	8343
567.391	8624
567.451	9731
567.511	11887
567.570	12171
567.630	8985
567.690	7809
567.749	8154
567.809	8533
567.868	10757
567.928	10761
567.988	13004
568.047	13946
568.107	17023
568.166	25028
568.226	38397
568.285	60758
568.345	53953
568.404	40962
568.464	32442
568.523	28459
568.582	28481
568.642	31776
568.701	38317
568.761	55967
568.820	100449
568.879	103231
568.939	74329
568.998	51808
569.057	36318
569.116	28120
569.176	21779
569.235	16567
569.294	14428
569.353	12067
569.413	11061
569.472	9632
569.531	8688
569.590	7397
569.649	6912
569.708	7253
569.767	7413
569.827	7606
569.886	7850
569.945	6196
570.004	6747
570.063	5320
570.122	6508
570.181	7350
570.240	7845
570.299	6101
570.358	5666
570.417	5865
570.475	5910
570.534	5791
570.593	6865
570.652	5688
570.711	6371
570.770	5352
570.829	6346
570.887	6600
570.946	8435
571.005	5217
571.064	5227
571.122	6050
571.181	6594
571.240	4809
571.299	4662
571.357	3858
571.416	5085
571.475	5067
571.533	5702
571.592	4161
571.650	5041
571.709	3494
571.768	4954
571.826	5201
571.885	4489
571.943	3338
572.002	4213
572.060	3853
572.119	3305
572.177	3867
572.236	3294
572.294	2921
572.352	2948
572.411	3585
572.469	3398
572.528	3338
572.586	4201
572.644	4774
572.703	6833
572.761	3771
572.819	4267
572.877	4232
572.936	3829
572.994	3288
573.052	3242
573.110	3450
573.169	3914
573.227	3006
573.285	3971
573.343	2610
573.401	3460
573.459	3564
573.517	3402
573.576	3230
573.634	3554
573.692	3563
573.750	4500
573.808	2584
573.866	4191
573.924	4162
573.982	5336
574.040	3602
574.098	3774
574.155	3019
574.213	3171
574.271	3261
574.329	4193
574.387	2527
574.445	2421
574.503	2454
574.560	1960
574.618	1926
574.676	2765
574.734	3133
574.792	3187
574.849	3058
574.907	2389
574.965	2571
575.022	2373
575.080	2198
575.138	3929
575.195	3514
575.253	2585
575.311	4649
575.368	4271
575.426	2465
575.483	2802
575.541	2569
575.598	3147
575.656	3244
575.713	3771
575.771	3117
575.828	2832
575.886	2255
575.943	3488
576.001	3347
576.058	2854
576.115	3319
576.173	4571
576.230	5808
576.287	7094
576.345	5731
576.402	3429
576.459	2811
576.517	3504
576.574	3488
576.631	4062
576.688	2816
576.746	2840
576.803	2512
576.860	3441
576.917	2482
576.974	2447
577.031	2560
577.089	3511
577.146	2442
577.203	3128
577.260	3341
577.317	3492
577.374	3975
577.431	3961
577.488	3108
577.545	3008
577.602	2692
577.659	3198
577.716	2883
577.773	2506
577.830	2531
577.886	3156
577.943	3030
578.000	2961
578.057	2500
578.114	2874
578.171	2702
578.227	2934
578.284	3011
578.341	3360
578.398	3143
578.454	3481
578.511	2998
578.568	4499
578.625	3077
578.681	2105
578.738	2034
578.794	3212
578.851	3145
578.908	2379
578.964	2165
579.021	3077
579.077	1967
579.134	3300
579.190	2382
579.247	2531
579.303	2646
579.360	2487
579.416	2097
579.473	2485
579.529	1853
579.586	2887
579.642	3165
579.698	1669
579.755	3314
579.811	3901
579.867	3514
579.924	2430
579.980	2575
580.036	3004
580.093	2616
580.149	2570
580.205	2731
580.261	2447
580.317	2824
580.374	3390
580.430	4301
580.486	3695
580.542	3134
580.598	3682
580.619	3479
580.654	3128
580.692	2798
580.710	2642
580.765	2192
580.767	2178
580.823	2596
580.838	2372
580.879	1776
580.911	2484
580.935	3003
580.984	2103
580.991	1984
581.047	3295
581.057	3160
581.103	2533
581.130	2767
581.159	3028
581.203	3025
581.215	3016
581.270	2835
581.276	2839
581.326	2962
581.349	3050
581.382	3142
581.422	3187
581.438	3208
581.494	2863
581.494	2865
581.550	3219
581.567	3650
581.606	4525
581.640	4212
581.661	4028
581.713	4151
581.717	4171
581.773	2817
581.786	2786
581.829	2558
581.859	2827
581.885	3109
581.932	2743
581.940	2675
581.996	3034
582.004	3190
582.052	4010
582.077	3521
582.107	2986
582.150	2994
582.163	2979
582.219	2916
582.223	2899
582.274	2820
582.296	2847
582.330	2826
582.368	3090
582.386	3224
582.441	2982
582.441	2981
582.497	2782
582.514	2929
582.552	3469
582.587	3500
582.608	3452
582.659	2996
582.663	2950
582.719	3543
582.732	3406
582.774	3132
582.805	2928
582.830	2718
582.877	3760
582.885	3948
582.941	3065
582.950	3113
582.996	3036
583.023	3226
583.052	3725
583.095	3231
583.107	3032
583.162	3112
583.168	3190
583.218	3955
583.240	3724
583.273	3231
583.313	3047
583.328	3136
583.384	2959
583.385	2985
583.439	3131
583.458	3033
583.494	3124
583.531	3078
583.549	3014
583.603	3313
583.605	3324
583.660	3488
583.676	3408
583.715	3077
583.748	3159
583.770	3298
583.820	3574
583.825	3578
583.881	3218
583.893	3288
583.936	3708
583.965	3640
583.991	3577
584.038	3273
584.046	3223
584.101	3946
584.110	3844
584.156	3183
584.183	3119
584.211	3189
584.255	3864
584.266	4019
584.321	3370
584.328	3475
584.376	4339
584.400	4442
584.431	4478
584.472	3940
584.486	3829
584.541	4362
584.545	4323
584.596	3198
584.617	3220
584.651	3883
584.689	4637
584.706	4636
584.761	4218
584.762	4218
584.816	4922
584.834	5038
584.871	5162
584.906	5212
584.926	5113
584.978	4678
584.980	4673
585.035	5167
585.051	5131
585.090	5169
585.123	5725
585.145	6036
585.195	6538
585.200	6606
585.254	6644
585.267	6920
585.309	7649
585.340	8253
585.364	8847
585.412	9190
585.419	9181
585.473	10283
585.484	10299
585.528	11191
585.556	13615
585.583	17041
585.628	25003
585.637	27940
585.692	58657
585.700	66030
585.747	95383
585.772	77083
585.801	49539
585.845	18903
585.856	13671
585.910	9308
585.917	8969
585.965	8140
585.989	7803
586.019	7263
586.061	6562
586.074	6459
586.128	6638
586.133	6715
586.183	7206
586.205	7317
586.237	7661
586.277	7211
586.292	7060
586.346	7281
586.349	7283
586.401	7415
586.421	7524
586.455	7571
586.493	7833
586.509	8223
586.564	10027
586.565	10113
586.618	14120
586.637	14177
586.672	13018
586.709	10512
586.727	9451
586.781	9359
586.781	9362
586.835	8419
586.853	8235
586.889	8323
586.925	8025
586.944	7824
586.996	8904
586.998	8936
587.052	8534
587.068	8625
587.106	9537
587.140	10273
587.161	10338
587.212	10023
587.215	10027
587.269	10402
587.284	10422
587.323	10328
587.356	10158
587.377	10440
587.427	11677
587.431	11695
587.485	11455
587.499	11365
587.539	12254
587.571	13092
587.593	13479
587.643	14203
587.648	14302
587.702	15340
587.715	15547
587.755	16179
587.786	16778
587.810	17314
587.858	18696
587.864	18902
587.917	20487
587.930	20904
587.971	23152
588.001	24775
588.025	25944
588.073	28620
588.079	29165
588.133	33614
588.145	34729
588.187	37741
588.217	39915
588.241	42981
588.288	49217
588.295	50114
588.348	58532
588.360	60421
588.402	69477
588.431	76055
588.456	82338
588.503	95881
588.510	98289
588.564	118947
588.575	123591
588.617	145349
588.646	161599
588.671	181765
588.718	225789
588.725	237208
588.778	339362
588.789	365319
588.832	549848
588.861	699519
588.886	882123
588.932	1273183
588.939	1295808
588.993	1338770
589.004	1324530
589.047	994732
589.075	737503
589.100	572918
589.147	331545
589.154	315415
589.207	234326
589.218	220980
589.261	207864
589.290	203952
589.314	212447
589.361	237270
589.368	248245
589.421	353770
589.433	381897
589.475	605252
589.504	790160
589.528	936412
589.576	1198443
589.582	1172868
589.635	784249
589.647	690368
589.689	397096
589.718	229497
589.742	180533
589.790	110186
589.795	106145
589.849	76884
589.861	71141
589.902	60038
589.932	52209
589.955	47662
590.004	38825
590.009	38256
590.062	33192
590.075	32013
590.115	29312
590.146	27408
590.168	26357
590.218	24071
590.222	23957
590.275	22494
590.289	22142
590.328	21090
590.360	20113
590.381	19583
590.431	18347
590.435	18273
590.488	16731
590.503	16360
590.541	16114
590.574	16053
590.594	15917
590.645	15100
590.647	15088
590.700	14409
590.716	14267
590.753	13463
590.787	12629
590.806	12907
590.859	13798
590.859	13801
590.912	12603
590.930	12316
590.965	12698
591.001	12938
591.018	12670
591.071	11709
591.072	11682
591.124	12643
591.143	12927
591.177	12154
591.214	11309
591.230	11546
591.283	12186
591.285	12193
591.336	12513
591.356	12705
591.389	12752
591.427	12470
591.442	12242
591.495	11388
591.498	11306
591.547	10604
591.569	10323
591.600	10282
591.640	10073
591.653	10226
591.706	10956
591.711	11005
591.759	10601
591.782	10399
591.811	10841
591.853	11381
591.864	11125
591.917	9749
591.924	9534
591.969	9875
591.995	10055
592.022	10050
592.066	9973
592.075	10110
592.127	10929
592.137	11066
592.180	11165
592.208	11177
592.233	10871
592.279	10212
592.285	10198
592.338	10016
592.350	9956
592.390	10029
592.421	10072
592.443	9892
592.491	9441
592.495	9459
592.548	9542
592.562	9549
592.600	9220
592.633	8927
592.653	9339
592.704	10336
592.705	10379
592.775	9548
592.846	9671
592.916	8901
592.987	10559
593.058	9936
593.128	9294
593.199	9736
593.270	8050
593.341	7986
593.411	9216
593.482	9533
593.553	9632
593.623	7962
593.694	8307
593.764	9059
593.835	9572
593.906	8271
593.976	8815
594.047	8513
594.117	9991
594.188	8008
594.258	9348
594.329	8132
594.399	9058
594.470	8073
594.540	9730
594.611	8936
594.681	8806
594.751	8752
594.822	9925
594.892	9903
594.963	10577
595.033	9354
595.103	9381
595.174	9355
595.244	12455
595.314	11706
595.384	9629
595.455	9463
595.525	10261
595.595	10270
595.665	9977
595.736	10058
595.806	10434
595.876	9160
595.946	10527
596.016	10006
596.087	10375
596.157	9627
596.227	9882
596.297	10759
596.367	11106
596.437	11288
596.507	13170
596.577	12782
596.647	10885
596.717	11287
596.787	11904
596.857	11124
596.927	11819
596.997	10229
597.067	11486
597.137	13138
597.207	12071
597.277	10520
597.347	11963
597.417	10834
597.487	12018
597.557	12133
597.626	11530
597.696	11669
597.766	12839
597.836	12461
597.906	10500
597.975	10185
598.045	10928
598.115	10781
598.185	10868
598.254	12394
598.324	12779
598.394	12258
598.464	12893
598.533	12472
598.603	12017
598.672	11508
598.742	12231
598.812	11121
598.881	11876
598.951	11480
599.020	11777
599.090	11903
599.159	12085
599.229	10780
599.299	11183
599.368	11678
599.437	10886
599.507	10667
599.576	10950
599.646	10362
599.715	10776
599.785	10163
599.854	10179
599.924	10223
599.993	10190
600.062	9412
600.132	10644
600.201	10080
600.270	12134
600.340	12209
600.409	11431
600.478	10616
600.547	11511
600.617	10464
600.686	8800
600.755	8802
600.824	8847
600.894	8630
600.963	8679
601.032	7835
601.101	8363
601.170	7871
601.239	6858
601.308	7296
601.378	8462
601.447	7580
601.516	7726
601.585	8444
601.654	8530
601.723	7963
601.792	8623
601.861	7250
601.930	8942
601.999	8563
602.068	8691
602.137	9148
602.206	8063
602.275	8832
602.343	9650
602.412	8993
602.481	8294
602.550	8565
602.619	8828
602.688	8069
602.756	8056
602.825	9016
602.894	8988
602.963	9441
603.032	8673
603.100	9107
603.169	9475
603.238	8916
603.307	8802
603.375	8477
603.444	9994
603.513	9361
603.581	9546
603.650	9051
603.719	9507
603.787	8654
603.856	10497
603.924	9153
603.993	9965
604.061	9252
604.130	11002
604.198	10480
604.267	11716
604.335	9975
604.404	10942
604.472	10286
604.541	11342
604.609	10508
604.678	10675
604.746	10038
604.815	11144
604.883	11219
604.951	12511
605.020	10806
605.088	11878
605.156	12448
605.225	11815
605.293	11663
605.361	11863
605.429	11113
605.498	12830
605.566	12682
605.634	13722
605.702	12798
605.771	13129
605.839	13598
605.907	14295
605.975	13281
606.043	13376
606.111	12809
606.180	13028
606.248	12231
606.316	13091
606.384	11531
606.452	15368
606.520	14369
606.588	13736
606.656	12658
606.724	12688
606.792	12254
606.860	11786
606.928	9959
606.996	10550
607.064	9852
607.132	10564
607.200	10423
607.267	10366
607.335	10705
607.403	11248
607.471	10047
607.539	11331
607.607	10773
607.674	10690
607.742	9542
607.810	9991
607.878	10262
607.946	9692
608.013	9779
608.081	11094
608.149	10075
608.216	9868
608.284	10873
608.352	10175
608.419	9958
608.487	12759
608.555	10677
608.622	11528
608.690	11354
608.757	12575
608.825	12076
608.893	12376
608.960	11474
609.028	11815
609.095	12492
609.163	11052
609.230	9354
609.298	10761
609.365	9467
609.432	11559
609.500	11433
609.567	12569
609.635	13798
609.702	15074
609.769	13738
609.837	12407
609.904	10449
609.971	11369
610.039	15925
610.106	20039
610.173	33064
610.241	72895
610.308	33261
610.375	12915
610.442	9706
610.509	9670
610.577	11253
610.644	10045
610.711	10462
610.778	11398
610.845	11160
610.912	11390
610.980	11477
611.047	12275
611.114	12244
611.181	11776
611.248	10370
611.315	13816
611.382	10922
611.449	12920
611.516	14409
611.583	14061
611.650	13430
611.717	14757
611.784	14885
611.851	17694
611.918	20864
611.984	26706
612.051	38561
612.118	72890
612.185	172073
612.252	80698
612.319	20800
612.386	17999
612.452	15204
612.519	15754
612.586	15681
612.653	15018
612.719	14236
612.786	13405
612.853	13471
612.919	12837
612.986	13590
613.053	12036
613.120	10467
613.186	10211
613.253	12071
613.319	11401
613.386	10806
613.453	11356
613.519	12494
613.586	13875
613.652	16602
613.719	13784
613.785	12819
613.852	11485
613.918	11097
613.985	13459
614.051	12981
614.118	15609
614.184	13893
614.250	11607
614.317	11494
614.383	11584
614.449	10366
614.516	12518
614.582	11527
614.648	11182
614.715	11048
614.781	11215
614.847	11548
614.914	11322
614.980	10636
615.046	11348
615.112	11161
615.179	11263
615.245	12295
615.311	13688
615.377	17646
615.443	16053
615.509	12103
615.575	13453
615.642	12205
615.708	15153
615.774	17370
615.840	22206
615.906	26530
615.972	38449
616.038	61552
616.104	101321
616.170	225573
616.236	148067
616.302	31119
616.368	22811
616.434	16374
616.500	16437
616.565	18406
616.631	21822
616.697	17028
616.763	19892
616.829	27888
616.895	47115
616.961	37794
617.026	16916
617.092	11249
617.158	12473
617.224	11568
617.289	12130
617.355	10190
617.421	10314
617.487	11027
617.552	9632
617.618	8737
617.684	9924
617.749	11925
617.815	9971
617.880	9424
617.946	9911
618.012	9266
618.077	9317
618.143	9118
618.208	10861
618.274	10575
618.339	10778
618.405	8017
618.470	9909
618.536	8409
618.601	9560
618.667	8205
618.732	8466
618.798	7274
618.863	8593
618.928	8124
618.994	9189
619.059	9816
619.124	11320
619.190	9164
619.255	8699
619.320	8781
619.386	8279
619.451	7158
619.516	8614
619.581	7348
619.647	7740
619.712	7795
619.777	7465
619.842	7859
619.907	7355
619.972	7486
620.038	8430
620.103	6539
620.168	6326
620.233	8041
620.298	7991
620.363	7335
620.428	8034
620.493	7374
620.558	7299
620.623	7692
620.688	7830
620.753	7692
620.818	8154
620.883	7918
620.948	8188
621.013	7656
621.078	7177
621.143	6962
621.207	9804
621.272	7916
621.337	8091
621.402	8862
621.467	10196
621.532	9893
621.596	8979
621.661	8128
621.726	8255
621.791	7914
621.855	9070
621.920	8940
621.985	8383
622.049	10211
622.114	8115
622.179	8980
622.243	9911
622.308	8425
622.373	11037
622.437	9889
622.502	9026
622.566	9451
622.631	7871
622.695	9626
622.760	9336
622.824	8869
622.889	9291
622.953	9407
623.018	13324
623.082	11233
623.147	9217
623.211	8952
623.276	9639
623.340	6866
623.404	9108
623.469	8372
623.533	8934
623.597	7670
623.662	8367
623.726	6711
623.790	7856
623.854	6901
623.919	8008
623.983	7553
624.047	8457
624.111	7601
624.176	8088
624.240	6749
624.304	8854
624.368	7570
624.432	7866
624.496	8491
624.560	8977
624.625	8517
624.689	8351
624.753	7654
624.817	8011
624.881	7078
624.945	7223
625.009	7269
625.073	7838
625.137	7034
625.201	9941
625.265	8785
625.329	8368
625.393	7438
625.456	7745
625.520	7832
625.584	8876
625.648	8781
625.712	11258
625.776	16201
625.839	18362
625.903	9058
625.967	7354
626.031	11338
626.095	12581
626.158	7026
626.222	5453
626.286	6398
626.349	4514
626.413	4225
626.477	6919
626.540	5246
626.604	5211
626.668	6478
626.731	5219
626.795	5012
626.858	5931
626.922	4499
626.986	6657
627.049	3535
627.113	6645
627.176	5128
627.240	5802
627.303	5537
627.366	5624
627.430	5015
627.493	5298
627.557	4177
627.620	6286
627.684	4786
627.747	5551
627.810	3145
627.874	5426
627.937	3529
628.000	7125
628.064	5122
628.127	3438
628.190	4574
628.253	5222
628.317	4505
628.380	4936
628.443	3693
628.506	4277
628.569	4024
628.632	3902
628.696	4431
628.759	3119
628.822	2930
628.885	3750
628.948	3870
629.011	4298
629.074	3037
629.137	3279
629.200	2900
629.263	5009
629.326	2851
629.389	3033
629.452	3393
629.515	3988
629.578	2600
629.641	5015
629.704	3690
629.767	3943
629.830	3890
629.892	3979
629.955	3361
630.018	4780
630.081	2605
630.144	5738
630.207	2277
630.269	5362
630.332	3544
630.395	4347
630.458	3878
630.520	2246
630.583	3621
630.646	4045
630.708	2387
630.771	2292
630.834	3767
630.896	3308
630.959	3066
631.021	3063
631.084	1865
631.146	2890
631.209	3930
631.272	3248
631.334	2949
631.397	3271
631.459	1665
631.522	3620
631.584	3390
631.646	3878
631.709	3481
631.771	4543
631.834	3677
631.896	3807
631.958	1945
632.021	3798
632.083	1012
632.145	3864
632.208	3013
632.270	3540
632.332	2827
632.395	1753
632.457	2992
632.519	3337
632.581	3504
632.643	1706
632.706	3496
632.768	2054
632.830	3130
632.892	3238
632.954	2614
633.016	3638
633.078	2412
633.141	2702
633.203	2708
633.265	3435
633.327	2409
633.389	1976
633.451	2680
633.513	3174
633.575	3156
633.637	3837
633.698	2550
633.760	3277
633.822	2713
633.884	3191
633.946	2206
634.008	2735
634.070	2014
634.132	3333
634.193	2235
634.255	3571
634.317	2487
634.379	4193
634.441	1657
634.502	2711
634.564	3315
634.626	2082
634.687	2768
634.749	2661
634.811	2594
634.873	1550
634.934	2435
634.996	4088
635.057	1403
635.119	1344
635.181	2171
635.242	4152
635.304	822
635.365	3911
635.427	1728
635.488	2402
635.550	2101
635.611	2432
635.673	553
635.734	3739
635.796	2463
635.857	5235
635.918	1639
635.980	4926
636.041	1902
636.102	3249
636.164	2571
636.225	4217
636.286	1015
636.348	3125
636.409	2392
636.470	2128
636.531	2508
636.593	1868
636.654	3091
636.715	1887
636.776	1217
636.838	2257
636.899	2125
636.960	2809
637.021	844
637.082	2001
637.143	2336
637.204	1887
637.265	1303
637.326	1770
637.387	2436
637.448	967
637.509	2098
637.570	2114
637.631	2693
637.692	821
637.753	840
637.814	2434
637.875	848
637.936	3283
637.997	1118
638.058	2126
638.119	1710
638.179	1927
638.240	895
638.301	1943
638.362	604
638.423	1775
638.483	2296
638.544	120
638.605	1975
638.666	895
638.726	1940
638.787	2729
638.848	1229
638.908	1401
638.969	2439
639.030	1764
639.090	285
639.151	1198
639.211	2284
639.272	2878
639.332	3581
639.393	2101
639.453	346
639.514	2284
639.574	1476
639.635	1724
639.695	1926
639.756	733
639.816	2612
639.877	2283
639.937	3781
639.997	4640
640.058	93
640.118	763
640.178	1841
640.239	1156
640.299	1073
640.359	1924
640.420	1421
640.480	2628
640.540	1095
640.600	1446
640.661	1536
640.721	1086
640.781	2779
640.841	510
640.901	2278
640.961	2137
641.021	1753
641.082	1286
641.142	2513
641.202	3058
641.262	-955
641.322	2345
641.382	607
641.442	2083
641.502	1542
641.562	2160
641.622	-157
641.682	1510
641.742	1620
641.802	1848
641.861	1584
641.921	642
641.981	2515
642.041	1922
642.101	2098
642.161	285
642.221	417
642.280	1937
642.340	328
642.400	-289
642.460	2001
642.519	724
642.579	1278
642.639	1807
642.698	-1136
642.758	3151
642.818	1310
642.877	312
642.937	1205
642.997	1367
643.056	2529
643.116	358
643.175	2205
643.235	425
643.294	1100
643.354	2971
643.414	2925
643.473	4757
643.532	4518
643.592	8072
643.651	12352
643.711	19489
643.770	30831
643.830	61901
643.889	135340
643.948	36527
644.008	5715
644.067	2748
644.126	1878
644.186	2763
644.245	1943
644.304	528
644.363	3228
644.423	436
644.482	1677
644.541	2433
644.600	-201
644.659	3437
644.719	1797
644.778	3844
644.837	5226
644.896	11610
644.955	26018
645.014	9628
645.073	2108
645.132	1064
645.191	1566
645.250	1131
645.309	2395
645.368	739
645.427	2540
645.486	1807
645.545	4486
645.604	2335
645.663	1708
645.722	1450
645.781	2926
645.840	3698
645.898	4610
645.957	8017
646.016	9039
646.075	15640
646.134	25096
646.192	60094
646.251	95755
646.310	16433
646.369	3247
646.427	2437
646.486	1503
646.545	1568
646.603	1538
646.662	1998
646.721	1084
646.779	887
646.838	126
646.896	3118
646.955	2806
647.014	3801
647.072	5576
647.131	15961
647.189	8155
647.248	880
647.306	858
647.365	2531
647.423	-1060
647.481	2454
647.540	-1088
647.598	1744
647.657	210
647.715	1123
647.773	149
647.832	2170
647.890	-1034
647.948	-124
648.007	1729
648.065	10
648.123	-99
648.181	1959
648.240	1108
648.298	400
648.356	149
648.414	1012
648.472	907
648.531	1085
648.589	58
648.647	579
648.705	169
648.763	855
648.821	760
648.879	881
648.937	1159
648.995	3070
649.053	2124
649.111	5435
649.169	6668
649.227	10886
649.285	17648
649.343	48989
649.401	31368
649.459	8309
649.516	4771
649.574	1338
649.632	3339
649.690	3857
649.748	2596
649.806	2319
649.863	4567
649.921	11479
649.979	7311
650.037	1694
650.094	-580
650.152	1479
650.210	23
650.268	445
650.325	684
650.383	535
650.440	-225
650.498	1369
650.556	440
650.613	-44
650.671	-263
650.728	1204
650.786	11
650.843	1071
650.901	-1209
650.958	297
651.016	-383
651.073	867
651.131	13
651.188	-420
651.246	477
651.303	576
651.360	958
651.418	127
651.475	312
651.532	-204
651.590	584
651.647	217
651.704	-697
651.762	102
651.819	352
651.876	182
651.933	-133
651.990	589
652.048	-1704
652.105	-265
652.162	126
652.219	219
652.276	163
652.333	747
652.390	-1049
652.448	728
652.505	489
652.562	-32
652.619	231
652.676	437
652.733	1115
652.790	-83
652.847	-764
652.904	704
652.961	-1248
653.017	-179
653.074	434
653.131	782
653.188	-1366
653.245	544
653.302	141
653.359	-791
653.415	6
653.472	-210
653.529	407
653.586	-320
653.642	-715
653.699	750
653.756	-501
653.813	420
653.869	-222
653.926	-15
653.983	-988
654.039	733
654.096	-492
654.152	1690
654.209	-826
654.266	974
654.322	-297
654.379	961
654.435	550
654.492	-335
654.548	468
654.605	1190
654.661	1391
654.717	888
654.774	-167
654.830	-422
654.887	-684
654.943	-574
655.000	968
655.056	-118
655.112	555
655.168	-875
655.225	-775
655.281	1038
655.337	-108
655.394	631
655.450	22
655.506	491
655.562	546
655.618	1722
655.675	-725
655.731	-11
655.787	-618
655.843	671
655.899	-685
655.955	941
656.011	238
656.067	-293
656.123	-47
656.179	832
656.235	1358
656.291	-415
656.347	514
656.403	512
656.459	-334
656.515	-100
656.571	-662
656.627	279
656.683	367
656.739	986
656.795	160
656.850	667
656.906	-261
656.962	1172
657.018	-635
657.074	115
657.129	63
657.185	1024
657.241	1136
657.297	611
657.352	529
657.408	193
657.464	572
657.519	-413
657.575	-367
657.630	245
657.686	-292
657.742	-543
657.797	-17
657.853	-330
657.908	310
657.964	-679
658.019	64
658.075	455
658.130	318
658.186	-555
658.241	-269
658.297	-665
658.352	-1046
658.407	300
658.463	-576
658.518	369
658.573	-680
658.629	-910
658.684	-1170
658.739	-283
658.795	-1399
658.850	288
658.905	-1372
658.960	-137
659.016	-1167
659.071	1067
659.126	-1368
659.181	299
659.236	1711
659.291	1382
659.346	-846
659.401	44
659.457	171
659.512	-116
659.567	926
659.622	-204
659.677	-452
659.732	-1268
659.787	-851
659.842	195
659.897	392
659.952	600
660.007	-608
660.061	31
660.116	-1812
660.171	-177
660.226	-840
660.281	1418
660.336	-550
660.391	639
660.445	-631
660.500	529
660.555	-378
660.610	-132
660.664	162
660.719	175
660.774	343
660.828	-388
660.883	299
660.938	695
660.992	-1774
661.047	-390
661.101	-747
661.156	120
661.211	-520
661.265	-106
661.320	-1089
661.374	-204
661.429	-982
661.483	289
661.538	-546
661.592	-208
661.647	-42
661.701	-228
661.755	-382
661.810	-78
661.864	-296
661.919	-176
661.973	-204
662.027	-279
662.081	-909
662.136	-567
662.190	-587
662.244	340
662.299	-1039
662.353	357
662.407	-587
662.461	-164
662.515	-62
662.569	155
662.624	-329
662.678	-449
662.732	-55
662.786	-151
662.840	-524
662.894	235
662.948	237
663.002	309
663.056	-275
663.110	61
663.164	245
663.218	-484
663.272	132
663.326	502
663.380	-639
663.434	-108
663.488	-505
663.542	187
663.595	-300
663.649	-16
663.703	420
663.757	-1093
663.811	-1306
663.864	204
663.918	-107
663.972	-113
664.026	-680
664.079	-205
664.133	-105
664.187	-152
664.240	375
664.294	537
664.348	435
664.401	1030
664.455	-906
664.508	-302
664.562	-934
664.615	551
664.669	-750
664.722	-235
664.776	-367
664.829	518
664.883	-54
664.936	-374
664.990	-217
665.043	21
665.097	-865
665.150	512
665.203	-853
665.257	-381
665.310	-15
665.363	-257
665.417	-179
665.470	-551
665.523	-520
665.576	174
665.630	-502
665.683	-442
665.736	-481
665.789	114
665.842	-361
665.895	766
665.949	-183
666.002	-807
666.055	20
666.108	-334
666.161	46
666.214	-8
666.267	438
666.320	1124
666.373	169
666.426	-207
666.479	-96
666.532	289
666.585	-135
666.638	579
666.691	-558
666.744	382
666.796	-640
666.849	-309
666.902	-146
666.955	719
667.008	-698
667.060	48
667.113	-684
667.166	537
667.219	565
667.271	138
667.324	-498
667.377	601
667.430	-601
667.482	229
667.535	416
667.587	862
667.640	239
667.693	245
667.745	823
667.798	1930
667.850	-558
667.903	526
667.955	-184
668.008	150
668.060	425
668.113	802
668.165	700
668.218	1229
668.270	348
668.322	994
668.375	-830
668.427	337
668.479	-934
668.532	641
668.584	-28
668.636	514
668.689	1340
668.741	612
668.793	867
668.845	360
668.898	166
668.950	68
669.002	690
669.054	-2
669.106	-581
669.158	103
669.211	-422
669.263	263
669.315	33
669.367	363
669.419	-57
669.471	969
669.523	768
669.575	610
669.627	-301
669.679	-270
669.731	-258
669.783	1331
669.835	730
669.886	-97
669.938	1136
669.990	195
670.042	-101
670.094	90
670.146	-365
670.197	265
670.249	870
670.301	1374
670.353	1365
670.404	2563
670.456	3151
670.508	4224
670.560	5689
670.611	8675
670.663	12130
670.715	27288
670.766	50901
670.818	21783
670.869	2303
670.921	1513
670.972	819
671.024	832
671.075	310
671.127	650
671.178	-385
671.230	945
671.281	291
671.333	629
671.384	699
671.436	524
671.487	1015
671.538	1748
671.590	2392
671.641	3076
671.692	4125
671.744	10379
671.795	7135
671.846	2722
671.897	1141
671.949	610
672.000	104
672.051	449
672.102	1431
672.153	262
672.204	782
672.256	898
672.307	520
672.358	800
672.409	-284
672.460	605
672.511	359
672.562	-244
672.613	163
672.664	-262
672.715	17
672.766	-530
672.817	224
672.868	454
672.919	420
672.970	636
673.021	-89
673.071	392
673.122	-553
673.173	561
673.224	-34
673.275	627
673.326	254
673.376	270
673.427	149
673.478	151
673.528	225
673.579	-132
673.630	-666
673.680	445
673.731	197
673.782	-536
673.832	-246
673.883	-270
673.934	87
673.984	288
674.035	-345
674.085	903
674.136	724
674.186	115
674.237	-254
674.287	1019
674.338	397
674.388	-309
674.438	2
674.489	339
674.539	719
674.589	582
674.640	554
674.690	562
674.740	-682
674.791	581
674.841	56
674.891	627
674.942	504
674.992	548
675.042	-496
675.092	1083
675.142	-542
675.193	507
675.243	-387
675.293	19
675.343	-494
675.393	-68
675.443	-647
675.493	696
675.543	-776
675.593	959
675.643	-241
675.693	315
675.743	-216
675.793	1060
675.843	-803
675.893	-188
675.943	-231
675.993	562
676.043	-258
676.093	-197
676.142	-678
676.192	364
676.242	-177
676.292	-44
676.341	-921
676.391	20
676.441	28
676.491	394
676.540	-521
676.590	823
676.640	-261
676.689	359
676.739	-772
676.789	-180
676.838	66
676.888	174
676.937	-907
676.987	-91
677.037	-166
677.086	-296
677.136	-337
677.185	-433
677.235	-733
677.284	15
677.333	-1281
677.383	-103
677.432	-1066
677.482	702
677.531	-263
677.580	-760
677.630	-854
677.679	-226
677.728	-402
677.778	395
677.827	280
677.876	-298
677.925	-556
677.975	-493
678.024	8
678.073	0
678.122	-755
678.171	-236
678.220	-135
678.269	-534
678.319	-124
678.368	55
678.417	95
678.466	169
678.515	30
678.564	-506
678.613	-275
678.662	-203
678.711	-165
678.760	-198
678.809	-1237
678.857	-510
678.906	-295
678.955	1087
679.004	474
679.053	206
679.102	31
679.151	603
679.199	-327
679.248	-171
679.297	-1068
679.346	-406
679.394	-895
679.443	-335
679.492	590
679.540	-200
679.589	-34
679.638	110
679.686	-389
679.735	616
679.784	-1004
679.832	-454
679.881	-757
679.929	-42
679.978	-444
680.026	-133
680.075	185
680.123	-34
680.172	-951
680.220	-266
680.268	32
680.317	-873
680.365	-992
680.414	-126
680.462	-49
680.510	86
680.559	-289
680.607	10
680.655	-850
680.703	41
680.752	-24
680.800	-229
680.848	-1003
680.896	-496
680.945	-1282
680.993	-399
681.041	-513
681.089	197
681.137	104
681.185	-235
681.233	-447
681.258	-38
681.281	349
681.329	-590
681.377	-496
681.380	-508
681.425	-776
681.473	-275
681.502	-257
681.521	-248
681.569	301
681.617	-1223
681.624	-1144
681.665	-655
681.713	445
681.745	389
681.761	357
681.809	-541
681.857	-767
681.867	-647
681.904	-226
681.952	338
681.989	-1021
682.000	-1434
682.048	-356
682.096	-825
682.111	-565
682.143	-22
682.191	-472
682.233	181
682.239	281
682.286	-383
682.334	103
682.354	-481
682.382	-1288
682.430	-405
682.476	-998
682.477	-1013
682.525	-601
682.572	-919
682.598	-421
682.620	2
682.667	-1047
682.715	162
682.720	86
682.763	-644
682.810	-287
682.841	-561
682.857	-701
682.905	-106
682.952	-774
682.963	-616
683.000	-97
683.047	-8
683.085	840
683.095	1062
683.142	-224
683.190	-521
683.206	-511
683.237	-482
683.284	42
683.328	-300
683.332	-327
683.379	-319
683.426	-915
683.449	-568
683.473	-209
683.521	-655
683.568	-166
683.571	-186
683.615	-524
683.662	440
683.693	-121
683.709	-432
683.757	-501
683.804	-14
683.814	-175
683.851	-751
683.898	-817
683.936	-368
683.945	-260
683.992	-886
684.039	-536
684.057	-531
684.086	-514
684.133	-57
684.179	-916
684.180	-945
684.227	53
684.274	-590
684.300	-149
684.321	190
684.368	-700
684.415	196
684.422	126
684.462	-307
684.509	-506
684.543	-590
684.556	-625
684.603	207
684.649	-607
684.665	-228
684.696	578
684.743	-547
684.786	-24
684.790	19
684.837	-642
684.883	-493
684.908	-571
684.930	-660
684.977	335
685.023	-130
685.029	-115
685.070	-47
685.117	-507
685.150	-863
685.164	-966
685.210	-217
685.257	27
685.272	2
685.303	-209
685.350	349
685.393	-885
685.396	-966
685.443	-168
685.490	214
685.514	517
685.536	706
685.583	-97
685.629	202
685.636	145
685.675	-61
685.722	532
685.757	15
685.768	-203
685.815	213
685.861	-385
685.878	-140
685.908	319
685.954	-466
686.000	514
686.000	529
686.047	-166
686.093	450
686.121	386
686.139	387
686.185	238
686.232	-333
686.242	-261
686.278	-56
686.324	-140
686.363	52
686.370	95
686.416	-127
686.463	429
686.484	303
686.509	68
686.555	-307
686.601	-241
686.606	-193
686.647	390
686.693	-238
686.727	-16
686.739	66
686.785	-333
686.831	23
686.848	-42
686.877	-188
686.923	398
686.969	-72
686.969	-74
687.015	-171
687.061	-585
687.090	-17
687.107	259
687.153	-109
687.199	625
687.211	319
687.245	-410
687.291	-273
687.332	460
687.336	526
687.382	189
687.428	50
687.453	196
687.474	312
687.520	-21
687.565	110
687.574	6
687.611	-350
687.657	-85
687.695	-348
687.702	-385
687.748	463
687.794	460
687.816	287
687.839	24
687.885	-48
687.931	-406
687.937	-298
687.976	366
688.022	-213
688.058	-163
688.067	-134
688.113	-16
688.158	242
688.179	297
688.204	321
688.249	370
688.295	498
688.300	403
688.340	-237
688.386	542
688.421	384
688.431	315
688.477	58
688.522	-46
688.542	-101
688.567	-54
688.613	20
688.658	574
688.663	578
688.703	561
688.749	184
688.784	358
688.794	387
688.839	855
688.884	349
688.905	405
688.930	501
688.975	261
689.020	697
689.026	644
689.065	314
689.110	145
689.146	358
689.155	361
689.201	18
689.246	-333
689.267	-314
689.291	-6
689.336	191
689.381	821
689.388	762
689.426	17
689.471	826
689.509	-90
689.516	-212
689.561	281
689.606	-109
689.630	227
689.651	489
689.696	-68
689.741	588
689.750	474
689.785	117
689.830	345
689.871	282
689.875	271
689.920	313
689.965	138
689.992	321
690.010	450
690.054	-71
690.099	165
690.112	212
690.144	376
690.189	345
690.233	79
690.233	79
690.278	627
690.323	291
690.354	312
690.367	352
690.412	181
690.457	627
690.474	562
690.501	369
690.546	350
690.590	186
690.595	178
690.635	224
690.680	32
690.716	140
690.724	174
690.769	-236
690.813	950
690.836	512
690.857	117
690.902	453
690.946	-72
690.957	40
690.991	498
691.035	273
691.077	843
691.080	861
691.124	526
691.168	111
691.198	-6
691.213	-40
691.257	-70
691.301	-114
691.318	-136
691.346	-65
691.390	-21
691.434	28
691.439	41
691.478	351
691.522	701
691.559	803
691.567	780
691.611	836
691.655	663
691.680	652
691.699	614
691.743	430
691.787	626
691.800	521
691.831	256
691.875	300
691.919	-188
691.921	-190
691.964	1
692.008	108
692.041	201
692.052	311
692.096	255
692.139	1031
692.162	1109
692.183	884
692.227	812
692.271	207
692.282	231
692.315	568
692.359	87
692.402	568
692.403	576
692.447	399
692.490	1134
692.523	1181
692.534	1082
692.578	770
692.622	386
692.643	535
692.666	814
692.709	522
692.753	788
692.763	722
692.797	498
692.840	846
692.884	579
692.884	582
692.928	832
692.971	857
693.004	903
693.015	921
693.059	639
693.102	1075
693.124	900
693.146	727
693.189	652
693.233	680
693.245	743
693.276	966
693.320	755
693.363	1021
693.365	1005
693.407	772
693.450	963
693.485	1067
693.493	1049
693.537	996
693.580	522
693.605	585
693.624	772
693.667	972
693.710	1240
693.725	1189
693.753	882
693.797	945
693.840	769
693.845	770
693.883	981
693.926	531
693.966	526
693.970	538
694.013	374
694.056	908
694.086	923
694.099	864
694.142	688
694.185	372
694.206	450
694.229	720
694.272	650
694.315	921
694.326	956
694.358	861
694.401	956
694.444	791
694.446	784
694.487	1156
694.530	1317
694.566	1865
694.573	1868
694.616	1087
694.659	1088
694.686	801
694.702	738
694.745	750
694.787	644
694.806	578
694.830	576
694.873	469
694.916	636
694.926	627
694.959	730
695.002	1110
695.044	990
695.046	995
695.087	983
695.130	940
695.166	1058
695.172	1118
695.215	811
695.258	1063
695.286	986
695.301	948
695.343	1268
695.386	1156
695.406	1235
695.428	1195
695.471	827
695.514	757
695.526	662
695.556	571
695.599	712
695.641	610
695.646	592
695.684	607
695.726	730
695.766	884
695.769	891
695.811	714
695.854	890
695.886	749
695.896	734
695.938	792
695.981	679
696.005	846
696.023	936
696.065	731
696.108	913
696.125	858
696.150	849
696.192	960
696.235	819
696.245	868
696.277	886
696.319	643
696.361	501
696.365	479
696.404	606
696.446	805
696.485	1028
696.488	1047
696.530	1205
696.572	1223
696.604	1343
696.614	1345
696.656	1234
696.698	1101
696.724	1080
696.740	1157
696.783	1203
696.825	1452
696.844	1545
696.867	1511
696.909	1201
696.951	979
696.964	946
696.992	1014
697.034	1028
697.076	1051
697.083	1042
697.118	1073
697.160	1024
697.202	1238
697.203	1231
697.244	1098
697.286	1131
697.323	1084
697.327	1074
697.369	928
697.411	656
697.442	582
697.453	643
697.494	725
697.536	985
697.562	1078
697.578	1048
697.620	1021
697.661	832
697.682	771
697.703	864
697.744	1052
697.786	1350
697.801	1388
697.828	1389
697.869	1449
697.911	1573
697.921	1572
697.952	1371
697.994	1112
698.035	904
698.040	868
698.077	923
698.118	1017
698.160	1129
698.160	1125
698.201	1181
698.243	1216
698.279	1322
698.284	1326
698.325	1249
698.367	1188
698.399	1123
698.408	1127
698.449	1115
698.491	1136
698.518	1108
698.532	1107
698.573	1113
698.614	1134
698.638	1122
698.656	1174
698.697	1301
698.738	1416
698.757	1469
698.779	1557
698.820	1696
698.862	1852
698.877	1902
698.903	1917
698.944	1927
698.985	1928
698.996	1925
699.026	1716
699.067	1414
699.116	1051
699.235	732
699.354	566
699.474	624
699.593	1745
699.713	2166
699.832	2160
699.951	1738
700.070	1584
700.190	1228
700.309	884
700.428	890
700.547	558
700.667	853
700.786	1410
700.905	1359
701.024	1392
701.143	345
701.262	1730
701.381	1331
701.500	917
701.619	1376
701.738	993
701.857	994
701.976	1304
702.095	737
702.214	1835
702.333	1330
702.452	828
702.571	463
702.690	1142
702.809	1624
702.928	1120
703.047	1242
703.165	674
703.284	315
703.403	1704
703.522	1649
703.640	1417
703.759	1543
703.878	1443
703.997	917
704.115	506
704.234	758
704.353	652
704.471	879
704.590	718
704.708	650
704.827	1567
704.946	1572
705.064	733
705.183	760
705.301	1474
705.420	2802
705.538	2605
705.656	1914
705.775	1092
705.893	1839
706.012	2674
706.130	1719
706.249	1422
706.367	2105
706.485	1854
706.604	1506
706.722	1821
706.840	2305
706.958	2177
707.077	1483
707.195	1358
707.313	1328
707.431	1918
707.549	1394
707.668	1667
707.786	2083
707.904	1536
708.022	2085
708.140	1379
708.258	1554
708.376	1472
708.494	984
708.612	2858
708.730	3549
708.848	2891
708.966	2749
709.084	2263
709.202	1696
709.320	2224
709.438	2235
709.556	1945
709.674	2274
709.791	2461
709.909	1833
710.027	2315
710.145	2448
710.263	2613
710.380	2693
710.498	2758
710.616	2500
710.733	1646
710.851	1684
710.969	1605
711.086	2049
711.204	2092
711.322	2413
711.439	1555
711.557	2801
711.674	2546
711.792	1915
711.909	2251
712.027	1498
712.144	1883
712.262	2072
712.379	2734
712.497	4406
712.614	3539
712.732	2819
712.849	3324
712.966	3016
713.084	3628
713.201	3031
713.318	2853
713.436	3046
713.553	3357
713.670	1857
713.787	3426
713.905	3026
714.022	2992
714.139	2623
714.256	3329
714.373	2898
714.490	4238
714.608	9534
714.725	31742
714.842	12987
714.959	2988
715.076	2761
715.193	2943
715.310	2451
715.427	2530
715.544	2789
715.661	2709
715.778	3005
715.895	2755
716.011	3226
716.128	2208
716.245	2252
716.362	2128
716.479	3055
716.596	2959
716.713	1719
716.829	2371
716.946	2522
717.063	2535
717.180	1427
717.296	2246
717.413	2813
717.530	2218
717.646	2027
717.763	2770
717.880	2293
717.996	2143
718.113	1588
718.229	2468
718.346	2535
718.462	1872
718.579	2787
718.695	2599
718.812	1859
718.928	1804
719.045	1741
719.161	1939
719.277	1943
719.394	2422
719.510	2047
719.626	1828
719.743	3316
719.859	2686
719.975	3656
720.092	10817
720.208	11217
720.324	2817
720.440	2249
720.557	1164
720.673	3260
720.789	5103
720.905	5518
721.021	2454
721.137	2421
721.253	2588
721.369	1991
721.486	2643
721.602	2116
721.718	2186
721.834	1861
721.950	2435
722.066	1586
722.181	959
722.297	2232
722.413	1545
722.529	2134
722.645	2087
722.761	1289
722.877	1041
722.993	2388
723.108	757
723.224	1359
723.340	1344
723.456	1012
723.571	2194
723.687	1388
723.803	1394
723.918	555
724.034	1464
724.150	1792
724.265	2353
724.381	2930
724.497	1779
724.612	1666
724.728	1220
724.843	2011
724.959	891
725.074	3657
725.190	1805
725.305	1576
725.421	1227
725.536	1569
725.651	1226
725.767	1734
725.882	1622
725.997	1277
726.113	1291
726.228	1776
726.343	1494
726.459	1099
726.574	512
726.689	930
726.804	1120
726.920	1868
727.035	659
727.150	1303
727.265	1046
727.380	1242
727.495	1023
727.610	1511
727.725	1538
727.841	1671
727.956	1726
728.071	1784
728.186	1024
728.301	967
728.416	1249
728.531	703
728.645	1571
728.760	1452
728.875	705
728.990	1698
729.105	1328
729.220	1796
729.335	1035
729.449	938
729.564	1117
729.679	87
729.794	1252
729.908	401
730.023	1284
730.138	829
730.253	710
730.367	850
730.482	251
730.596	1022
730.711	755
730.826	1587
730.940	407
731.055	1325
731.169	840
731.284	813
731.398	328
731.513	933
731.627	504
731.742	985
731.856	1333
731.970	554
732.085	763
732.199	892
732.313	1312
732.428	4050
732.542	9135
732.656	2637
732.771	601
732.885	1268
732.999	682
733.113	692
733.227	1269
733.342	784
733.456	903
733.570	188
733.684	601
733.798	1172
733.912	713
734.026	425
734.140	1039
734.254	1007
734.368	586
734.482	664
734.596	970
734.710	435
734.824	176
734.938	113
735.052	-625
735.166	1259
735.280	-149
735.393	729
735.507	897
735.621	905
735.735	1359
735.849	1058
735.962	459
736.076	653
736.190	965
736.303	1145
736.417	1113
736.531	68
736.644	341
736.758	1192
736.872	87
736.985	1011
737.099	1009
737.212	85
737.326	448
737.439	377
737.553	-314
737.666	679
737.780	84
737.893	364
738.007	502
738.120	550
738.233	-94
738.347	397
738.460	250
738.573	-644
738.687	559
738.800	950
738.913	1050
739.026	895
739.140	1040
739.253	-441
739.366	341
739.479	38
739.592	221
739.705	1056
739.818	413
739.932	646
740.045	213
740.158	-585
740.271	497
740.384	272
740.497	847
740.610	516
740.723	856
740.836	921
740.949	172
741.062	734
741.174	1172
741.287	328
741.400	-276
741.513	6
741.626	180
741.739	269
741.851	-688
741.964	-608
742.077	-300
742.189	263
742.302	855
742.415	523
742.527	-187
742.640	-312
742.753	-415
742.865	369
742.978	168
743.090	-75
743.203	134
743.316	-90
743.428	-354
743.541	344
743.653	65
743.766	502
743.878	478
743.990	550
744.103	1040
744.215	1203
744.327	-230
744.440	474
744.552	1635
744.664	-503
744.777	-35
744.889	-299
745.001	96
745.113	-117
745.226	-332
745.338	314
745.450	90
745.562	196
745.674	661
745.786	-10
745.898	469
746.010	836
746.122	613
746.234	-164
746.347	178
746.459	131
746.570	-160
746.682	833
746.794	1900
746.906	412
747.018	740
747.130	393
747.242	-193
747.354	-462
747.466	831
747.577	-122
747.689	531
747.801	-30
747.913	-175
748.024	1282
748.136	-215
748.248	-478
748.359	395
748.471	777
748.583	-13
748.694	-101
748.806	-176
748.918	430
749.029	-40
749.141	505
749.252	271
749.364	94
749.475	13
749.587	143
749.698	-241
749.809	814
749.921	414
750.032	333
750.144	-267
750.255	-477
750.366	-569
750.478	-745
750.589	-239
750.700	-447
750.811	921
750.923	648
751.034	1299
751.145	562
751.256	-351
751.367	-501
751.479	13
751.590	353
751.701	179
751.812	-354
751.923	558
752.034	44
752.145	-615
752.256	111
752.367	31
752.478	564
752.589	455
752.700	13
752.811	-416
752.922	884
753.032	-654
753.143	554
753.254	-556
753.365	-277
753.476	-134
753.586	381
753.697	-159
753.808	-328
753.919	519
754.029	112
754.140	248
754.251	-583
754.361	-207
754.472	471
754.582	103
754.693	-9
754.804	3
754.914	-335
755.025	144
755.135	452
755.246	464
755.356	-309
755.466	727
755.577	302
755.687	-74
755.798	285
755.908	448
756.018	87
756.129	910
756.239	230
756.349	-436
756.460	-47
756.570	216
756.680	28
756.790	-395
756.900	355
757.011	402
757.121	1544
757.231	226
757.341	344
757.451	-113
757.561	-581
757.671	-139
757.781	-7
757.891	-139
758.001	578
758.111	-1
758.221	274
758.331	366
758.441	757
758.551	-399
758.661	408
758.771	129
758.880	31
758.990	-352
759.100	-68
759.210	234
759.320	-151
759.429	4
759.539	-233
759.649	-169
759.758	632
759.868	495
759.978	-499
760.087	-269
760.197	-152
760.307	326
760.416	-299
760.526	-810
760.635	401
760.745	-396
760.854	-590
760.964	127
761.073	676
761.182	300
761.292	328
761.401	596
761.511	-261
761.620	15
761.729	-533
761.839	-980
761.948	-207
762.057	702
762.166	214
762.276	-278
762.385	510
762.494	-491
762.603	-1009
762.712	391
762.822	-430
762.931	426
763.040	-231
763.149	-131
763.258	-440
763.367	1128
763.476	892
763.585	54
763.694	657
763.803	28
763.912	847
764.021	261
764.130	787
764.238	171
764.347	-360
764.456	31
764.565	698
764.674	-405
764.783	-360
764.891	-139
765.000	1047
765.109	295
765.217	401
765.326	743
765.435	838
765.543	-245
765.652	372
765.761	1245
765.869	2113
765.978	3190
766.086	6841
766.195	15034
766.303	52791
766.412	166956
766.520	54445
766.629	6858
766.737	2767
766.846	1996
766.954	1311
767.062	1925
767.171	-253
767.279	1235
767.387	530
767.496	1485
767.604	-320
767.712	600
767.820	171
767.928	28
768.037	-263
768.145	435
768.253	1148
768.361	-50
768.469	436
768.577	9
768.685	437
768.793	121
768.901	-157
769.009	467
769.117	-237
769.225	945
769.333	947
769.441	3224
769.549	6327
769.657	16776
769.765	74387
769.873	97168
769.981	9475
770.088	1338
770.196	1354
770.304	734
770.412	1251
770.519	460
770.627	0
770.735	15
770.842	-363
770.950	-119
771.058	-429
771.165	623
771.273	240
771.380	136
771.488	-270
771.595	-118
771.703	46
771.810	549
771.918	-332
772.025	-183
772.133	127
772.240	-151
772.348	429
772.455	-901
772.562	234
772.670	-49
772.777	165
772.884	866
772.991	-56
773.099	-788
773.206	-1251
773.313	1369
773.420	280
773.528	-318
773.635	-785
773.742	371
773.849	-243
773.956	88
774.063	-150
774.170	-449
774.277	408
774.384	-133
774.491	386
774.598	1173
774.705	202
774.812	68
774.919	429
775.026	-148
775.133	-276
775.239	-672
775.346	-219
775.453	-7
775.560	-609
775.667	105
775.773	-462
775.880	277
775.987	160
776.093	461
776.200	-335
776.307	-677
776.413	-283
776.520	-980
776.627	-2
776.733	263
776.840	-1277
776.946	1317
777.053	1545
777.159	4672
777.266	1158
777.372	3450
777.478	2810
777.585	1379
777.691	459
777.798	-93
777.904	487
778.010	668
778.117	285
778.223	320
778.329	-605
778.435	-171
778.542	-2
778.648	371
778.754	190
778.860	189
778.966	-109
779.072	-346
779.178	-879
779.284	25
779.391	-846
779.497	-1057
779.603	1863
779.708	-1663
779.815	694
779.920	847
780.026	25
780.132	155
780.238	-892
780.344	621
780.450	-30
780.556	147
780.661	-365
780.767	82
780.873	-902
780.979	506
781.085	-1033
781.190	21
781.296	218
781.402	82
781.507	-134
781.613	-10
781.719	-360
781.824	-54
781.930	148
782.035	657
782.141	-129
782.246	-292
782.352	-4
782.457	521
782.563	-813
782.668	192
782.773	-251
782.879	-149
782.984	240
783.090	588
783.195	-85
783.300	297
783.405	33
783.511	-627
783.616	-120
783.721	377
783.826	-553
783.932	-90
784.037	-368
784.142	-646
784.247	-824
784.352	69
784.457	-1117
784.562	432
784.667	561
784.772	114
784.877	-821
784.982	182
785.087	-320
785.192	1096
785.297	-508
785.402	605
785.507	-52
785.611	-303
785.716	239
785.821	-100
785.926	-225
786.031	-112
786.135	130
786.240	-752
786.345	-1241
786.450	905
786.554	282
786.659	-307
786.763	-1667
786.868	-152
786.973	66
787.077	-915
787.182	49
787.286	-525
787.391	178
787.495	-1403
787.600	-624
787.704	-1781
787.809	16
787.913	-577
788.017	-512
788.122	86
788.226	-62
788.330	-671
788.435	-710
788.539	-921
788.643	-1249
788.747	-207
788.852	-32
788.956	-464
789.060	-64
789.164	-1176
789.268	-1149
789.372	-520
789.476	679
789.580	-693
789.684	-599
789.788	688
789.892	-1525
789.996	105
790.100	-283
790.204	321
790.308	-7
790.412	-592
790.516	-195
790.620	-551
790.724	-328
790.828	-293
790.931	-1546
791.035	551
791.139	-477
791.242	-1399
791.346	579
791.450	-546
791.554	-1321
791.657	-1328
791.761	223
791.864	394
791.968	-309
792.072	-817
792.175	-126
792.279	-764
792.382	-107
792.486	-754
792.589	-792
792.693	-1057
792.796	-694
792.899	86
793.003	-150
793.106	-1756
793.209	-293
793.313	-17
793.416	-2340
793.519	79
793.623	-388
793.726	-893
793.829	-522
793.932	-601
794.035	-941
794.138	783
794.242	-863
794.345	-914
794.448	-802
794.551	-1447
794.654	1172
794.757	92
794.860	-936
794.963	-402
795.066	-662
795.169	74
795.272	-809
795.375	-622
795.477	-585
795.580	-313
795.683	-878
795.786	-8
795.889	-2319
795.991	-151
796.094	-109
796.197	-1875
796.300	334
796.402	-1261
796.505	-856
796.608	-1513
796.710	691
796.813	-738
796.915	-740
797.018	-868
797.120	-567
797.223	-1914
797.326	-198
797.428	-960
797.530	-953
797.633	-754
797.735	661
797.838	-1198
797.940	156
798.042	-1221
798.145	-1036
798.247	-499
798.349	-2245
798.452	-98
798.554	-1387
798.656	-832
798.758	765
798.860	-1433
798.962	-732
799.065	-1622
799.167	-1845
799.269	-243
799.371	-633
799.473	-442
799.575	-1404
799.677	-1545
799.779	507
799.881	-2532
799.983	-167
800.085	-885
800.187	-794
800.289	-1256
800.390	-700
800.492	-299
800.594	924
800.696	-706
800.798	-840
800.899	-853
801.001	-1469
801.103	-650
801.205	-1134
801.306	-941
801.408	-1538
801.509	-1177
801.611	-393
801.713	-945
801.814	-1799
801.916	-788
802.017	-431
802.119	-1066
802.220	-706
802.322	-2038
802.423	640
802.525	-2007
802.626	-971
802.727	-931
802.829	-348
802.930	-2766
803.031	39
803.133	-1183
803.234	-557
803.335	-934
803.436	-905
803.538	-544
803.639	-1044
803.740	-75
803.841	-996
803.942	-863
804.043	-320
804.144	-1193
804.245	-1110
804.346	-1615
804.447	-898
804.548	-1317
804.649	566
804.750	-517
804.851	-1235
804.952	-633
805.053	-445
805.154	-1383
805.255	-146
805.355	-581
805.456	-667
805.557	-993
805.658	-1972
805.758	-201
805.859	-634
805.960	-1680
806.061	-1156
806.161	-2191
806.262	-943
806.362	-1151
806.463	-909
806.564	-249
806.664	-1177
806.765	-1497
806.865	-133
806.966	-959
807.066	-1722
807.166	-433
807.267	240
807.367	-830
807.468	-443
807.568	-2594
807.668	634
807.769	-423
807.869	-821
807.969	-614
808.069	-129
808.170	-854
808.270	-1335
808.370	-415
808.470	-1007
808.570	-1911
808.670	-1064
808.770	376
808.870	-1664
808.970	-994
809.070	-1026
809.170	-1588
809.271	-109
809.370	-1168
809.470	549
809.570	-1144
809.670	-1534
809.770	-758
809.870	224
809.970	-944
810.070	-711
810.169	-416
810.269	-2398
810.369	-579
810.469	-977
810.568	-1010
810.668	-1401
810.768	-966
810.867	-137
810.967	-1199
811.066	-1133
811.166	-1560
811.265	-474
811.365	-1066
811.464	-771
811.564	-1320
811.663	-761
811.763	-2273
811.862	-624
811.962	-49
812.061	-1182
812.160	-664
812.260	-1229
812.359	-890
812.458	-1268
812.557	-528
812.657	-891
812.756	-842
812.855	-170
812.954	-603
813.053	-311
813.153	-96
813.252	-1529
813.351	211
813.450	-563
813.549	-1055
813.648	-393
813.747	-676
813.846	-81
813.945	-1412
814.044	-530
814.143	-766
814.242	-451
814.341	-1810
814.439	-368
814.538	-578
814.637	-386
814.736	-747
814.835	-385
814.933	-1214
815.032	-186
815.131	-944
815.229	-261
815.328	-88
815.427	-1302
815.525	-334
815.624	-1095
815.722	-1510
815.821	-420
815.919	-727
816.018	-960
816.116	-549
816.215	-1134
816.313	-1047
816.412	-783
816.510	-684
816.609	984
816.707	-173
816.805	-1406
816.904	-855
817.002	-193
817.100	188
817.198	-507
817.296	-1337
817.395	-1277
817.493	-238
817.591	-430
817.689	-65
817.787	-367
817.885	1034
817.983	4572
818.081	10046
818.179	27918
818.277	51641
818.375	13533
818.473	2169
818.571	1206
818.669	-88
818.767	677
818.865	666
818.963	1492
819.061	3247
819.158	7358
819.256	24164
819.354	62170
819.452	80842
819.549	14261
819.647	2713
819.745	1309
819.842	650
819.940	-31
820.038	-106
820.135	-263
820.233	335
820.330	-786
820.428	-1037
820.525	539
820.623	-579
820.720	-1247
820.818	-607
820.915	-208
821.012	-140
821.110	-1528
821.207	-160
821.304	-1538
821.402	-528
821.499	-5
821.596	1358
821.693	-407
821.791	-81
821.888	-795
821.985	-391
822.082	-1448
822.179	-649
822.276	-1021
822.373	-828
822.470	-922
822.567	-378
822.664	-816
822.761	-747
822.858	-1638
822.955	16
823.052	-623
823.149	-911
823.246	-1379
823.343	-696
823.440	-706
823.536	-1050
823.633	-649
823.730	-1112
823.827	-673
823.923	-500
824.020	295
824.117	-1518
824.213	-1561
824.310	-816
824.407	-1108
824.503	-12
824.600	-783
824.696	-1451
824.793	-820
824.889	-1925
824.986	-686
825.082	-1138
825.179	-582
825.275	-717
825.371	-2369
825.468	-915
825.564	-2463
825.660	-1335
825.757	-891
825.853	-620
825.949	-1677
826.045	-989
826.142	-947
826.238	-603
826.334	-269
826.430	-1577
826.526	-680
826.622	-1557
826.718	-1191
826.814	-1649
826.910	-260
827.006	-1074
827.102	-1867
827.198	-228
827.294	-1569
827.390	-1443
827.486	-507
827.582	-2325
827.678	-2268
827.774	-832
827.869	-1822
827.965	709
828.061	-2080
828.157	-1572
828.252	-1357
828.348	-1354
828.444	-108
828.539	-2150
828.635	-1033
828.731	442
828.826	-1042
828.922	-523
829.017	-1025
829.113	-611
829.208	-1168
829.304	-2072
829.399	809
829.495	-996
829.590	-475
829.685	-1438
829.781	-801
829.876	-1647
829.971	-1447
830.066	-1975
830.162	-1102
830.257	-1646
830.352	-1068
830.447	46
830.543	-1490
830.638	-2409
830.733	65
830.828	-1340
830.923	-8
831.018	-614
831.113	-593
831.208	-2027
831.303	-1291
831.398	-1551
831.493	-1250
831.588	-1330
831.683	-1319
831.778	-693
831.873	-835
831.967	-538
832.062	-1415
832.157	-1664
832.252	-47
832.346	-651
832.441	-975
832.536	-510
832.631	-106
832.725	-1511
832.820	-1835
832.914	-2420
833.009	-1009
833.104	-881
833.198	-385
833.293	-915
833.387	-385
833.482	-1414
833.576	-1453
833.670	-829
833.765	-1680
833.859	-1877
833.954	-621
834.048	-689
834.142	-1020
834.237	-1201
834.331	-951
834.425	-1398
834.519	-1057
834.613	-701
834.708	-1561
834.802	-1376
834.896	-1385
834.990	-662
835.084	-964
835.178	-570
835.272	-1269
835.366	-1522
835.460	-796
835.554	-1477
835.648	-1024
835.742	-832
835.836	-912
835.930	-2494
836.024	-1344
836.117	15
836.211	-1255
836.305	-446
836.399	-600
836.493	-1744
836.586	-606
836.680	-1654
836.774	-2133
836.867	-175
836.961	-1794
837.055	-1095
837.148	-1254
837.242	-601
837.335	-569
837.429	-504
837.522	-1774
837.616	-1236
837.709	718
837.803	-1470
837.896	-893
837.989	-1112
838.083	-1050
838.176	-1219
838.269	-1085
838.363	-172
838.456	-2043
838.549	-545
838.642	-1120
838.735	-828
838.829	-547
838.922	-1791
839.015	-1028
839.108	-1820
839.201	-745
839.294	-1127
839.387	-440
839.480	-1894
839.573	-1427
839.666	-491
839.759	-2240
839.852	-1220
839.945	-507
840.038	-1482
840.131	-804
840.223	-534
840.316	-229
840.409	-1370
840.502	-2062
840.594	-34
840.687	-2038
840.780	-899
840.873	-1234
840.965	-1067
841.058	-1338
841.150	-77
841.243	-1856
841.336	-773
841.428	-654
841.521	-1859
841.613	-1826
841.706	-1469
841.798	-980
841.890	-1501
841.983	-2172
842.075	-920
842.167	-1020
842.260	-1723
842.352	-131
842.444	-1222
842.537	-266
842.629	-475
842.721	-1074
842.813	-1121
842.905	-1484
842.997	-1661
843.090	-1059
843.182	-733
843.274	-1385
843.366	1111
843.458	505
843.550	531
843.642	-959
843.734	-761
843.826	-1105
843.918	-369
844.009	-925
844.101	-1734
844.193	-861
844.285	-1063
844.377	-773
844.469	450
844.560	69
844.652	-362
844.744	-748
844.835	-923
844.927	-1167
845.019	-1377
845.110	-1016
845.202	-2169
845.293	-560
845.385	-1882
845.476	-1360
845.568	-976
845.659	-1368
845.751	-1288
845.842	-1196
845.934	-1174
846.025	-1034
846.116	-1121
846.208	-912
846.299	-1378
846.390	-1489
846.482	-631
846.573	-866
846.664	-1627
846.755	-1344
846.846	-1264
846.937	-1877
847.029	-1223
847.120	-627
847.211	-1224
847.302	-365
847.393	-2922
847.484	-601
847.575	-1510
847.666	-1376
847.757	-1412
847.847	-1126
847.938	-732
848.029	-1856
848.120	-1677
848.211	-2172
848.302	-1620
848.392	-2316
848.483	-1397
848.574	-1332
848.664	-2096
848.755	-1419
848.846	-992
848.936	-1934
849.027	-1171
849.118	-623
849.208	-1571
849.299	-532
849.389	-1525
849.480	-587
849.570	-407
849.661	1506
849.751	731
849.841	-1232
849.932	-1504
850.022	-1744
850.112	-1713
850.203	-2070
850.293	-1990
850.383	-1335
850.474	-2007
850.564	-1440
850.654	-2232
850.744	-1902
850.834	-1558
850.924	-768
851.014	-1090
851.104	-1437
851.194	-2453
851.284	-1551
851.374	-2026
851.464	-1640
851.554	-1177
851.644	-2093
851.734	-2062
851.824	-1971
851.914	-2000
852.004	-1433
852.094	-2805
852.183	-1144
852.273	-1502
852.363	-1618
852.452	-1033
852.542	-1064
852.632	-1153
852.721	-1859
852.811	-1438
852.901	-930
852.990	-914
853.080	-877
853.169	-1185
853.259	-1531
853.348	-2335
853.438	-2007
853.527	-604
853.617	-871
853.706	-236
853.795	1640
853.885	4901
853.974	8325
854.063	19926
854.152	19202
854.242	2075
854.331	-899
854.420	-1235
854.509	-920
854.598	-989
854.687	-1002
854.777	-1484
854.866	-1667
854.955	-1195
855.044	-1749
855.133	-2027
855.222	-1535
855.311	-2404
855.400	-1208
855.488	-1845
855.577	-1876
855.666	-1191
855.755	-536
855.844	-1762
855.933	-2779
856.021	-984
856.110	-1469
856.199	-1676
856.288	-1603
856.376	-1683
856.465	-1483
856.554	-1358
856.642	-1383
856.731	-1422
856.819	-1232
856.908	-1259
856.996	-1093
857.085	-1748
857.173	-1396
857.262	-1089
857.350	-1835
857.438	-1538
857.527	-1348
857.615	-1337
857.703	-719
857.792	-1654
857.880	-1786
857.968	-2010
858.056	-1403
858.145	-1057
858.233	-1603
858.321	-392
858.409	-1107
858.497	-1707
858.585	-2120
858.673	-1373
858.761	-1518
858.849	-1870
858.937	-923
859.025	-562
859.113	-1115
859.201	-2404
859.289	-1239
859.377	-1370
859.465	-811
859.552	-1576
859.640	-1587
859.728	-1496
859.816	-1551
859.903	-1695
859.991	-2697
860.079	-1201
860.166	-1229
860.254	-1183
860.342	-966
860.429	-1590
860.517	-1894
860.604	-1406
860.692	-1499
860.779	-1628
860.867	-1222
860.954	-1504
861.042	-1485
861.129	-1495
861.216	-737
861.304	-1535
861.391	-1899
861.478	-881
861.565	-995
861.653	-187
861.740	-2267
861.827	-1524
861.914	-1129
862.001	-1556
862.089	-1324
862.176	-1666
862.263	-1659
862.350	-1769
862.437	-1007
862.524	-2062
862.611	-1317
862.698	-764
862.785	-952
862.871	-915
862.958	-1681
863.045	-1055
863.132	-957
863.219	-1732
863.306	-1876
863.392	-1170
863.479	-1164
863.566	-1908
863.652	-1716
863.739	-1813
863.826	-794
863.912	-799
863.999	-1926
864.086	-1919
864.172	-2079
864.259	-2033
864.345	-1799
864.432	-569
864.518	-1414
864.604	-1729
864.691	-1306
864.777	-1390
864.863	-1143
864.950	-1131
865.036	-2106
865.122	-943
865.209	-1329
865.295	-1337
865.381	-1546
865.467	-450
865.553	-58
865.639	-1419
865.726	-654
865.812	1599
865.898	3857
865.984	3941
866.070	13348
866.156	7581
866.242	-556
866.328	-968
866.414	-1135
866.499	-1132
866.585	-1195
866.671	-1390
866.757	-608
866.843	-945
866.928	-1006
867.014	-1550
867.100	-908
867.186	-555
867.271	-699
867.357	-1041
867.442	-1353
867.528	-1283
867.614	-1696
867.699	-861
867.785	56
867.870	-605
867.956	-559
868.041	-400
868.127	-669
868.212	-918
868.297	-798
868.383	-948
868.468	-567
868.553	-705
868.639	-750
868.724	-890
868.809	-1142
868.894	-518
868.979	-1175
869.065	-1493
869.150	-2371
869.235	-715
869.320	-1234
869.405	-1610
869.490	-1417
869.575	-1534
869.660	-973
869.745	-1865
869.830	-1944
869.915	-1036
870.000	-806
870.085	-1495
870.169	-1240
870.254	-1129
870.339	-1729
870.424	-2455
870.509	-1426
870.593	-2009
870.678	-909
870.763	-880
870.847	-1075
870.932	-1019
871.016	-1815
871.101	-1446
871.186	-1595
871.270	-815
871.355	-1618
871.439	-1524
871.523	-1499
871.608	-854
871.692	-1712
871.777	-759
871.861	-1193
871.945	-2061
872.030	-1146
872.114	-1175
872.198	-2240
872.282	-1411
872.367	-1757
872.451	-1648
872.535	-1636
872.619	-1862
872.703	-1474
872.787	-1722
872.871	-1371
872.955	-2257
873.039	-1338
873.123	-1254
873.207	-1188
873.291	-1505
873.375	-1858
873.459	-1986
873.543	-1566
873.627	-1366
873.711	-1611
873.794	-1333
873.878	-1277
873.962	-1522
874.045	-759
874.129	-1837
874.137	-1881
874.213	-2327
874.245	-1980
874.296	-1420
874.352	-1467
874.380	-1490
874.460	-1649
874.464	-1656
874.547	-1855
874.568	-1649
874.631	-1017
874.676	-1237
874.714	-1430
874.784	-1668
874.798	-1721
874.881	78
874.892	-139
874.965	-1576
874.999	-1306
875.048	-965
875.107	-1846
875.131	-2202
875.215	-2196
875.215	-2195
875.298	-2030
875.323	-1932
875.381	-1634
875.430	-1915
875.465	-2150
875.538	-2202
875.548	-2201
875.631	-933
875.646	-1128
875.714	-2192
875.753	-1732
875.798	-1110
875.861	-1181
875.881	-1222
875.964	-848
875.968	-880
876.047	-1361
876.076	-1204
876.130	-970
876.183	-1334
876.213	-1503
876.291	-854
876.296	-821
876.379	-1536
876.398	-1540
876.462	-1394
876.506	-1313
876.545	-1287
876.613	-745
876.628	-610
876.711	-1264
876.721	-1208
876.794	-952
876.828	-1348
876.877	-1796
876.935	-1292
876.960	-1094
877.043	-1273
877.043	-1272
877.125	-871
877.150	-770
877.208	-623
877.258	-944
877.291	-1071
877.365	-658
877.374	-636
877.456	-769
877.472	-829
877.539	-960
877.579	-950
877.622	-973
877.687	-691
877.704	-595
877.787	-889
877.794	-942
877.869	-1604
877.901	-1369
877.952	-1008
878.008	-1122
878.034	-1123
878.115	-1101
878.117	-1099
878.199	-999
878.222	-974
878.282	-878
878.329	-959
878.364	-1076
878.437	-934
878.447	-933
878.529	-1641
878.544	-1559
878.611	-734
878.651	-876
878.694	-1089
878.758	-550
878.776	-451
878.858	-702
878.865	-716
878.941	-942
878.972	-873
879.023	-622
879.078	-1508
879.105	-1848
879.185	-715
879.187	-693
879.269	-873
879.292	-816
879.351	-797
879.399	-1021
879.433	-997
879.506	-315
879.516	-262
879.598	-767
879.613	-777
879.680	-784
879.720	-831
879.762	-917
879.827	-835
879.844	-756
879.926	-600
879.933	-590
880.007	-628
880.040	-817
880.089	-978
880.147	-782
880.171	-601
880.253	-1
880.254	-2
880.335	897
880.360	1090
880.417	3276
880.467	5287
880.499	5874
880.574	6856
880.580	6511
880.662	1604
880.680	510
880.744	-300
880.787	-522
880.825	-496
880.893	-825
880.907	-826
880.989	-395
881.000	-352
881.070	-277
881.106	-282
881.152	-193
881.213	-364
881.233	-491
881.315	-698
881.319	-711
881.396	-601
881.426	-871
881.478	-1220
881.532	-491
881.559	-179
881.639	-200
881.641	-210
881.722	-613
881.745	-882
881.803	-1046
881.852	-733
881.885	-673
881.958	-772
881.966	-701
882.047	290
882.064	372
882.129	474
882.171	621
882.210	970
882.277	1526
882.291	1366
882.372	341
882.383	204
882.454	-269
882.489	-616
882.535	-787
882.596	-582
882.616	-517
882.697	-425
882.702	-430
882.778	-91
882.808	115
882.859	216
882.914	200
882.940	211
883.020	-583
883.021	-582
883.102	74
883.127	74
883.183	-392
883.233	-723
883.264	-679
883.339	-125
883.345	-97
883.426	-643
883.445	-596
883.507	-340
883.551	-426
883.587	-503
883.657	-369
883.668	-260
883.749	446
883.763	438
883.830	-548
883.869	-776
883.910	-526
883.975	9
883.991	81
884.072	122
884.081	97
884.152	-136
884.187	-214
884.233	-352
884.292	-363
884.314	-261
884.394	-208
884.398	-191
884.475	166
884.504	165
884.555	6
884.610	-163
884.636	-272
884.716	-458
884.716	-450
884.797	-4
884.821	119
884.877	-124
884.927	-292
884.958	-173
885.033	191
885.038	191
885.118	-160
885.139	-228
885.199	73
885.244	236
885.279	372
885.350	808
885.359	763
885.439	199
885.456	55
885.520	1
885.561	-5
885.600	-177
885.667	-296
885.680	-206
885.760	135
885.773	211
885.840	472
885.878	366
885.920	116
885.984	44
886.000	66
886.080	104
886.089	106
886.160	-21
886.195	-156
886.240	-390
886.300	-627
886.320	-402
886.400	487
886.406	548
886.480	496
886.511	383
886.560	625
886.616	950
886.640	852
886.720	348
886.722	333
886.800	262
886.827	256
886.879	258
886.932	117
886.959	231
887.038	786
887.039	788
887.119	325
887.143	172
887.198	170
887.248	260
887.278	290
887.354	237
887.358	243
887.437	244
887.459	279
887.517	314
887.564	268
887.596	104
887.669	-243
887.676	-209
887.755	208
887.774	250
887.835	126
887.880	156
887.914	76
887.985	-187
887.994	-182
888.073	-130
888.090	-113
888.153	280
888.195	430
888.232	138
888.300	-203
888.311	-124
888.391	175
888.405	252
888.470	22
888.510	-154
888.549	30
888.615	381
888.628	349
888.708	131
888.720	73
888.787	348
888.825	523
888.866	540
888.930	594
888.945	590
889.024	518
889.035	505
889.103	541
889.140	521
889.182	741
889.245	1104
889.261	1123
889.340	1166
889.349	1162
889.419	819
889.454	639
889.498	476
889.559	243
889.577	295
889.656	511
889.664	531
889.735	163
889.768	-12
889.814	219
889.873	527
889.978	667
890.083	1334
890.187	713
890.292	330
890.397	32
890.501	-341
890.606	862
890.710	725
890.815	275
890.919	202
891.024	440
891.128	868
891.233	-97
891.337	1355
891.442	1238
891.546	655
891.650	214
891.755	602
891.859	1597
891.963	546
892.068	1002
892.172	676
892.276	217
892.380	536
892.484	1056
892.589	441
892.693	538
892.797	482
892.901	204
893.005	525
893.109	720
893.213	170
893.317	637
893.421	705
893.525	-303
893.629	733
893.733	348
893.837	614
893.941	295
894.045	1718
894.148	1120
894.252	1046
894.356	652
894.460	715
894.564	827
894.667	408
894.771	994
894.875	570
894.978	-130
895.082	662
895.186	-435
895.289	1111
895.393	470
895.496	396
895.600	392
895.703	361
895.807	693
895.910	442
896.014	695
896.117	131
896.221	802
896.324	208
896.427	-136
896.531	801
896.634	-250
896.737	757
896.840	1125
896.944	-240
897.047	413
897.150	1011
897.253	-14
897.356	348
897.460	619
897.563	729
897.666	-274
897.769	681
897.872	619
897.975	487
898.078	603
898.181	638
898.284	652
898.387	562
898.490	440
898.593	21
898.695	173
898.798	339
898.901	-144
899.004	775
899.107	368
899.209	486
899.312	182
899.415	920
899.518	606
899.620	215
899.723	966
899.826	3277
899.928	1988
900.031	604
900.133	-172
900.236	677
900.338	418
900.441	403
900.543	727
900.646	1131
900.748	156
900.851	1251
900.953	219
901.055	653
901.158	167
901.260	454
901.362	333
901.465	374
901.567	917
901.669	204
901.771	-328
901.873	753
901.976	-28
902.078	371
902.180	-19
902.282	198
902.384	213
902.486	1151
902.588	-670
902.690	375
902.792	352
902.894	449
902.996	331
903.098	698
903.200	816
903.302	1011
903.404	700
903.505	-331
903.607	-78
903.709	1155
903.811	-83
903.913	203
904.014	-546
904.116	32
904.218	-488
904.319	1199
904.421	1256
904.523	334
904.624	768
904.726	1098
904.827	-40
904.929	720
905.030	-311
905.132	629
905.233	336
905.335	778
905.436	861
905.537	544
905.639	-154
905.740	323
905.841	71
905.943	857
906.044	50
906.145	685
906.247	81
906.348	-43
906.449	-369
906.550	147
906.651	764
906.752	718
906.854	-941
906.955	-24
907.056	220
907.157	862
907.258	25
907.359	861
907.460	92
907.561	249
907.662	-256
907.762	410
907.863	-52
907.964	-44
908.065	507
908.166	497
908.267	-563
908.367	192
908.468	-262
908.569	439
908.670	596
908.770	2124
908.871	1205
908.971	625
909.072	772
909.173	734
909.273	-140
909.374	77
909.474	-93
909.575	457
909.675	490
909.776	1146
909.876	1037
909.977	286
910.077	-599
910.177	552
910.278	621
910.378	315
910.478	483
910.579	137
910.679	231
910.779	714
910.879	468
910.980	872
911.080	-76
911.180	337
911.280	-592
911.380	843
911.480	189
911.580	383
911.680	141
911.780	973
911.880	869
911.980	103
912.080	126
912.180	778
912.280	-5
912.380	-695
912.480	-101
912.580	798
912.679	89
912.779	692
912.879	16
912.979	465
913.078	283
913.178	-443
913.278	-68
913.377	417
913.477	-202
913.577	539
913.676	1134
913.776	223
913.875	-446
913.975	688
914.074	262
914.174	-58
914.273	135
914.373	995
914.472	92
914.572	-309
914.671	1195
914.770	211
914.870	378
914.969	15
915.068	-720
915.167	632
915.267	-401
915.366	809
915.465	997
915.564	688
915.663	831
915.763	153
915.862	439
915.961	-207
916.060	-7
916.159	374
916.258	337
916.357	290
916.456	303
916.555	475
916.654	-102
916.752	18
916.851	-26
916.950	821
917.049	-91
917.148	540
917.247	-83
917.345	564
917.444	-408
917.543	691
917.642	377
917.740	483
917.839	242
917.937	612
918.036	-107
918.135	330
918.233	362
918.332	563
918.430	-448
918.529	-47
918.627	-769
918.726	254
918.824	290
918.923	47
919.021	853
919.119	161
919.218	-357
919.316	8
919.414	-868
919.512	1261
919.611	-294
919.709	840
919.807	143
919.905	-535
920.003	71
920.102	725
920.200	372
920.298	-264
920.396	48
920.494	1038
920.592	214
920.690	719
920.788	46
920.886	140
920.984	637
921.082	414
921.180	1259
921.277	995
921.375	384
921.473	121
921.571	319
921.669	874
921.766	-466
921.864	746
921.962	1092
922.060	759
922.157	309
922.255	16
922.352	331
922.450	313
922.548	-369
922.645	1526
922.743	58
922.840	559
922.938	850
923.035	1396
923.133	1336
923.230	114
923.327	455
923.425	756
923.522	1090
923.619	892
923.717	736
923.814	294
923.911	553
924.008	1031
924.106	-122
924.203	569
924.300	183
924.397	552
924.494	746
924.591	1134
924.688	563
924.786	547
924.883	519
924.979	368
925.077	102
925.173	472
925.270	149
925.367	866
925.464	1375
925.561	984
925.658	1330
925.755	1179
925.852	96
925.948	906
926.045	1047
926.142	851
926.239	784
926.335	526
926.432	346
926.529	776
926.625	1505
926.722	749
926.818	1099
926.915	987
927.011	803
927.108	863
927.204	19
927.301	877
927.397	1103
927.494	1372
927.590	-105
927.687	749
927.783	106
927.879	368
927.976	54
928.072	356
928.168	560
928.264	541
928.361	978
928.457	-335
928.553	-459
928.649	666
928.745	-509
928.841	337
928.937	351
929.033	1114
929.129	-54
929.225	698
929.321	712
929.417	340
929.513	106
929.609	477
929.705	264
929.801	282
929.897	-602
929.993	435
930.089	-189
930.184	926
930.280	-124
930.376	189
930.471	-210
930.567	365
930.663	-106
930.758	-60
930.854	106
930.950	504
931.045	67
931.141	251
931.236	-145
931.332	301
931.427	136
931.523	512
931.618	600
931.714	577
931.809	344
931.905	-498
932.000	495
932.095	633
932.191	271
932.286	888
932.381	-325
932.476	756
932.572	98
932.667	319
932.762	-35
932.857	610
932.952	775
933.047	612
933.142	-5
933.237	-31
933.332	-713
933.427	1252
933.522	-327
933.617	-613
933.712	-303
933.807	-107
933.902	-416
933.997	284
934.092	-468
934.187	133
934.282	-281
934.376	671
934.471	-216
934.566	265
934.661	74
934.755	1402
934.850	-167
934.945	112
935.039	-280
935.134	559
935.228	221
935.323	372
935.417	-19
935.512	-105
935.606	120
935.701	560
935.795	197
935.890	6
935.984	129
936.079	-189
936.173	575
936.267	-237
936.362	-783
936.456	-71
936.550	-253
936.644	392
936.738	-725
936.833	-76
936.927	278
937.021	284
937.115	-216
937.209	-250
937.303	1093
937.397	-28
937.491	472
937.585	180
937.679	-106
937.773	449
937.867	30
937.961	260
938.055	345
938.149	898
938.243	209
938.337	-156
938.430	532
938.524	-284
938.618	488
938.712	387
938.805	-186
938.899	43
938.993	-56
939.086	551
939.180	730
939.274	510
939.367	87
939.461	256
939.554	-246
939.648	833
939.741	-400
939.835	661
939.928	-250
940.022	684
940.115	20
940.208	352
940.302	-269
940.395	879
940.488	-848
940.582	199
940.675	-374
940.768	689
940.861	-326
940.954	71
941.048	363
941.141	581
941.234	431
941.327	2316
941.420	1542
941.513	474
941.606	-1158
941.699	1018
941.792	-608
941.885	361
941.978	741
942.071	480
942.164	-733
942.257	-112
942.349	-261
942.442	45
942.535	-438
942.628	250
942.721	399
942.813	-783
942.906	645
942.999	-619
943.091	-200
943.184	-237
943.277	-562
943.369	1019
943.462	291
943.554	727
943.647	-670
943.739	-258
943.832	-852
943.924	-685
944.017	719
944.109	0
944.201	-550
944.294	175
944.386	-513
944.478	-96
944.571	-952
944.663	-237
944.755	-590
944.847	215
944.940	297
945.032	-1216
945.124	-411
945.216	1308
945.308	-107
945.400	147
945.492	-70
945.584	287
945.676	-189
945.768	395
945.860	391
945.952	763
946.044	-569
946.136	-326
946.228	405
946.320	-236
946.412	-363
946.503	-520
946.595	283
946.687	326
946.779	-856
946.870	-25
946.962	-792
947.054	76
947.145	944
947.237	259
947.329	-111
947.420	-550
947.512	-386
947.603	-128
947.695	-226
947.786	189
947.878	-584
947.969	426
948.061	-1284
948.152	-479
948.243	-1404
948.335	131
948.426	-633
948.517	411
948.609	63
948.700	-419
948.791	-166
948.882	764
948.973	-878
949.065	-542
949.156	-229
949.247	-563
949.338	-185
949.429	-332
949.520	49
949.611	-213
949.702	-312
949.793	-95
949.884	-156
949.975	-314
950.066	-455
950.157	-587
950.247	-976
950.338	-339
950.429	-382
950.520	-359
950.611	-352
950.701	54
950.792	-599
950.883	445
950.973	-365
951.064	516
951.155	185
951.245	221
951.336	-523
951.427	-373
951.517	1078
951.608	-402
951.698	-664
951.788	-12
951.879	-261
951.969	-666
952.060	-220
952.150	-409
952.240	642
952.331	-1320
952.421	847
952.511	-441
952.602	-397
952.692	-788
952.782	-172
952.872	-607
952.962	-609
953.052	-509
953.143	-64
953.233	220
953.323	-521
953.413	-348
953.503	-403
953.593	-335
953.683	-93
953.773	-822
953.863	261
953.953	-762
954.042	-536
954.132	-490
954.222	880
954.312	174
954.402	-410
954.492	161
954.581	-29
954.671	-679
954.761	-777
954.850	1136
954.940	-63
955.030	521
955.119	-351
955.209	115
955.298	-516
955.388	-600
955.477	669
955.567	-720
955.656	519
955.746	335
955.835	-408
955.925	-119
956.014	-314
956.103	-787
956.193	-218
956.282	-468
956.371	92
956.461	219
956.550	-625
956.639	-145
956.728	-1348
956.817	161
956.906	-158
956.995	712
957.085	-557
957.174	-380
957.263	-1221
957.352	533
957.441	-568
957.530	80
957.619	-331
957.708	-348
957.796	-32
957.885	-126
957.974	-275
958.063	577
958.152	-1473
958.241	-794
958.329	-223
958.418	-219
958.507	-835
958.596	493
958.684	-941
958.773	140
958.861	-669
958.950	-28
959.039	150
959.127	38
959.216	-755
959.304	-230
959.393	-490
959.481	-181
959.570	-614
959.658	82
959.746	-598
959.835	139
959.923	31
960.011	-271
960.100	287
960.188	-199
960.276	-280
960.365	942
960.453	-707
960.541	-392
960.629	-752
960.717	-45
960.805	-784
960.893	303
960.981	-1358
961.069	521
961.158	-737
961.245	100
961.333	-88
961.421	-824
961.509	-514
961.597	336
961.685	-1027
961.773	139
961.861	-459
961.949	915
962.036	-712
962.124	376
962.212	-923
962.299	293
962.387	-582
962.475	-32
962.562	-1246
962.650	-332
962.738	-112
962.825	-13
962.913	31
963.000	-351
963.088	-650
963.175	-254
963.263	313
963.350	-213
963.438	-594
963.525	-308
963.612	349
963.700	1683
963.787	3403
963.874	242
963.962	141
964.049	237
964.136	-324
964.223	199
964.310	-216
964.398	-37
964.485	-1015
964.572	186
964.659	-412
964.746	261
964.833	-1097
964.920	-211
965.007	-447
965.094	19
965.181	114
965.268	381
965.355	-514
965.441	-303
965.528	-1398
965.615	593
965.702	-293
965.789	-809
965.875	432
965.962	-518
966.049	-762
966.136	-44
966.222	-611
966.309	-379
966.395	-1044
966.482	188
966.569	-559
966.655	-44
966.742	-689
966.828	-231
966.915	-1052
967.001	138
967.087	-1007
967.174	-1216
967.260	403
967.347	-163
967.433	843
967.519	1411
967.605	-820
967.692	-799
967.778	-801
967.864	-351
967.950	-857
968.036	-490
968.123	-769
968.209	-799
968.295	-1184
968.381	827
968.467	-330
968.553	-908
968.639	645
968.725	-428
968.811	444
968.897	-303
968.983	-114
969.069	-968
969.154	-345
969.240	398
969.326	-1409
969.412	-584
969.497	-869
969.583	-842
969.669	-446
969.755	-179
969.840	-1846
969.926	-303
970.012	-858
970.097	532
970.183	-580
970.268	-720
970.354	143
970.439	-1110
970.525	732
970.610	-1044
970.696	-434
970.781	-302
970.866	-1038
970.952	90
971.037	-1356
971.122	-552
971.208	-331
971.293	-987
971.378	-1719
971.463	-577
971.549	-650
971.634	-584
971.719	-952
971.804	-1549
971.889	-385
971.974	-932
972.059	-789
972.144	126
972.229	-635
972.314	-636
972.399	-886
972.484	-1035
972.569	-394
972.654	-1652
972.739	686
972.824	-518
972.908	-878
972.993	-1228
973.078	-1299
973.163	-673
973.247	-1127
973.332	-1864
973.417	69
973.501	-415
973.586	-947
973.671	65
973.755	-561
973.840	662
973.924	-778
974.009	-417
974.093	-327
974.178	95
974.262	-552
974.346	-366
974.431	-602
974.515	-476
974.600	-1323
974.684	-1058
974.768	-1402
974.852	-188
974.937	-1237
975.021	-115
975.105	-669
975.189	-723
975.273	-436
975.358	-726
975.442	-1307
975.526	-292
975.610	-1734
975.694	-855
975.778	373
975.862	-654
975.946	-2313
976.030	209
976.114	-1209
976.198	-413
976.281	-543
976.365	-362
976.449	-1695
976.533	190
976.617	-1258
976.700	-923
976.784	33
976.868	-871
976.951	-465
977.035	-524
977.119	-781
977.202	-647
977.286	-822
977.369	-926
977.453	42
977.536	-532
977.620	-1407
977.703	230
977.787	-1922
977.870	-194
977.953	-151
978.037	-1448
978.120	-46
978.203	-1143
978.287	-92
978.370	-1111
978.453	-1720
978.536	-564
978.620	121
978.703	-41
978.786	-1592
978.869	-749
978.952	-1856
979.035	1074
979.118	-644
979.201	-881
979.284	-697
979.367	-606
979.450	-203
979.533	-744
979.616	-1862
979.699	-877
979.782	-941
979.865	-458
979.948	-812
980.030	-1422
980.113	-1392
980.196	-1597
980.279	-471
980.361	-1124
980.444	-1210
980.526	-539
980.609	-1024
980.692	-1032
980.774	-1083
980.857	-1696
980.939	-739
981.022	-1391
981.104	-1245
981.187	-826
981.269	-486
981.352	-1021
981.434	-1380
981.516	-1948
981.599	607
981.681	-264
981.763	-1283
981.846	-957
981.928	-1004
982.010	-1079
982.092	-1681
982.174	254
982.256	-641
982.339	-774
982.421	-1300
982.503	-290
982.585	-900
982.667	-956
982.749	-1389
982.831	-908
982.913	-1497
982.995	183
983.077	-1469
983.158	10
983.240	-1700
983.322	-186
983.404	-600
983.486	-1362
983.568	-885
983.649	-1238
983.731	452
983.813	-1372
983.894	-166
983.976	-1352
984.058	-718
984.139	-181
984.221	-2334
984.302	-375
984.384	-690
984.465	-1334
984.547	-637
984.628	-1514
984.710	-1103
984.791	-518
984.872	-1043
984.954	-1177
985.035	-765
985.116	-1955
985.198	-1658
985.279	-68
985.360	-1427
985.441	-1240
985.522	-1112
985.604	-1059
985.685	-2586
985.766	-404
985.847	-722
985.928	-1811
986.009	-1524
986.090	-1057
986.171	-877
986.252	-1392
986.333	-838
986.414	-696
986.495	-57
986.576	-1365
986.656	-1613
986.737	-170
986.818	-1131
986.899	-1378
986.980	-1087
987.060	-1391
987.141	-1786
987.222	-832
987.302	-1476
987.383	-890
987.464	-928
987.544	-936
987.625	-1591
987.705	-279
987.786	-630
987.866	-825
987.947	-1284
988.027	-1210
988.108	-1685
988.188	-433
988.268	-1243
988.349	-1261
988.429	-1473
988.509	-209
988.589	-868
988.670	-2103
988.750	39
988.830	-1504
988.910	-886
988.990	-905
989.070	-1269
989.151	-1368
989.231	-1878
989.311	-326
989.391	-1289
989.471	-1077
989.551	-2076
989.631	-1672
989.711	-933
989.791	-1002
989.870	-800
989.950	73
990.030	-1985
990.110	-1260
990.190	-1840
990.269	-1554
990.349	-2161
990.429	-360
990.509	6
990.588	-1314
990.668	-1331
990.747	-1310
990.827	-789
990.907	-394
990.986	-1503
991.066	-933
991.145	-1131
991.225	-579
991.304	-1750
991.383	-661
991.463	-1672
991.542	-898
991.622	-1316
991.701	-922
991.780	-1607
991.859	-1446
991.939	-1147
992.018	-1377
992.097	-1309
992.176	-798
992.256	-1754
992.335	-2033
992.414	-613
992.493	-858
992.572	-1509
992.651	-151
992.730	-2205
992.809	-1072
992.888	-1863
992.967	-1970
993.046	-1291
993.125	-1682
993.203	-1245
993.282	-614
993.361	-1393
993.440	-286
993.519	-1973
993.597	-1222
993.676	-1221
993.755	-1502
993.834	-2007
993.912	-1915
993.991	-393
994.069	-1844
994.148	-1759
994.226	-1454
994.305	-1316
994.384	-1292
994.462	-99
994.540	-1179
994.619	-1874
994.697	-1007
994.776	-1197
994.854	-611
994.932	-1067
995.011	-1295
995.089	-757
995.167	-1055
995.245	-1561
995.324	-1585
995.402	-397
995.480	-1851
995.558	-553
995.636	-1164
995.714	-1877
995.792	-797
995.870	-1646
995.948	-1213
996.026	-1290
996.104	-2107
996.182	-995
996.260	-821
996.338	-380
996.416	-1522
996.494	-1168
996.572	-771
996.649	-1850
996.727	-1732
996.805	-726
996.883	-2016
996.960	-2150
997.038	-1358
997.116	-1176
997.193	-1798
997.271	-1634
997.348	-1091
997.426	-1092
997.504	-1584
997.581	-1204
997.658	-594
997.736	-1881
997.813	-1577
997.891	-522
997.968	-2039
998.046	-1395
998.123	-1703
998.200	-923
998.277	-1855
998.355	-1322
998.432	-1938
998.509	-1669
998.586	-876
998.663	-1566
998.741	-1090
998.818	-2050
998.895	-1570
998.972	-1286
999.049	-767
999.126	-796
999.203	-44
999.280	-1189
999.357	-2024
999.434	-1543
999.511	-1529
999.587	-690
999.664	-1430
999.741	-1308
999.818	-833
999.895	-1818
999.971	-1922
1000.048	-1127
1000.125	-625
1000.202	-2180
1000.278	-1022
1000.355	-1842
1000.431	-1301
1000.508	-1092
1000.584	-714
1000.661	-1162
1000.738	-1809
1000.814	-1534
1000.890	-772
1000.967	-1868
1001.043	-990
1001.120	-2465
1001.196	-1148
1001.272	-2124
1001.349	-1103
1001.425	-669
1001.501	-1395
1001.577	-2790
1001.654	-728
1001.730	-2096
1001.806	-1211
1001.882	-2044
1001.958	-559
1002.034	-1363
1002.110	-491
1002.186	-1892
1002.262	-940
1002.338	-2351
1002.414	-1307
1002.490	-1532
1002.566	-1862
1002.642	-1397
1002.718	-636
1002.794	-2201
1002.870	-2074
1002.945	-3072
1003.021	-1396
1003.097	-1811
1003.173	-1125
1003.248	-2071
1003.324	-1945
1003.400	-1099
1003.475	-1865
1003.551	-1296
1003.626	-1041
1003.702	-1700
1003.777	-715
1003.853	-1367
1003.928	-1727
1004.004	-1692
1004.079	-1549
1004.155	-1138
1004.230	-2801
1004.305	-784
1004.381	-1628
1004.456	-1361
1004.531	-1227
1004.607	-2298
1004.682	-1031
1004.757	-1469
1004.832	-1377
1004.907	-1629
1004.982	-978
1005.057	-1526
1005.133	-1142
1005.208	-1475
1005.283	-1860
1005.358	-825
1005.433	-2027
1005.508	-918
1005.583	-1679
1005.657	-1665
1005.732	-1590
1005.807	-2157
1005.882	-1635
1005.957	-1697
1006.032	-1364
1006.106	-1764
1006.181	-2257
1006.256	-1050
1006.331	-1458
1006.405	-1796
1006.480	-1307
1006.554	-2176
1006.629	-1205
1006.704	-1683
1006.778	-1599
1006.853	-655
1006.927	-2370
1007.002	-1683
1007.076	-1996
1007.150	-1778
1007.225	-778
1007.299	-1566
1007.373	-1950
1007.448	-2154
1007.522	-712
1007.596	-1939
1007.671	-1661
1007.745	-1059
1007.819	-2072
1007.893	-1676
1007.967	-1204
1008.041	-2953
1008.115	-939
1008.190	-2254
1008.264	-701
1008.338	-2782
1008.412	-1973
1008.486	-1988
1008.560	-1649
1008.633	-2290
1008.707	-1321
1008.781	-1422
1008.855	-2211
1008.929	-1658
1009.003	-1908
1009.076	-1348
1009.150	-1650
1009.224	-1861
1009.298	-639
1009.371	-2387
1009.445	-373
1009.519	-1599
1009.592	-2493
1009.666	-1351
1009.739	-1299
1009.813	-1738
1009.886	62
1009.960	-2411
1010.033	-757
1010.107	-1759
1010.180	-2087
1010.253	-1895
1010.327	-2183
1010.400	-2131
1010.473	-1937
1010.547	-405
1010.620	-1712
1010.693	-1535
1010.766	-2132
1010.840	-1691
1010.913	-1127
1010.986	-3207
1011.059	-1562
1011.132	-1450
1011.205	-1038
1011.278	-2416
1011.351	-1920
1011.424	-2225
1011.497	-2027
1011.570	-1456
1011.643	-2057
1011.716	-2197
1011.789	-2000
1011.862	-2278
1011.934	-650
1012.007	-2510
1012.080	-932
1012.153	-1930
1012.225	-339
1012.298	-2162
1012.371	-2059
1012.443	-1117
1012.516	-2294
1012.588	-1763
1012.661	-1643
1012.733	-2641
1012.806	-981
1012.879	-1970
1012.951	-1110
1013.023	-1413
1013.096	-1341
1013.168	-1924
1013.241	-1850
1013.313	-2126
1013.385	-1580
1013.458	-1377
1013.530	-1539
1013.602	-2324
1013.674	-1518
1013.746	-2296
1013.819	-1485
1013.891	-1794
1013.963	-3053
1014.035	-1528
1014.107	-2156
1014.179	-1638
1014.251	-1924
1014.323	-1763
1014.395	-1810
1014.467	-1991
1014.539	-1487
1014.611	-1968
1014.683	-1905
1014.754	-1898
1014.826	-2735
1014.898	-1975
1014.970	-3042
1015.042	-1171
1015.113	-2051
1015.185	-1826
1015.257	-2449
1015.328	-1273
1015.400	-2357
1015.471	-2130
1015.543	-2351
1015.615	-2527
1015.686	-1740
1015.757	-2109
1015.829	-1604
1015.901	-2029
1015.972	-1588
1016.043	-2581
1016.115	-1566
1016.186	-2208
1016.257	-2312
1016.328	-1901
1016.400	-483
1016.471	-3506
1016.542	-1496
1016.613	-1922
1016.685	-1546
1016.756	-2092
1016.827	-1854
1016.898	-2432
1016.969	-779
1017.040	-1627
1017.111	-1058
1017.182	-2222
1017.253	-2092
1017.324	-2722
1017.395	-1853
1017.466	-1259
1017.537	-2209
1017.608	-2021
1017.678	-1943
1017.749	-2248
1017.820	-1501
1017.891	-2579
1017.961	-2457
1018.032	-2054
1018.103	-2163
1018.173	-1987
1018.244	-2194
1018.315	-2202
1018.385	-1586
1018.456	-2080
1018.526	-1863
1018.597	-2601
1018.667	-1658
1018.738	-2161
1018.808	-2233
1018.878	-2312
1018.949	-1851
1019.019	-1879
1019.089	-1377
1019.160	-1378
1019.230	-2510
1019.300	-1537
1019.371	-2296
1019.441	-2162
1019.511	-1345
1019.581	-1937
1019.651	-2714
1019.721	-1974
1019.791	-1654
1019.861	-1949
1019.931	-1539
1020.001	-2256
1020.071	-2179
1020.141	-2019
1020.211	-2108
1020.281	-2420
1020.351	-2410
1020.421	-2246
1020.491	-1936
1020.560	-1942
1020.630	-2409
1020.700	-1863
1020.770	-1915
1020.839	-2676
1020.909	-1878
1020.979	-2684
1021.048	-2566
1021.118	-1835
1021.187	-2276
1021.257	-2435
1021.326	-1497
1021.396	-2603
1021.465	-2109
1021.535	-1642
1021.604	-3058
1021.674	-2478
1021.743	-1916
1021.812	-2151
1021.882	-1023
1021.951	-1764
1022.020	-1112
1022.089	-1278
1022.159	-2345
1022.228	-2289
1022.297	-2131
1022.366	-1667
1022.435	-2683
1022.504	-1955
1022.573	-1384
1022.642	-1823
1022.711	-2124
1022.781	-1681
1022.849	-1814
1022.918	-2717
1022.987	-2136
1023.056	-2253
1023.125	-1857
1023.194	-2051
1023.263	-1536
1023.331	-2527
1023.400	-2205
1023.469	-1836
1023.538	-1733
1023.606	-1755
1023.675	-1879
1023.744	-2911
1023.812	-2919
1023.881	-2280
1023.949	-1484
1024.018	-2010
1024.086	-1973
1024.155	-2448
1024.223	-1617
1024.292	-1019
1024.360	-2017
1024.429	-1893
1024.497	-2687
1024.565	-1459
1024.634	-2092
1024.702	-2345
1024.770	-1111
1024.838	-1906
1024.907	-1566
1024.975	-2002
1025.043	-1256
1025.111	-2198
1025.179	-1323
1025.247	-2342
1025.315	-1606
1025.383	-2353
1025.451	-2211
1025.519	-2459
1025.587	-2237
1025.655	-2418
1025.723	-1885
1025.791	-2042
1025.859	-889
1025.927	-1822
1025.995	-1490
1026.062	-1516
1026.130	-921
1026.198	-2058
1026.266	-2474
1026.333	-1246
1026.401	-1641
1026.469	-2127
1026.536	-1774
1026.604	-2070
1026.671	-2001
1026.739	-2558
1026.806	-2160
1026.874	-1574
1026.941	-2027
1027.009	-2255
1027.076	-2344
1027.144	-1577
1027.211	-1418
1027.278	-2701
1027.345	-2227
1027.413	-2147
1027.480	-2058
1027.547	-1367
1027.614	-1587
1027.682	-976
1027.749	-2088
1027.816	-1967
1027.883	-1907
1027.950	-1947
1028.017	-2114
1028.084	-2329
1028.151	-2286
1028.218	-1832
1028.285	-1468
1028.352	-1917
1028.419	-1891
1028.486	-2025
1028.553	-2250
1028.619	-1806
1028.686	-1573
1028.753	-2485
1028.820	-2214
1028.886	-2223
1028.953	-1585
1029.020	-1702
1029.086	-1462
1029.153	-2206
1029.220	-2159
1029.286	-1318
1029.353	-2103
1029.419	-1865
1029.486	-1935
1029.552	-2380
1029.619	-1895
1029.685	-2100
1029.751	-2087
1029.818	-1809
1029.884	-2279
1029.951	-1179
1030.017	-1419
1030.083	-2879
1030.149	-1624
1030.216	-2699
1030.282	-1476
1030.348	-2238
1030.414	-2246
1030.480	-1354
1030.546	-1743
1030.612	-1899
1030.678	-1519
1030.744	-2338
1030.810	-1667
1030.876	-2236
1030.942	-2233
1031.008	-2431
1031.074	-1374
1031.140	-3003
1031.206	-2079
1031.272	-2810
1031.337	-1589
1031.403	-2758
1031.469	-1938
1031.534	-3090
1031.600	-1747
1031.666	-2282
1031.731	-2043
1031.797	-2542
1031.863	-1637
1031.928	-1848
1031.994	-2435
1032.059	-2157
1032.125	-1907
1032.190	-2497
1032.256	-2588
1032.321	-2785
1032.386	-1959
1032.452	-2066
1032.517	-2360
1032.582	-1936
1032.647	-1754
1032.713	-2186
1032.778	-1394
1032.843	-2497
1032.908	-1470
1032.974	-1425
1033.039	-1767
1033.104	-1940
1033.169	-1929
1033.234	-2467
1033.299	-1511
1033.364	-1707
1033.429	-1599
1033.494	-2246
1033.559	-1865
1033.624	-1642
1033.688	-1111
1033.753	-2492
1033.818	-1512
1033.883	-1638
1033.948	-983
1034.013	-2349
1034.077	-1416
1034.142	-1588
1034.207	-1006
1034.271	-1069
1034.336	-1308
1034.400	-2303
1034.465	-1208
1034.530	-1664
1034.594	-2298
1034.658	-1820
1034.723	-2261
1034.787	-2012
1034.852	-1222
1034.916	-2637
1034.981	-1848
1035.045	-1837
1035.109	-1793
1035.173	-1857
1035.238	-3176
1035.302	-1829
1035.366	-1687
1035.430	-1831
1035.495	-2214
1035.559	-1613
1035.623	-1257
1035.687	-2071
1035.751	-1702
1035.815	-1897
1035.879	-2091
1035.943	-2038
1036.007	-1451
1036.071	-1710
1036.135	-1873
1036.198	-1450
1036.262	-1750
1036.326	-1670
1036.390	-1080
1036.454	-1295
1036.517	-1154
1036.581	-1733
1036.645	-783
1036.709	-1318
1036.772	-1580
1036.836	-2069
1036.900	-1145
1036.963	-1736
1037.026	-892
1037.090	-2303
1037.154	-1555
1037.217	-1336
1037.280	-1926
1037.344	-2908
1037.407	-2294
1037.471	-1953
1037.534	-1741
1037.597	-1807
1037.661	-2160
1037.724	-1569
1037.787	-1372
1037.850	-2547
1037.913	-2276
1037.977	-1387
1038.040	-2452
1038.103	-1966
1038.166	-1713
1038.229	-2394
1038.292	-2193
1038.355	-1790
1038.418	-1689
1038.481	-1870
1038.544	-1949
1038.607	-2430
1038.670	-1745
1038.732	-2209
1038.795	-2524
1038.858	-1691
1038.921	-1499
1038.984	-2143
1039.046	-2565
1039.109	-2020
1039.172	-2217
1039.234	-2449
1039.297	-2423
1039.360	-2235
1039.422	-2005
1039.485	-2322
1039.547	-1778
1039.610	-2456
1039.672	-2223
1039.734	-1977
1039.797	-2389
1039.859	-1407
1039.922	-2075
1039.984	-1717
1040.046	-2567
1040.109	-1902
1040.171	-2572
1040.233	-2328
1040.295	-1524
1040.358	-2975
1040.420	-1894
1040.482	-2793
1040.544	-1998
1040.606	-2140
1040.668	-1539
1040.730	-2022
1040.792	-1810
1040.854	-2003
1040.916	-2301
1040.978	-1975
1041.040	-991
1041.102	-1875
1041.164	-2035
1041.225	-2070
1041.287	-3132
1041.349	-2192
1041.411	-1942
1041.472	-2247
1041.534	-1925
1041.596	-1741
1041.657	-1740
1041.719	-2757
1041.781	-2598
1041.842	-1771
1041.904	-1273
1041.965	-2322
1042.027	-1572
1042.088	-2554
1042.150	-1662
1042.211	-2288
1042.272	-1295
1042.334	-1761
1042.395	-1456
1042.456	-2302
1042.518	-1598
1042.579	-2313
1042.640	-1581
1042.701	-1725
1042.763	-2064
1042.824	-2447
1042.885	-2445
1042.946	-2955
1043.007	-1949
1043.068	-2774
1043.129	-1439
1043.190	-2219
1043.251	-1776
1043.312	-2510
1043.373	-1975
1043.434	-2829
1043.495	-2032
1043.556	-1926
1043.616	-1727
1043.677	-2749
1043.738	-2168
1043.799	-1837
1043.859	-1277
1043.920	-2435
1043.981	-2329
1044.041	-2257
1044.102	-1891
1044.162	-1884
1044.223	-2064
1044.284	-2751
1044.344	-1066
1044.405	-1995
1044.465	-2096
1044.525	-1662
1044.586	-1374
1044.646	-2033
1044.707	-2238
1044.767	-2029
1044.827	-1670
1044.887	-2277
1044.948	-2008
1045.008	-2341
1045.068	-2478
1045.128	-1970
1045.188	-1912
1045.249	-453
1045.309	-1882
1045.369	-2168
1045.429	-1518
1045.489	-1779
1045.549	-1695
1045.609	-2796
1045.669	-2506
1045.729	-1787
1045.789	-1869
1045.848	-1884
1045.908	-2419
1045.968	-1731
1046.028	-1346
1046.088	-1525
1046.147	-781
1046.207	-1569
1046.267	-733
1046.326	-2701
1046.386	-1141
1046.446	-1158
1046.505	-1035
1046.565	-1341
1046.624	-1108
1046.684	-1386
1046.743	-345
1046.803	-929
1046.862	317
1046.922	0
