'Start Wavelength	183.907
'End Wavelength	1046.922
'Gate Delay	5.000
'Gate Width (ms)	1.050
'Laser Output Level	0.000
'X Position	0.000
'Y Position	0.000
'Z Position	0.000
'Grid Point Number	1.000
'Shot Number	100.000
183.907	434.000
183.977	-240.000
184.047	-142
184.116	220
184.186	357
184.256	-376
184.325	166
184.395	-950
184.465	122
184.534	-48
184.604	-87
184.674	-63
184.743	73
184.813	422
184.883	-467
184.952	-570
185.022	69
185.092	-628
185.161	118
185.231	-20
185.301	-125
185.370	-235
185.440	-462
185.509	82
185.579	303
185.649	-720
185.718	560
185.788	640
185.857	105
185.927	-477
185.996	399
186.066	-530
186.136	-104
186.205	-1019
186.275	746
186.344	-797
186.414	-997
186.483	-1031
186.553	914
186.622	891
186.692	407
186.761	171
186.831	594
186.900	-1131
186.970	961
187.039	433
187.109	627
187.178	-214
187.248	351
187.317	761
187.387	-290
187.456	-769
187.526	40
187.595	77
187.664	192
187.734	-30
187.803	387
187.873	-145
187.942	839
188.012	467
188.081	290
188.150	-530
188.220	255
188.289	557
188.358	-46
188.428	174
188.497	-843
188.567	-5
188.636	173
188.705	-451
188.775	281
188.844	-982
188.913	813
188.983	-40
189.052	-122
189.121	323
189.191	54
189.260	-94
189.329	771
189.399	-3
189.468	150
189.537	-564
189.606	616
189.676	-93
189.745	639
189.814	847
189.883	379
189.953	-337
190.022	227
190.091	693
190.161	1740
190.230	994
190.299	61
190.368	187
190.437	-33
190.507	189
190.576	547
190.645	-604
190.714	-375
190.783	-902
190.853	445
190.922	393
190.991	597
191.060	501
191.129	-190
191.198	269
191.268	550
191.337	-309
191.406	1177
191.475	-120
191.544	-409
191.613	538
191.682	418
191.752	-77
191.821	111
191.890	-429
191.959	634
192.028	428
192.097	873
192.166	93
192.235	-23
192.304	-209
192.373	-24
192.442	-240
192.511	-18
192.580	680
192.650	580
192.719	-304
192.788	578
192.857	553
192.926	41
192.995	150
193.064	259
193.133	1085
193.202	1249
193.271	950
193.340	1456
193.409	543
193.478	1318
193.547	1095
193.615	2739
193.684	1355
193.753	940
193.822	558
193.891	426
193.960	617
194.029	288
194.098	580
194.167	511
194.236	1040
194.305	189
194.374	85
194.443	254
194.512	196
194.580	311
194.649	482
194.718	608
194.787	279
194.856	-310
194.925	614
194.994	193
195.062	559
195.131	829
195.200	417
195.269	1318
195.338	1023
195.407	594
195.475	445
195.544	795
195.613	530
195.682	1087
195.751	756
195.819	912
195.888	434
195.957	1785
196.026	663
196.094	1101
196.163	1578
196.232	1287
196.301	-6
196.369	1429
196.438	254
196.507	1439
196.576	293
196.644	458
196.713	-648
196.782	208
196.850	618
196.919	740
196.988	443
197.056	1339
197.125	194
197.194	235
197.262	833
197.331	699
197.400	-317
197.468	574
197.537	-67
197.606	558
197.674	539
197.743	2355
197.812	49
197.880	1564
197.949	957
198.017	1586
198.086	864
198.155	755
198.223	85
198.292	1674
198.360	360
198.429	935
198.497	641
198.566	2246
198.635	1626
198.703	1373
198.772	912
198.840	2026
198.909	1548
198.977	528
199.046	648
199.114	828
199.183	1071
199.251	575
199.320	111
199.388	146
199.457	-306
199.525	676
199.594	418
199.662	545
199.731	705
199.799	1343
199.867	647
199.936	1201
200.004	-315
200.073	531
200.141	275
200.210	363
200.278	212
200.346	1295
200.415	1537
200.483	831
200.552	468
200.620	1233
200.688	589
200.757	824
200.825	-187
200.893	990
200.962	-21
201.030	538
201.098	130
201.167	842
201.235	667
201.303	950
201.372	194
201.440	415
201.508	916
201.577	1153
201.645	192
201.713	1021
201.781	307
201.850	1983
201.918	634
201.986	962
202.055	743
202.123	1331
202.191	562
202.259	679
202.327	616
202.396	1590
202.464	277
202.532	1550
202.600	3250
202.669	1844
202.737	439
202.805	367
202.873	378
202.941	1109
203.009	504
203.078	724
203.146	1225
203.214	274
203.282	-294
203.350	950
203.418	-105
203.487	1310
203.555	654
203.623	726
203.691	650
203.759	155
203.827	789
203.895	1025
203.963	842
204.031	871
204.099	188
204.168	708
204.236	1173
204.304	1120
204.372	748
204.440	1049
204.508	337
204.576	473
204.644	600
204.712	757
204.780	194
204.848	1432
204.916	621
204.984	943
205.052	600
205.120	862
205.188	824
205.256	656
205.324	591
205.392	208
205.460	1609
205.528	923
205.596	635
205.664	755
205.732	824
205.799	2655
205.867	4484
205.935	1683
206.003	1135
206.071	1578
206.139	95
206.207	1001
206.275	581
206.343	813
206.411	984
206.478	1114
206.546	846
206.614	-54
206.682	495
206.750	1351
206.818	661
206.885	1497
206.953	93
207.021	1443
207.089	1073
207.157	183
207.225	277
207.292	1095
207.360	689
207.428	1040
207.496	1036
207.563	1463
207.631	872
207.699	889
207.767	829
207.834	1177
207.902	753
207.970	1616
208.038	1279
208.105	973
208.173	1661
208.241	1880
208.309	1765
208.376	2353
208.444	3016
208.512	777
208.579	-70
208.647	1845
208.715	1684
208.782	1769
208.850	1140
208.918	1260
208.985	589
209.053	1249
209.120	1592
209.188	1540
209.256	1194
209.323	1560
209.391	1736
209.459	2664
209.526	730
209.594	1321
209.661	739
209.729	1738
209.796	2090
209.864	1491
209.932	280
209.999	1951
210.067	1645
210.134	1798
210.202	673
210.269	2684
210.337	2361
210.404	1271
210.472	1448
210.539	1788
210.607	1364
210.674	1072
210.742	1431
210.809	1429
210.877	1200
210.944	2607
211.012	792
211.079	3076
211.146	1521
211.214	1353
211.281	1409
211.349	2185
211.416	850
211.484	2138
211.551	828
211.618	1277
211.686	2150
211.753	1428
211.821	1753
211.888	2267
211.955	1606
212.023	2272
212.090	1237
212.157	1653
212.225	1301
212.292	2866
212.359	4732
212.427	11787
212.494	5245
212.561	3229
212.629	1794
212.696	1770
212.763	1579
212.831	1497
212.898	1893
212.965	1368
213.032	1695
213.100	2198
213.167	2240
213.234	2699
213.301	1804
213.369	2140
213.436	1526
213.503	1576
213.570	2468
213.638	1918
213.705	473
213.772	1208
213.839	1821
213.906	2407
213.973	2307
214.041	1580
214.108	1747
214.175	2464
214.242	1654
214.309	2150
214.376	2287
214.444	1530
214.511	2466
214.578	2274
214.645	1438
214.712	2313
214.779	2034
214.846	2405
214.913	3089
214.980	3245
215.048	3782
215.115	4437
215.182	3043
215.249	2393
215.316	2005
215.383	2463
215.450	1257
215.517	1292
215.584	1388
215.651	1460
215.718	2168
215.785	2480
215.852	1593
215.919	2275
215.986	2586
216.053	1978
216.120	554
216.187	2148
216.254	1646
216.321	2266
216.388	2284
216.455	1926
216.522	2263
216.589	3399
216.656	3894
216.722	5322
216.789	4264
216.856	5067
216.923	3230
216.990	3308
217.057	2355
217.124	3702
217.191	2772
217.258	5249
217.324	5803
217.391	7486
217.458	4342
217.525	3590
217.592	2223
217.659	1889
217.725	2796
217.792	3319
217.859	2930
217.926	2209
217.993	1557
218.059	1974
218.126	1448
218.193	2022
218.260	-193
218.327	1636
218.393	812
218.460	1007
218.527	896
218.594	2199
218.660	3140
218.727	3667
218.794	1189
218.860	1539
218.927	697
218.994	1216
219.061	1437
219.127	2422
219.194	2502
219.261	1625
219.327	381
219.394	1016
219.461	244
219.527	1431
219.594	2159
219.661	2152
219.727	-379
219.794	1679
219.860	558
219.927	1635
219.994	1256
220.060	5030
220.127	3487
220.193	2080
220.260	2006
220.326	3588
220.393	6118
220.460	10412
220.526	5584
220.593	2914
220.659	4344
220.726	2975
220.792	7053
220.859	7509
220.925	10145
220.992	15965
221.058	13247
221.125	11249
221.191	6770
221.258	3575
221.324	2750
221.391	2071
221.457	1533
221.524	1491
221.590	1584
221.657	7759
221.723	6298
221.789	4420
221.856	5132
221.922	2627
221.989	2378
222.055	1413
222.121	412
222.188	4074
222.254	1507
222.321	1022
222.387	1294
222.453	1189
222.520	690
222.586	951
222.652	1489
222.719	243
222.785	1345
222.851	774
222.918	1274
222.984	1630
223.050	791
223.116	247
223.183	1655
223.249	343
223.315	565
223.382	1254
223.448	1190
223.514	446
223.580	581
223.647	317
223.713	122
223.779	763
223.845	662
223.911	1453
223.978	-252
224.044	74
224.110	622
224.176	1276
224.242	432
224.309	228
224.375	337
224.441	470
224.507	827
224.573	28
224.639	617
224.705	-365
224.772	730
224.838	746
224.904	1353
224.970	1022
225.036	449
225.102	52
225.168	1634
225.234	1267
225.300	1419
225.366	1472
225.432	449
225.499	1031
225.565	943
225.631	1059
225.697	660
225.763	1301
225.829	2607
225.895	2377
225.961	4363
226.027	3260
226.093	1833
226.159	2569
226.225	4946
226.291	12462
226.357	22818
226.423	12417
226.489	5749
226.554	4578
226.620	3690
226.686	5061
226.752	7715
226.818	11563
226.884	27134
226.950	25795
227.016	9435
227.082	5519
227.148	4167
227.214	4237
227.279	3814
227.345	3022
227.411	2436
227.477	2394
227.543	4928
227.609	5867
227.674	2996
227.740	2496
227.806	2291
227.872	1746
227.938	879
228.003	3905
228.069	2159
228.135	685
228.201	1135
228.267	1240
228.332	2825
228.398	2283
228.464	1712
228.530	1058
228.595	570
228.661	1247
228.727	2867
228.792	3152
228.858	869
228.924	177
228.990	2886
229.055	1126
229.121	2430
229.187	1115
229.252	2338
229.318	1659
229.384	1253
229.449	2737
229.515	27
229.581	11
229.646	1904
229.712	1666
229.777	3908
229.843	4847
229.909	3964
229.974	3418
230.040	3679
230.105	2028
230.171	2285
230.236	3007
230.302	4640
230.368	4629
230.433	1820
230.499	2174
230.564	2615
230.630	1532
230.695	1140
230.761	2090
230.826	202
230.892	3752
230.957	610
231.023	1683
231.088	1073
231.154	1046
231.219	1983
231.284	2702
231.350	3656
231.415	393
231.481	1096
231.546	1081
231.612	1283
231.677	675
231.742	-416
231.808	2497
231.873	209
231.939	-473
232.004	3086
232.069	4323
232.135	1058
232.200	434
232.265	1622
232.331	67
232.396	300
232.461	836
232.527	307
232.592	463
232.657	780
232.723	3632
232.788	2592
232.853	1949
232.918	924
232.984	702
233.049	-88
233.114	1766
233.179	2629
233.245	4259
233.310	5666
233.375	1192
233.440	1235
233.506	1043
233.571	1163
233.636	913
233.701	931
233.766	2536
233.832	4856
233.897	1701
233.962	1320
234.027	4050
234.092	2142
234.157	1192
234.222	931
234.288	3504
234.353	11092
234.418	10329
234.483	7317
234.548	4281
234.613	2387
234.678	2646
234.743	2606
234.808	11818
234.873	7378
234.938	4116
235.004	2569
235.069	2445
235.134	1018
235.199	2586
235.264	2269
235.329	487
235.394	1834
235.459	3585
235.524	1063
235.589	2343
235.654	781
235.719	231
235.784	2816
235.849	2307
235.913	5695
235.978	7568
236.043	8090
236.108	2678
236.173	2403
236.238	3986
236.303	984
236.368	1649
236.433	3739
236.498	6920
236.563	4916
236.627	8220
236.692	31010
236.757	27502
236.822	10722
236.887	8053
236.952	6416
237.017	4138
237.081	6240
237.146	5765
237.211	14841
237.276	29911
237.341	53594
237.405	27425
237.470	11097
237.535	8996
237.600	4533
237.664	3963
237.729	3138
237.794	4715
237.859	10269
237.923	6833
237.988	3559
238.053	6148
238.118	5232
238.182	13717
238.247	14150
238.312	6282
238.376	4824
238.441	2583
238.506	4239
238.570	1296
238.635	3265
238.700	2828
238.764	1793
238.829	5951
238.893	8630
238.958	4483
239.023	3820
239.087	2555
239.152	2690
239.216	1107
239.281	2088
239.346	1468
239.410	1320
239.475	2360
239.539	13815
239.604	11307
239.668	3916
239.733	2157
239.797	2483
239.862	9402
239.926	13225
239.991	5347
240.055	2914
240.120	2060
240.184	2365
240.249	2285
240.313	2266
240.378	2099
240.442	7597
240.507	14558
240.571	3969
240.635	5542
240.700	9289
240.764	4015
240.829	2147
240.893	919
240.957	2283
241.022	8090
241.086	14572
241.151	7047
241.215	1798
241.279	4719
241.344	8610
241.408	4381
241.472	1930
241.537	3548
241.601	2288
241.665	1572
241.730	2096
241.794	3141
241.858	1778
241.922	3181
241.987	1578
242.051	1746
242.115	773
242.179	2725
242.244	1323
242.308	3175
242.372	2356
242.436	2924
242.501	1587
242.565	759
242.629	1916
242.693	2552
242.757	1213
242.822	2394
242.886	2101
242.950	2645
243.014	1577
243.078	3245
243.142	3242
243.206	1390
243.271	3040
243.335	1834
243.399	3655
243.463	13427
243.527	39938
243.591	13282
243.655	5681
243.719	3061
243.783	4383
243.847	6550
243.911	8266
243.975	11514
244.040	8396
244.104	5116
244.168	2496
244.232	5131
244.296	8233
244.360	8027
244.424	4855
244.488	3751
244.552	3357
244.615	796
244.679	2337
244.743	3261
244.807	3105
244.871	2634
244.935	2382
244.999	1284
245.063	2360
245.127	4134
245.191	5491
245.255	5048
245.319	4315
245.383	5272
245.446	3928
245.510	1481
245.574	3084
245.638	3618
245.702	2693
245.766	9196
245.829	5340
245.893	3355
245.957	2906
246.021	4036
246.085	3014
246.149	4457
246.212	10847
246.276	16274
246.340	7397
246.404	5816
246.467	6238
246.531	8623
246.595	5173
246.659	5763
246.722	4251
246.786	7884
246.850	7328
246.913	8675
246.977	3088
247.041	3663
247.104	4432
247.168	4347
247.232	10672
247.295	22599
247.359	12476
247.423	4615
247.486	10723
247.550	7042
247.614	5203
247.677	7781
247.741	4414
247.804	3894
247.868	4250
247.932	8269
247.995	21817
248.059	8730
248.122	3848
248.186	6004
248.249	9401
248.313	33647
248.376	37664
248.440	24428
248.503	8883
248.567	8768
248.630	10279
248.694	16450
248.757	18465
248.821	37390
248.884	25268
248.948	21171
249.011	28546
249.075	42165
249.138	39204
249.202	15756
249.265	9411
249.328	11276
249.392	8351
249.455	7259
249.519	4945
249.582	6758
249.645	12463
249.709	9432
249.772	3738
249.835	5364
249.899	6342
249.962	5809
250.025	4079
250.089	12790
250.152	20411
250.215	9624
250.279	6500
250.342	6567
250.405	5766
250.468	5038
250.532	7389
250.595	11083
250.658	34380
250.721	62907
250.785	23977
250.848	13679
250.911	8195
250.974	7912
251.038	8650
251.101	22414
251.164	11086
251.227	11080
251.290	9292
251.354	14044
251.417	49791
251.480	53815
251.543	31806
251.606	91692
251.669	72894
251.732	28063
251.795	29104
251.859	29211
251.922	59438
251.985	38130
252.048	14580
252.111	11075
252.174	9486
252.237	20108
252.300	44002
252.363	45042
252.426	80715
252.489	36466
252.552	19820
252.615	12987
252.678	13430
252.741	31187
252.804	36693
252.867	80472
252.930	53132
252.993	30452
253.056	18315
253.119	14216
253.182	9668
253.245	15890
253.308	12353
253.371	13807
253.434	12171
253.497	11144
253.559	21986
253.622	16005
253.685	20203
253.748	24757
253.811	10729
253.874	12815
253.937	11430
254.000	9405
254.062	14132
254.125	24390
254.188	20258
254.251	20201
254.314	9233
254.376	16858
254.439	21163
254.502	18231
254.565	14846
254.628	28162
254.690	20015
254.753	11020
254.816	8911
254.878	9638
254.941	15217
255.004	18003
255.067	8385
255.129	8722
255.192	5044
255.255	4451
255.317	6077
255.380	3977
255.443	3409
255.505	3427
255.568	2763
255.631	3248
255.693	3493
255.756	2649
255.819	3470
255.881	2837
255.944	2536
256.006	3018
256.069	2414
256.132	2839
256.194	3913
256.257	13512
256.319	9915
256.382	9717
256.444	4885
256.507	4094
256.569	2839
256.632	3317
256.694	6363
256.757	16716
256.819	50950
256.882	20821
256.944	9054
257.007	8296
257.069	7998
257.132	5407
257.194	5080
257.257	3721
257.319	3263
257.381	4497
257.444	12645
257.506	56366
257.569	70003
257.631	41195
257.693	20610
257.756	9161
257.818	7539
257.880	5584
257.943	4522
258.005	4057
258.067	3251
258.130	3628
258.192	5685
258.254	12489
258.317	7006
258.379	4681
258.441	12807
258.503	14170
258.566	14816
258.628	23664
258.690	5382
258.753	5500
258.815	11620
258.877	6218
258.939	3720
259.001	2971
259.064	2888
259.126	3941
259.188	6368
259.250	5225
259.312	6235
259.375	21027
259.437	13913
259.499	4499
259.561	3466
259.623	4807
259.685	3620
259.747	4327
259.809	13214
259.872	29685
259.934	39361
259.996	39050
260.058	11168
260.120	4817
260.182	3286
260.244	3519
260.306	3278
260.368	3940
260.430	2702
260.492	7992
260.554	17131
260.616	16064
260.678	20986
260.740	32816
260.802	8546
260.864	7163
260.926	4765
260.988	5329
261.050	4281
261.112	9354
261.174	27947
261.236	25056
261.298	8056
261.359	12905
261.421	21245
261.483	5725
261.545	5400
261.607	2768
261.669	4057
261.731	7555
261.793	23269
261.854	10873
261.916	6425
261.978	5073
262.040	5172
262.102	4652
262.164	7600
262.225	7526
262.287	3949
262.349	12108
262.411	10404
262.472	5334
262.534	8122
262.596	21194
262.658	6740
262.719	3059
262.781	6171
262.843	18876
262.904	9327
262.966	5866
263.028	6252
263.090	28056
263.151	76309
263.213	26585
263.275	14678
263.336	6597
263.398	4967
263.459	3978
263.521	3531
263.583	10777
263.644	8561
263.706	3701
263.767	1918
263.829	2732
263.891	1302
263.952	1501
264.014	1296
264.075	3612
264.137	10845
264.198	6631
264.260	2304
264.321	2468
264.383	7806
264.444	19282
264.506	5979
264.567	2904
264.629	6086
264.690	12785
264.752	5108
264.813	3917
264.875	2444
264.936	3273
264.998	2657
265.059	1789
265.120	2619
265.182	5142
265.243	26523
265.305	29120
265.366	7610
265.427	4543
265.489	3080
265.550	1358
265.611	3350
265.673	3878
265.734	3017
265.795	2581
265.857	521
265.918	2623
265.979	6396
266.040	42809
266.102	38178
266.163	11062
266.224	9007
266.286	5572
266.347	2392
266.408	4446
266.469	3364
266.530	2380
266.592	2576
266.653	7040
266.714	13762
266.775	4307
266.836	2950
266.898	2493
266.959	4049
267.020	3729
267.081	2863
267.142	2238
267.203	1683
267.264	1915
267.326	3069
267.387	2441
267.448	1381
267.509	2415
267.570	1920
267.631	2249
267.692	1392
267.753	1922
267.814	1360
267.875	4991
267.936	15990
267.997	5915
268.058	5474
268.119	3308
268.180	4162
268.241	2570
268.302	2652
268.363	2546
268.424	3148
268.485	2842
268.546	2018
268.607	1329
268.668	1703
268.729	761
268.790	1586
268.851	3391
268.912	8369
268.972	14097
269.033	6627
269.094	2319
269.155	2193
269.216	1780
269.277	2158
269.338	1668
269.398	2833
269.459	3189
269.520	3875
269.581	8001
269.642	8788
269.702	5841
269.763	4188
269.824	3233
269.885	3868
269.945	8264
270.006	3227
270.067	1512
270.128	1843
270.188	1567
270.249	1560
270.310	910
270.370	1010
270.431	2117
270.492	1878
270.553	2626
270.613	7257
270.674	17366
270.734	6843
270.795	3072
270.856	5343
270.916	4679
270.977	2155
271.038	4363
271.098	4201
271.159	7180
271.219	7719
271.280	3663
271.340	2730
271.401	3445
271.462	11055
271.522	5759
271.583	3362
271.643	3126
271.704	2249
271.764	4096
271.825	10136
271.885	33621
271.946	47582
272.006	15513
272.066	19055
272.127	35604
272.187	11091
272.248	6575
272.308	5673
272.369	21651
272.429	14114
272.489	11532
272.550	11812
272.610	11597
272.671	10230
272.731	7147
272.791	14262
272.852	8346
272.912	6973
272.972	3690
273.033	3308
273.093	7127
273.153	6932
273.214	3889
273.274	4308
273.334	17122
273.394	36684
273.455	17001
273.515	14564
273.575	34689
273.635	13915
273.696	17321
273.756	34131
273.816	16192
273.876	8739
273.936	17492
273.997	32822
274.057	9608
274.117	6313
274.177	9033
274.237	40986
274.297	38909
274.358	28914
274.418	28331
274.478	23654
274.538	9980
274.598	7073
274.658	25759
274.718	36143
274.778	15076
274.838	7598
274.898	14336
274.958	48152
275.018	36672
275.078	23866
275.138	10434
275.198	5190
275.258	4326
275.318	5386
275.378	11966
275.438	14277
275.498	8934
275.558	19340
275.618	43949
275.678	28093
275.738	16952
275.798	13229
275.858	6227
275.918	3522
275.978	5560
276.038	5619
276.098	3446
276.157	8341
276.217	28474
276.277	13352
276.337	9883
276.397	4694
276.457	6735
276.517	4402
276.576	2863
276.636	3688
276.696	6245
276.756	16083
276.815	13357
276.875	4944
276.935	7383
276.995	5629
277.055	2947
277.114	3456
277.174	5465
277.234	21522
277.293	10626
277.353	5564
277.413	4541
277.472	3839
277.532	4734
277.592	5330
277.651	16529
277.711	33620
277.771	11656
277.830	37789
277.890	35046
277.950	20049
278.009	60452
278.069	23488
278.128	22690
278.188	35377
278.248	15087
278.307	34204
278.367	23680
278.426	7065
278.486	4575
278.545	4183
278.605	3437
278.664	2307
278.724	4084
278.783	11347
278.843	34849
278.902	10493
278.962	6549
279.021	6752
279.081	6885
279.140	6974
279.199	6875
279.259	5459
279.318	5662
279.378	7784
279.437	14676
279.496	55435
279.556	149188
279.615	130174
279.675	34958
279.734	19990
279.793	28518
279.853	45357
279.912	19019
279.971	10128
280.031	9312
280.090	16654
280.149	32591
280.208	23253
280.268	97685
280.327	113657
280.386	29113
280.445	21839
280.505	22440
280.564	9430
280.623	8263
280.682	12237
280.742	20610
280.801	6119
280.860	5463
280.919	3792
280.978	3702
281.037	2854
281.097	2283
281.156	3677
281.215	3200
281.274	4866
281.333	21488
281.392	19305
281.451	4874
281.510	3091
281.569	3264
281.628	2122
281.688	2899
281.747	3206
281.806	3740
281.865	2669
281.924	2413
281.983	2935
282.042	1849
282.101	1536
282.160	2161
282.219	1980
282.278	2852
282.337	13205
282.396	10982
282.454	3451
282.513	5185
282.572	21299
282.631	14626
282.690	3423
282.749	3629
282.808	4687
282.867	3588
282.926	4742
282.985	2615
283.043	1436
283.102	2907
283.161	3420
283.220	8062
283.279	23905
283.338	8033
283.396	3605
283.455	4207
283.514	3737
283.573	6901
283.631	5864
283.690	3573
283.749	2849
283.808	8459
283.866	11737
283.925	3788
283.984	3494
284.043	4951
284.101	6477
284.160	3460
284.219	4609
284.277	4519
284.336	7304
284.395	27998
284.453	25383
284.512	8529
284.570	10988
284.629	9910
284.688	6745
284.746	8563
284.805	9610
284.863	11807
284.922	15999
284.981	16787
285.039	23764
285.098	41564
285.156	100738
285.215	187512
285.273	185275
285.332	115955
285.390	59459
285.449	36357
285.507	23918
285.566	17047
285.624	12280
285.683	10170
285.741	7486
285.799	7238
285.858	6690
285.916	5814
285.975	4444
286.033	3552
286.091	3464
286.150	2853
286.208	3138
286.267	4444
286.325	4561
286.383	8562
286.442	6609
286.500	3129
286.558	2475
286.616	3150
286.675	4731
286.733	4363
286.791	2999
286.850	4145
286.908	6249
286.966	12349
287.024	4663
287.083	3253
287.141	2488
287.199	3161
287.257	5860
287.315	4587
287.374	3540
287.432	11724
287.490	8286
287.548	4459
287.606	3202
287.664	2891
287.723	4815
287.781	7465
287.839	2949
287.897	4274
287.955	4568
288.013	7401
288.071	18075
288.129	64763
288.187	193274
288.245	89841
288.303	26262
288.361	15215
288.419	11783
288.477	7941
288.535	4837
288.593	3672
288.651	3531
288.709	1829
288.767	2571
288.825	2270
288.883	2204
288.941	2148
288.999	2020
289.057	2188
289.115	1730
289.173	2582
289.231	2905
289.289	3251
289.346	2601
289.404	3670
289.462	6461
289.520	7697
289.578	3419
289.636	1852
289.694	1236
289.751	1800
289.809	2040
289.867	1268
289.925	2996
289.983	3987
290.040	1217
290.098	1396
290.156	2879
290.214	3334
290.271	1832
290.329	1629
290.387	1074
290.444	1679
290.502	681
290.560	1172
290.617	959
290.675	1536
290.733	1394
290.790	2941
290.848	1861
290.906	3094
290.963	2605
291.021	2172
291.078	2372
291.136	2733
291.194	8550
291.251	23758
291.309	7393
291.366	2409
291.424	2680
291.481	2722
291.539	2462
291.596	2169
291.654	764
291.711	936
291.769	1404
291.826	7437
291.884	3606
291.941	1840
291.999	1826
292.056	3009
292.114	3609
292.171	1713
292.228	1544
292.286	2968
292.343	8086
292.401	11047
292.458	6534
292.515	3477
292.573	5044
292.630	5286
292.687	4324
292.745	3300
292.802	3541
292.859	11420
292.917	24376
292.974	16473
293.031	4237
293.089	3288
293.146	1744
293.203	2721
293.260	2197
293.318	3928
293.375	6021
293.432	2894
293.489	1931
293.546	2138
293.604	4423
293.661	12336
293.718	34434
293.775	19358
293.832	8543
293.889	7161
293.947	7923
294.004	6733
294.061	5569
294.118	11369
294.175	23382
294.232	25045
294.289	10321
294.346	4991
294.403	4271
294.460	4531
294.517	2741
294.574	3141
294.631	2088
294.688	3968
294.745	9933
294.802	37480
294.859	41495
294.916	19410
294.973	11994
295.030	9772
295.087	7777
295.144	4562
295.201	3969
295.258	4293
295.315	4506
295.372	14941
295.429	30367
295.486	13287
295.542	7380
295.599	14072
295.656	27204
295.713	19257
295.770	29478
295.827	11571
295.883	6465
295.940	5798
295.997	9918
296.054	11189
296.111	4737
296.167	3998
296.224	2232
296.281	2000
296.338	2265
296.394	2825
296.451	4259
296.508	11873
296.564	25536
296.621	17063
296.678	28880
296.734	45570
296.791	17511
296.848	8818
296.904	9441
296.961	23344
297.018	32502
297.074	26218
297.131	9828
297.187	7509
297.244	10513
297.301	29167
297.357	56063
297.414	22253
297.470	7801
297.527	5502
297.583	4763
297.640	4366
297.696	3539
297.753	3193
297.809	2041
297.866	1541
297.922	2141
297.979	1485
298.035	3240
298.092	6351
298.148	18123
298.204	20682
298.261	8500
298.317	12680
298.374	36958
298.430	24348
298.486	10199
298.543	8400
298.599	5900
298.656	7177
298.712	12716
298.768	29432
298.824	20798
298.881	7562
298.937	3403
298.993	5019
299.050	6003
299.106	4535
299.162	3630
299.218	4577
299.275	2257
299.331	4507
299.387	8498
299.443	31117
299.500	36755
299.556	14618
299.612	6474
299.668	6069
299.724	7195
299.780	8787
299.837	5576
299.893	8973
299.949	29372
300.005	38811
300.061	27919
300.117	46971
300.173	24547
300.229	11092
300.285	12823
300.341	17073
300.397	7559
300.453	5789
300.510	4420
300.566	4948
300.622	5205
300.678	15697
300.734	33854
300.790	30317
300.845	35705
300.901	22781
300.957	33127
301.013	28102
301.069	10525
301.125	7185
301.181	7517
301.237	5328
301.293	2432
301.349	3624
301.405	2174
301.461	3052
301.516	2964
301.572	4305
301.628	10045
301.684	8671
301.740	11931
301.796	22988
301.851	15626
301.907	24962
301.963	27732
302.019	34561
302.074	91132
302.130	94702
302.186	42218
302.242	17778
302.297	12146
302.353	12375
302.409	21587
302.464	20114
302.520	14997
302.576	35184
302.631	42686
302.687	26525
302.743	10768
302.798	6588
302.854	4351
302.910	6464
302.965	5890
303.021	13406
303.076	12845
303.132	15804
303.187	20450
303.243	11372
303.299	4722
303.354	4939
303.410	3495
303.465	2973
303.521	3072
303.576	3698
303.632	4959
303.687	9931
303.743	26982
303.798	26078
303.853	10818
303.909	5591
303.964	4582
304.020	9105
304.075	14080
304.130	12535
304.186	23764
304.241	25988
304.297	20533
304.352	10969
304.358	10430
304.407	6063
304.449	6616
304.463	6799
304.518	6569
304.539	6230
304.573	5675
304.629	5400
304.630	5479
304.684	9503
304.720	17859
304.739	21952
304.794	35399
304.811	30558
304.850	18458
304.902	8971
304.905	8396
304.960	5569
304.992	5683
305.015	5755
305.071	4905
305.083	4757
305.126	4222
305.173	2823
305.181	2612
305.236	3025
305.264	3311
305.292	3680
305.347	4983
305.354	5071
305.402	5581
305.445	6338
305.457	6554
305.512	8042
305.535	8671
305.567	9346
305.622	8716
305.626	8956
305.678	17189
305.716	32121
305.733	36647
305.788	44660
305.807	38663
305.843	29063
305.897	34685
305.898	34708
305.953	34564
305.988	23321
306.008	17527
306.063	11311
306.078	10176
306.118	7695
306.168	5472
306.173	5347
306.228	4794
306.259	4464
306.283	4185
306.338	4256
306.349	4347
306.393	4953
306.440	5089
306.448	5120
306.503	6410
306.530	7048
306.558	10595
306.613	22114
306.620	24184
306.668	36064
306.711	44869
306.723	44690
306.778	35501
306.801	26992
306.833	18134
306.888	9376
306.892	8999
306.943	7300
306.982	6324
306.997	6059
307.052	5974
307.072	6007
307.107	7059
307.162	9411
307.163	9438
307.217	15106
307.253	19075
307.272	19464
307.327	19896
307.343	18771
307.381	16219
307.434	13793
307.436	14349
307.491	29647
307.524	43395
307.546	45170
307.600	44478
307.614	40169
307.655	25271
307.704	11690
307.710	11452
307.765	15043
307.795	18267
307.819	22332
307.874	35740
307.885	36702
307.929	29071
307.975	19443
307.984	19760
308.038	25675
308.065	31265
308.093	56067
308.148	113379
308.156	125173
308.202	187515
308.246	235368
308.257	227569
308.312	127772
308.336	89230
308.366	69812
308.421	46811
308.426	44290
308.475	28080
308.517	18454
308.530	17315
308.585	14286
308.607	13247
308.639	13693
308.694	16071
308.697	16242
308.748	32710
308.787	48183
308.803	46800
308.857	36079
308.877	30283
308.912	25900
308.967	22650
308.967	22584
309.021	31522
309.058	39417
309.076	51099
309.130	90695
309.148	105514
309.185	179179
309.238	295467
309.239	296510
309.293	319299
309.328	303851
309.348	263160
309.402	130712
309.418	96564
309.457	68756
309.508	41465
309.511	41110
309.566	38447
309.598	38083
309.620	45996
309.674	69263
309.688	75410
309.729	70300
309.778	56608
309.783	55308
309.837	38732
309.868	30501
309.892	39478
309.946	63956
309.959	70707
310.001	92730
310.049	114531
310.055	110116
310.109	61293
310.139	33562
310.163	26681
310.218	15724
310.229	13833
310.272	12097
310.319	10434
310.326	10332
310.381	9820
310.409	9604
310.435	9500
310.489	9185
310.499	9117
310.543	9586
310.589	10220
310.598	10273
310.652	10457
310.679	10481
310.706	9479
310.760	7238
310.769	6881
310.814	6531
310.859	6197
310.868	6280
310.923	6745
310.948	6953
310.977	7917
311.031	9821
311.038	10069
311.085	9620
311.128	8874
311.139	8788
311.193	8306
311.218	8101
311.247	7882
311.301	7366
311.308	7282
311.356	7695
311.398	8072
311.410	7896
311.464	6957
311.488	6477
311.518	6641
311.572	7045
311.578	7068
311.626	11939
311.668	16282
311.680	16123
311.734	14921
311.758	14395
311.788	14057
311.842	13363
311.847	13251
311.896	17923
311.937	21894
311.950	21578
312.004	19901
312.027	19077
312.058	15911
312.112	10159
312.117	9561
312.165	9096
312.207	8661
312.297	15734
312.386	11994
312.476	11277
312.566	26692
312.656	12280
312.745	7588
312.835	8632
312.925	10770
313.015	9768
313.104	10557
313.194	7084
313.284	8528
313.374	11449
313.463	11761
313.553	8304
313.643	7284
313.732	5861
313.822	6808
313.912	8031
314.001	11327
314.091	12291
314.180	17369
314.270	15324
314.360	18337
314.449	14391
314.539	9000
314.628	8191
314.718	11393
314.808	14519
314.897	8186
314.987	9087
315.076	13193
315.166	16877
315.255	16008
315.345	15617
315.434	15087
315.524	14079
315.613	15813
315.703	21031
315.792	25324
315.881	62058
315.971	24758
316.060	30240
316.150	42984
316.239	45332
316.328	16818
316.418	9967
316.507	10064
316.597	14089
316.686	12774
316.775	18672
316.865	43829
316.954	10827
317.043	7556
317.133	8664
317.222	9309
317.311	7669
317.400	8266
317.490	13808
317.579	17042
317.668	11385
317.757	18857
317.847	36210
317.936	108051
318.025	54401
318.114	29976
318.203	20413
318.293	23188
318.382	43794
318.471	37476
318.560	45588
318.649	95381
318.738	22329
318.828	18008
318.917	19302
319.006	21020
319.095	50952
319.184	119380
319.273	74548
319.362	41640
319.451	15398
319.540	14385
319.629	32132
319.718	59017
319.807	24555
319.896	40926
319.985	149779
320.074	60188
320.163	17951
320.252	27853
320.341	24161
320.430	20811
320.519	29279
320.608	17581
320.697	13336
320.786	13680
320.875	19254
320.964	25961
321.053	40525
321.142	57544
321.230	60757
321.319	42686
321.408	103365
321.497	42661
321.586	41577
321.675	47639
321.764	46031
321.852	29374
321.941	59679
322.030	40087
322.119	40046
322.207	105218
322.296	69512
322.385	36444
322.474	41441
322.562	123232
322.651	63978
322.740	46729
322.829	69138
322.917	64581
323.006	38522
323.095	33560
323.183	23139
323.272	34079
323.361	55046
323.449	150194
323.538	53900
323.626	112604
323.715	73055
323.804	30581
323.892	105295
323.981	64742
324.069	20417
324.158	55693
324.246	54404
324.335	22398
324.424	39090
324.512	12536
324.601	15813
324.689	18206
324.778	25035
324.866	44641
324.954	13384
325.043	14180
325.131	28873
325.220	47565
325.308	57435
325.397	40935
325.485	26242
325.574	9996
325.662	10236
325.750	11589
325.839	9742
325.927	7335
326.015	13891
326.104	18020
326.192	28121
326.280	9347
326.369	10092
326.457	15672
326.545	31056
326.634	12430
326.722	6512
326.810	8788
326.898	7107
326.987	10813
327.075	25991
327.163	27331
327.251	10724
327.340	8560
327.428	10000
327.516	6715
327.604	8204
327.692	9925
327.781	11187
327.869	21537
327.957	13605
328.045	13400
328.133	6709
328.221	10496
328.309	8865
328.397	8439
328.485	12012
328.574	18016
328.662	62263
328.750	32688
328.838	13442
328.926	8107
329.014	6876
329.102	13602
329.190	36300
329.278	24027
329.366	6308
329.454	5395
329.542	5911
329.630	4943
329.718	6687
329.806	10009
329.893	9177
329.981	6919
330.069	5773
330.157	13813
330.245	40190
330.333	22122
330.421	9509
330.509	17899
330.597	76247
330.684	49820
330.772	17495
330.860	24474
330.948	30893
331.036	13506
331.123	5274
331.211	7227
331.299	10485
331.387	25291
331.475	46993
331.562	13893
331.650	6525
331.738	10322
331.825	15471
331.913	6848
332.001	5693
332.089	11312
332.176	24780
332.264	57127
332.352	45337
332.439	14173
332.527	9978
332.614	9075
332.702	13319
332.790	9857
332.877	27240
332.965	55065
333.052	15361
333.140	14872
333.228	33458
333.315	10103
333.403	10427
333.490	34226
333.578	29287
333.665	36601
333.753	18393
333.840	8467
333.928	12810
334.015	38585
334.103	48791
334.190	146202
334.278	39870
334.365	19287
334.452	14264
334.540	8924
334.627	13139
334.715	20293
334.802	37670
334.889	174602
334.977	168235
335.064	26582
335.151	12524
335.239	13044
335.326	19108
335.413	68020
335.501	95651
335.588	15036
335.675	10260
335.762	14206
335.850	26508
335.937	18746
336.024	44913
336.111	187388
336.199	83604
336.286	18998
336.373	9055
336.460	6804
336.547	6667
336.635	10955
336.722	10597
336.809	10069
336.896	16909
336.983	47506
337.070	111739
337.157	151151
337.245	115183
337.332	80226
337.419	12126
337.506	9160
337.593	11617
337.680	34829
337.767	111207
337.854	33932
337.941	39456
338.028	50394
338.115	16283
338.202	20067
338.289	34492
338.376	121828
338.463	39442
338.550	64322
338.637	67668
338.724	26774
338.811	42657
338.898	10033
338.984	7033
339.071	10492
339.158	10996
339.245	36483
339.332	22322
339.419	29781
339.506	28416
339.593	5435
339.679	8222
339.766	7745
339.853	12158
339.940	27839
340.027	9738
340.113	9375
340.200	15107
340.287	9669
340.374	13062
340.460	24154
340.547	9557
340.634	18738
340.720	69578
340.807	39579
340.894	7002
340.980	8061
341.067	7000
341.154	9364
341.240	14027
341.327	35983
341.414	8262
341.500	5421
341.587	8434
341.674	8127
341.760	23758
341.847	30549
341.933	8518
342.020	3385
342.106	4629
342.193	9505
342.279	20046
342.366	13157
342.452	26005
342.539	14106
342.625	32317
342.712	77490
342.798	31523
342.885	13343
342.971	5176
343.058	4288
343.144	4487
343.230	5149
343.317	4709
343.403	4002
343.490	4218
343.576	4335
343.662	5514
343.749	7411
343.835	9480
343.921	20135
344.008	95859
344.094	212741
344.180	51228
344.267	24510
344.353	68535
344.439	78870
344.525	38055
344.612	11325
344.698	10474
344.784	8342
344.870	5423
344.957	6501
345.043	14043
345.129	9871
345.215	23574
345.301	10827
345.387	5374
345.474	4106
345.560	5219
345.646	7787
345.732	6678
345.818	7749
345.904	6691
345.990	10015
346.076	9762
346.162	18989
346.249	8121
346.335	5396
346.421	7890
346.507	26742
346.593	90143
346.679	22227
346.765	8785
346.851	8317
346.937	8174
347.023	6458
347.108	8860
347.194	6994
347.280	5430
347.366	9050
347.452	28537
347.538	109489
347.624	86113
347.710	75496
347.796	13329
347.882	7295
347.967	5916
348.053	10784
348.139	8077
348.225	6010
348.311	6772
348.397	5103
348.482	9086
348.568	12399
348.654	5346
348.740	8132
348.825	9350
348.911	13821
348.997	50012
349.083	99012
349.168	18345
349.254	5864
349.340	6052
349.425	5511
349.511	10824
349.597	11817
349.682	25099
349.768	75796
349.854	34349
349.939	8267
350.025	5737
350.110	4476
350.196	3229
350.282	2986
350.367	5023
350.453	12189
350.538	13430
350.624	10812
350.709	11450
350.795	5361
350.880	6615
350.966	6606
351.051	12015
351.137	9338
351.222	8017
351.308	24132
351.393	70745
351.479	15083
351.564	4235
351.649	7240
351.735	5063
351.820	3748
351.906	5696
351.991	10457
352.076	44567
352.162	67383
352.247	14842
352.332	9140
352.418	15499
352.503	20229
352.588	106708
352.673	89267
352.759	20490
352.844	9148
352.929	10951
353.014	16395
353.100	12310
353.185	25865
353.270	35262
353.355	28604
353.441	8454
353.526	10019
353.611	25895
353.696	32049
353.781	17497
353.866	6732
353.952	9436
354.037	27051
354.122	62006
354.207	54653
354.292	19469
354.377	7741
354.462	6907
354.547	11596
354.632	10860
354.717	18300
354.802	31057
354.887	11481
354.972	5741
355.057	4128
355.142	4560
355.227	8918
355.312	16296
355.397	40165
355.482	96448
355.567	44305
355.652	32631
355.737	33265
355.822	85344
355.907	67058
355.991	11903
356.076	7045
356.161	5931
356.246	5245
356.331	8257
356.416	19163
356.501	116198
356.585	121583
356.670	18670
356.755	14837
356.840	23746
356.924	100893
357.009	316370
357.094	118895
357.179	31639
357.263	20747
357.348	20535
357.433	20587
357.517	18595
357.602	14809
357.687	11012
357.771	16263
357.856	25219
357.941	20509
358.025	64292
358.110	270676
358.195	129523
358.279	24326
358.364	19188
358.448	68920
358.533	175550
358.617	127795
358.702	120946
358.787	44975
358.871	28808
358.956	23599
359.040	8043
359.125	5517
359.209	5901
359.294	12088
359.378	17577
359.462	20936
359.547	13430
359.631	9670
359.716	5695
359.800	6649
359.885	13960
359.969	9737
360.053	7723
360.138	7884
360.222	14219
360.306	28613
360.391	20123
360.475	25655
360.559	58967
360.644	68001
360.728	51122
360.812	66929
360.896	177547
360.981	89347
361.065	54549
361.149	15201
361.233	14133
361.318	11843
361.402	14959
361.486	11735
361.570	8548
361.654	12589
361.739	33689
361.823	120890
361.907	171903
361.991	31662
362.075	25127
362.159	57424
362.243	38440
362.327	33452
362.411	38931
362.495	22462
362.580	11338
362.664	7514
362.748	7197
362.832	10097
362.916	16495
363.000	55674
363.084	164023
363.168	213990
363.252	55155
363.336	23902
363.420	31538
363.503	102436
363.587	115369
363.671	24668
363.755	17759
363.839	27279
363.923	12202
364.007	28753
364.091	32149
364.175	38489
364.258	157370
364.342	108182
364.426	123323
364.510	69767
364.594	35880
364.677	36813
364.761	152218
364.845	105251
364.929	47747
365.013	41465
365.096	31906
365.180	38691
365.264	38781
365.347	155793
365.431	67972
365.515	22072
365.598	11404
365.682	10056
365.766	20221
365.849	24640
365.933	14305
366.017	17795
366.100	13374
366.184	5537
366.267	7975
366.351	6599
366.435	6147
366.518	4968
366.602	5210
366.685	7353
366.769	9385
366.852	18151
366.936	34506
367.019	19314
367.103	14667
367.186	28597
367.270	8352
367.353	5483
367.436	7018
367.520	5614
367.603	10976
367.687	17164
367.770	34644
367.853	17500
367.937	50155
368.020	82230
368.104	22709
368.187	24841
368.270	35955
368.353	30323
368.437	39826
368.520	88694
368.603	56116
368.687	65017
368.770	117168
368.853	28837
368.936	34029
369.020	31171
369.103	11303
369.186	7140
369.269	8474
369.352	22810
369.436	32510
369.519	19388
369.602	7263
369.685	10840
369.768	12396
369.851	8764
369.934	6138
370.018	11372
370.101	28926
370.184	21760
370.267	14038
370.350	25481
370.433	37154
370.516	82661
370.599	104697
370.682	38945
370.765	74447
370.848	78985
370.931	137687
371.014	54525
371.097	14154
371.180	8861
371.263	4957
371.346	3632
371.429	5952
371.511	6950
371.594	17465
371.677	27953
371.760	29347
371.843	23228
371.926	95209
372.009	218554
372.091	71265
372.174	52935
372.257	114583
372.340	44797
372.423	43821
372.505	48841
372.588	20603
372.671	43994
372.754	137053
372.836	64216
372.919	49512
373.002	97394
373.085	31775
373.167	24556
373.250	61042
373.332	120835
373.415	149376
373.498	304381
373.580	114742
373.663	147683
373.746	190965
373.828	48833
373.911	25036
373.993	25142
374.076	94082
374.159	87128
374.241	41011
374.324	124562
374.406	77635
374.489	84645
374.571	242619
374.654	101855
374.736	49217
374.819	148047
374.901	211312
374.983	216006
375.066	39521
375.148	17012
375.231	72905
375.313	141939
375.395	56766
375.478	14273
375.560	8849
375.643	13911
375.725	47080
375.807	191373
375.890	159834
375.972	81216
376.054	45652
376.136	70824
376.219	30252
376.301	55874
376.383	165348
376.465	62064
376.548	51171
376.630	53096
376.712	146546
376.794	64407
376.877	9721
376.959	7106
377.041	9992
377.123	23068
377.205	26949
377.287	5046
377.369	6361
377.452	9071
377.534	6464
377.616	7918
377.698	6522
377.780	5194
377.862	7834
377.944	8170
378.026	3173
378.108	5484
378.190	5859
378.272	5710
378.354	3954
378.436	4142
378.518	14115
378.600	50892
378.682	41862
378.764	86722
378.846	66812
378.928	22711
379.010	31654
379.091	15290
379.173	8000
379.255	7194
379.337	11063
379.419	40497
379.501	118850
379.583	45422
379.664	13995
379.746	34470
379.828	89066
379.910	115020
379.991	96394
380.073	15795
380.155	12441
380.237	9435
380.318	5320
380.400	7954
380.482	21271
380.564	34963
380.645	37773
380.727	33113
380.809	16319
380.890	11682
380.972	9136
381.053	8432
381.135	11136
381.217	28967
381.298	93193
381.380	44027
381.461	34201
381.543	144280
381.624	171885
381.706	33255
381.787	19233
381.869	19059
381.951	58106
382.032	224433
382.113	146202
382.195	37461
382.276	24105
382.358	52441
382.439	130270
382.521	134392
382.602	208709
382.684	95973
382.765	189318
382.846	196101
382.928	268585
383.009	140117
383.090	94086
383.172	352861
383.253	528679
383.334	186537
383.416	202261
383.497	99790
383.578	45672
383.659	84528
383.741	295520
383.822	745458
383.903	378204
383.984	149691
384.066	256021
384.147	157733
384.228	33522
384.309	28677
384.390	21255
384.471	14529
384.553	16985
384.634	26134
384.715	25821
384.796	12037
384.877	15788
384.958	74918
385.039	95351
385.120	33681
385.201	15679
385.282	21319
385.363	21038
385.444	15779
385.525	26709
385.606	97060
385.687	80483
385.768	22985
385.849	29506
385.930	106433
386.011	175742
386.092	48466
386.173	13823
386.254	11515
386.335	12217
386.416	12567
386.496	52295
386.577	88362
386.658	34783
386.739	21057
386.820	18993
386.901	15791
386.981	14412
387.062	9362
387.143	19988
387.224	85348
387.304	78121
387.385	29164
387.466	18817
387.547	23566
387.627	15509
387.708	30566
387.789	138722
387.869	161458
387.950	41479
388.031	9775
388.111	9614
388.192	30830
388.273	47477
388.353	25823
388.434	14557
388.514	25200
388.595	109492
388.676	153168
388.756	83794
388.837	86785
388.917	51468
388.998	10048
389.078	9574
389.159	8446
389.239	7850
389.320	17313
389.400	14992
389.480	31421
389.561	86257
389.641	40017
389.722	17218
389.802	29369
389.883	34109
389.963	94965
390.043	62263
390.124	22975
390.204	29996
390.284	99721
390.365	61938
390.445	66159
390.525	144093
390.605	118671
390.686	48885
390.766	18242
390.846	9684
390.927	6602
391.007	7529
391.087	10849
391.167	13367
391.247	9251
391.328	18907
391.408	26475
391.488	19076
391.568	6970
391.648	13535
391.728	19411
391.808	18441
391.888	20492
391.969	45852
392.049	77166
392.129	34002
392.209	36081
392.289	93083
392.369	50379
392.449	46637
392.529	31033
392.609	24076
392.689	27987
392.769	90676
392.849	75447
392.929	55332
393.009	132800
393.089	100597
393.169	85784
393.248	248198
393.328	795611
393.408	837435
393.488	264063
393.568	82778
393.648	41933
393.728	28316
393.807	19617
393.887	17671
393.967	15741
394.047	18830
394.127	22913
394.206	35029
394.286	108830
394.366	462964
394.446	489978
394.525	119014
394.605	33309
394.685	29966
394.764	63494
394.844	108309
394.924	74964
395.003	25361
395.083	17114
395.163	15128
395.242	14881
395.322	15052
395.402	9396
395.481	14388
395.561	42361
395.640	122845
395.720	90685
395.799	123568
395.879	92320
395.958	53049
396.038	162312
396.117	603852
396.197	652765
396.276	213381
396.356	77707
396.435	57971
396.515	38518
396.594	46377
396.673	80580
396.753	254110
396.832	737051
396.912	576805
396.991	159858
397.070	46197
397.150	26478
397.229	18880
397.308	24181
397.388	39284
397.467	19995
397.546	9762
397.625	8351
397.705	14851
397.784	16178
397.863	8659
397.942	6702
398.022	6826
398.101	33337
398.180	104931
398.259	55517
398.338	16027
398.417	11183
398.497	8461
398.576	9124
398.655	6122
398.734	5820
398.813	7547
398.892	30381
398.971	110595
399.050	51288
399.129	6423
399.208	4797
399.287	5540
399.366	3615
399.445	4591
399.524	4772
399.603	4557
399.682	13977
399.761	38771
399.840	117898
399.919	87554
399.998	11571
400.077	4133
400.156	3786
400.235	7855
400.313	5827
400.392	9826
400.471	47411
400.550	78086
400.629	20235
400.708	9318
400.786	9393
400.865	28861
400.944	31862
401.023	14601
401.102	2752
401.180	3203
401.259	4586
401.338	7563
401.416	11292
401.495	10476
401.574	7377
401.652	5846
401.731	10894
401.810	11520
401.888	5600
401.967	2579
402.046	5506
402.124	9545
402.203	13524
402.281	7130
402.360	11225
402.438	35680
402.517	24305
402.596	8527
402.674	8916
402.753	4793
402.831	4293
402.910	7146
402.988	33157
403.066	118434
403.145	64241
403.223	36303
403.302	101690
403.380	73029
403.459	78018
403.537	30730
403.615	11828
403.694	3286
403.772	3014
403.850	2678
403.929	2967
404.007	4901
404.085	16886
404.164	21529
404.242	6085
404.320	5355
404.398	10468
404.477	34855
404.555	175372
404.633	148255
404.711	21668
404.789	6990
404.868	8761
404.946	5251
405.024	2162
405.102	2739
405.180	1645
405.258	1581
405.336	4287
405.415	4647
405.493	15126
405.571	15085
405.649	4363
405.727	4210
405.805	8546
405.883	9851
405.961	9696
406.039	11252
406.117	4907
406.195	9915
406.273	43323
406.351	161720
406.429	92207
406.507	18207
406.585	6694
406.663	8126
406.740	10902
406.818	9707
406.896	4124
406.974	5056
407.052	15068
407.130	96767
407.208	133275
407.285	24161
407.363	5190
407.441	6135
407.519	4155
407.596	7441
407.674	22014
407.752	69279
407.830	65102
407.907	25132
407.985	9181
408.063	3950
408.141	3270
408.218	10303
408.296	13320
408.373	10502
408.451	8933
408.529	7832
408.606	3496
408.684	1955
408.762	1349
408.839	1566
408.917	1141
408.994	2054
409.072	2231
409.149	2193
409.227	6790
409.304	8024
409.382	5393
409.459	6825
409.537	11879
409.614	9401
409.692	6212
409.769	6309
409.846	11826
409.924	15629
410.001	9608
410.079	7241
410.156	6364
410.233	7135
410.311	5030
410.388	2907
410.465	5407
410.543	4081
410.620	3294
410.697	6064
410.775	6893
410.852	2559
410.929	6656
411.006	9000
411.083	4728
411.161	10790
411.238	13471
411.315	8507
411.392	3367
411.469	6619
411.547	6357
411.624	2342
411.701	3101
411.778	6010
411.855	16893
411.932	7906
412.009	3055
412.086	3702
412.163	5084
412.240	7146
412.317	8137
412.394	7534
412.471	3206
412.548	2626
412.625	3426
412.702	5870
412.779	13773
412.856	8729
412.933	2391
413.010	2804
413.087	6923
413.164	44333
413.241	64244
413.318	15558
413.395	8404
413.471	14734
413.548	5617
413.625	4202
413.702	7223
413.779	4982
413.855	1308
413.932	1140
414.009	1215
414.086	2477
414.162	2726
414.239	8316
414.316	44944
414.393	98471
414.469	31517
414.546	3258
414.623	2265
414.699	2890
414.776	4868
414.853	2915
414.929	3584
415.006	3040
415.082	6003
415.159	4717
415.236	3207
415.312	3459
415.389	11559
415.465	15862
415.542	7746
415.618	4154
415.695	9705
415.771	7090
415.848	5450
415.924	5208
416.000	3439
416.077	2360
416.153	827
416.230	615
416.306	526
416.383	2376
416.459	1916
416.535	577
416.612	1612
416.688	1945
416.764	2692
416.841	2200
416.917	1975
416.993	2487
417.069	4708
417.146	6578
417.222	8231
417.298	5426
417.374	2899
417.451	4385
417.527	6592
417.603	7578
417.679	4783
417.755	4087
417.831	1781
417.908	1261
417.984	1664
418.060	1416
418.136	12501
418.212	18792
418.288	6116
418.364	3020
418.440	3471
418.516	7325
418.592	11418
418.668	23184
418.744	34346
418.820	23302
418.896	5166
418.972	1697
419.048	3249
419.124	15027
419.200	11284
419.276	2120
419.352	906
419.428	1622
419.504	4485
419.579	6535
419.655	4769
419.731	4374
419.807	22252
419.883	40959
419.959	25560
420.034	6782
420.110	13663
420.186	60672
420.262	44072
420.337	8322
420.413	6477
420.489	3201
420.565	3228
420.640	2304
420.716	3447
420.792	882
420.867	3289
420.943	2574
421.019	10043
421.094	6379
421.170	3169
421.245	1378
421.321	3821
421.397	3970
421.472	10493
421.548	35995
421.623	24024
421.699	6881
421.774	6594
421.850	5887
421.925	12570
422.001	10632
422.076	6607
422.152	8948
422.227	16576
422.302	16468
422.378	23230
422.453	42515
422.529	100947
422.604	286476
422.679	445205
422.755	316433
422.830	114237
422.905	43368
422.981	22790
423.056	14736
423.131	11299
423.207	8697
423.282	9766
423.357	22189
423.432	14601
423.508	14878
423.583	36611
423.658	24185
423.733	7042
423.808	9469
423.883	11156
423.959	8582
424.034	5868
424.109	4372
424.184	2483
424.259	2569
424.334	1712
424.409	1751
424.484	2531
424.559	3978
424.634	3503
424.709	7586
424.784	8315
424.859	4152
424.934	10240
425.009	44509
425.084	73550
425.159	25005
425.234	4070
425.309	1459
425.384	3760
425.459	4727
425.534	3097
425.609	2433
425.683	2389
425.758	3153
425.833	3787
425.908	5924
425.983	27560
426.058	79239
426.132	31184
426.207	6081
426.282	10582
426.357	9304
426.431	2485
426.506	2640
426.581	4782
426.655	3655
426.730	2852
426.805	2502
426.879	3603
426.954	4022
427.029	11337
427.103	63422
427.178	145884
427.253	59780
427.327	7646
427.402	8885
427.476	16262
427.551	6168
427.625	4297
427.700	5227
427.774	2500
427.849	4888
427.923	2171
427.998	2061
428.072	4894
428.147	10897
428.221	44888
428.296	117487
428.370	54752
428.444	9547
428.519	12928
428.593	27103
428.667	20715
428.742	27762
428.816	24438
428.890	77318
428.965	111404
429.039	36812
429.113	30668
429.188	11777
429.262	2936
429.336	9826
429.410	36722
429.485	22386
429.559	22430
429.633	17194
429.707	5424
429.781	16695
429.855	93539
429.930	139728
430.004	77349
430.078	112830
430.152	92723
430.226	137150
430.300	129250
430.374	20245
430.448	9143
430.522	34498
430.596	102822
430.670	60239
430.744	134874
430.818	191162
430.892	39804
430.966	8423
431.040	3577
431.114	1645
431.188	2500
431.262	2999
431.336	2556
431.410	11640
431.484	36593
431.557	22869
431.631	4066
431.705	3462
431.779	18825
431.853	94926
431.927	63918
432.000	7895
432.074	2769
432.148	4663
432.222	3999
432.295	2383
432.369	2328
432.443	7685
432.516	55225
432.590	139916
432.664	50149
432.737	7134
432.811	1351
432.885	881
432.958	1307
433.032	709
433.106	-106
433.179	366
433.253	700
433.326	-216
433.400	-318
433.473	759
433.547	-592
433.620	2059
433.694	8445
433.767	7592
433.841	2218
433.914	1299
433.988	691
434.061	965
434.134	908
434.208	341
434.281	62
434.355	632
434.428	1447
434.501	-11
434.575	451
434.648	2551
434.721	925
434.795	534
434.868	-719
434.941	51
435.014	88
435.088	812
435.161	2398
435.234	6604
435.307	9532
435.381	3613
435.454	2903
435.527	4873
435.600	4947
435.673	4062
435.746	2373
435.819	1271
435.892	1425
435.966	899
436.039	1306
436.112	1660
436.185	77
436.258	5
436.331	-478
436.404	-338
436.477	-204
436.550	-511
436.623	1032
436.696	398
436.769	2455
436.842	1427
436.915	2436
436.987	5180
437.060	1861
437.133	448
437.206	252
437.279	1518
437.352	1028
437.425	847
437.498	2935
437.570	8427
437.643	8011
437.716	1258
437.789	908
437.861	4704
437.934	14298
438.007	5850
438.080	1491
438.152	2288
438.225	8298
438.298	65419
438.370	179842
438.443	72430
438.516	16576
438.588	2908
438.661	190
438.734	987
438.806	3008
438.879	4148
438.951	4034
439.024	7538
439.096	2237
439.169	710
439.241	820
439.314	250
439.386	4385
439.459	8414
439.531	12128
439.604	4135
439.676	1861
439.749	551
439.821	224
439.893	649
439.966	878
440.038	2493
440.110	3455
440.183	1913
440.255	1280
440.327	4210
440.400	30968
440.472	126545
440.544	79097
440.617	10277
440.689	5825
440.761	8315
440.833	13768
440.905	8666
440.978	1093
441.050	123
441.122	916
441.194	241
441.266	475
441.338	1258
441.411	6371
441.483	46391
441.555	67195
441.627	13916
441.699	7048
441.771	7312
441.843	2039
441.915	824
441.987	829
442.059	850
442.131	3161
442.203	6512
442.275	7834
442.347	6073
442.419	7637
442.491	42762
442.563	109294
442.635	46786
442.706	35438
442.778	26043
442.850	4256
442.922	1611
442.994	3664
443.066	7277
443.137	5065
443.209	3182
443.281	6081
443.353	14762
443.425	55543
443.496	197901
443.568	181555
443.640	61518
443.711	11987
443.783	5120
443.855	3664
443.926	1655
443.998	3751
444.070	5389
444.141	4613
444.213	8426
444.285	10634
444.356	9936
444.428	6772
444.499	2542
444.571	719
444.642	1108
444.714	3192
444.785	7887
444.857	9754
444.928	22664
445.000	12983
445.071	15295
445.143	18959
445.214	10902
445.285	16288
445.357	49300
445.428	130588
445.500	295309
445.571	180407
445.642	90190
445.714	40154
445.785	39686
445.856	12723
445.928	11464
445.999	7968
446.070	5329
446.141	7747
446.213	11701
446.284	5674
446.355	5221
446.426	3380
446.497	3499
446.569	8612
446.640	12950
446.711	10743
446.782	3208
446.853	5775
446.924	7278
446.995	4276
447.066	3614
447.138	8381
447.209	3947
447.280	1115
447.351	96
447.422	35
447.493	3607
447.564	6060
447.635	9755
447.706	3949
447.777	-238
447.847	-83
447.918	1007
447.989	3823
448.060	6294
448.131	16279
448.202	14787
448.273	10402
448.344	3585
448.414	2077
448.485	2244
448.556	1152
448.627	546
448.698	1151
448.768	450
448.839	1433
448.910	6988
448.981	7380
449.051	3057
449.122	1264
449.193	873
449.263	998
449.334	275
449.405	2730
449.475	12771
449.546	8203
449.616	8178
449.687	6794
449.758	1865
449.828	1218
449.899	995
449.969	-94
450.040	715
450.110	3339
450.181	4170
450.251	1793
450.322	1009
450.392	919
450.463	644
450.533	56
450.604	929
450.674	890
450.744	1144
450.815	-129
450.885	1102
450.955	677
451.026	284
451.096	1648
451.166	3011
451.237	10025
451.307	25065
451.377	8278
451.447	1710
451.518	803
451.588	1608
451.658	1718
451.728	4757
451.799	26948
451.869	26939
451.939	4983
452.009	1016
452.079	687
452.149	1395
452.219	5864
452.289	30921
452.360	20938
452.430	4363
452.500	3765
452.570	5816
452.640	7632
452.710	23391
452.780	32831
452.850	24688
452.920	23991
452.990	7952
453.060	3578
453.129	6963
453.199	8020
453.269	30787
453.339	62731
453.409	94736
453.479	100290
453.549	143971
453.619	157572
453.688	56727
453.758	8036
453.828	3809
453.898	2565
453.968	1628
454.037	1312
454.087	1897
454.107	2131
454.168	1255
454.177	1116
454.247	570
454.249	601
454.316	1125
454.330	1488
454.386	2886
454.411	7262
454.456	14411
454.492	17895
454.525	21088
454.574	10672
454.595	6152
454.655	2547
454.665	1988
454.734	2546
454.736	2678
454.804	6982
454.817	10853
454.873	26432
454.898	27775
454.943	30014
454.979	20384
455.013	11776
455.060	6387
455.082	4206
455.141	4524
455.152	4465
455.221	17563
455.222	17781
455.291	31847
455.303	28028
455.360	11162
455.384	10341
455.430	9323
455.465	9654
455.499	9550
455.546	19588
455.569	23940
455.627	16045
455.638	14744
455.707	3434
455.708	3436
455.777	1669
455.789	1617
455.846	1486
455.869	1291
455.916	830
455.950	1080
455.985	1300
456.031	1203
456.054	1143
456.112	1551
456.124	1673
456.193	1339
456.193	1323
456.262	2213
456.274	2484
456.332	3741
456.355	4203
456.401	4633
456.436	3647
456.470	2625
456.516	1681
456.540	1411
456.597	769
456.609	591
456.678	1586
456.678	1579
456.747	708
456.759	541
456.817	169
456.840	412
456.886	576
456.920	767
456.955	1068
457.001	1378
457.024	1744
457.082	2448
457.093	2543
457.162	4326
457.163	4353
457.232	6797
457.243	6342
457.301	3709
457.324	2658
457.370	1255
457.405	1311
457.439	1379
457.485	1337
457.508	1300
457.566	1679
457.577	1795
457.646	2086
457.647	2105
457.715	3762
457.727	4018
457.784	5950
457.808	8427
457.853	12229
457.889	14735
457.922	15741
457.969	9491
457.991	8080
458.050	8895
458.060	9015
458.129	19569
458.130	19789
458.198	23865
458.211	21195
458.267	10203
458.292	7202
458.336	3670
458.372	3376
458.405	4476
458.453	6615
458.474	8211
458.533	16503
458.543	17374
458.611	35267
458.614	35278
458.680	23995
458.694	19276
458.749	7290
458.775	5679
458.818	3286
458.855	2505
458.887	2152
458.936	2273
458.955	2215
459.016	2035
459.024	2091
459.093	2934
459.097	2921
459.162	2108
459.177	2200
459.230	3164
459.257	3928
459.299	4140
459.338	3449
459.368	3458
459.418	3677
459.437	3474
459.499	3055
459.505	3052
459.574	2793
459.579	2794
459.643	2591
459.659	2506
459.711	2368
459.740	2306
459.780	2290
459.820	2619
459.849	2970
459.900	3433
459.917	3409
459.981	2999
459.986	2962
460.054	2520
460.061	2507
460.123	2437
460.141	2392
460.191	3331
460.222	4048
460.260	4199
460.302	5340
460.328	5783
460.382	4380
460.397	4153
460.462	3310
460.465	3323
460.534	4459
460.543	4664
460.602	12915
460.623	16188
460.671	24673
460.703	34686
460.739	35466
460.783	30154
460.808	25850
460.864	6962
460.876	5099
460.944	3325
460.945	3304
461.013	3287
461.024	3242
461.081	2723
461.104	3042
461.150	3831
461.184	3942
461.218	3979
461.264	3572
461.286	3403
461.345	3164
461.355	3023
461.423	2479
461.425	2455
461.491	3008
461.505	3298
461.559	6619
461.585	8037
461.628	13330
461.665	19521
461.696	22107
461.745	30257
461.764	28741
461.825	11034
461.832	10333
461.901	4257
461.905	4248
461.969	4388
461.985	4204
462.037	3990
462.065	3919
462.105	3959
462.145	4195
462.173	6421
462.225	10758
462.241	11740
462.305	18250
462.310	17930
462.378	12026
462.385	10627
462.446	5348
462.465	4765
462.514	3950
462.545	3574
462.582	3460
462.625	3715
462.650	3751
462.705	3352
462.718	3360
462.785	3704
462.786	3750
462.854	6491
462.865	7006
462.922	8740
462.945	9682
462.990	7782
463.025	4990
463.058	4466
463.104	4064
463.126	3662
463.184	3161
463.194	3166
463.262	3161
463.264	3169
463.330	3389
463.344	3363
463.398	4308
463.424	4800
463.466	4684
463.504	4781
463.533	5136
463.583	5385
463.601	5407
463.663	5421
463.669	5536
463.737	7165
463.743	7356
463.805	11894
463.823	13118
463.873	20167
463.903	24865
463.940	26373
463.982	29528
464.008	25285
464.062	11348
464.076	10222
464.142	4219
464.144	4141
464.211	3825
464.221	3872
464.279	3841
464.301	3797
464.347	4942
464.381	5998
464.414	6456
464.461	6695
464.482	7005
464.540	8319
464.550	7954
464.617	4732
464.620	4612
464.685	5999
464.699	6408
464.753	6628
464.779	6757
464.820	7911
464.859	8830
464.888	8310
464.938	7367
464.956	7919
465.018	10138
465.023	9899
465.091	6396
465.098	6000
465.158	5772
465.177	5785
465.226	6110
465.257	6304
465.293	6544
465.336	6891
465.361	7280
465.416	8041
465.428	8786
465.495	13230
465.496	13309
465.563	23074
465.575	24896
465.631	30851
465.654	33645
465.698	21621
465.734	9932
465.765	8122
465.813	5785
465.833	5478
465.893	5409
465.900	5392
465.968	5307
465.972	5285
466.035	4394
466.052	4195
466.102	5317
466.131	5914
466.170	5494
466.210	4982
466.237	5340
466.290	6099
466.304	5993
466.369	5357
466.372	5413
466.439	6927
466.449	7119
466.506	7512
466.528	7665
466.573	11388
466.607	14170
466.641	22235
466.687	33471
466.708	37192
466.766	47983
466.775	44222
466.842	14905
466.845	13490
466.909	9135
466.925	8262
466.977	6804
467.004	6099
467.044	6512
467.083	6958
467.111	8042
467.163	10033
467.178	10192
467.242	10801
467.245	10786
467.312	10164
467.321	10067
467.379	9956
467.400	9894
467.446	10944
467.480	11676
467.559	10028
467.638	7948
467.717	8726
467.796	9755
467.875	11529
467.955	11604
468.034	16458
468.113	38730
468.192	58337
468.271	14908
468.350	8369
468.429	10084
468.508	11474
468.588	8296
468.667	7830
468.746	7398
468.825	8245
468.904	7372
468.983	9694
469.062	15513
469.141	19280
469.220	8232
469.299	8815
469.378	8165
469.456	10031
469.535	8128
469.614	8912
469.693	9035
469.772	12756
469.851	17114
469.930	13106
470.009	8175
470.088	8886
470.166	7916
470.245	12919
470.324	13524
470.403	10389
470.482	8111
470.560	8728
470.639	7579
470.718	9411
470.797	8035
470.875	9701
470.954	13365
471.033	16317
471.111	6114
471.190	6460
471.269	5598
471.347	7410
471.426	6625
471.505	9549
471.583	9209
471.662	7596
471.740	6724
471.819	7271
471.898	6349
471.976	7839
472.055	6653
472.133	8126
472.212	10735
472.290	11647
472.369	6779
472.447	7155
472.526	6118
472.604	7565
472.683	8187
472.761	8075
472.839	7914
472.918	6790
472.996	7378
473.075	9659
473.153	8128
473.231	6972
473.310	7628
473.388	8248
473.466	7150
473.545	9199
473.623	11046
473.701	11350
473.780	6797
473.858	6718
473.936	8957
474.014	7057
474.093	7934
474.171	13193
474.249	17380
474.327	12507
474.405	5663
474.484	6410
474.562	6188
474.640	6354
474.718	6860
474.796	7142
474.874	7095
474.952	6531
475.030	5800
475.108	6295
475.187	6107
475.265	7818
475.343	11967
475.421	14221
475.499	7443
475.577	7451
475.655	9666
475.733	20649
475.811	35695
475.889	33169
475.966	21846
476.044	8094
476.122	9671
476.200	12289
476.278	11124
476.356	7520
476.434	7463
476.512	10035
476.590	12268
476.667	11686
476.745	6977
476.823	8475
476.901	7439
476.979	7585
477.056	7209
477.134	7203
477.212	6828
477.290	6941
477.367	6434
477.445	6629
477.523	6561
477.601	6722
477.678	7412
477.756	9128
477.834	9863
477.911	7316
477.989	7163
478.066	6646
478.144	7839
478.222	9306
478.299	14315
478.377	14488
478.454	6259
478.532	5586
478.609	5468
478.687	7459
478.764	5943
478.842	7121
478.919	6060
478.997	7497
479.074	5336
479.152	8254
479.229	9351
479.307	6299
479.384	4816
479.461	6302
479.539	6220
479.616	8569
479.694	5990
479.771	8168
479.848	6592
479.926	10870
480.003	12338
480.080	5802
480.157	6136
480.235	5542
480.312	6295
480.389	7079
480.467	12080
480.544	15958
480.621	8266
480.698	7833
480.775	7486
480.853	8875
480.930	6741
481.007	8184
481.084	8115
481.161	9020
481.238	8548
481.315	5664
481.392	5503
481.470	6889
481.547	5608
481.624	6045
481.701	6475
481.778	7107
481.855	7251
481.932	10913
482.009	20312
482.086	14466
482.163	6723
482.240	11504
482.317	19488
482.393	16578
482.470	7259
482.547	7584
482.624	6015
482.701	7069
482.778	6477
482.855	5736
482.932	5557
483.009	5250
483.085	5606
483.162	7966
483.239	7791
483.316	5635
483.393	5929
483.469	6688
483.546	7215
483.623	9327
483.699	6022
483.776	7390
483.853	6693
483.930	11303
484.006	30581
484.083	53450
484.160	23868
484.236	29281
484.313	22954
484.389	17217
484.466	15888
484.543	14444
484.619	14301
484.696	16688
484.772	16901
484.849	19008
484.925	15158
485.002	14528
485.078	14594
485.155	14868
485.231	13621
485.308	14491
485.384	14395
485.461	16770
485.537	30261
485.614	36690
485.690	15234
485.766	13478
485.843	14238
485.919	19771
485.995	20853
486.072	14308
486.148	11310
486.224	11905
486.301	12599
486.377	16179
486.453	14690
486.530	15136
486.606	17573
486.682	21276
486.758	27217
486.835	31547
486.911	22076
486.987	39770
487.063	40558
487.139	47912
487.215	32109
487.292	18498
487.368	13659
487.444	15370
487.520	17407
487.596	16576
487.672	24332
487.748	60045
487.824	89728
487.900	32609
487.976	15030
488.052	15418
488.128	17788
488.204	16180
488.280	14555
488.356	15941
488.432	35386
488.508	55331
488.584	18997
488.660	12484
488.736	13166
488.812	12905
488.888	16902
488.964	20785
489.039	42458
489.115	69628
489.191	44036
489.267	14662
489.343	12557
489.418	10607
489.494	10375
489.570	9322
489.646	12296
489.722	11201
489.797	11416
489.873	17371
489.949	40016
490.024	35186
490.100	11061
490.176	10469
490.251	13129
490.327	17527
490.403	11060
490.478	9495
490.554	8551
490.629	8566
490.705	9148
490.781	9991
490.856	8436
490.932	11613
491.007	10778
491.083	10858
491.158	9808
491.234	13506
491.309	30940
491.385	31963
491.460	9947
491.536	12476
491.611	8520
491.686	11601
491.762	13965
491.837	29412
491.913	47702
491.988	68221
492.063	86106
492.139	28703
492.214	15663
492.289	8877
492.365	7358
492.440	10207
492.515	8815
492.590	10534
492.666	7838
492.741	11819
492.816	16914
492.891	9779
492.967	6809
493.042	7124
493.117	5700
493.192	7433
493.267	7638
493.342	12621
493.418	15150
493.493	8313
493.568	5950
493.643	7089
493.718	9531
493.793	14608
493.868	16059
493.943	10604
494.018	7522
494.093	6629
494.168	7367
494.243	6013
494.318	6320
494.393	7015
494.468	4963
494.543	6380
494.618	7557
494.693	7277
494.768	6034
494.842	6763
494.917	4927
494.992	7036
495.067	5740
495.142	5130
495.217	6068
495.292	7120
495.366	7549
495.441	10791
495.516	14065
495.591	16396
495.665	56329
495.740	143157
495.815	67630
495.890	12786
495.964	7842
496.039	11125
496.114	8987
496.188	9309
496.263	9493
496.338	8433
496.412	9281
496.487	11891
496.561	11853
496.636	11963
496.710	9336
496.785	11244
496.860	12279
496.934	9613
497.009	8778
497.083	8454
497.158	7830
497.232	10116
497.307	13141
497.381	9681
497.455	12017
497.530	17672
497.604	10956
497.679	11858
497.753	19808
497.827	25106
497.902	20439
497.976	23777
498.050	53539
498.125	233879
498.199	252683
498.273	36255
498.348	19454
498.422	17012
498.496	15017
498.570	15498
498.645	11399
498.719	11812
498.793	16968
498.867	26227
498.941	32828
499.016	89970
499.090	264652
499.164	99868
499.238	13106
499.312	10708
499.386	11919
499.460	13175
499.534	10454
499.609	15234
499.683	23184
499.757	22427
499.831	39705
499.905	173591
499.979	170780
500.053	30178
500.127	24779
500.201	19095
500.275	12704
500.349	12138
500.422	13347
500.496	19849
500.570	38247
500.644	99527
500.718	190212
500.792	46991
500.866	11723
500.940	16377
501.013	13256
501.087	13968
501.161	22749
501.235	30172
501.309	59786
501.382	172310
501.456	151268
501.530	34692
501.603	59034
501.677	24556
501.751	9727
501.825	13950
501.898	22511
501.972	70370
502.046	45061
502.119	12966
502.193	29170
502.266	76361
502.340	36956
502.413	31593
502.487	65701
502.561	38738
502.634	11820
502.708	10178
502.781	7593
502.855	7863
502.928	5451
503.002	6846
503.075	5545
503.149	8453
503.222	8105
503.295	9165
503.369	11958
503.442	14537
503.516	47132
503.589	128940
503.662	82898
503.736	25266
503.809	59037
503.882	48067
503.956	70847
504.029	65438
504.102	39113
504.175	55039
504.249	18936
504.322	11450
504.395	10522
504.468	7946
504.542	7304
504.615	6202
504.688	5523
504.761	4753
504.834	8396
504.907	9559
504.980	14394
505.053	8575
505.127	7284
505.200	13817
505.273	11362
505.346	6983
505.419	4702
505.492	6186
505.565	3712
505.638	5682
505.711	4629
505.784	4451
505.857	4527
505.930	6486
506.003	3846
506.076	7541
506.149	7641
506.221	10105
506.294	10382
506.367	24038
506.440	94825
506.513	52205
506.586	11288
506.659	6988
506.731	5554
506.804	7008
506.877	9838
506.950	7398
507.022	5264
507.095	7141
507.168	9404
507.241	7723
507.313	3930
507.386	6150
507.459	8802
507.531	5894
507.604	4348
507.677	5035
507.749	2632
507.822	6878
507.894	11594
507.967	16288
508.040	8805
508.112	8014
508.185	6701
508.257	5524
508.330	10998
508.402	6577
508.475	5169
508.547	7481
508.620	6457
508.692	12670
508.765	8073
508.837	4762
508.909	5184
508.982	4581
509.054	6618
509.127	6479
509.199	4883
509.271	4646
509.344	4603
509.416	4745
509.488	4364
509.560	5213
509.633	5110
509.705	7381
509.777	6334
509.849	10028
509.922	5787
509.994	4695
510.066	5222
510.138	4906
510.210	11369
510.283	11498
510.355	8965
510.427	8096
510.499	6597
510.571	7289
510.643	6245
510.715	12282
510.787	9721
510.859	8437
510.931	8197
511.003	11835
511.076	12191
511.148	6535
511.219	5586
511.291	12320
511.363	13792
511.435	6837
511.507	3851
511.579	5792
511.651	6999
511.723	5276
511.795	4857
511.867	6163
511.939	6588
512.010	16654
512.082	13844
512.154	6083
512.226	5848
512.298	9334
512.369	13883
512.441	11267
512.513	10830
512.585	8561
512.656	8863
512.728	8863
512.800	6760
512.871	7330
512.943	7560
513.015	5726
513.086	6614
513.158	7819
513.230	7181
513.301	11776
513.373	14434
513.444	8683
513.516	6581
513.588	6810
513.659	6934
513.731	10258
513.802	6641
513.874	17113
513.945	30929
514.016	11376
514.088	6509
514.159	7493
514.231	10155
514.302	12592
514.374	10156
514.445	8044
514.516	20486
514.588	14205
514.659	9011
514.730	18424
514.802	13508
514.873	6593
514.944	9126
515.016	8131
515.087	8672
515.158	12853
515.229	18190
515.301	6238
515.372	8066
515.443	5952
515.514	4660
515.585	4138
515.656	6407
515.728	6839
515.799	4412
515.870	7810
515.941	6432
516.012	6388
516.083	9681
516.154	9558
516.225	14448
516.296	14523
516.367	10354
516.438	11825
516.509	15125
516.580	20256
516.651	54426
516.722	209900
516.793	122522
516.864	24165
516.935	22994
517.006	23381
517.077	29971
517.148	61617
517.219	200856
517.289	374174
517.360	135515
517.431	44506
517.502	11134
517.573	12157
517.643	10936
517.714	12481
517.785	12691
517.856	12587
517.926	16767
517.997	18500
518.068	21785
518.138	29889
518.209	36334
518.280	122602
518.350	517581
518.421	250402
518.492	29655
518.562	17926
518.633	15095
518.703	13526
518.774	23280
518.845	56090
518.915	66405
518.986	22899
519.056	16907
519.127	27005
519.197	41767
519.268	100042
519.338	66821
519.408	16326
519.479	17881
519.549	14958
519.620	10103
519.690	8509
519.760	7391
519.831	8010
519.901	8261
519.971	7777
520.042	7172
520.112	8402
520.182	9740
520.253	12624
520.323	7141
520.393	6942
520.463	11302
520.534	6458
520.604	14254
520.674	11155
520.744	10025
520.814	14162
520.885	16177
520.955	27502
521.025	116350
521.095	46940
521.165	10030
521.235	8437
521.305	5996
521.375	6704
521.445	7333
521.515	9319
521.585	12237
521.655	10950
521.725	9140
521.795	9627
521.865	4582
521.935	12737
522.005	9699
522.075	6180
522.145	8327
522.215	8144
522.285	12630
522.355	16655
522.424	33115
522.494	26688
522.564	12965
522.634	22404
522.704	69453
522.774	34140
522.843	8941
522.913	7419
522.983	9229
523.053	7692
523.122	8192
523.192	9682
523.262	35074
523.331	40715
523.401	9261
523.471	5756
523.540	6063
523.610	4765
523.680	5657
523.749	5238
523.819	6621
523.888	7865
523.958	4718
524.027	6053
524.097	6119
524.166	6344
524.236	5044
524.305	8104
524.375	4972
524.444	4969
524.514	6910
524.583	6112
524.653	7548
524.722	9532
524.791	5397
524.861	6962
524.930	4032
524.999	5401
525.069	8631
525.138	7633
525.207	8734
525.277	6408
525.346	5277
525.415	6239
525.484	5671
525.554	7703
525.623	6801
525.692	6931
525.761	6646
525.830	8828
525.900	8179
525.969	13386
526.038	19719
526.107	31885
526.176	107090
526.245	103111
526.314	34414
526.383	54849
526.452	80543
526.522	119689
526.591	155916
526.660	49728
526.729	25782
526.797	24938
526.867	41327
526.935	191058
527.004	330358
527.073	213293
527.142	22421
527.211	9275
527.280	8298
527.349	9868
527.418	4789
527.487	6619
527.555	3354
527.624	5059
527.693	1807
527.762	5395
527.831	4208
527.899	5058
527.968	5313
528.037	3666
528.106	5856
528.174	12580
528.243	9656
528.312	14629
528.380	20486
528.449	6295
528.518	5499
528.586	2871
528.655	4562
528.723	3886
528.792	2730
528.861	4346
528.929	2963
528.998	5612
529.066	3793
529.135	2989
529.203	2343
529.272	3286
529.340	4086
529.409	6096
529.477	2795
529.545	4681
529.614	6907
529.682	6218
529.751	6895
529.819	9322
529.887	5297
529.956	4194
530.024	4659
530.092	2742
530.161	5466
530.229	8936
530.297	3976
530.365	4543
530.434	3688
530.502	1983
530.570	3416
530.638	2751
530.707	4148
530.775	5974
530.843	2704
530.911	4556
530.979	4426
531.047	3448
531.115	3826
531.183	4136
531.252	4171
531.320	4412
531.388	3246
531.456	4374
531.524	1690
531.592	4276
531.660	5539
531.728	3546
531.796	2395
531.864	3504
531.932	4475
532.000	2972
532.067	3298
532.135	5310
532.203	6504
532.271	5577
532.339	8584
532.407	31241
532.475	19969
532.542	9079
532.610	9883
532.678	10317
532.746	45042
532.814	142685
532.881	42969
532.949	7580
533.017	5131
533.084	4181
533.152	3778
533.220	4253
533.287	3942
533.355	5108
533.423	4304
533.490	3874
533.558	3305
533.625	4182
533.693	4863
533.761	5990
533.828	4757
533.896	4368
533.963	9983
534.031	13034
534.098	18483
534.166	9469
534.233	3578
534.300	6299
534.368	4663
534.435	5119
534.503	5157
534.570	5525
534.637	5331
534.705	7225
534.772	6790
534.840	9673
534.907	44530
534.974	76089
535.041	11936
535.109	8909
535.176	4454
535.243	5412
535.310	4310
535.378	5270
535.445	3838
535.512	4292
535.579	4496
535.646	4273
535.714	4009
535.781	5715
535.848	6587
535.915	6298
535.982	4467
536.049	5569
536.116	5369
536.183	4579
536.250	5460
536.317	5495
536.384	7322
536.451	10282
536.518	11624
536.585	6452
536.652	9822
536.719	15537
536.786	11658
536.853	8903
536.920	11845
536.987	20093
537.053	17961
537.120	63692
537.187	70196
537.254	9164
537.321	4815
537.388	7500
537.454	3907
537.521	4291
537.588	4746
537.654	6641
537.721	6190
537.788	7835
537.855	4506
537.921	6491
537.988	5548
538.055	6737
538.121	5261
538.188	6840
538.254	9603
538.321	21398
538.388	14685
538.454	6706
538.521	5535
538.587	5118
538.654	4942
538.720	4708
538.787	5548
538.853	7219
538.920	7636
538.986	8515
539.053	6639
539.119	7081
539.185	6622
539.252	8970
539.318	11098
539.385	10728
539.451	7702
539.517	8374
539.583	8803
539.650	18241
539.716	53975
539.782	19520
539.849	6408
539.915	7852
539.981	6162
540.047	8822
540.114	8429
540.180	9216
540.246	6077
540.312	10638
540.378	19737
540.444	22960
540.510	19093
540.576	60188
540.643	25012
540.709	7224
540.775	6464
540.841	6729
540.907	9495
540.973	13235
541.039	10878
541.105	14612
541.171	7168
541.237	6378
541.303	7834
541.369	9814
541.435	10151
541.500	18299
541.566	12940
541.632	6411
541.698	5926
541.764	6588
541.830	5334
541.896	4638
541.961	6558
542.027	6354
542.093	6819
542.159	6914
542.224	5905
542.290	10884
542.356	16012
542.421	24620
542.487	10816
542.553	7500
542.618	8766
542.684	7447
542.750	6979
542.815	9857
542.881	13376
542.947	48524
543.012	45397
543.078	8247
543.143	5926
543.209	8441
543.274	6714
543.340	9209
543.405	18079
543.471	34499
543.536	9648
543.602	6937
543.667	4730
543.732	7172
543.798	4901
543.863	7678
543.928	4459
543.994	5811
544.059	5819
544.124	6624
544.190	6514
544.255	6998
544.320	7232
544.386	6734
544.451	10959
544.516	13388
544.581	11235
544.646	29775
544.712	57522
544.777	14568
544.842	9807
544.907	9624
544.972	7902
545.037	8473
545.102	9668
545.168	9297
545.233	9677
545.298	10759
545.363	11032
545.428	12895
545.493	20270
545.558	45424
545.623	22238
545.688	10224
545.753	9429
545.818	8593
545.883	9448
545.947	9683
546.012	10992
546.077	10645
546.142	10383
546.207	9280
546.272	12415
546.337	14749
546.401	11689
546.466	10257
546.531	8999
546.596	11864
546.661	12061
546.725	11498
546.790	10460
546.855	11683
546.919	10400
546.984	12951
547.049	13648
547.113	15443
547.178	14724
547.243	17352
547.307	19961
547.372	22367
547.436	22522
547.501	19938
547.565	20881
547.630	22605
547.695	22507
547.759	23485
547.823	20356
547.888	20023
547.952	19035
548.017	21602
548.081	22771
548.146	27632
548.210	24341
548.274	21861
548.339	21007
548.403	20734
548.468	17574
548.532	18084
548.596	19346
548.660	19505
548.725	21647
548.789	24842
548.853	25509
548.917	22322
548.982	25475
549.046	24002
549.110	17222
549.174	18459
549.238	19970
549.303	21221
549.367	22679
549.431	21755
549.495	19341
549.559	19586
549.623	22408
549.687	25363
549.751	30342
549.815	29992
549.879	29974
549.943	26710
550.007	29061
550.071	29058
550.135	29314
550.199	27709
550.263	24903
550.327	25542
550.391	28126
550.455	27128
550.519	26279
550.582	28369
550.646	34299
550.710	36924
550.774	32173
550.838	32324
550.901	32003
550.965	35358
551.029	35656
551.093	38717
551.156	44707
551.220	64405
551.284	77276
551.347	51733
551.411	60954
551.475	64063
551.538	35417
551.602	31553
551.666	29870
551.729	27671
551.793	26986
551.856	26990
551.920	25232
551.983	26870
552.047	25344
552.110	26832
552.174	25875
552.237	26498
552.301	24890
552.364	23750
552.428	23689
552.491	24437
552.554	24672
552.618	25202
552.681	25258
552.745	26855
552.808	32762
552.871	41498
552.934	29919
552.998	25788
553.061	24486
553.124	23665
553.187	22662
553.251	23613
553.314	23534
553.377	23545
553.440	25127
553.503	27269
553.567	29882
553.630	26243
553.693	24403
553.756	24200
553.819	23508
553.882	23146
553.945	22337
554.008	22840
554.071	22148
554.134	23762
554.197	20441
554.260	21349
554.323	23159
554.386	22865
554.449	22875
554.512	24467
554.575	21523
554.638	22694
554.701	21274
554.764	20848
554.827	20475
554.889	19746
554.952	18448
555.015	18021
555.078	18291
555.141	19817
555.203	18676
555.266	18940
555.329	18804
555.391	18093
555.454	18241
555.517	19836
555.580	16958
555.642	16988
555.705	15828
555.768	17523
555.830	17693
555.893	15433
555.955	15351
556.018	16210
556.080	15282
556.143	15458
556.206	15440
556.268	16351
556.330	16255
556.393	16159
556.455	15426
556.518	20328
556.580	19950
556.643	13422
556.705	14170
556.767	13404
556.830	14650
556.892	15813
556.955	21638
557.017	18472
557.079	13911
557.142	14382
557.204	15314
557.266	26878
557.328	23559
557.391	12962
557.453	11840
557.515	12466
557.577	14451
557.639	16166
557.701	11878
557.764	12250
557.826	12742
557.888	14832
557.950	14150
558.012	15843
558.074	18095
558.136	35729
558.198	95227
558.260	44768
558.322	16889
558.384	18039
558.446	19793
558.508	23765
558.570	29475
558.632	43912
558.694	61692
558.756	59101
558.818	154779
558.880	468206
558.942	173286
559.003	103427
559.065	61685
559.127	25108
559.189	24027
559.251	26935
559.312	34141
559.374	72488
559.436	279632
559.498	174990
559.559	28955
559.621	24228
559.683	26943
559.744	41405
559.806	121634
559.868	223139
559.929	50599
559.991	25222
560.052	32622
560.114	90709
560.176	70432
560.237	49359
560.299	97584
560.360	29171
560.422	13240
560.483	12217
560.545	11453
560.606	11313
560.667	10178
560.729	10920
560.790	9722
560.852	9582
560.913	10960
560.974	10947
561.036	10246
561.097	11239
561.158	10423
561.220	11397
561.281	10263
561.342	11675
561.403	13532
561.465	16069
561.526	33117
561.587	49218
561.648	15090
561.709	10848
561.771	11566
561.832	9736
561.893	9849
561.954	10018
562.015	9998
562.076	10372
562.137	9252
562.198	9347
562.259	10221
562.320	10006
562.381	10961
562.442	15514
562.503	13713
562.564	10558
562.625	9313
562.686	10109
562.747	10700
562.808	10817
562.869	10669
562.930	13923
562.991	12276
563.051	11884
563.112	10665
563.173	10251
563.234	9360
563.294	11207
563.355	9441
563.416	10532
563.477	9663
563.537	10548
563.598	11406
563.659	11837
563.720	11163
563.780	11082
563.841	10780
563.901	11276
563.962	10086
564.023	10801
564.083	10839
564.144	12459
564.204	10569
564.265	11238
564.325	11180
564.386	24454
564.446	20503
564.507	10154
564.567	9943
564.628	10905
564.688	9971
564.749	9981
564.809	12291
564.869	13384
564.930	10265
564.990	10761
565.050	8948
565.111	10417
565.171	9882
565.231	9454
565.292	10495
565.352	9502
565.412	10252
565.472	10302
565.532	11377
565.593	9966
565.653	9502
565.713	10200
565.773	10760
565.833	12567
565.893	16822
565.953	10893
566.013	9646
566.074	12459
566.134	14439
566.194	23664
566.254	23521
566.314	15747
566.374	9707
566.434	10721
566.494	10934
566.554	9849
566.614	9389
566.673	10149
566.733	10325
566.793	11572
566.853	11124
566.913	11159
566.973	11135
567.033	11442
567.092	11995
567.152	11910
567.212	11745
567.272	11776
567.331	12260
567.391	11946
567.451	12333
567.511	17173
567.570	17269
567.630	10971
567.690	10916
567.749	10825
567.809	10484
567.868	12777
567.928	12365
567.988	12922
568.047	12511
568.107	11716
568.166	13496
568.226	17651
568.285	22366
568.345	18911
568.404	15157
568.464	13784
568.523	12430
568.582	14074
568.642	15285
568.701	16842
568.761	21380
568.820	33198
568.879	31692
568.939	25173
568.998	17784
569.057	13473
569.116	11812
569.176	12420
569.235	9915
569.294	10789
569.353	10763
569.413	11034
569.472	10823
569.531	10393
569.590	8803
569.649	10030
569.708	7913
569.767	11153
569.827	11464
569.886	11082
569.945	9214
570.004	11331
570.063	9671
570.122	10900
570.181	12027
570.240	12990
570.299	12713
570.358	12276
570.417	10106
570.475	10121
570.534	10693
570.593	12090
570.652	10170
570.711	10838
570.770	10541
570.829	13069
570.887	10202
570.946	13700
571.005	9751
571.064	10209
571.122	12013
571.181	13938
571.240	11424
571.299	9756
571.357	11996
571.416	12187
571.475	12421
571.533	13248
571.592	10536
571.650	11880
571.709	9791
571.768	10767
571.826	10320
571.885	9619
571.943	9002
572.002	9660
572.060	11200
572.119	9544
572.177	9003
572.236	9458
572.294	8835
572.352	9008
572.411	8538
572.469	9516
572.528	8510
572.586	9924
572.644	9863
572.703	11812
572.761	9930
572.819	9761
572.877	8820
572.936	8544
572.994	8856
573.052	8972
573.110	9531
573.169	9787
573.227	8090
573.285	8153
573.343	8586
573.401	9425
573.459	8822
573.517	9319
573.576	8826
573.634	9854
573.692	9999
573.750	9966
573.808	7817
573.866	10341
573.924	12240
573.982	13549
574.040	8915
574.098	8951
574.155	8725
574.213	8855
574.271	7890
574.329	9063
574.387	7774
574.445	8004
574.503	7681
574.560	8021
574.618	7510
574.676	8006
574.734	8004
574.792	8908
574.849	6880
574.907	6971
574.965	7789
575.022	7641
575.080	7320
575.138	8973
575.195	8905
575.253	8669
575.311	9679
575.368	8704
575.426	7089
575.483	9079
575.541	7726
575.598	8035
575.656	7852
575.713	9245
575.771	7671
575.828	8750
575.886	8753
575.943	9516
576.001	8844
576.058	9649
576.115	9423
576.173	12468
576.230	13950
576.287	14142
576.345	11994
576.402	9637
576.459	10117
576.517	10372
576.574	10835
576.631	12894
576.688	9795
576.746	9125
576.803	9127
576.860	8647
576.917	9588
576.974	9800
577.031	8693
577.089	8491
577.146	8933
577.203	10264
577.260	10487
577.317	11141
577.374	12352
577.431	11703
577.488	9200
577.545	8950
577.602	8731
577.659	9634
577.716	9196
577.773	8167
577.830	7727
577.886	9894
577.943	8092
578.000	9177
578.057	9394
578.114	9211
578.171	8600
578.227	8900
578.284	7403
578.341	10050
578.398	9020
578.454	10578
578.511	11651
578.568	13893
578.625	10949
578.681	9127
578.738	8654
578.794	9479
578.851	8587
578.908	9579
578.964	8873
579.021	10159
579.077	9056
579.134	9397
579.190	9238
579.247	7983
579.303	8483
579.360	8862
579.416	7332
579.473	9143
579.529	7629
579.586	7629
579.642	7971
579.698	9074
579.755	8468
579.811	10202
579.867	8338
579.924	8525
579.980	7416
580.036	9573
580.093	8797
580.149	9204
580.205	8905
580.261	9557
580.317	9024
580.374	11215
580.430	13212
580.486	11772
580.542	8929
580.598	9727
580.619	9529
580.654	9173
580.692	9317
580.710	9367
580.765	8963
580.767	8933
580.823	10443
580.838	10275
580.879	9757
580.911	9887
580.935	9973
580.984	9335
580.991	9233
581.047	10395
581.057	10278
581.103	9659
581.130	10336
581.159	10986
581.203	10697
581.215	10599
581.270	11336
581.276	11281
581.326	10499
581.349	11161
581.382	12178
581.422	11668
581.438	11399
581.494	12421
581.494	12435
581.550	11544
581.567	11885
581.606	12447
581.640	11953
581.661	11683
581.713	12695
581.717	12754
581.773	12087
581.786	12270
581.829	12806
581.859	12961
581.885	13022
581.932	12678
581.940	12609
581.996	13258
582.004	13284
582.052	13050
582.077	12860
582.107	12817
582.150	14021
582.163	14302
582.219	13704
582.223	13750
582.274	14548
582.296	14817
582.330	14809
582.368	14945
582.386	15005
582.441	14909
582.441	14893
582.497	15368
582.514	14810
582.552	13828
582.587	14739
582.608	15160
582.659	14259
582.663	14183
582.719	15307
582.732	15431
582.774	15916
582.805	16397
582.830	16705
582.877	16743
582.885	16703
582.941	16352
582.950	16289
582.996	16314
583.023	16729
583.052	17171
583.095	16868
583.107	16802
583.162	17983
583.168	18075
583.218	18394
583.240	18250
583.273	18112
583.313	17718
583.328	17657
583.384	19223
583.385	19224
583.439	18746
583.458	18857
583.494	19103
583.531	18898
583.549	19033
583.603	20389
583.605	20416
583.660	19276
583.676	19502
583.715	20575
583.748	21337
583.770	21937
583.820	22908
583.825	22920
583.881	21883
583.893	21736
583.936	21785
583.965	22127
583.991	22286
584.038	22545
584.046	22705
584.101	23297
584.110	23363
584.156	22933
584.183	22861
584.211	23089
584.255	23155
584.266	23185
584.321	22705
584.328	22765
584.376	23924
584.400	23904
584.431	23705
584.472	24138
584.486	24151
584.541	23809
584.545	23746
584.596	24686
584.617	25157
584.651	26319
584.689	27570
584.706	27857
584.761	27571
584.762	27537
584.816	28303
584.834	28529
584.871	29417
584.906	29788
584.926	29879
584.978	30279
584.980	30385
585.035	32031
585.051	32382
585.090	33554
585.123	34963
585.145	35834
585.195	36566
585.200	36711
585.254	38700
585.267	38950
585.309	40584
585.340	42230
585.364	43429
585.412	44976
585.419	45420
585.473	50003
585.484	50775
585.528	58701
585.556	65367
585.583	82919
585.628	119358
585.637	135442
585.692	253745
585.700	274923
585.747	331590
585.772	303225
585.801	204026
585.845	79789
585.856	69728
585.910	50875
585.917	48711
585.965	45499
585.989	44362
586.019	44192
586.061	43363
586.074	43519
586.128	45042
586.133	45072
586.183	48609
586.205	50058
586.237	51277
586.277	51322
586.292	51086
586.346	50806
586.349	50630
586.401	50254
586.421	50327
586.455	54841
586.493	59475
586.509	67634
586.564	97184
586.565	97695
586.618	148477
586.637	161893
586.672	123071
586.709	77460
586.727	70130
586.781	56954
586.781	57097
586.835	51872
586.853	50524
586.889	50413
586.925	49439
586.944	49659
586.996	50918
586.998	51132
587.052	52998
587.068	53546
587.106	53903
587.140	53076
587.161	53540
587.212	55233
587.215	55527
587.269	57622
587.284	58053
587.323	58260
587.356	58077
587.377	58541
587.427	58847
587.431	59107
587.485	59868
587.499	60002
587.539	60765
587.571	61123
587.593	62435
587.643	64723
587.648	65111
587.702	66041
587.715	66419
587.755	69410
587.786	70803
587.810	70011
587.858	67678
587.864	68289
587.917	72218
587.930	73041
587.971	79038
588.001	82690
588.025	82232
588.073	79878
588.079	80096
588.133	80399
588.145	80248
588.187	84397
588.217	86758
588.241	89730
588.288	95312
588.295	96522
588.348	104467
588.360	105966
588.402	114067
588.431	119012
588.456	124686
588.503	135383
588.510	137866
588.564	155619
588.575	159214
588.617	178078
588.646	190258
588.671	210263
588.718	249196
588.725	262525
588.778	367973
588.789	391200
588.832	639906
588.861	819375
588.886	1089738
588.932	1629687
588.939	1656379
588.993	1767952
589.004	1761665
589.047	1229319
589.075	856993
589.100	665988
589.147	353408
589.154	342264
589.207	264932
589.218	249307
589.261	240556
589.290	235234
589.314	247884
589.361	273609
589.368	289623
589.421	422411
589.433	452348
589.475	784423
589.504	1028369
589.528	1240778
589.576	1646409
589.582	1599851
589.635	1030290
589.647	899673
589.689	526476
589.718	285398
589.742	248754
589.790	182644
589.795	183558
589.849	189404
589.861	190722
589.902	203837
589.932	210647
589.955	183249
590.004	122613
590.009	121960
590.062	111427
590.075	108441
590.115	104891
590.146	101523
590.168	101848
590.218	101380
590.222	102001
590.275	104488
590.289	104772
590.328	105479
590.360	104981
590.381	103537
590.431	98825
590.435	99390
590.488	101779
590.503	102128
590.541	101984
590.574	100817
590.594	100992
590.645	100150
590.647	100565
590.700	99960
590.716	99359
590.753	98326
590.787	96463
590.806	97122
590.859	97608
590.859	98023
590.912	96978
590.930	96363
590.965	97648
591.001	97870
591.018	98251
591.071	98356
591.072	97925
591.124	99247
591.143	99115
591.177	101664
591.214	103463
591.230	104740
591.283	107785
591.285	107419
591.336	111576
591.356	112629
591.389	111014
591.427	107676
591.442	107426
591.495	104853
591.498	104187
591.547	103797
591.569	103056
591.600	104209
591.640	104461
591.653	105593
591.706	108482
591.711	108294
591.759	119506
591.782	124478
591.811	131580
591.853	140421
591.864	136890
591.917	115617
591.924	112018
591.969	111935
591.995	111088
592.022	114406
592.066	118414
592.075	122155
592.127	141913
592.137	144916
592.180	162497
592.208	172664
592.233	156549
592.279	123754
592.285	123476
592.338	116431
592.350	114275
592.390	113338
592.421	111745
592.443	113019
592.491	114118
592.495	114800
592.548	116770
592.562	116766
592.600	117468
592.633	117046
592.653	117283
592.704	115799
592.705	116502
592.775	117993
592.846	117610
592.916	121782
592.987	125361
593.058	122980
593.128	117719
593.199	116905
593.270	113365
593.341	114096
593.411	115708
593.482	116459
593.553	115996
593.623	114178
593.694	120214
593.764	134906
593.835	118055
593.906	116267
593.976	118195
594.047	127658
594.117	154679
594.188	156957
594.258	115558
594.329	115343
594.399	118056
594.470	113962
594.540	113417
594.611	114863
594.681	115770
594.751	121339
594.822	125416
594.892	129484
594.963	137334
595.033	135331
595.103	136571
595.174	152171
595.244	218694
595.314	265979
595.384	144002
595.455	136464
595.525	140278
595.595	140622
595.665	141091
595.736	140149
595.806	140795
595.876	138397
595.946	138118
596.016	133657
596.087	141145
596.157	140914
596.227	141267
596.297	150221
596.367	153182
596.437	170431
596.507	221300
596.577	268326
596.647	164678
596.717	153036
596.787	155360
596.857	152387
596.927	154236
596.997	153793
597.067	152140
597.137	159853
597.207	161162
597.277	161522
597.347	159230
597.417	154329
597.487	154438
597.557	161357
597.626	161341
597.696	172931
597.766	207355
597.836	261247
597.906	171297
597.975	148403
598.045	147194
598.115	149451
598.185	153346
598.254	165437
598.324	171379
598.394	171866
598.464	173047
598.533	164818
598.603	154334
598.672	159236
598.742	161128
598.812	160011
598.881	160874
598.951	157308
599.020	155157
599.090	156498
599.159	159129
599.229	152456
599.299	148623
599.368	157081
599.437	151483
599.507	151201
599.576	154432
599.646	145975
599.715	144292
599.785	149474
599.854	160077
599.924	176301
599.993	160021
600.062	149416
600.132	148477
600.201	155486
600.270	169701
600.340	168274
600.409	160697
600.478	163687
600.547	162025
600.617	162313
600.686	145062
600.755	139536
600.824	140550
600.894	136815
600.963	129792
601.032	127613
601.101	127486
601.170	125459
601.239	128966
601.308	136511
601.378	129375
601.447	124310
601.516	121832
601.585	127834
601.654	138819
601.723	129922
601.792	128316
601.861	127680
601.930	133072
601.999	139247
602.068	130334
602.137	145037
602.206	138106
602.275	130360
602.343	145990
602.412	142656
602.481	129369
602.550	128414
602.619	127782
602.688	134696
602.756	133520
602.825	127928
602.894	132041
602.963	135513
603.032	135886
603.100	134226
603.169	131460
603.238	135763
603.307	131889
603.375	128962
603.444	135695
603.513	137456
603.581	135237
603.650	137260
603.719	136156
603.787	137863
603.856	140702
603.924	141033
603.993	143348
604.061	144083
604.130	149649
604.198	152120
604.267	151379
604.335	150461
604.404	151684
604.472	153386
604.541	154999
604.609	155144
604.678	153212
604.746	155796
604.815	158676
604.883	159875
604.951	160335
605.020	159938
605.088	166398
605.156	170202
605.225	167779
605.293	168211
605.361	169791
605.429	170604
605.498	171706
605.566	177496
605.634	180751
605.702	186211
605.771	189419
605.839	188505
605.907	184749
605.975	180748
606.043	175659
606.111	175661
606.180	176313
606.248	174376
606.316	178469
606.384	184932
606.452	213532
606.520	211483
606.588	187494
606.656	179092
606.724	180462
606.792	169464
606.860	156982
606.928	145324
606.996	143564
607.064	140562
607.132	143830
607.200	151300
607.267	155938
607.335	155153
607.403	157301
607.471	156706
607.539	151027
607.607	151781
607.674	139128
607.742	147044
607.810	148083
607.878	141354
607.946	141639
608.013	145225
608.081	151135
608.149	146739
608.216	150456
608.284	156151
608.352	155195
608.419	167961
608.487	215409
608.555	166571
608.622	150205
608.690	155505
608.757	167879
608.825	169880
608.893	170508
608.960	172687
609.028	190515
609.095	227995
609.163	167613
609.230	153644
609.298	141679
609.365	137117
609.432	145266
609.500	157195
609.567	174758
609.635	191705
609.702	198246
609.769	196731
609.837	179887
609.904	151190
609.971	145151
610.039	159863
610.106	208497
610.173	386467
610.241	837839
610.308	423288
610.375	173790
610.442	152233
610.509	143006
610.577	143460
610.644	147923
610.711	148746
610.778	152599
610.845	156525
610.912	164573
610.980	167151
611.047	170900
611.114	167494
611.181	158534
611.248	158840
611.315	167421
611.382	168457
611.449	172247
611.516	175431
611.583	176098
611.650	176763
611.717	177357
611.784	182486
611.851	188566
611.918	204963
611.984	236719
612.051	343995
612.118	698857
612.185	1658259
612.252	922724
612.319	261033
612.386	220898
612.452	207151
612.519	219048
612.586	272010
612.653	217944
612.719	197839
612.786	188974
612.853	177112
612.919	174056
612.986	175233
613.053	167138
613.120	159175
613.186	158347
613.253	160919
613.319	157836
613.386	157777
613.453	160944
613.519	171130
613.586	188749
613.652	221019
613.719	195712
613.785	185765
613.852	164068
613.918	158634
613.985	157336
614.051	165153
614.118	168622
614.184	163932
614.250	154481
614.317	156373
614.383	157784
614.449	159296
614.516	159969
614.582	170006
614.648	161137
614.715	155502
614.781	157362
614.847	168741
614.914	169522
614.980	163561
615.046	155355
615.112	155872
615.179	156531
615.245	159787
615.311	158692
615.377	164941
615.443	168076
615.509	166684
615.575	172275
615.642	169859
615.708	179253
615.774	191002
615.840	210529
615.906	233324
615.972	272241
616.038	413893
616.104	859786
616.170	1977508
616.236	1507915
616.302	392867
616.368	303509
616.434	235054
616.500	224429
616.565	243369
616.631	290191
616.697	237257
616.763	250061
616.829	365905
616.895	613924
616.961	551261
617.026	255291
617.092	194462
617.158	188136
617.224	183504
617.289	178175
617.355	177794
617.421	187424
617.487	181219
617.552	166387
617.618	162454
617.684	163883
617.749	164908
617.815	157304
617.880	154264
617.946	154145
618.012	157185
618.077	157698
618.143	153957
618.208	157619
618.274	166931
618.339	173074
618.405	151093
618.470	155147
618.536	160701
618.601	179850
618.667	166788
618.732	151170
618.798	148817
618.863	148333
618.928	148741
618.994	158708
619.059	167823
619.124	197339
619.190	164642
619.255	152851
619.320	152996
619.386	150838
619.451	143414
619.516	142641
619.581	145239
619.647	149033
619.712	148006
619.777	143130
619.842	144137
619.907	147859
619.972	151098
620.038	152014
620.103	144020
620.168	141440
620.233	142828
620.298	142630
620.363	141020
620.428	142938
620.493	147941
620.558	144737
620.623	144697
620.688	145563
620.753	143294
620.818	144611
620.883	146276
620.948	145842
621.013	146234
621.078	148642
621.143	155790
621.207	158246
621.272	159839
621.337	164224
621.402	181179
621.467	233696
621.532	232098
621.596	184067
621.661	169619
621.726	164363
621.791	166975
621.855	169455
621.920	177084
621.985	190344
622.049	209832
622.114	199957
622.179	181824
622.243	197185
622.308	190844
622.373	189699
622.437	188702
622.502	178759
622.566	180275
622.631	183097
622.695	179406
622.760	183057
622.824	176808
622.889	179594
622.953	188929
623.018	228429
623.082	216450
623.147	182688
623.211	174091
623.276	179459
623.340	166630
623.404	163020
623.469	165590
623.533	166572
623.597	162301
623.662	162554
623.726	156468
623.790	152796
623.854	158224
623.919	157206
623.983	155507
624.047	157620
624.111	152786
624.176	158227
624.240	164130
624.304	169057
624.368	156829
624.432	157680
624.496	161961
624.560	166658
624.625	178199
624.689	158368
624.753	157127
624.817	157870
624.881	152676
624.945	144515
625.009	145412
625.073	144101
625.137	158881
625.201	175128
625.265	170535
625.329	148233
625.393	157366
625.456	151709
625.520	158147
625.584	172517
625.648	204005
625.712	304594
625.776	655993
625.839	684515
625.903	263867
625.967	177598
626.031	283344
626.095	421358
626.158	173398
626.222	129474
626.286	122249
626.349	122977
626.413	120101
626.477	128582
626.540	119245
626.604	120607
626.668	119563
626.731	119769
626.795	132239
626.858	129963
626.922	123861
626.986	117972
627.049	117341
627.113	118256
627.176	113229
627.240	113955
627.303	115838
627.366	117204
627.430	114288
627.493	119476
627.557	126347
627.620	119667
627.684	122100
627.747	122312
627.810	117802
627.874	113018
627.937	110431
628.000	117267
628.064	116414
628.127	104297
628.190	107327
628.253	107817
628.317	103069
628.380	104196
628.443	102681
628.506	103710
628.569	98046
628.632	96341
628.696	95361
628.759	97950
628.822	93828
628.885	93495
628.948	93766
629.011	95432
629.074	94445
629.137	90810
629.200	93082
629.263	98477
629.326	87926
629.389	91142
629.452	93403
629.515	98027
629.578	91591
629.641	96570
629.704	96815
629.767	94438
629.830	86807
629.892	88016
629.955	86615
630.018	92205
630.081	95404
630.144	105979
630.207	93468
630.269	98671
630.332	109245
630.395	92677
630.458	83281
630.520	87145
630.583	81357
630.646	80111
630.708	80259
630.771	82893
630.834	81621
630.896	79042
630.959	79044
631.021	80960
631.084	84141
631.146	92276
631.209	103108
631.272	80620
631.334	78312
631.397	78347
631.459	76773
631.522	78055
631.584	83200
631.646	82160
631.709	85909
631.771	105936
631.834	87509
631.896	78433
631.958	72405
632.021	75555
632.083	76225
632.145	81227
632.208	76409
632.270	75778
632.332	72460
632.395	74596
632.457	78568
632.519	75477
632.581	71775
632.643	70650
632.706	73441
632.768	70884
632.830	72098
632.892	71014
632.954	75144
633.016	75492
633.078	68481
633.141	69731
633.203	72802
633.265	71441
633.327	69836
633.389	70331
633.451	78905
633.513	88761
633.575	91977
633.637	84458
633.698	77590
633.760	72602
633.822	69999
633.884	71152
633.946	70690
634.008	71453
634.070	68637
634.132	72046
634.193	76243
634.255	75962
634.317	75591
634.379	78017
634.441	74780
634.502	73072
634.564	65969
634.626	65725
634.687	64316
634.749	67556
634.811	64821
634.873	60154
634.934	62635
634.996	66338
635.057	64006
635.119	64380
635.181	66056
635.242	64811
635.304	61009
635.365	64755
635.427	65756
635.488	64805
635.550	62915
635.611	62918
635.673	64522
635.734	71723
635.796	68923
635.857	73362
635.918	70179
635.980	74370
636.041	75871
636.102	76564
636.164	75147
636.225	75043
636.286	72566
636.348	68348
636.409	62947
636.470	62288
636.531	65771
636.593	78488
636.654	70552
636.715	57176
636.776	55884
636.838	55265
636.899	60903
636.960	57681
637.021	55246
637.082	56227
637.143	57146
637.204	53043
637.265	55623
637.326	53886
637.387	52964
637.448	52598
637.509	54230
637.570	53281
637.631	53429
637.692	50716
637.753	49207
637.814	52093
637.875	50880
637.936	52668
637.997	51841
638.058	54396
638.119	58617
638.179	52910
638.240	52798
638.301	52108
638.362	52002
638.423	55037
638.483	52254
638.544	48922
638.605	50467
638.666	49707
638.726	52230
638.787	49546
638.848	50021
638.908	49172
638.969	48638
639.030	50865
639.090	47367
639.151	48113
639.211	51503
639.272	61230
639.332	86151
639.393	56343
639.453	50824
639.514	50984
639.574	46703
639.635	46116
639.695	49105
639.756	47824
639.816	48113
639.877	54103
639.937	77439
639.997	87762
640.058	49243
640.118	45108
640.178	43889
640.239	43333
640.299	43651
640.359	43855
640.420	44064
640.480	45362
640.540	48765
640.600	47184
640.661	47879
640.721	48965
640.781	55535
640.841	46188
640.901	46237
640.961	45931
641.021	49334
641.082	51376
641.142	64596
641.202	48281
641.262	41534
641.322	43934
641.382	42487
641.442	44360
641.502	45080
641.562	44999
641.622	42784
641.682	44973
641.742	46178
641.802	47006
641.861	48717
641.921	47855
641.981	50880
642.041	51065
642.101	58470
642.161	43500
642.221	42271
642.280	40889
642.340	40705
642.400	41610
642.460	43404
642.519	43030
642.579	42965
642.639	44841
642.698	39867
642.758	42765
642.818	44433
642.877	43239
642.937	45497
642.997	48750
643.056	62288
643.116	44663
643.175	43469
643.235	41382
643.294	41493
643.354	43333
643.414	45944
643.473	51851
643.532	52159
643.592	63616
643.651	86566
643.711	134294
643.770	254186
643.830	603852
643.889	1141576
643.948	243790
644.008	68830
644.067	52695
644.126	46061
644.186	43949
644.245	39139
644.304	37604
644.363	40688
644.423	37319
644.482	41610
644.541	38771
644.600	39319
644.659	45879
644.719	51117
644.778	67349
644.837	93881
644.896	170535
644.955	345764
645.014	110794
645.073	47343
645.132	45207
645.191	43675
645.250	38397
645.309	43829
645.368	43106
645.427	48182
645.486	63850
645.545	86647
645.604	43164
645.663	39460
645.722	39099
645.781	40169
645.840	42144
645.898	47577
645.957	59014
646.016	76427
646.075	127027
646.134	235987
646.192	627253
646.251	809808
646.310	121200
646.369	53761
646.427	46646
646.486	41102
646.545	39465
646.603	38095
646.662	36716
646.721	37718
646.779	34216
646.838	36640
646.896	39597
646.955	46189
647.014	61775
647.072	98966
647.131	226533
647.189	103519
647.248	37698
647.306	33962
647.365	34127
647.423	30896
647.481	33403
647.540	30944
647.598	32886
647.657	30279
647.715	33625
647.773	32555
647.832	33429
647.890	33750
647.948	32739
648.007	33828
648.065	31042
648.123	31813
648.181	33904
648.240	32922
648.298	30976
648.356	33920
648.414	36035
648.472	34383
648.531	35115
648.589	33406
648.647	32059
648.705	33021
648.763	33796
648.821	33198
648.879	32325
648.937	35313
648.995	38566
649.053	40246
649.111	50723
649.169	70870
649.227	111083
649.285	216122
649.343	567617
649.401	243189
649.459	106457
649.516	64797
649.574	39344
649.632	43237
649.690	43860
649.748	49402
649.806	51576
649.863	74298
649.921	166659
649.979	101221
650.037	35681
650.094	32296
650.152	31899
650.210	30028
650.268	31069
650.325	31404
650.383	28697
650.440	28697
650.498	31010
650.556	30022
650.613	26598
650.671	28799
650.728	31970
650.786	34981
650.843	31714
650.901	28745
650.958	27756
651.016	27601
651.073	28794
651.131	26823
651.188	29020
651.246	30780
651.303	28312
651.360	28090
651.418	28607
651.475	28356
651.532	25452
651.590	26788
651.647	27596
651.704	28307
651.762	28055
651.819	27146
651.876	27622
651.933	26856
651.990	28081
652.048	25964
652.105	27136
652.162	27586
652.219	24180
652.276	26194
652.333	25340
652.390	23650
652.448	25744
652.505	26555
652.562	24324
652.619	24539
652.676	26334
652.733	25751
652.790	23835
652.847	21890
652.904	24249
652.961	23636
653.017	23794
653.074	24943
653.131	23974
653.188	23530
653.245	23142
653.302	24305
653.359	23907
653.415	23880
653.472	24567
653.529	23633
653.586	24525
653.642	24405
653.699	23059
653.756	22390
653.813	23673
653.869	23394
653.926	22360
653.983	23274
654.039	21953
654.096	23885
654.152	25379
654.209	23338
654.266	25797
654.322	26407
654.379	31479
654.435	31841
654.492	33166
654.548	45538
654.605	66086
654.661	32209
654.717	26619
654.774	29005
654.830	28481
654.887	28001
654.943	28911
655.000	28104
655.056	27459
655.112	29168
655.168	28491
655.225	29016
655.281	33806
655.337	45820
655.394	74274
655.450	49258
655.506	45343
655.562	78887
655.618	51610
655.675	26401
655.731	27360
655.787	26396
655.843	26406
655.899	24238
655.955	24992
656.011	26136
656.067	22730
656.123	25087
656.179	26099
656.235	27049
656.291	24081
656.347	27962
656.403	27718
656.459	29262
656.515	32231
656.571	32404
656.627	28405
656.683	27187
656.739	27630
656.795	25198
656.850	27463
656.906	31745
656.962	27040
657.018	23117
657.074	26412
657.129	28899
657.185	30509
657.241	40563
657.297	29389
657.352	26550
657.408	24216
657.464	30044
657.519	26497
657.575	23514
657.630	25006
657.686	25790
657.742	25030
657.797	25019
657.853	25986
657.908	27023
657.964	22949
658.019	24342
658.075	27075
658.130	26336
658.186	22915
658.241	23155
658.297	23718
658.352	25816
658.407	23981
658.463	24192
658.518	25427
658.573	24554
658.629	23474
658.684	22504
658.739	22548
658.795	21491
658.850	23453
658.905	24246
658.960	23181
659.016	22748
659.071	24045
659.126	25268
659.181	25981
659.236	35889
659.291	35213
659.346	29242
659.401	27302
659.457	24227
659.512	24407
659.567	25936
659.622	24203
659.677	24649
659.732	24644
659.787	27356
659.842	32391
659.897	40672
659.952	26725
660.007	24606
660.061	25108
660.116	25103
660.171	22439
660.226	24050
660.281	23656
660.336	23452
660.391	23098
660.445	23019
660.500	23830
660.555	24498
660.610	24568
660.664	23927
660.719	23050
660.774	24613
660.828	23563
660.883	24401
660.938	25181
660.992	24010
661.047	24775
661.101	22707
661.156	23278
661.211	23030
661.265	23087
661.320	23149
661.374	23900
661.429	23111
661.483	25008
661.538	24860
661.592	24019
661.647	24442
661.701	24239
661.755	24847
661.810	24938
661.864	24666
661.919	24123
661.973	25460
662.027	25213
662.081	23764
662.136	25119
662.190	27590
662.244	27925
662.299	25815
662.353	23557
662.407	24966
662.461	26375
662.515	26982
662.569	27795
662.624	28557
662.678	26200
662.732	26095
662.786	25627
662.840	27909
662.894	26806
662.948	23791
663.002	23143
663.056	25446
663.110	23735
663.164	24553
663.218	23454
663.272	25470
663.326	25808
663.380	28198
663.434	28086
663.488	27505
663.542	28000
663.595	27948
663.649	27023
663.703	25658
663.757	26690
663.811	25781
663.864	25183
663.918	26081
663.972	25295
664.026	25120
664.079	23842
664.133	25577
664.187	23433
664.240	23823
664.294	23449
664.348	26007
664.401	25189
664.455	23704
664.508	24396
664.562	24543
664.615	25597
664.669	23418
664.722	23685
664.776	24985
664.829	24963
664.883	26447
664.936	26987
664.990	27287
665.043	29546
665.097	33606
665.150	34305
665.203	30068
665.257	28882
665.310	27951
665.363	28780
665.417	29988
665.470	27955
665.523	29271
665.576	28305
665.630	28354
665.683	28042
665.736	29903
665.789	28986
665.842	28163
665.895	28711
665.949	26583
666.002	26720
666.055	28187
666.108	29865
666.161	28387
666.214	28620
666.267	29426
666.320	31571
666.373	28675
666.426	29135
666.479	27985
666.532	32369
666.585	37041
666.638	37495
666.691	35100
666.744	36346
666.796	36008
666.849	33626
666.902	28723
666.955	26905
667.008	26170
667.060	26287
667.113	25164
667.166	24646
667.219	25235
667.271	26101
667.324	26168
667.377	26548
667.430	25098
667.482	27215
667.535	27350
667.587	28366
667.640	29229
667.693	34923
667.745	42709
667.798	40617
667.850	29998
667.903	29064
667.955	28642
668.008	29533
668.060	35424
668.113	35310
668.165	34543
668.218	34053
668.270	31684
668.322	31049
668.375	30527
668.427	31006
668.479	28503
668.532	31694
668.584	31798
668.636	28842
668.689	31153
668.741	30137
668.793	29721
668.845	29978
668.898	30472
668.950	29619
669.002	32246
669.054	31236
669.106	30570
669.158	32452
669.211	29305
669.263	28863
669.315	32743
669.367	29688
669.419	31333
669.471	31685
669.523	31131
669.575	35021
669.627	32919
669.679	29280
669.731	29717
669.783	30694
669.835	30186
669.886	29448
669.938	29672
669.990	27864
670.042	26464
670.094	27327
670.146	26811
670.197	27675
670.249	28398
670.301	27437
670.353	28136
670.404	28464
670.456	30078
670.508	30722
670.560	35109
670.611	40729
670.663	52088
670.715	94371
670.766	119073
670.818	42930
670.869	29171
670.921	26240
670.972	28707
671.024	26776
671.075	27551
671.127	27795
671.178	26825
671.230	27740
671.281	27826
671.333	29680
671.384	33004
671.436	35167
671.487	36560
671.538	38113
671.590	44958
671.641	58583
671.692	79044
671.744	122174
671.795	77195
671.846	42793
671.897	38341
671.949	36743
672.000	32593
672.051	31502
672.102	32268
672.153	31042
672.204	31134
672.256	30855
672.307	31522
672.358	32844
672.409	31238
672.460	30432
672.511	29717
672.562	31026
672.613	30397
672.664	30034
672.715	29942
672.766	29880
672.817	28876
672.868	29149
672.919	28685
672.970	29732
673.021	29934
673.071	27579
673.122	28787
673.173	29016
673.224	29356
673.275	27516
673.326	27715
673.376	27880
673.427	28441
673.478	28689
673.528	26938
673.579	26923
673.630	27108
673.680	28427
673.731	26548
673.782	24860
673.832	30231
673.883	30346
673.934	27291
673.984	26512
674.035	28698
674.085	27167
674.136	30740
674.186	32629
674.237	39064
674.287	53355
674.338	31504
674.388	28728
674.438	27524
674.489	29181
674.539	29474
674.589	30635
674.640	30125
674.690	29037
674.740	32410
674.791	32900
674.841	31930
674.891	30539
674.942	27753
674.992	27467
675.042	25150
675.092	25512
675.142	26799
675.193	26859
675.243	24805
675.293	27970
675.343	29092
675.393	28784
675.443	28292
675.493	25539
675.543	26198
675.593	29822
675.643	25963
675.693	27364
675.743	27559
675.793	25934
675.843	25064
675.893	27100
675.943	24560
675.993	25354
676.043	27172
676.093	24842
676.142	24756
676.192	26678
676.242	24453
676.292	25008
676.341	28470
676.391	27280
676.441	24056
676.491	24380
676.540	24023
676.590	24280
676.640	25473
676.689	24709
676.739	23549
676.789	22497
676.838	24118
676.888	23348
676.937	24771
676.987	21932
677.037	21869
677.086	21627
677.136	22399
677.185	22407
677.235	20977
677.284	22145
677.333	22768
677.383	21353
677.432	20713
677.482	21856
677.531	22507
677.580	22915
677.630	20690
677.679	20537
677.728	22928
677.778	20991
677.827	21028
677.876	20363
677.925	19466
677.975	22612
678.024	23071
678.073	22899
678.122	25464
678.171	24541
678.220	24318
678.269	27391
678.319	26417
678.368	24861
678.417	26010
678.466	25471
678.515	27391
678.564	26919
678.613	23905
678.662	24027
678.711	25217
678.760	24687
678.809	24294
678.857	25178
678.906	24284
678.955	24064
679.004	24250
679.053	24227
679.102	24525
679.151	24942
679.199	22003
679.248	22749
679.297	25276
679.346	25672
679.394	23921
679.443	22864
679.492	23132
679.540	23219
679.589	25191
679.638	22342
679.686	20959
679.735	21687
679.784	24625
679.832	23769
679.881	20766
679.929	19948
679.978	20322
680.026	21603
680.075	22411
680.123	20742
680.172	20146
680.220	19145
680.268	22331
680.317	19727
680.365	20851
680.414	18896
680.462	21815
680.510	21137
680.559	19377
680.607	19861
680.655	20590
680.703	21267
680.752	20223
680.800	18013
680.848	18884
680.896	17797
680.945	19886
680.993	20688
681.041	19762
681.089	18306
681.137	17790
681.185	18193
681.233	20184
681.258	19530
681.281	18871
681.329	18807
681.377	18578
681.380	18728
681.425	20632
681.473	22972
681.502	21916
681.521	21110
681.569	21136
681.617	20673
681.624	20789
681.665	21212
681.713	21275
681.745	20726
681.761	20392
681.809	20397
681.857	20846
681.867	20700
681.904	20042
681.952	21535
681.989	21096
682.000	20895
682.048	20694
682.096	19994
682.111	20299
682.143	20837
682.191	20156
682.233	22039
682.239	22273
682.286	21640
682.334	20186
682.354	20456
682.382	20710
682.430	21592
682.476	20426
682.477	20364
682.525	19721
682.572	20969
682.598	20017
682.620	19129
682.667	20433
682.715	21866
682.720	21869
682.763	21506
682.810	20681
682.841	20746
682.857	20670
682.905	19306
682.952	20832
682.963	21180
683.000	22269
683.047	21714
683.085	20750
683.095	20427
683.142	19458
683.190	19681
683.206	20316
683.237	21499
683.284	20770
683.328	20940
683.332	20909
683.379	20253
683.426	20635
683.449	20550
683.473	20394
683.521	20723
683.568	20311
683.571	20282
683.615	19435
683.662	20802
683.693	20853
683.709	20838
683.757	19832
683.804	21082
683.814	21156
683.851	21271
683.898	20576
683.936	20191
683.945	20100
683.992	21025
684.039	22195
684.057	22094
684.086	21829
684.133	22214
684.179	22432
684.180	22393
684.227	22901
684.274	22119
684.300	22510
684.321	22774
684.368	21574
684.415	23021
684.422	22733
684.462	20713
684.509	21674
684.543	21209
684.556	21080
684.603	20940
684.649	20618
684.665	20863
684.696	21411
684.743	21794
684.786	22879
684.790	22969
684.837	22559
684.883	25325
684.908	26158
684.930	26702
684.977	27596
685.023	24929
685.029	24810
685.070	23285
685.117	23280
685.150	24504
685.164	25226
685.210	27490
685.257	27627
685.272	27112
685.303	25502
685.350	25402
685.393	25989
685.396	26075
685.443	27339
685.490	29583
685.514	29001
685.536	27740
685.583	27984
685.629	26549
685.636	26376
685.675	25912
685.722	25363
685.757	26749
685.768	27152
685.815	26828
685.861	27093
685.878	26567
685.908	25948
685.954	27521
686.000	29222
686.000	29251
686.047	31357
686.093	35732
686.121	35416
686.139	33991
686.185	29865
686.232	27832
686.242	27372
686.278	26395
686.324	25655
686.363	24184
686.370	24016
686.416	24950
686.463	26094
686.484	25505
686.509	24842
686.555	24169
686.601	24702
686.606	24790
686.647	25682
686.693	25175
686.727	25198
686.739	25134
686.785	24882
686.831	25078
686.848	24909
686.877	24571
686.923	23456
686.969	24232
686.969	24235
687.015	25257
687.061	25468
687.090	25279
687.107	25045
687.153	25250
687.199	24805
687.211	24613
687.245	24472
687.291	25929
687.332	27018
687.336	27093
687.382	27739
687.428	26675
687.453	26077
687.474	25219
687.520	24503
687.565	24181
687.574	24016
687.611	24270
687.657	25035
687.695	25701
687.702	25796
687.748	26653
687.794	25880
687.816	25796
687.839	25403
687.885	23956
687.931	23376
687.937	23458
687.976	24714
688.022	24786
688.058	26036
688.067	26249
688.113	26225
688.158	24989
688.179	25031
688.204	25303
688.249	25405
688.295	26734
688.300	26929
688.340	28476
688.386	28200
688.421	27619
688.431	27371
688.477	26868
688.522	26730
688.542	26989
688.567	27248
688.613	26928
688.658	25567
688.663	25623
688.703	26404
688.749	26929
688.784	26535
688.794	26435
688.839	26588
688.884	26827
688.905	26047
688.930	25088
688.975	25365
689.020	26261
689.026	26218
689.065	26329
689.110	26176
689.146	26325
689.155	26267
689.201	25295
689.246	24761
689.267	24909
689.291	25477
689.336	25837
689.381	25819
689.388	25905
689.426	25913
689.471	24927
689.509	24875
689.516	24945
689.561	24694
689.606	24884
689.630	25052
689.651	25302
689.696	25127
689.741	25932
689.750	26111
689.785	26566
689.830	25675
689.871	24939
689.875	24866
689.920	24825
689.965	24671
689.992	23993
690.010	23963
690.054	24829
690.099	25728
690.112	25917
690.144	25762
690.189	25154
690.233	24334
690.233	24354
690.278	24012
690.323	24426
690.354	24197
690.367	24220
690.412	24993
690.457	25620
690.474	25563
690.501	25209
690.546	24456
690.590	24313
690.595	24226
690.635	24065
690.680	24152
690.716	24318
690.724	24377
690.769	25183
690.813	25201
690.836	24729
690.857	24370
690.902	24994
690.946	25181
690.957	25151
690.991	25385
691.035	26264
691.077	26046
691.080	26087
691.124	27047
691.168	28311
691.198	28854
691.213	28962
691.257	29029
691.301	29345
691.318	29276
691.346	28457
691.390	26900
691.434	25452
691.439	25360
691.478	26544
691.522	27511
691.559	27698
691.567	27700
691.611	27817
691.655	28149
691.680	28244
691.699	28102
691.743	27944
691.787	27342
691.800	27223
691.831	27793
691.875	28950
691.919	29294
691.921	29286
691.964	29915
692.008	30329
692.041	30061
692.052	29958
692.096	30204
692.139	29788
692.162	29505
692.183	29229
692.227	29633
692.271	29555
692.282	29384
692.315	29091
692.359	29570
692.402	28935
692.403	28973
692.447	28654
692.490	29132
692.523	29504
692.534	29784
692.578	30063
692.622	30300
692.643	30340
692.666	29657
692.709	28960
692.753	27711
692.763	27284
692.797	26858
692.840	26877
692.884	26919
692.884	26966
692.928	27809
692.971	28349
693.004	28575
693.015	28531
693.059	28814
693.102	28197
693.124	28048
693.146	28448
693.189	29618
693.233	30868
693.245	31023
693.276	31037
693.320	31204
693.363	30821
693.365	30790
693.407	30966
693.450	30213
693.485	29811
693.493	29867
693.537	30126
693.580	30009
693.605	30117
693.624	30012
693.667	29256
693.710	28446
693.725	28376
693.753	29315
693.797	30190
693.840	30935
693.845	30980
693.883	30334
693.926	29657
693.966	28885
693.970	28859
694.013	27887
694.056	27367
694.086	26966
694.099	27437
694.142	28908
694.185	29968
694.206	30390
694.229	30615
694.272	31120
694.315	31786
694.326	31873
694.358	32280
694.401	32400
694.444	32889
694.446	32847
694.487	32657
694.530	32640
694.566	32337
694.573	32068
694.616	29927
694.659	27444
694.686	26322
694.702	26425
694.745	26150
694.787	25947
694.806	25927
694.830	26385
694.873	26963
694.916	27185
694.926	27237
694.959	27235
695.002	27128
695.044	27133
695.046	27083
695.087	27736
695.130	28403
695.166	28770
695.172	28825
695.215	28931
695.258	28875
695.286	28943
695.301	28929
695.343	28437
695.386	28032
695.406	27753
695.428	27610
695.471	27297
695.514	27220
695.526	27142
695.556	27431
695.599	27546
695.641	27684
695.646	27626
695.684	27390
695.726	27157
695.766	27112
695.769	27189
695.811	27527
695.854	27642
695.886	27630
695.896	27538
695.938	27046
695.981	26595
696.005	26262
696.023	26757
696.065	27633
696.108	29027
696.125	29387
696.150	29177
696.192	28778
696.235	28361
696.245	28185
696.277	27957
696.319	27560
696.361	27108
696.365	27042
696.404	27040
696.446	26791
696.485	26350
696.488	26436
696.530	26883
696.572	27547
696.604	27820
696.614	27657
696.656	26783
696.698	25836
696.724	25245
696.740	25379
696.783	25572
696.825	25723
696.844	25757
696.867	26197
696.909	27158
696.951	27649
696.964	27824
696.992	27449
697.034	26767
697.076	26115
697.083	25945
697.118	26495
697.160	27125
697.202	27623
697.203	27580
697.244	27478
697.286	27207
697.323	26831
697.327	26889
697.369	26958
697.411	27063
697.442	27088
697.453	27431
697.494	28575
697.536	29680
697.562	30295
697.578	30241
697.620	29913
697.661	29608
697.682	29368
697.703	30102
697.744	31557
697.786	32998
697.801	33433
697.828	33365
697.869	32956
697.911	32736
697.921	32577
697.952	31619
697.994	30409
698.035	29100
698.040	28877
698.077	28113
698.118	27125
698.160	26199
698.160	26134
698.201	26852
698.243	27535
698.279	28118
698.284	28201
698.325	28334
698.367	28467
698.399	28526
698.408	28405
698.449	27488
698.491	26612
698.518	25965
698.532	26219
698.573	26809
698.614	27390
698.638	27667
698.656	27952
698.697	28447
698.738	28951
698.757	29128
698.779	29479
698.820	29983
698.862	30502
698.877	30633
698.903	30824
698.944	30990
698.985	31164
698.996	31141
699.026	30987
699.067	30675
699.116	30235
699.235	28423
699.354	26523
699.474	29333
699.593	33568
699.713	31544
699.832	28315
699.951	31979
700.070	27259
700.190	26044
700.309	27471
700.428	32506
700.547	28013
700.667	28468
700.786	33842
700.905	27155
701.024	30825
701.143	28551
701.262	23801
701.381	26926
701.500	27700
701.619	31522
701.738	25243
701.857	23928
701.976	24527
702.095	24534
702.214	29110
702.333	30383
702.452	27193
702.571	24073
702.690	25010
702.809	24461
702.928	22685
703.047	25429
703.165	23682
703.284	23017
703.403	23663
703.522	29170
703.640	26494
703.759	35791
703.878	48499
703.997	24879
704.115	23678
704.234	24139
704.353	21978
704.471	22116
704.590	20788
704.708	21147
704.827	21375
704.946	22646
705.064	25614
705.183	22335
705.301	29766
705.420	45220
705.538	36501
705.656	30197
705.775	27176
705.893	31920
706.012	33281
706.130	33312
706.249	32102
706.367	35074
706.485	35788
706.604	34627
706.722	34670
706.840	44094
706.958	37936
707.077	31270
707.195	30218
707.313	29641
707.431	28814
707.549	28980
707.668	29832
707.786	31520
707.904	27785
708.022	27284
708.140	27301
708.258	27785
708.376	28707
708.494	28301
708.612	32019
708.730	50586
708.848	45395
708.966	42697
709.084	38639
709.202	36785
709.320	38917
709.438	37708
709.556	38882
709.674	36852
709.791	36935
709.909	35993
710.027	35827
710.145	34472
710.263	36190
710.380	37072
710.498	35320
710.616	36024
710.733	36192
710.851	38048
710.969	38754
711.086	35038
711.204	34723
711.322	35513
711.439	36913
711.557	36390
711.674	34068
711.792	34582
711.909	32161
712.027	31835
712.144	31880
712.262	32827
712.379	39082
712.497	57597
712.614	53400
712.732	44187
712.849	42378
712.966	48617
713.084	60097
713.201	46272
713.318	45575
713.436	42514
713.553	43429
713.670	44820
713.787	50656
713.905	49067
714.022	42962
714.139	43631
714.256	46966
714.373	54101
714.490	70886
714.608	155909
714.725	582173
714.842	473222
714.959	59206
715.076	43621
715.193	39442
715.310	38475
715.427	37760
715.544	35831
715.661	36627
715.778	36766
715.895	41809
716.011	40465
716.128	36518
716.245	38335
716.362	45879
716.479	44936
716.596	35347
716.713	35165
716.829	33112
716.946	34189
717.063	32002
717.180	31359
717.296	31287
717.413	32764
717.530	33514
717.646	32156
717.763	32023
717.880	29633
717.996	30754
718.113	32017
718.229	31163
718.346	29208
718.462	31075
718.579	42012
718.695	73479
718.812	51642
718.928	48783
719.045	33170
719.161	29007
719.277	27262
719.394	28357
719.510	29582
719.626	29990
719.743	37295
719.859	39465
719.975	55116
720.092	178422
720.208	324977
720.324	49746
720.440	32325
720.557	37531
720.673	60162
720.789	75653
720.905	159180
721.021	45585
721.137	28933
721.253	29222
721.369	29699
721.486	35350
721.602	48831
721.718	27874
721.834	24283
721.950	27460
722.066	24675
722.181	23903
722.297	27160
722.413	23566
722.529	24100
722.645	21992
722.761	22958
722.877	22999
722.993	22561
723.108	25041
723.224	22812
723.340	23257
723.456	21331
723.571	22688
723.687	21652
723.803	22265
723.918	22322
724.034	22670
724.150	22065
724.265	27402
724.381	61695
724.497	68626
724.612	22693
724.728	20457
724.843	20368
724.959	26372
725.074	59207
725.190	58491
725.305	24880
725.421	21146
725.536	18575
725.651	18164
725.767	18907
725.882	17977
725.997	17970
726.113	19961
726.228	17705
726.343	17231
726.459	16382
726.574	19837
726.689	18008
726.804	17593
726.920	18881
727.035	17818
727.150	18601
727.265	17377
727.380	18316
727.495	16588
727.610	15436
727.725	17442
727.841	16262
727.956	17556
728.071	21354
728.186	16997
728.301	15317
728.416	17579
728.531	15856
728.645	15419
728.760	17538
728.875	18060
728.990	16331
729.105	17069
729.220	18677
729.335	17560
729.449	14882
729.564	13823
729.679	14480
729.794	15675
729.908	17816
730.023	15876
730.138	12695
730.253	14729
730.367	13360
730.482	13303
730.596	14322
730.711	16474
730.826	15229
730.940	14156
731.055	16523
731.169	13951
731.284	13803
731.398	13791
731.513	17892
731.627	15776
731.742	19295
731.856	20712
731.970	14579
732.085	17775
732.199	18900
732.313	29358
732.428	65887
732.542	189441
732.656	93612
732.771	21714
732.885	16606
732.999	15721
733.113	17749
733.227	16345
733.342	13336
733.456	13345
733.570	12673
733.684	13831
733.798	14131
733.912	13205
734.026	11511
734.140	12694
734.254	16470
734.368	32981
734.482	35941
734.596	12559
734.710	12922
734.824	11744
734.938	11908
735.052	13862
735.166	17868
735.280	14184
735.393	12385
735.507	13004
735.621	20309
735.735	39434
735.849	15383
735.962	11233
736.076	14834
736.190	14820
736.303	22542
736.417	27257
736.531	12272
736.644	13764
736.758	10157
736.872	10423
736.985	10629
737.099	10318
737.212	10171
737.326	10052
737.439	10873
737.553	11057
737.666	11086
737.780	9709
737.893	9771
738.007	9607
738.120	9805
738.233	10630
738.347	10981
738.460	10471
738.573	12182
738.687	12178
738.800	12255
738.913	17874
739.026	11342
739.140	10593
739.253	8484
739.366	8672
739.479	8635
739.592	7994
739.705	9224
739.818	9472
739.932	8491
740.045	10173
740.158	10214
740.271	10167
740.384	8780
740.497	8692
740.610	10330
740.723	9026
740.836	10054
740.949	10423
741.062	17584
741.174	13144
741.287	10276
741.400	8703
741.513	10070
741.626	10559
741.739	10090
741.851	10573
741.964	8584
742.077	8899
742.189	8392
742.302	10146
742.415	9311
742.527	8258
742.640	9050
742.753	8027
742.865	7479
742.978	8245
743.090	8443
743.203	8595
743.316	8244
743.428	6210
743.541	7784
743.653	7293
743.766	7779
743.878	8822
743.990	14738
744.103	11010
744.215	7979
744.327	8870
744.440	14147
744.552	22606
744.664	10669
744.777	8085
744.889	7014
745.001	8137
745.113	7086
745.226	6533
745.338	7629
745.450	6888
745.562	6762
745.674	6689
745.786	6259
745.898	6522
746.010	6353
746.122	6870
746.234	6997
746.347	6945
746.459	6925
746.570	6334
746.682	7075
746.794	5985
746.906	6263
747.018	6242
747.130	7349
747.242	6335
747.354	7092
747.466	8061
747.577	5765
747.689	6952
747.801	5862
747.913	5603
748.024	6001
748.136	6307
748.248	5939
748.359	5503
748.471	6492
748.583	5976
748.694	5653
748.806	7975
748.918	11637
749.029	8138
749.141	8488
749.252	8435
749.364	12895
749.475	28368
749.587	14862
749.698	6427
749.809	6098
749.921	6043
750.032	5962
750.144	5769
750.255	5829
750.366	4719
750.478	6213
750.589	6670
750.700	7180
750.811	8017
750.923	11945
751.034	32126
751.145	25598
751.256	6250
751.367	5753
751.479	5580
751.590	4757
751.701	5189
751.812	5361
751.923	5617
752.034	6119
752.145	5653
752.256	5314
752.367	4764
752.478	4719
752.589	5402
752.700	5698
752.811	4820
752.922	5994
753.032	7240
753.143	8709
753.254	4963
753.365	6401
753.476	5111
753.586	4823
753.697	5274
753.808	4211
753.919	5033
754.029	5051
754.140	4461
754.251	5961
754.361	5047
754.472	5864
754.582	5619
754.693	6539
754.804	5410
754.914	4606
755.025	4643
755.135	5370
755.246	5014
755.356	5206
755.466	5575
755.577	5413
755.687	5712
755.798	4549
755.908	5779
756.018	4540
756.129	4812
756.239	5094
756.349	5419
756.460	5211
756.570	6089
756.680	5262
756.790	6877
756.900	6915
757.011	3887
757.121	5180
757.231	4395
757.341	4951
757.451	4723
757.561	4952
757.671	4445
757.781	4617
757.891	5386
758.001	5597
758.111	4673
758.221	5948
758.331	7863
758.441	7202
758.551	13712
758.661	10047
758.771	6152
758.880	6737
758.990	6310
759.100	6235
759.210	5523
759.320	5736
759.429	5606
759.539	6951
759.649	5501
759.758	6672
759.868	6522
759.978	6161
760.087	7545
760.197	7156
760.307	6551
760.416	5276
760.526	5599
760.635	6526
760.745	5925
760.854	7905
760.964	7903
761.073	7086
761.182	6031
761.292	7213
761.401	7446
761.511	5639
761.620	5883
761.729	6348
761.839	6740
761.948	6072
762.057	7140
762.166	6340
762.276	5304
762.385	6014
762.494	5492
762.603	5062
762.712	6769
762.822	5579
762.931	6150
763.040	5515
763.149	4942
763.258	5744
763.367	5750
763.476	5137
763.585	5905
763.694	5432
763.803	6029
763.912	6768
764.021	5955
764.130	5142
764.238	5864
764.347	5325
764.456	5653
764.565	5884
764.674	5367
764.783	5300
764.891	4427
765.000	6598
765.109	6148
765.217	5789
765.326	7981
765.435	10086
765.543	7626
765.652	6996
765.761	7110
765.869	9567
765.978	12894
766.086	22824
766.195	43987
766.303	132337
766.412	449264
766.520	274765
766.629	37839
766.737	18686
766.846	12196
766.954	9852
767.062	9491
767.171	8947
767.279	8722
767.387	7731
767.496	7681
767.604	6904
767.712	6754
767.820	6660
767.928	7746
768.037	6511
768.145	7179
768.253	7131
768.361	6311
768.469	6602
768.577	5735
768.685	7023
768.793	6295
768.901	6992
769.009	6937
769.117	7382
769.225	7942
769.333	9393
769.441	11714
769.549	20757
769.657	46283
769.765	177582
769.873	344261
769.981	62332
770.088	15038
770.196	10269
770.304	9137
770.412	8881
770.519	7998
770.627	7715
770.735	7659
770.842	7665
770.950	7697
771.058	8008
771.165	7960
771.273	6789
771.380	7295
771.488	7733
771.595	6063
771.703	7608
771.810	8399
771.918	6853
772.025	7425
772.133	7626
772.240	6875
772.348	7889
772.455	7613
772.562	7042
772.670	6860
772.777	7669
772.884	6890
772.991	7498
773.099	6997
773.206	6311
773.313	6939
773.420	7411
773.528	6978
773.635	6552
773.742	7460
773.849	6365
773.956	6245
774.063	6575
774.170	6031
774.277	8944
774.384	6510
774.491	6359
774.598	7905
774.705	8910
774.812	11416
774.919	8657
775.026	8008
775.133	7900
775.239	7469
775.346	7134
775.453	6893
775.560	5483
775.667	7112
775.773	6942
775.880	7692
775.987	7361
776.093	7574
776.200	7463
776.307	5788
776.413	7219
776.520	7353
776.627	6903
776.733	6320
776.840	5188
776.946	8558
777.053	6286
777.159	6180
777.266	6220
777.372	7645
777.478	6610
777.585	6963
777.691	5612
777.798	5926
777.904	7604
778.010	12189
778.117	9891
778.223	6814
778.329	5981
778.435	6855
778.542	6549
778.648	6190
778.754	5649
778.860	6195
778.966	6005
779.072	6634
779.178	6191
779.284	5346
779.391	5114
779.497	5293
779.603	7420
779.708	5256
779.815	6076
779.920	6472
780.026	7055
780.132	6261
780.238	5703
780.344	5598
780.450	6159
780.556	5615
780.661	6192
780.767	6421
780.873	4953
780.979	6030
781.085	5438
781.190	5629
781.296	4925
781.402	4770
781.507	5460
781.613	5174
781.719	4786
781.824	4959
781.930	6228
782.035	5867
782.141	5383
782.246	4669
782.352	5127
782.457	5790
782.563	5825
782.668	5390
782.773	6554
782.879	5683
782.984	6510
783.090	7881
783.195	14072
783.300	7523
783.405	6613
783.511	6589
783.616	6559
783.721	7115
783.826	5003
783.932	6468
784.037	6292
784.142	6960
784.247	5808
784.352	4942
784.457	6300
784.562	5708
784.667	5210
784.772	5804
784.877	4398
784.982	5302
785.087	5124
785.192	5119
785.297	5670
785.402	4142
785.507	5279
785.611	5236
785.716	5028
785.821	5644
785.926	4192
786.031	4657
786.135	4664
786.240	4636
786.345	3037
786.450	5066
786.554	4720
786.659	3961
786.763	4176
786.868	5285
786.973	5416
787.077	3353
787.182	4166
787.286	5101
787.391	3794
787.495	4172
787.600	3756
787.704	3411
787.809	4522
787.913	3161
788.017	3848
788.122	4738
788.226	3874
788.330	3374
788.435	4524
788.539	4219
788.643	2882
788.747	3639
788.852	4024
788.956	2597
789.060	3886
789.164	3350
789.268	3413
789.372	4050
789.476	3471
789.580	3434
789.684	3539
789.788	4033
789.892	3431
789.996	5062
790.100	3154
790.204	4820
790.308	4717
790.412	2731
790.516	3845
790.620	3547
790.724	3952
790.828	3496
790.931	3558
791.035	5202
791.139	3951
791.242	2500
791.346	4493
791.450	3559
791.554	3302
791.657	2405
791.761	4399
791.864	4302
791.968	4013
792.072	3865
792.175	3801
792.279	3308
792.382	3219
792.486	4058
792.589	3675
792.693	4062
792.796	2653
792.899	3959
793.003	3909
793.106	2124
793.209	2953
793.313	5019
793.416	2083
793.519	5665
793.623	8897
793.726	13659
793.829	4838
793.932	4171
794.035	3616
794.138	5001
794.242	4630
794.345	5905
794.448	6009
794.551	11630
794.654	8932
794.757	5582
794.860	7075
794.963	4508
795.066	3017
795.169	3661
795.272	1961
795.375	4538
795.477	2768
795.580	2979
795.683	1629
795.786	3453
795.889	1578
795.991	4185
796.094	5293
796.197	3227
796.300	4253
796.402	3080
796.505	3107
796.608	1932
796.710	3248
796.813	2587
796.915	2475
797.018	3046
797.120	3193
797.223	2263
797.326	2789
797.428	2209
797.530	2599
797.633	3064
797.735	5363
797.838	10353
797.940	7687
798.042	2026
798.145	3131
798.247	2625
798.349	1014
798.452	2590
798.554	2184
798.656	2290
798.758	3630
798.860	2332
798.962	2574
799.065	2439
799.167	1947
799.269	4411
799.371	3636
799.473	4191
799.575	5577
799.677	7097
799.779	6818
799.881	10068
799.983	5084
800.085	2469
800.187	2043
800.289	1776
800.390	2202
800.492	2859
800.594	3276
800.696	1620
800.798	2619
800.899	1013
801.001	1690
801.103	1877
801.205	1488
801.306	2308
801.408	1177
801.509	2106
801.611	1293
801.713	1999
801.814	778
801.916	2000
802.017	2149
802.119	1940
802.220	1955
802.322	1772
802.423	7655
802.525	3053
802.626	2739
802.727	2297
802.829	3196
802.930	293
803.031	3228
803.133	2304
803.234	1530
803.335	1735
803.436	943
803.538	1539
803.639	1200
803.740	2301
803.841	1249
803.942	1993
804.043	1972
804.144	904
804.245	2272
804.346	1259
804.447	2481
804.548	6606
804.649	6965
804.750	2177
804.851	1275
804.952	903
805.053	2157
805.154	673
805.255	1737
805.355	1899
805.456	1127
805.557	762
805.658	501
805.758	1980
805.859	1231
805.960	1679
806.061	1364
806.161	800
806.262	1409
806.362	1238
806.463	1503
806.564	2978
806.664	2205
806.765	3481
806.865	2794
806.966	2565
807.066	817
807.166	1547
807.267	1760
807.367	1441
807.468	2306
807.568	461
807.668	1722
807.769	2494
807.869	636
807.969	1524
808.069	2205
808.170	1241
808.270	608
808.370	2750
808.470	5894
808.570	3095
808.670	1029
808.770	1964
808.870	1039
808.970	1717
809.070	810
809.170	1295
809.271	1528
809.370	1356
809.470	1705
809.570	237
809.670	597
809.770	722
809.870	1979
809.970	1307
810.070	1039
810.169	1175
810.269	-49
810.369	1114
810.469	1498
810.568	364
810.668	1347
810.768	368
810.867	1109
810.967	1069
811.066	1052
811.166	915
811.265	1578
811.365	1283
811.464	533
811.564	431
811.663	1930
811.763	-640
811.862	1793
811.962	2026
812.061	1102
812.160	445
812.260	805
812.359	953
812.458	556
812.557	1176
812.657	493
812.756	1844
812.855	879
812.954	705
813.053	1073
813.153	1463
813.252	422
813.351	611
813.450	905
813.549	1182
813.648	1424
813.747	498
813.846	1117
813.945	478
814.044	872
814.143	855
814.242	1830
814.341	427
814.439	1315
814.538	1940
814.637	719
814.736	594
814.835	1048
814.933	47
815.032	1571
815.131	1189
815.229	1905
815.328	2035
815.427	1291
815.525	1623
815.624	1758
815.722	1319
815.821	1881
815.919	1944
816.018	855
816.116	3069
816.215	1226
816.313	1135
816.412	2024
816.510	1886
816.609	3274
816.707	2551
816.805	1650
816.904	1858
817.002	2546
817.100	2913
817.198	2469
817.296	2094
817.395	2384
817.493	3573
817.591	2036
817.689	3459
817.787	3363
817.885	5567
817.983	10074
818.081	19743
818.179	50710
818.277	127699
818.375	88478
818.473	19055
818.571	8641
818.669	5885
818.767	5133
818.865	6346
818.963	6790
819.061	10623
819.158	18397
819.256	42610
819.354	106457
819.452	239701
819.549	121009
819.647	27053
819.745	11114
819.842	9114
819.940	6020
820.038	4002
820.135	3503
820.233	4027
820.330	2987
820.428	924
820.525	2989
820.623	1984
820.720	3026
820.818	3144
820.915	2246
821.012	1324
821.110	-37
821.207	2861
821.304	1181
821.402	1631
821.499	2426
821.596	2473
821.693	1985
821.791	4187
821.888	6379
821.985	15244
822.082	10193
822.179	3351
822.276	2023
822.373	1896
822.470	1853
822.567	1724
822.664	1020
822.761	2426
822.858	566
822.955	2088
823.052	1280
823.149	2285
823.246	1807
823.343	1602
823.440	1677
823.536	1265
823.633	1209
823.730	1195
823.827	948
823.923	1202
824.020	2354
824.117	1182
824.213	604
824.310	1265
824.407	1359
824.503	1162
824.600	1402
824.696	1752
824.793	2302
824.889	1196
824.986	1228
825.082	835
825.179	1844
825.275	712
825.371	335
825.468	1089
825.564	668
825.660	2091
825.757	1401
825.853	2425
825.949	271
826.045	288
826.142	-103
826.238	607
826.334	1972
826.430	914
826.526	1641
826.622	613
826.718	1743
826.814	524
826.910	1506
827.006	-25
827.102	378
827.198	1320
827.294	1244
827.390	1233
827.486	1014
827.582	416
827.678	490
827.774	1753
827.869	-80
827.965	1766
828.061	472
828.157	902
828.252	830
828.348	131
828.444	1054
828.539	238
828.635	1066
828.731	2186
828.826	201
828.922	1902
829.017	1119
829.113	1509
829.208	538
829.304	1253
829.399	2531
829.495	758
829.590	1736
829.685	-131
829.781	763
829.876	1036
829.971	824
830.066	515
830.162	1377
830.257	725
830.352	962
830.447	1528
830.543	1560
830.638	767
830.733	1999
830.828	1023
830.923	1605
831.018	895
831.113	1587
831.208	549
831.303	1814
831.398	221
831.493	1186
831.588	1361
831.683	325
831.778	1327
831.873	1013
831.967	1759
832.062	529
832.157	237
832.252	2187
832.346	918
832.441	2879
832.536	4718
832.631	13627
832.725	9994
832.820	969
832.914	1210
833.009	1592
833.104	2579
833.198	5254
833.293	1085
833.387	1301
833.482	1079
833.576	819
833.670	1984
833.765	970
833.859	2518
833.954	2568
834.048	859
834.142	390
834.237	525
834.331	724
834.425	1148
834.519	492
834.613	1024
834.708	57
834.802	1544
834.896	751
834.990	242
835.084	236
835.178	1867
835.272	1562
835.366	708
835.460	1536
835.554	1006
835.648	-222
835.742	718
835.836	771
835.930	242
836.024	2102
836.117	2074
836.211	924
836.305	4106
836.399	6765
836.493	295
836.586	1459
836.680	-77
836.774	1001
836.867	1715
836.961	501
837.055	-308
837.148	476
837.242	49
837.335	-92
837.429	673
837.522	1335
837.616	3317
837.709	7726
837.803	4659
837.896	1327
837.989	1371
838.083	4222
838.176	10880
838.269	7616
838.363	2655
838.456	2075
838.549	4224
838.642	8483
838.735	16091
838.829	5544
838.922	1195
839.015	748
839.108	336
839.201	1687
839.294	1405
839.387	1902
839.480	1922
839.573	3648
839.666	4740
839.759	1123
839.852	491
839.945	990
840.038	556
840.131	117
840.223	238
840.316	957
840.409	1176
840.502	437
840.594	1111
840.687	-984
840.780	1531
840.873	1286
840.965	1775
841.058	3517
841.150	8831
841.243	4946
841.336	878
841.428	1450
841.521	122
841.613	1359
841.706	1735
841.798	-521
841.890	828
841.983	-4
842.075	1234
842.167	700
842.260	1815
842.352	3319
842.444	5154
842.537	10833
842.629	15433
842.721	2020
842.813	1255
842.905	-613
842.997	1578
843.090	1340
843.182	4558
843.274	10329
843.366	25380
843.458	48107
843.550	26519
843.642	3337
843.734	2156
843.826	3651
843.918	2954
844.009	1507
844.101	1218
844.193	-188
844.285	572
844.377	-95
844.469	595
844.560	30
844.652	1053
844.744	1340
844.835	831
844.927	1334
845.019	2059
845.110	2067
845.202	1110
845.293	493
845.385	-647
845.476	513
845.568	1571
845.659	179
845.751	744
845.842	358
845.934	200
846.025	-225
846.116	870
846.208	420
846.299	368
846.390	879
846.482	1208
846.573	2658
846.664	4371
846.755	6387
846.846	4596
846.937	579
847.029	-78
847.120	608
847.211	595
847.302	1248
847.393	-173
847.484	227
847.575	469
847.666	-364
847.757	-438
847.847	867
847.938	1276
848.029	559
848.120	-301
848.211	464
848.302	440
848.392	275
848.483	-1
848.574	358
848.664	183
848.755	615
848.846	549
848.936	56
849.027	352
849.118	1290
849.208	789
849.299	1532
849.389	4418
849.480	8748
849.570	17682
849.661	33985
849.751	56088
849.841	16796
849.932	2191
850.022	637
850.112	613
850.203	1272
850.293	1040
850.383	-104
850.474	260
850.564	-398
850.654	1229
850.744	442
850.834	328
850.924	649
851.014	1096
851.104	897
851.194	1212
851.284	2222
851.374	3113
851.464	1227
851.554	1099
851.644	1993
851.734	4037
851.824	2408
851.914	665
852.004	1111
852.094	970
852.183	611
852.273	764
852.363	321
852.452	1269
852.542	748
852.632	520
852.721	1134
852.811	431
852.901	1532
852.990	1297
853.080	1453
853.169	1204
853.259	964
853.348	765
853.438	2469
853.527	3406
853.617	5704
853.706	10653
853.795	20403
853.885	47889
853.974	92290
854.063	173047
854.152	255702
854.242	86514
854.331	15985
854.420	6325
854.509	4896
854.598	4168
854.687	3881
854.777	3584
854.866	1558
854.955	1652
855.044	-14
855.133	1451
855.222	601
855.311	-235
855.400	1411
855.488	913
855.577	909
855.666	1009
855.755	1343
855.844	440
855.933	783
856.021	521
856.110	81
856.199	-669
856.288	-172
856.376	-56
856.465	-446
856.554	1028
856.642	-206
856.731	31
856.819	1224
856.908	-344
856.996	854
857.085	-366
857.173	-95
857.262	-416
857.350	192
857.438	-57
857.527	250
857.615	361
857.703	302
857.792	-302
857.880	714
857.968	-159
858.056	437
858.145	947
858.233	329
858.321	332
858.409	805
858.497	-467
858.585	-350
858.673	388
858.761	-256
858.849	717
858.937	321
859.025	737
859.113	765
859.201	127
859.289	1202
859.377	-173
859.465	-470
859.552	556
859.640	-37
859.728	559
859.816	867
859.903	248
859.991	-241
860.079	126
860.166	372
860.254	-592
860.342	548
860.429	83
860.517	-304
860.604	174
860.692	-207
860.779	-30
860.867	-53
860.954	424
861.042	1014
861.129	1499
861.216	881
861.304	-57
861.391	-357
861.478	153
861.565	846
861.653	626
861.740	-261
861.827	258
861.914	824
862.001	-288
862.089	240
862.176	-144
862.263	264
862.350	-182
862.437	-330
862.524	-277
862.611	514
862.698	-31
862.785	239
862.871	254
862.958	-616
863.045	-157
863.132	-249
863.219	20
863.306	-978
863.392	263
863.479	327
863.566	-402
863.652	464
863.739	-105
863.826	338
863.912	190
863.999	-1180
864.086	-289
864.172	802
864.259	307
864.345	654
864.432	516
864.518	-452
864.604	394
864.691	-598
864.777	973
864.863	687
864.950	987
865.036	661
865.122	1957
865.209	2693
865.295	1391
865.381	2439
865.467	3047
865.553	3453
865.639	5635
865.726	10386
865.812	23429
865.898	48431
865.984	71820
866.070	137898
866.156	137944
866.242	31759
866.328	6701
866.414	2965
866.499	2297
866.585	2016
866.671	2362
866.757	2031
866.843	2074
866.928	562
867.014	49
867.100	2754
867.186	1911
867.271	3372
867.357	4269
867.442	6138
867.528	2029
867.614	1063
867.699	903
867.785	1964
867.870	1369
867.956	775
868.041	1914
868.127	2153
868.212	2364
868.297	1641
868.383	1787
868.468	3671
868.553	6914
868.639	8974
868.724	19479
868.809	15528
868.894	2565
868.979	1746
869.065	1210
869.150	1055
869.235	528
869.320	491
869.405	186
869.490	404
869.575	-68
869.660	625
869.745	761
869.830	626
869.915	1121
870.000	1276
870.085	-154
870.169	17
870.254	483
870.339	103
870.424	-144
870.509	205
870.593	381
870.678	874
870.763	304
870.847	921
870.932	1463
871.016	410
871.101	-221
871.186	729
871.270	-190
871.355	-56
871.439	206
871.523	639
871.608	-266
871.692	-200
871.777	295
871.861	37
871.945	-155
872.030	-292
872.114	-294
872.198	-195
872.282	562
872.367	-46
872.451	-795
872.535	62
872.619	412
872.703	-576
872.787	716
872.871	950
872.955	-613
873.039	676
873.123	-77
873.207	871
873.291	314
873.375	1177
873.459	429
873.543	-406
873.627	137
873.711	3
873.794	400
873.878	107
873.962	-734
874.045	-72
874.129	13
874.137	43
874.213	334
874.245	252
874.296	127
874.352	-167
874.380	-318
874.460	-620
874.464	-632
874.547	488
874.568	287
874.631	-321
874.676	-442
874.714	-530
874.784	-129
874.798	-52
874.881	1148
874.892	977
874.965	-194
874.999	67
875.048	412
875.107	244
875.131	189
875.215	491
875.215	491
875.298	68
875.323	154
875.381	539
875.430	615
875.465	601
875.538	385
875.548	369
875.631	-72
875.646	-36
875.714	33
875.753	42
875.798	150
875.861	413
875.881	449
875.964	-463
875.968	-423
876.047	371
876.076	388
876.130	391
876.183	649
876.213	857
876.291	1101
876.296	1103
876.379	909
876.398	765
876.462	359
876.506	518
876.545	637
876.613	383
876.628	346
876.711	730
876.721	648
876.794	-70
876.828	397
876.877	1160
876.935	838
876.960	667
877.043	1057
877.043	1059
877.125	1678
877.150	1711
877.208	1647
877.258	1324
877.291	1247
877.365	803
877.374	713
877.456	-37
877.472	283
877.539	1701
877.579	1228
877.622	750
877.687	1102
877.704	1249
877.787	1255
877.794	1229
877.869	498
877.901	386
877.952	459
878.008	821
878.034	901
878.115	337
878.117	332
878.199	628
878.222	686
878.282	698
878.329	746
878.364	714
878.437	38
878.447	-49
878.529	-326
878.544	-268
878.611	226
878.651	407
878.694	471
878.758	519
878.776	576
878.858	599
878.865	605
878.941	273
878.972	-18
879.023	-196
879.078	43
879.105	166
879.185	1475
879.187	1497
879.269	1242
879.292	1090
879.351	538
879.399	201
879.433	100
879.506	206
879.516	206
879.598	508
879.613	417
879.680	215
879.720	468
879.762	496
879.827	-164
879.844	-274
879.926	442
879.933	452
880.007	548
880.040	529
880.089	555
880.147	1075
880.171	1229
880.253	2695
880.254	2706
880.335	4481
880.360	4996
880.417	5837
880.467	9446
880.499	11997
880.574	12556
880.580	12428
880.662	3166
880.680	2480
880.744	806
880.787	530
880.825	173
880.893	-220
880.907	-177
880.989	217
881.000	312
881.070	671
881.106	457
881.152	108
881.213	201
881.233	181
881.315	-121
881.319	-144
881.396	106
881.426	66
881.478	-284
881.532	-263
881.559	-207
881.639	-249
881.641	-252
881.722	208
881.745	92
881.803	173
881.852	151
881.885	-182
881.958	385
881.966	508
882.047	873
882.064	925
882.129	974
882.171	1459
882.210	2202
882.277	3809
882.291	3944
882.372	1204
882.383	994
882.454	160
882.489	256
882.535	100
882.596	-283
882.616	-92
882.697	373
882.702	438
882.778	75
882.808	-215
882.859	-225
882.914	54
882.940	176
883.020	221
883.021	222
883.102	213
883.127	171
883.183	106
883.233	-137
883.264	-141
883.339	412
883.345	391
883.426	-446
883.445	-585
883.507	-123
883.551	212
883.587	125
883.657	277
883.668	376
883.749	720
883.763	655
883.830	-158
883.869	-253
883.910	60
883.975	605
883.991	542
884.072	-282
884.081	-346
884.152	140
884.187	315
884.233	141
884.292	253
884.314	424
884.394	715
884.398	722
884.475	90
884.504	-80
884.555	49
884.610	-19
884.636	38
884.716	524
884.716	529
884.797	555
884.821	512
884.877	76
884.927	-205
884.958	-3
885.033	750
885.038	742
885.118	192
885.139	57
885.199	307
885.244	578
885.279	560
885.350	371
885.359	369
885.439	340
885.456	272
885.520	-346
885.561	-489
885.600	-77
885.667	666
885.680	649
885.760	394
885.773	327
885.840	667
885.878	911
885.920	859
885.984	589
886.000	596
886.080	906
886.089	929
886.160	634
886.195	359
886.240	387
886.300	821
886.320	757
886.400	202
886.406	170
886.480	789
886.511	1042
886.560	1011
886.616	832
886.640	821
886.720	710
886.722	708
886.800	-634
886.827	-1139
886.879	-200
886.932	793
886.959	658
887.038	427
887.039	441
887.119	1142
887.143	1405
887.198	821
887.248	372
887.278	598
887.354	991
887.358	970
887.437	551
887.459	376
887.517	356
887.564	435
887.596	143
887.669	-562
887.676	-514
887.755	71
887.774	227
887.835	488
887.880	618
887.914	858
887.985	1306
887.994	1188
888.073	145
888.090	-78
888.153	683
888.195	1175
888.232	713
888.300	-145
888.311	11
888.391	1121
888.405	1315
888.470	559
888.510	62
888.549	269
888.615	728
888.628	695
888.708	343
888.720	300
888.787	128
888.825	-20
888.866	54
888.930	248
888.945	326
889.024	696
889.035	743
889.103	701
889.140	655
889.182	504
889.245	335
889.261	314
889.340	160
889.349	143
889.419	448
889.454	599
889.498	661
889.559	741
889.577	825
889.656	1194
889.664	1228
889.735	-88
889.768	-707
889.814	-67
889.873	786
889.978	71
890.083	977
890.187	-204
890.292	451
890.397	902
890.501	1003
890.606	33
890.710	591
890.815	532
890.919	965
891.024	80
891.128	922
891.233	453
891.337	821
891.442	-259
891.546	265
891.650	595
891.755	775
891.859	1397
891.963	1234
892.068	1020
892.172	1012
892.276	276
892.380	861
892.484	200
892.589	897
892.693	101
892.797	-220
892.901	98
893.005	860
893.109	769
893.213	677
893.317	441
893.421	693
893.525	1394
893.629	256
893.733	179
893.837	41
893.941	378
894.045	819
894.148	196
894.252	1056
894.356	265
894.460	1008
894.564	862
894.667	228
894.771	390
894.875	942
894.978	-642
895.082	953
895.186	383
895.289	1558
895.393	215
895.496	398
895.600	-61
895.703	1037
895.807	701
895.910	1202
896.014	-36
896.117	536
896.221	564
896.324	1435
896.427	-161
896.531	-161
896.634	-422
896.737	873
896.840	514
896.944	384
897.047	-900
897.150	905
897.253	68
897.356	1140
897.460	-413
897.563	223
897.666	112
897.769	-126
897.872	-229
897.975	259
898.078	-233
898.181	388
898.284	315
898.387	1002
898.490	34
898.593	1254
898.695	-317
898.798	408
898.901	513
899.004	1677
899.107	493
899.209	423
899.312	-799
899.415	482
899.518	420
899.620	1145
899.723	254
899.826	1250
899.928	-22
900.031	698
900.133	-558
900.236	290
900.338	779
900.441	1288
900.543	56
900.646	474
900.748	2
900.851	610
900.953	323
901.055	943
901.158	509
901.260	557
901.362	107
901.465	459
901.567	-102
901.669	378
901.771	215
901.873	927
901.976	-366
902.078	1147
902.180	-429
902.282	461
902.384	-872
902.486	1219
902.588	113
902.690	195
902.792	410
902.894	622
902.996	-78
903.098	333
903.200	-589
903.302	266
903.404	9
903.505	231
903.607	272
903.709	713
903.811	-119
903.913	-58
904.014	-534
904.116	524
904.218	-142
904.319	1231
904.421	588
904.523	290
904.624	253
904.726	685
904.827	-24
904.929	-628
905.030	-45
905.132	804
905.233	-167
905.335	-302
905.436	419
905.537	91
905.639	-134
905.740	181
905.841	-8
905.943	-31
906.044	-344
906.145	729
906.247	-359
906.348	658
906.449	42
906.550	296
906.651	-254
906.752	605
906.854	250
906.955	368
907.056	-614
907.157	-4
907.258	-330
907.359	381
907.460	-333
907.561	160
907.662	-761
907.762	347
907.863	-500
907.964	331
908.065	-129
908.166	380
908.267	-317
908.367	-164
908.468	-132
908.569	125
908.670	-31
908.770	1302
908.871	-170
908.971	962
909.072	-254
909.173	215
909.273	503
909.374	769
909.474	-118
909.575	748
909.675	-173
909.776	259
909.876	-320
909.977	-87
910.077	-324
910.177	161
910.278	8
910.378	479
910.478	-574
910.579	-192
910.679	-774
910.779	797
910.879	-435
910.980	121
911.080	-495
911.180	-330
911.280	-1026
911.380	216
911.480	-291
911.580	386
911.680	-297
911.780	-14
911.880	2
911.980	632
912.080	-184
912.180	1299
912.280	157
912.380	564
912.480	-459
912.580	522
912.679	-817
912.779	1149
912.879	-25
912.979	500
913.078	-835
913.178	46
913.278	-530
913.377	198
913.477	-727
913.577	310
913.676	543
913.776	243
913.875	-797
913.975	418
914.074	-814
914.174	318
914.273	-794
914.373	542
914.472	-357
914.572	321
914.671	-442
914.770	-340
914.870	-561
914.969	121
915.068	-645
915.167	14
915.267	-214
915.366	292
915.465	106
915.564	88
915.663	-699
915.763	-163
915.862	239
915.961	399
916.060	-615
916.159	1194
916.258	-591
916.357	38
916.456	218
916.555	-227
916.654	-561
916.752	-14
916.851	-950
916.950	62
917.049	-896
917.148	-334
917.247	-397
917.345	800
917.444	-933
917.543	-524
917.642	-756
917.740	43
917.839	-1483
917.937	114
918.036	405
918.135	-141
918.233	-688
918.332	-38
918.430	-532
918.529	488
918.627	-1830
918.726	19
918.824	177
918.923	-5
919.021	-993
919.119	54
919.218	-490
919.316	-471
919.414	-397
919.512	-195
919.611	429
919.709	-38
919.807	-490
919.905	1033
920.003	259
920.102	51
920.200	-650
920.298	333
920.396	102
920.494	170
920.592	-547
920.690	-87
920.788	-506
920.886	402
920.984	-73
921.082	-240
921.180	226
921.277	-70
921.375	51
921.473	145
921.571	-381
921.669	690
921.766	-682
921.864	-34
921.962	-99
922.060	171
922.157	-811
922.255	598
922.352	-193
922.450	1011
922.548	-359
922.645	317
922.743	298
922.840	856
922.938	-402
923.035	920
923.133	678
923.230	1081
923.327	1378
923.425	1874
923.522	663
923.619	832
923.717	61
923.814	1566
923.911	-55
924.008	1158
924.106	205
924.203	1692
924.300	523
924.397	878
924.494	390
924.591	581
924.688	633
924.786	1005
924.883	1253
924.979	878
925.077	-41
925.173	465
925.270	214
925.367	632
925.464	1050
925.561	1237
925.658	690
925.755	1095
925.852	-91
925.948	722
926.045	905
926.142	1424
926.239	293
926.335	1096
926.432	257
926.529	568
926.625	408
926.722	379
926.818	-329
926.915	1258
927.011	-68
927.108	310
927.204	0
927.301	557
927.397	314
927.494	568
927.590	-263
927.687	730
927.783	-20
927.879	28
927.976	350
928.072	-275
928.168	706
928.264	66
928.361	419
928.457	276
928.553	-393
928.649	948
928.745	684
928.841	957
928.937	-563
929.033	747
929.129	-215
929.225	6
929.321	-70
929.417	-52
929.513	388
929.609	427
929.705	-324
929.801	389
929.897	-106
929.993	938
930.089	194
930.184	-22
930.280	-342
930.376	1681
930.471	-496
930.567	-21
930.663	-259
930.758	-86
930.854	-514
930.950	1319
931.045	221
931.141	374
931.236	768
931.332	644
931.427	95
931.523	672
931.618	-150
931.714	210
931.809	-36
931.905	264
932.000	-611
932.095	625
932.191	-89
932.286	607
932.381	-314
932.476	322
932.572	-496
932.667	342
932.762	-954
932.857	1023
932.952	203
933.047	1045
933.142	-569
933.237	1155
933.332	157
933.427	366
933.522	39
933.617	203
933.712	-438
933.807	590
933.902	430
933.997	317
934.092	-317
934.187	536
934.282	-495
934.376	5
934.471	325
934.566	104
934.661	-1
934.755	655
934.850	-408
934.945	670
935.039	217
935.134	-116
935.228	-436
935.323	545
935.417	-362
935.512	196
935.606	-596
935.701	-423
935.795	-94
935.890	474
935.984	-299
936.079	1142
936.173	213
936.267	-17
936.362	-506
936.456	377
936.550	169
936.644	518
936.738	-726
936.833	-123
936.927	-676
937.021	584
937.115	194
937.209	425
937.303	570
937.397	51
937.491	-486
937.585	1173
937.679	-235
937.773	360
937.867	-1084
937.961	97
938.055	-230
938.149	1571
938.243	-105
938.337	-149
938.430	-58
938.524	895
938.618	-644
938.712	901
938.805	135
938.899	83
938.993	546
939.086	-5
939.180	-595
939.274	-562
939.367	-426
939.461	212
939.554	-557
939.648	350
939.741	-1290
939.835	1195
939.928	1
940.022	1393
940.115	-386
940.208	608
940.302	702
940.395	-144
940.488	-707
940.582	797
940.675	103
940.768	804
940.861	360
940.954	994
941.048	-829
941.141	-227
941.234	-736
941.327	483
941.420	487
941.513	-380
941.606	-605
941.699	1161
941.792	-370
941.885	-629
941.978	281
942.071	484
942.164	-557
942.257	-14
942.349	-649
942.442	699
942.535	-649
942.628	-388
942.721	247
942.813	-632
942.906	-63
942.999	490
943.091	-715
943.184	564
943.277	-624
943.369	-161
943.462	-178
943.554	-5
943.647	-1066
943.739	1049
943.832	-84
943.924	-189
944.017	-208
944.109	-537
944.201	674
944.294	198
944.386	123
944.478	169
944.571	-139
944.663	1000
944.755	98
944.847	-194
944.940	-565
945.032	-440
945.124	-53
945.216	1068
945.308	-1538
945.400	-91
945.492	110
945.584	-122
945.676	-457
945.768	1344
945.860	269
945.952	614
946.044	-269
946.136	106
946.228	-641
946.320	-291
946.412	-468
946.503	276
946.595	243
946.687	-104
946.779	-573
946.870	-530
946.962	-1049
947.054	403
947.145	177
947.237	-40
947.329	-264
947.420	-89
947.512	-652
947.603	-91
947.695	-102
947.786	-1399
947.878	-679
947.969	478
948.061	-979
948.152	-402
948.243	-771
948.335	657
948.426	-746
948.517	182
948.609	100
948.700	-553
948.791	-967
948.882	-36
948.973	-79
949.065	279
949.156	-767
949.247	-390
949.338	-529
949.429	-63
949.520	-436
949.611	-1002
949.702	307
949.793	232
949.884	-1146
949.975	-341
950.066	-778
950.157	-240
950.247	-869
950.338	-543
950.429	-352
950.520	296
950.611	169
950.701	180
950.792	-163
950.883	279
950.973	-116
951.064	-647
951.155	-1285
951.245	88
951.336	-580
951.427	-909
951.517	-312
951.608	824
951.698	-986
951.788	245
951.879	-914
951.969	327
952.060	-920
952.150	-731
952.240	-274
952.331	-2342
952.421	52
952.511	-436
952.602	-1212
952.692	165
952.782	-909
952.872	-919
952.962	-1102
953.052	123
953.143	-1694
953.233	651
953.323	-465
953.413	-1001
953.503	-104
953.593	1
953.683	-547
953.773	-776
953.863	-1114
953.953	-142
954.042	-1093
954.132	-176
954.222	-117
954.312	-173
954.402	-577
954.492	43
954.581	-274
954.671	150
954.761	-953
954.850	368
954.940	-1127
955.030	-83
955.119	-661
955.209	-292
955.298	-1624
955.388	-712
955.477	-393
955.567	-105
955.656	-312
955.746	13
955.835	-1245
955.925	-770
956.014	-1187
956.103	-395
956.193	-979
956.282	-381
956.371	-1177
956.461	-285
956.550	-1031
956.639	-734
956.728	-1646
956.817	21
956.906	-603
956.995	-397
957.085	-1059
957.174	-650
957.263	-983
957.352	-16
957.441	-1189
957.530	62
957.619	-1226
957.708	143
957.796	-1084
957.885	155
957.974	-1350
958.063	313
958.152	-1893
958.241	113
958.329	-1110
958.418	-1061
958.507	-2268
958.596	1116
958.684	-1473
958.773	-379
958.861	-897
958.950	20
959.039	-54
959.127	-764
959.216	-918
959.304	-724
959.393	-1431
959.481	-742
959.570	-1222
959.658	-249
959.746	-272
959.835	-94
959.923	-43
960.011	-628
960.100	-368
960.188	-496
960.276	-791
960.365	87
960.453	-785
960.541	-1661
960.629	-678
960.717	-742
960.805	-2163
960.893	334
960.981	-2087
961.069	1050
961.158	-1346
961.245	-333
961.333	-1211
961.421	-1321
961.509	-1280
961.597	-689
961.685	-1154
961.773	-1145
961.861	-1536
961.949	-89
962.036	-1706
962.124	818
962.212	-1447
962.299	-808
962.387	-1017
962.475	-231
962.562	-1547
962.650	356
962.738	-972
962.825	-1255
962.913	-1369
963.000	-830
963.088	-1310
963.175	-233
963.263	-1205
963.350	-926
963.438	-1315
963.525	-549
963.612	-509
963.700	1384
963.787	3591
963.874	838
963.962	-775
964.049	-347
964.136	-694
964.223	-987
964.310	-1781
964.398	-785
964.485	-1445
964.572	86
964.659	-75
964.746	-327
964.833	-1035
964.920	-11
965.007	-1353
965.094	-563
965.181	-1537
965.268	9
965.355	-1148
965.441	-1135
965.528	-1975
965.615	264
965.702	-1286
965.789	-688
965.875	-519
965.962	-689
966.049	-1342
966.136	-13
966.222	-1884
966.309	156
966.395	-2098
966.482	98
966.569	-1004
966.655	49
966.742	-1537
966.828	109
966.915	-1534
967.001	393
967.087	-774
967.174	-1087
967.260	-183
967.347	-497
967.433	730
967.519	2049
967.605	-369
967.692	426
967.778	-1503
967.864	-70
967.950	-1454
968.036	-683
968.123	-1319
968.209	-229
968.295	-1455
968.381	847
968.467	-248
968.553	-1542
968.639	-455
968.725	-964
968.811	-649
968.897	-743
968.983	-1211
969.069	-336
969.154	-518
969.240	-112
969.326	-1107
969.412	-1035
969.497	-888
969.583	-385
969.669	-708
969.755	-152
969.840	-1248
969.926	39
970.012	-1519
970.097	-312
970.183	-1212
970.268	-359
970.354	-537
970.439	-906
970.525	1530
970.610	-419
970.696	213
970.781	-219
970.866	-1145
970.952	-62
971.037	-963
971.122	-1134
971.208	-833
971.293	-510
971.378	-1552
971.463	-1107
971.549	159
971.634	-301
971.719	-629
971.804	-690
971.889	-655
971.974	-563
972.059	-433
972.144	-577
972.229	-819
972.314	-521
972.399	-449
972.484	-983
972.569	-551
972.654	-706
972.739	170
972.824	444
972.908	-634
972.993	-1100
973.078	-939
973.163	-248
973.247	-360
973.332	-1511
973.417	387
973.501	-1218
973.586	-802
973.671	-170
973.755	-714
973.840	19
973.924	-333
974.009	35
974.093	-1214
974.178	-137
974.262	-1084
974.346	-681
974.431	-234
974.515	-970
974.600	-1205
974.684	412
974.768	-1046
974.852	-619
974.937	-1727
975.021	93
975.105	-1338
975.189	-883
975.273	-1517
975.358	-149
975.442	-1809
975.526	442
975.610	-1302
975.694	-754
975.778	-235
975.862	-522
975.946	-2079
976.030	637
976.114	-1263
976.198	-322
976.281	-1175
976.365	-45
976.449	-1536
976.533	-739
976.617	-1462
976.700	-65
976.784	-1003
976.868	-874
976.951	-1009
977.035	-1057
977.119	-620
977.202	28
977.286	-590
977.369	-720
977.453	-583
977.536	-342
977.620	-1181
977.703	-493
977.787	-1359
977.870	-5
977.953	673
978.037	-1352
978.120	-622
978.203	-335
978.287	-648
978.370	-217
978.453	-1345
978.536	-454
978.620	-254
978.703	-7
978.786	-1364
978.869	-1317
978.952	-1736
979.035	996
979.118	-43
979.201	-497
979.284	-437
979.367	-1187
979.450	-119
979.533	-701
979.616	-1435
979.699	-735
979.782	-1342
979.865	-548
979.948	-1063
980.030	-905
980.113	-576
980.196	-460
980.279	-504
980.361	-363
980.444	-281
980.526	-277
980.609	-824
980.692	200
980.774	-569
980.857	-603
980.939	-388
981.022	-52
981.104	-621
981.187	-53
981.269	-826
981.352	-819
981.434	-2140
981.516	-871
981.599	-151
981.681	-448
981.763	-1026
981.846	-516
981.928	-1726
982.010	-576
982.092	-415
982.174	-170
982.256	-1123
982.339	-606
982.421	-1181
982.503	-1316
982.585	-1632
982.667	-522
982.749	-1654
982.831	-276
982.913	-1914
982.995	-440
983.077	-1732
983.158	1143
983.240	-1527
983.322	-484
983.404	-356
983.486	-1123
983.568	37
983.649	-1356
983.731	-742
983.813	-743
983.894	-953
983.976	-1241
984.058	-1347
984.139	824
984.221	-1447
984.302	110
984.384	-1082
984.465	-964
984.547	-102
984.628	-1813
984.710	-1022
984.791	-543
984.872	-1762
984.954	-120
985.035	-1415
985.116	-633
985.198	-981
985.279	795
985.360	-1447
985.441	-583
985.522	819
985.604	-413
985.685	-2193
985.766	624
985.847	228
985.928	-576
986.009	-1786
986.090	-914
986.171	-592
986.252	-544
986.333	-510
986.414	-752
986.495	-1188
986.576	-128
986.656	-1045
986.737	-93
986.818	-590
986.899	-1576
986.980	-1405
987.060	669
987.141	-1670
987.222	579
987.302	-798
987.383	-315
987.464	-1484
987.544	234
987.625	-1373
987.705	258
987.786	-1068
987.866	-217
987.947	-800
988.027	-839
988.108	-1604
988.188	101
988.268	-596
988.349	-783
988.429	-695
988.509	-642
988.589	-500
988.670	-1402
988.750	-364
988.830	-38
988.910	-852
988.990	-813
989.070	-1167
989.151	-34
989.231	-543
989.311	239
989.391	-472
989.471	697
989.551	-1554
989.631	-1267
989.711	-1306
989.791	-250
989.870	-1351
989.950	24
990.030	-1591
990.110	-222
990.190	-1682
990.269	-219
990.349	-1339
990.429	242
990.509	-490
990.588	-97
990.668	-1648
990.747	-850
990.827	-1213
990.907	169
990.986	-1458
991.066	593
991.145	-1352
991.225	33
991.304	-2253
991.383	-88
991.463	-507
991.542	827
991.622	-1600
991.701	-291
991.780	-1817
991.859	-208
991.939	-1346
992.018	9
992.097	-1045
992.176	-355
992.256	-855
992.335	-653
992.414	-324
992.493	-627
992.572	-1756
992.651	310
992.730	-580
992.809	171
992.888	-447
992.967	-1214
993.046	-1066
993.125	-815
993.203	-454
993.282	-1167
993.361	-2
993.440	167
993.519	-1822
993.597	-489
993.676	-1365
993.755	287
993.834	-985
993.912	-670
993.991	74
994.069	-869
994.148	-655
994.226	-967
994.305	-511
994.384	-431
994.462	-447
994.540	-834
994.619	-1605
994.697	-671
994.776	-1117
994.854	-287
994.932	-1964
995.011	-226
995.089	-677
995.167	126
995.245	-1427
995.324	-784
995.402	-1020
995.480	-1288
995.558	-452
995.636	-600
995.714	-1507
995.792	-23
995.870	-1255
995.948	290
996.026	42
996.104	-1027
996.182	-752
996.260	-898
996.338	-818
996.416	-1371
996.494	-2113
996.572	145
996.649	-1243
996.727	-1292
996.805	-576
996.883	-73
996.960	-1463
997.038	-180
997.116	-922
997.193	-960
997.271	-1112
997.348	-1171
997.426	-1307
997.504	-1482
997.581	-995
997.658	148
997.736	-1217
997.813	-287
997.891	-268
997.968	-989
998.046	-873
998.123	-824
998.200	-1227
998.277	-644
998.355	-240
998.432	-936
998.509	-1047
998.586	261
998.663	-945
998.741	-23
998.818	-2293
998.895	-602
998.972	-700
999.049	-808
999.126	-885
999.203	-339
999.280	-1186
999.357	-792
999.434	-793
999.511	-719
999.587	30
999.664	-553
999.741	-774
999.818	403
999.895	-896
999.971	78
1000.048	-1386
1000.125	674
1000.202	-1323
1000.278	-610
1000.355	-665
1000.431	-865
1000.508	-2236
1000.584	-14
1000.661	-899
1000.738	-2014
1000.814	-1275
1000.890	-316
1000.967	-1316
1001.043	-688
1001.120	-2028
1001.196	-634
1001.272	-1752
1001.349	-1203
1001.425	-779
1001.501	-454
1001.577	-1233
1001.654	267
1001.730	-1627
1001.806	-733
1001.882	-1969
1001.958	79
1002.034	-505
1002.110	-625
1002.186	-1276
1002.262	-1004
1002.338	-1856
1002.414	-117
1002.490	-865
1002.566	-554
1002.642	-1742
1002.718	28
1002.794	-596
1002.870	-951
1002.945	-1192
1003.021	-578
1003.097	-1449
1003.173	-275
1003.248	-2436
1003.324	-313
1003.400	-1163
1003.475	-1833
1003.551	-1592
1003.626	-609
1003.702	-1676
1003.777	-239
1003.853	-1371
1003.928	-820
1004.004	-1255
1004.079	-838
1004.155	-837
1004.230	-1571
1004.305	-1
1004.381	-438
1004.456	-726
1004.531	256
1004.607	-1086
1004.682	-695
1004.757	-814
1004.832	-1222
1004.907	-1220
1004.982	-247
1005.057	-696
1005.133	-790
1005.208	-1301
1005.283	-1565
1005.358	-913
1005.433	-1082
1005.508	-1050
1005.583	-1615
1005.657	-1386
1005.732	318
1005.807	-1377
1005.882	-807
1005.957	-1349
1006.032	-374
1006.106	-1611
1006.181	-824
1006.256	-1262
1006.331	-1458
1006.405	-2008
1006.480	-951
1006.554	-1583
1006.629	-1166
1006.704	-1304
1006.778	-603
1006.853	-478
1006.927	-1250
1007.002	-1119
1007.076	-796
1007.150	-1275
1007.225	-705
1007.299	-1374
1007.373	-1215
1007.448	0
1007.522	-620
1007.596	-1363
1007.671	-1130
1007.745	-910
1007.819	-810
1007.893	-1042
1007.967	-480
1008.041	-2122
1008.115	-232
1008.190	-1359
1008.264	-481
1008.338	-1967
1008.412	-1255
1008.486	-892
1008.560	-183
1008.633	-1108
1008.707	-353
1008.781	-619
1008.855	-177
1008.929	-1794
1009.003	-1277
1009.076	-643
1009.150	-819
1009.224	-1190
1009.298	37
1009.371	-910
1009.445	-364
1009.519	-1332
1009.592	-847
1009.666	-1446
1009.739	-959
1009.813	-1787
1009.886	-52
1009.960	-2115
1010.033	63
1010.107	-1133
1010.180	-1001
1010.253	-1377
1010.327	-1494
1010.400	-1698
1010.473	-1500
1010.547	-189
1010.620	-1247
1010.693	-1100
1010.766	-1246
1010.840	-1341
1010.913	-851
1010.986	-2107
1011.059	-1241
1011.132	-1847
1011.205	-28
1011.278	-1736
1011.351	-852
1011.424	-898
1011.497	-787
1011.570	-1170
1011.643	-95
1011.716	-1839
1011.789	-433
1011.862	-1196
1011.934	-416
1012.007	-1455
1012.080	-434
1012.153	-859
1012.225	-2
1012.298	-2256
1012.371	-1684
1012.443	-1168
1012.516	-1524
1012.588	-2385
1012.661	-651
1012.733	-2354
1012.806	-6
1012.879	-1841
1012.951	-1158
1013.023	-1934
1013.096	-830
1013.168	-1134
1013.241	-44
1013.313	-1918
1013.385	-1094
1013.458	-1191
1013.530	-1452
1013.602	-2284
1013.674	-683
1013.746	-1829
1013.819	-2072
1013.891	-1096
1013.963	-990
1014.035	-1902
1014.107	-447
1014.179	-1569
1014.251	-732
1014.323	-834
1014.395	-594
1014.467	-1416
1014.539	-1173
1014.611	-1720
1014.683	-846
1014.754	-1304
1014.826	-2091
1014.898	-1348
1014.970	-1703
1015.042	-387
1015.113	-1555
1015.185	-2114
1015.257	-2313
1015.328	-1273
1015.400	-1109
1015.471	-1777
1015.543	-1396
1015.615	-1472
1015.686	-828
1015.757	-1561
1015.829	-341
1015.901	-2195
1015.972	-1030
1016.043	-2026
1016.115	28
1016.186	-2042
1016.257	-381
1016.328	-1331
1016.400	42
1016.471	-2032
1016.542	-2158
1016.613	-2044
1016.685	-472
1016.756	-1339
1016.827	-913
1016.898	-1982
1016.969	-122
1017.040	-1904
1017.111	-1584
1017.182	-1893
1017.253	-1184
1017.324	-1481
1017.395	-152
1017.466	-1019
1017.537	-664
1017.608	-1683
1017.678	-1548
1017.749	-1916
1017.820	-858
1017.891	-1875
1017.961	-761
1018.032	-781
1018.103	-848
1018.173	-1876
1018.244	-763
1018.315	-1669
1018.385	-720
1018.456	-2594
1018.526	-1078
1018.597	-2115
1018.667	-1349
1018.738	-2065
1018.808	-1211
1018.878	-2547
1018.949	-846
1019.019	-1725
1019.089	-266
1019.160	-2017
1019.230	-1966
1019.300	-1870
1019.371	-2458
1019.441	-1549
1019.511	-1712
1019.581	-1883
1019.651	-1200
1019.721	-2399
1019.791	-1667
1019.861	-1221
1019.931	-767
1020.001	-1961
1020.071	-830
1020.141	-1309
1020.211	-1432
1020.281	-1391
1020.351	-1769
1020.421	-1204
1020.491	-906
1020.560	-2238
1020.630	-1218
1020.700	-1227
1020.770	-1602
1020.839	-2042
1020.909	-1426
1020.979	-1735
1021.048	-1079
1021.118	-1659
1021.187	-1124
1021.257	-1175
1021.326	-1163
1021.396	-2009
1021.465	-1095
1021.535	-2204
1021.604	-1170
1021.674	-1128
1021.743	-1284
1021.812	-1927
1021.882	-1749
1021.951	-2728
1022.020	-866
1022.089	-1661
1022.159	-1943
1022.228	-1455
1022.297	-1163
1022.366	-2436
1022.435	-1530
1022.504	-2071
1022.573	-1540
1022.642	-2029
1022.711	-1786
1022.781	-1772
1022.849	-565
1022.918	-1717
1022.987	-2271
1023.056	-2089
1023.125	-912
1023.194	-1719
1023.263	-1367
1023.331	-1767
1023.400	-2072
1023.469	-2222
1023.538	-698
1023.606	-2262
1023.675	-1456
1023.744	-1981
1023.812	-2117
1023.881	-1289
1023.949	-1340
1024.018	-1938
1024.086	-1763
1024.155	-1837
1024.223	-1876
1024.292	-1712
1024.360	-1023
1024.429	-1925
1024.497	-1466
1024.565	-1516
1024.634	-1546
1024.702	-1294
1024.770	-981
1024.838	-1573
1024.907	-2232
1024.975	-2077
1025.043	-1366
1025.111	-2120
1025.179	-1403
1025.247	-2309
1025.315	-1190
1025.383	-1813
1025.451	-788
1025.519	-1771
1025.587	-1341
1025.655	-1751
1025.723	-813
1025.791	-1211
1025.859	-821
1025.927	-1645
1025.995	-1611
1026.062	-1577
1026.130	-1148
1026.198	-2182
1026.266	-1962
1026.333	-1803
1026.401	-1131
1026.469	-2694
1026.536	-790
1026.604	-1604
1026.671	-2467
1026.739	-1929
1026.806	-1589
1026.874	-2136
1026.941	-1350
1027.009	-2049
1027.076	-1855
1027.144	-1941
1027.211	-2161
1027.278	-2172
1027.345	-123
1027.413	-1820
1027.480	-1459
1027.547	-1660
1027.614	-1562
1027.682	-2115
1027.749	-1908
1027.816	-2007
1027.883	-1326
1027.950	-1654
1028.017	-1248
1028.084	-1519
1028.151	-2108
1028.218	-1729
1028.285	-850
1028.352	-2019
1028.419	-1966
1028.486	-2184
1028.553	-1048
1028.619	-1897
1028.686	-1057
1028.753	-2633
1028.820	-1311
1028.886	-1563
1028.953	-1654
1029.020	-2669
1029.086	-1319
1029.153	-1798
1029.220	-1811
1029.286	-2135
1029.353	-1144
1029.419	-1634
1029.486	-1652
1029.552	-1457
1029.619	-1525
1029.685	-2447
1029.751	-1512
1029.818	-451
1029.884	-1200
1029.951	-1270
1030.017	-2216
1030.083	-2485
1030.149	-604
1030.216	-2335
1030.282	-1275
1030.348	-2176
1030.414	-2256
1030.480	-1752
1030.546	-1877
1030.612	-1876
1030.678	-2091
1030.744	-1956
1030.810	-1591
1030.876	-2039
1030.942	-1866
1031.008	-2085
1031.074	-1630
1031.140	-2263
1031.206	-796
1031.272	-2626
1031.337	-1836
1031.403	-2496
1031.469	-1368
1031.534	-1753
1031.600	-1173
1031.666	-2237
1031.731	-1533
1031.797	-2176
1031.863	-1064
1031.928	-2781
1031.994	-2216
1032.059	-1632
1032.125	-1172
1032.190	-2247
1032.256	-1446
1032.321	-1890
1032.386	-1767
1032.452	-1882
1032.517	-862
1032.582	-2373
1032.647	-1060
1032.713	-1648
1032.778	-1724
1032.843	-2880
1032.908	-2047
1032.974	-1839
1033.039	-1748
1033.104	-2253
1033.169	-1845
1033.234	-1665
1033.299	-1506
1033.364	-906
1033.429	-1895
1033.494	-1576
1033.559	-1932
1033.624	-1717
1033.688	-1435
1033.753	-2698
1033.818	-1553
1033.883	-2244
1033.948	-1451
1034.013	-1782
1034.077	-1887
1034.142	-2050
1034.207	-1280
1034.271	-1522
1034.336	-868
1034.400	-1571
1034.465	-1039
1034.530	-1508
1034.594	-1427
1034.658	-2333
1034.723	-1904
1034.787	-1631
1034.852	-1249
1034.916	-2516
1034.981	-963
1035.045	-2214
1035.109	-1350
1035.173	-968
1035.238	-1171
1035.302	-1817
1035.366	-1984
1035.430	-2089
1035.495	-1188
1035.559	-2071
1035.623	-1927
1035.687	-2667
1035.751	-1199
1035.815	-2493
1035.879	-1094
1035.943	-1620
1036.007	-1463
1036.071	-1396
1036.135	-1241
1036.198	-1880
1036.262	-1497
1036.326	-2442
1036.390	-763
1036.454	-1713
1036.517	-619
1036.581	-1529
1036.645	-1372
1036.709	-2037
1036.772	-1477
1036.836	-2410
1036.900	-1634
1036.963	-2755
1037.026	-1691
1037.090	-2541
1037.154	-1627
1037.217	-1906
1037.280	-574
1037.344	-1801
1037.407	-2317
1037.471	-960
1037.534	-1512
1037.597	-2111
1037.661	-1930
1037.724	-1233
1037.787	-2254
1037.850	-1996
1037.913	-1668
1037.977	-1348
1038.040	-1340
1038.103	-1298
1038.166	-1545
1038.229	-1538
1038.292	-1620
1038.355	-2768
1038.418	-914
1038.481	-1465
1038.544	-2105
1038.607	-2059
1038.670	-1426
1038.732	-2240
1038.795	-2198
1038.858	-1342
1038.921	-1256
1038.984	-1498
1039.046	-2037
1039.109	-1501
1039.172	-1552
1039.234	-1718
1039.297	-1292
1039.360	-1358
1039.422	-1479
1039.485	-996
1039.547	-1462
1039.610	-1934
1039.672	-1383
1039.734	-1857
1039.797	-659
1039.859	-1881
1039.922	-1678
1039.984	-1731
1040.046	-1164
1040.109	-1273
1040.171	-2024
1040.233	-2176
1040.295	-1073
1040.358	-1758
1040.420	-1760
1040.482	-1765
1040.544	-1853
1040.606	-1225
1040.668	-1900
1040.730	-1818
1040.792	-1182
1040.854	-2212
1040.916	-1749
1040.978	-1949
1041.040	-1170
1041.102	-1359
1041.164	-1292
1041.225	-1214
1041.287	-2228
1041.349	-2328
1041.411	-1400
1041.472	-1855
1041.534	-2240
1041.596	-1846
1041.657	-613
1041.719	-2266
1041.781	-1651
1041.842	-2106
1041.904	-1126
1041.965	-1943
1042.027	-1446
1042.088	-1889
1042.150	-1776
1042.211	-2138
1042.272	-1256
1042.334	-1273
1042.395	-597
1042.456	-2372
1042.518	-1552
1042.579	-1234
1042.640	-1010
1042.701	-1546
1042.763	-1125
1042.824	-1989
1042.885	-1073
1042.946	-1156
1043.007	-955
1043.068	-1946
1043.129	-1374
1043.190	-1765
1043.251	-719
1043.312	-2094
1043.373	-1533
1043.434	-1143
1043.495	-1226
1043.556	-1372
1043.616	-1320
1043.677	-1793
1043.738	-1480
1043.799	-1286
1043.859	-1492
1043.920	-1555
1043.981	-1949
1044.041	-1292
1044.102	-1460
1044.162	-1441
1044.223	-1430
1044.284	-1531
1044.344	-1019
1044.405	-1403
1044.465	-1099
1044.525	-1494
1044.586	-582
1044.646	-1890
1044.707	-1173
1044.767	-2310
1044.827	-1473
1044.887	-1917
1044.948	-854
1045.008	-1049
1045.068	-871
1045.128	-1630
1045.188	-744
1045.249	-963
1045.309	-696
1045.369	-970
1045.429	-1124
1045.489	-2270
1045.549	-1395
1045.609	-1955
1045.669	-1191
1045.729	-1443
1045.789	-1075
1045.848	-1639
1045.908	-522
1045.968	-1167
1046.028	-614
1046.088	-1516
1046.147	-740
1046.207	-1944
1046.267	-1439
1046.326	-1246
1046.386	-1267
1046.446	-1372
1046.505	-414
1046.565	-958
1046.624	-281
1046.684	-1142
1046.743	-540
1046.803	-260
1046.862	-158
1046.922	0
