'Start Wavelength	183.907
'End Wavelength	1046.922
'Gate Delay	5.000
'Gate Width (ms)	1.050
'Laser Output Level	0.000
'X Position	0.000
'Y Position	0.000
'Z Position	0.000
'Grid Point Number	1.000
'Shot Number	100.000
183.907	-365.000
183.977	-569.000
184.047	99
184.116	508
184.186	530
184.256	-7
184.325	-868
184.395	-891
184.465	1399
184.534	178
184.604	-312
184.674	214
184.743	-99
184.813	432
184.883	216
184.952	247
185.022	-338
185.092	-149
185.161	200
185.231	231
185.301	321
185.370	1158
185.440	142
185.509	-300
185.579	-233
185.649	244
185.718	368
185.788	169
185.857	669
185.927	-322
185.996	159
186.066	-289
186.136	-518
186.205	-402
186.275	726
186.344	691
186.414	153
186.483	-373
186.553	1183
186.622	1432
186.692	410
186.761	-130
186.831	211
186.900	329
186.970	240
187.039	592
187.109	164
187.178	491
187.248	275
187.317	267
187.387	544
187.456	291
187.526	609
187.595	307
187.664	1025
187.734	566
187.803	398
187.873	-364
187.942	560
188.012	632
188.081	461
188.150	810
188.220	778
188.289	1882
188.358	810
188.428	12
188.497	17
188.567	418
188.636	-220
188.705	196
188.775	864
188.844	-580
188.913	922
188.983	159
189.052	697
189.121	-234
189.191	75
189.260	208
189.329	1118
189.399	376
189.468	273
189.537	129
189.606	200
189.676	897
189.745	817
189.814	496
189.883	-171
189.953	19
190.022	1362
190.091	1987
190.161	3663
190.230	748
190.299	169
190.368	497
190.437	575
190.507	914
190.576	222
190.645	193
190.714	307
190.783	442
190.853	1219
190.922	1364
190.991	756
191.060	446
191.129	-177
191.198	321
191.268	397
191.337	659
191.406	605
191.475	195
191.544	259
191.613	-89
191.682	215
191.752	3
191.821	373
191.890	-143
191.959	702
192.028	208
192.097	22
192.166	311
192.235	848
192.304	395
192.373	-137
192.442	-260
192.511	-313
192.580	-26
192.650	682
192.719	-466
192.788	546
192.857	579
192.926	271
192.995	-9
193.064	-353
193.133	-121
193.202	911
193.271	67
193.340	3
193.409	1107
193.478	1368
193.547	550
193.615	952
193.684	936
193.753	467
193.822	1632
193.891	1113
193.960	411
194.029	765
194.098	1300
194.167	-75
194.236	646
194.305	417
194.374	252
194.443	-210
194.512	924
194.580	993
194.649	1151
194.718	711
194.787	719
194.856	-127
194.925	1183
194.994	898
195.062	436
195.131	1220
195.200	1621
195.269	1472
195.338	375
195.407	756
195.475	261
195.544	1422
195.613	1276
195.682	491
195.751	752
195.819	1180
195.888	1070
195.957	1975
196.026	1504
196.094	1702
196.163	1310
196.232	1954
196.301	689
196.369	1261
196.438	1213
196.507	774
196.576	90
196.644	-160
196.713	850
196.782	469
196.850	988
196.919	1038
196.988	636
197.056	-508
197.125	609
197.194	619
197.262	239
197.331	1253
197.400	198
197.468	268
197.537	283
197.606	653
197.674	1300
197.743	3447
197.812	1542
197.880	2728
197.949	2406
198.017	2770
198.086	1424
198.155	1220
198.223	1081
198.292	2882
198.360	1543
198.429	805
198.497	668
198.566	1987
198.635	3586
198.703	1786
198.772	1164
198.840	4019
198.909	4502
198.977	1060
199.046	645
199.114	772
199.183	665
199.251	399
199.320	850
199.388	95
199.457	-436
199.525	763
199.594	-73
199.662	855
199.731	518
199.799	793
199.867	724
199.936	567
200.004	797
200.073	787
200.141	692
200.210	371
200.278	568
200.346	414
200.415	613
200.483	1161
200.552	413
200.620	461
200.688	660
200.757	51
200.825	43
200.893	577
200.962	536
201.030	10
201.098	263
201.167	1516
201.235	106
201.303	541
201.372	1630
201.440	252
201.508	1215
201.577	2144
201.645	886
201.713	545
201.781	596
201.850	2279
201.918	669
201.986	868
202.055	728
202.123	843
202.191	174
202.259	727
202.327	-55
202.396	614
202.464	886
202.532	1656
202.600	6783
202.669	3753
202.737	799
202.805	885
202.873	203
202.941	395
203.009	521
203.078	593
203.146	419
203.214	855
203.282	-33
203.350	736
203.418	327
203.487	559
203.555	264
203.623	601
203.691	1079
203.759	174
203.827	779
203.895	1363
203.963	264
204.031	1122
204.099	292
204.168	196
204.236	906
204.304	575
204.372	121
204.440	929
204.508	1507
204.576	-311
204.644	549
204.712	361
204.780	121
204.848	414
204.916	-65
204.984	785
205.052	209
205.120	1087
205.188	1367
205.256	599
205.324	509
205.392	497
205.460	757
205.528	660
205.596	1262
205.664	759
205.732	851
205.799	4872
205.867	7092
205.935	1136
206.003	2101
206.071	325
206.139	579
206.207	1017
206.275	635
206.343	548
206.411	301
206.478	151
206.546	852
206.614	109
206.682	549
206.750	297
206.818	493
206.885	1603
206.953	-429
207.021	1126
207.089	1144
207.157	17
207.225	270
207.292	-183
207.360	-444
207.428	512
207.496	84
207.563	84
207.631	180
207.699	485
207.767	645
207.834	388
207.902	699
207.970	11
208.038	257
208.105	727
208.173	171
208.241	1702
208.309	799
208.376	1599
208.444	3481
208.512	1316
208.579	-142
208.647	1541
208.715	1935
208.782	1502
208.850	482
208.918	831
208.985	10
209.053	1217
209.120	931
209.188	1026
209.256	516
209.323	481
209.391	1603
209.459	2331
209.526	786
209.594	407
209.661	717
209.729	1328
209.796	953
209.864	743
209.932	-534
209.999	2008
210.067	1036
210.134	1469
210.202	922
210.269	2749
210.337	1834
210.404	1057
210.472	433
210.539	834
210.607	445
210.674	1903
210.742	1320
210.809	955
210.877	1658
210.944	2306
211.012	904
211.079	2131
211.146	577
211.214	891
211.281	1067
211.349	2033
211.416	1563
211.484	1956
211.551	830
211.618	1550
211.686	1067
211.753	988
211.821	2122
211.888	1442
211.955	855
212.023	1285
212.090	1895
212.157	839
212.225	1481
212.292	3831
212.359	7276
212.427	22113
212.494	9522
212.561	3768
212.629	1670
212.696	1900
212.763	1903
212.831	207
212.898	1437
212.965	1324
213.032	550
213.100	1984
213.167	1558
213.234	2073
213.301	1383
213.369	950
213.436	730
213.503	1204
213.570	890
213.638	1501
213.705	-27
213.772	1359
213.839	2708
213.906	4333
213.973	3118
214.041	1653
214.108	1746
214.175	2479
214.242	916
214.309	1510
214.376	2272
214.444	1022
214.511	2866
214.578	1042
214.645	1501
214.712	2164
214.779	1212
214.846	1005
214.913	2470
214.980	1746
215.048	2121
215.115	3696
215.182	2850
215.249	1856
215.316	1802
215.383	2037
215.450	1478
215.517	2124
215.584	1546
215.651	1390
215.718	1726
215.785	3279
215.852	2058
215.919	3565
215.986	3383
216.053	1995
216.120	906
216.187	2197
216.254	3163
216.321	1707
216.388	2733
216.455	2345
216.522	2481
216.589	3625
216.656	5929
216.722	6562
216.789	2605
216.856	2212
216.923	1433
216.990	2047
217.057	1854
217.124	3921
217.191	2121
217.258	3100
217.324	3475
217.391	3534
217.458	2395
217.525	1776
217.592	1896
217.659	1585
217.725	2357
217.792	3000
217.859	4727
217.926	1479
217.993	1211
218.059	2235
218.126	1297
218.193	1222
218.260	847
218.327	1422
218.393	1074
218.460	1253
218.527	817
218.594	1493
218.660	5117
218.727	7571
218.794	1519
218.860	1810
218.927	994
218.994	498
219.061	1871
219.127	2225
219.194	4282
219.261	1847
219.327	133
219.394	1799
219.461	670
219.527	1033
219.594	3735
219.661	2768
219.727	235
219.794	2456
219.860	279
219.927	1441
219.994	2576
220.060	7202
220.127	4401
220.193	2689
220.260	1335
220.326	2642
220.393	2552
220.460	4304
220.526	2122
220.593	1934
220.659	2627
220.726	2929
220.792	9141
220.859	6734
220.925	5664
220.992	8179
221.058	11003
221.125	14699
221.191	10621
221.258	4292
221.324	2420
221.391	1823
221.457	1563
221.524	764
221.590	2981
221.657	13584
221.723	9532
221.789	8182
221.856	8478
221.922	3320
221.989	3235
222.055	1681
222.121	1216
222.188	4068
222.254	1820
222.321	1660
222.387	1026
222.453	1623
222.520	1162
222.586	1312
222.652	1009
222.719	1218
222.785	1620
222.851	1329
222.918	1114
222.984	1897
223.050	1659
223.116	1188
223.183	1345
223.249	582
223.315	927
223.382	1261
223.448	1472
223.514	784
223.580	879
223.647	1320
223.713	1028
223.779	1407
223.845	1521
223.911	1934
223.978	1309
224.044	1337
224.110	1491
224.176	1779
224.242	1013
224.309	787
224.375	1735
224.441	1554
224.507	373
224.573	889
224.639	1495
224.705	780
224.772	700
224.838	1053
224.904	2165
224.970	2756
225.036	1753
225.102	1315
225.168	1923
225.234	1633
225.300	1672
225.366	1745
225.432	1945
225.499	1437
225.565	1558
225.631	1569
225.697	1589
225.763	2747
225.829	2321
225.895	2574
225.961	5703
226.027	4507
226.093	3562
226.159	4470
226.225	3868
226.291	6699
226.357	12680
226.423	8163
226.489	5033
226.554	3087
226.620	3708
226.686	4533
226.752	8406
226.818	7617
226.884	17423
226.950	16998
227.016	5590
227.082	4251
227.148	4071
227.214	4992
227.279	4639
227.345	3502
227.411	3243
227.477	3239
227.543	5669
227.609	7668
227.674	5846
227.740	3366
227.806	3317
227.872	2324
227.938	2551
228.003	6592
228.069	2582
228.135	1125
228.201	1284
228.267	1514
228.332	2227
228.398	5055
228.464	3920
228.530	2153
228.595	1762
228.661	803
228.727	5085
228.792	4016
228.858	2068
228.924	1915
228.990	3706
229.055	1904
229.121	3932
229.187	2546
229.252	2752
229.318	1849
229.384	3224
229.449	4446
229.515	585
229.581	-313
229.646	3075
229.712	3163
229.777	8011
229.843	9510
229.909	6237
229.974	6383
230.040	5700
230.105	3916
230.171	4235
230.236	5777
230.302	8620
230.368	6977
230.433	3783
230.499	3263
230.564	4946
230.630	2561
230.695	2695
230.761	2664
230.826	873
230.892	5565
230.957	2877
231.023	1672
231.088	2348
231.154	2573
231.219	3079
231.284	4232
231.350	5739
231.415	1291
231.481	2447
231.546	2278
231.612	2279
231.677	1538
231.742	29
231.808	2831
231.873	1195
231.939	410
232.004	5458
232.069	6165
232.135	1487
232.200	1789
232.265	2223
232.331	961
232.396	1012
232.461	1042
232.527	1366
232.592	1489
232.657	1914
232.723	6625
232.788	5223
232.853	3009
232.918	2214
232.984	1820
233.049	1103
233.114	5146
233.179	5052
233.245	8209
233.310	10888
233.375	2966
233.440	2608
233.506	541
233.571	1006
233.636	2366
233.701	1567
233.766	5507
233.832	9798
233.897	4566
233.962	3792
234.027	5230
234.092	4119
234.157	3356
234.222	3627
234.288	6008
234.353	20738
234.418	20346
234.483	10495
234.548	6323
234.613	5411
234.678	4757
234.743	5219
234.808	22529
234.873	15044
234.938	6140
235.004	4517
235.069	4299
235.134	2995
235.199	3602
235.264	3387
235.329	1726
235.394	3494
235.459	4863
235.524	4156
235.589	3449
235.654	2812
235.719	1632
235.784	2891
235.849	3374
235.913	11472
235.978	14218
236.043	16106
236.108	4767
236.173	4407
236.238	5911
236.303	2406
236.368	3470
236.433	6281
236.498	14266
236.563	6372
236.627	6456
236.692	25589
236.757	20558
236.822	8959
236.887	11463
236.952	7163
237.017	4472
237.081	7146
237.146	6529
237.211	9387
237.276	23107
237.341	50851
237.405	27386
237.470	10365
237.535	10668
237.600	5830
237.664	4714
237.729	2702
237.794	3566
237.859	8093
237.923	9629
237.988	5461
238.053	10224
238.118	11238
238.182	25707
238.247	26198
238.312	12983
238.376	9048
238.441	7330
238.506	6710
238.570	3021
238.635	4336
238.700	3388
238.764	3091
238.829	11488
238.893	16657
238.958	7046
239.023	7041
239.087	4038
239.152	5161
239.216	2787
239.281	3630
239.346	2994
239.410	3326
239.475	5080
239.539	25224
239.604	22367
239.668	6419
239.733	4834
239.797	4772
239.862	10213
239.926	21648
239.991	9444
240.055	4881
240.120	4471
240.184	3963
240.249	3953
240.313	3540
240.378	4294
240.442	15858
240.507	27496
240.571	9098
240.635	12843
240.700	17767
240.764	6674
240.829	4140
240.893	2079
240.957	3959
241.022	13918
241.086	28554
241.151	15009
241.215	3994
241.279	7085
241.344	15499
241.408	7711
241.472	4555
241.537	4942
241.601	4112
241.665	3147
241.730	3714
241.794	5116
241.858	3202
241.922	4085
241.987	4023
242.051	3556
242.115	2590
242.179	4005
242.244	2602
242.308	3689
242.372	4604
242.436	6481
242.501	4292
242.565	2715
242.629	2427
242.693	4080
242.757	2757
242.822	4076
242.886	4221
242.950	4506
243.014	3980
243.078	4729
243.142	6159
243.206	3969
243.271	5054
243.335	4792
243.399	6728
243.463	22611
243.527	69396
243.591	23631
243.655	10903
243.719	5512
243.783	6234
243.847	9664
243.911	13122
243.975	18728
244.040	14011
244.104	7463
244.168	4671
244.232	9240
244.296	12558
244.360	12660
244.424	8297
244.488	5743
244.552	5422
244.615	4220
244.679	4384
244.743	5820
244.807	7034
244.871	4086
244.935	4837
244.999	3384
245.063	4229
245.127	5899
245.191	8220
245.255	8280
245.319	7033
245.383	7617
245.446	5928
245.510	3738
245.574	5330
245.638	6376
245.702	4942
245.766	16264
245.829	9514
245.893	5896
245.957	4815
246.021	5916
246.085	5536
246.149	7939
246.212	19903
246.276	31555
246.340	13132
246.404	9013
246.467	9954
246.531	16903
246.595	9517
246.659	9126
246.722	8109
246.786	10662
246.850	11271
246.913	15784
246.977	6360
247.041	6317
247.104	7629
247.168	6587
247.232	18119
247.295	41369
247.359	21096
247.423	9807
247.486	18879
247.550	11737
247.614	8722
247.677	12700
247.741	7280
247.804	6417
247.868	8030
247.932	15364
247.995	38709
248.059	15045
248.122	6721
248.186	8894
248.249	15782
248.313	58828
248.376	65281
248.440	41033
248.503	15834
248.567	12544
248.630	17807
248.694	24503
248.757	30088
248.821	66403
248.884	39651
248.948	34394
249.011	50354
249.075	76552
249.138	68124
249.202	26508
249.265	16365
249.328	21907
249.392	15261
249.455	11444
249.519	8996
249.582	10736
249.645	20000
249.709	15066
249.772	8358
249.835	8036
249.899	10603
249.962	9454
250.025	8135
250.089	22470
250.152	34951
250.215	17061
250.279	11873
250.342	12371
250.405	10512
250.468	9352
250.532	12181
250.595	18589
250.658	62506
250.721	114376
250.785	41190
250.848	21464
250.911	12734
250.974	11952
251.038	16021
251.101	37829
251.164	20059
251.227	19891
251.290	16444
251.354	22339
251.417	88818
251.480	93874
251.543	56008
251.606	169853
251.669	129846
251.732	45755
251.795	51382
251.859	50354
251.922	107879
251.985	64716
252.048	25167
252.111	19186
252.174	16848
252.237	32537
252.300	77487
252.363	73471
252.426	148066
252.489	67056
252.552	38248
252.615	26519
252.678	23242
252.741	54599
252.804	65430
252.867	145505
252.930	93566
252.993	55864
253.056	32981
253.119	25896
253.182	19480
253.245	27065
253.308	21447
253.371	23993
253.434	23586
253.497	22776
253.559	38611
253.622	29251
253.685	35308
253.748	39264
253.811	18110
253.874	21574
253.937	22134
254.000	14946
254.062	25469
254.125	41902
254.188	36606
254.251	35076
254.314	15632
254.376	28425
254.439	33013
254.502	28873
254.565	27337
254.628	48165
254.690	30730
254.753	18914
254.816	15442
254.878	16036
254.941	26951
255.004	31166
255.067	14279
255.129	14876
255.192	8650
255.255	5963
255.317	9671
255.380	7311
255.443	4952
255.505	4961
255.568	5929
255.631	6460
255.693	6883
255.756	5778
255.819	5406
255.881	4674
255.944	4699
256.006	5277
256.069	5134
256.132	5168
256.194	7642
256.257	26599
256.319	19070
256.382	18001
256.444	8082
256.507	6590
256.569	5135
256.632	5353
256.694	10262
256.757	14274
256.819	36230
256.882	15491
256.944	8795
257.007	9471
257.069	12225
257.132	8140
257.194	5913
257.257	6088
257.319	5546
257.381	5020
257.444	11227
257.506	44064
257.569	56506
257.631	52506
257.693	28277
257.756	13106
257.818	13930
257.880	6943
257.943	6897
258.005	5812
258.067	6493
258.130	6194
258.192	8212
258.254	21886
258.317	13086
258.379	7662
258.441	21951
258.503	23790
258.566	27819
258.628	42052
258.690	10161
258.753	8728
258.815	18638
258.877	10495
258.939	5431
259.001	5718
259.064	5862
259.126	8417
259.188	12977
259.250	8927
259.312	11170
259.375	35009
259.437	23417
259.499	7774
259.561	6317
259.623	7234
259.685	7837
259.747	7593
259.809	25424
259.872	54333
259.934	72348
259.996	72436
260.058	20388
260.120	9114
260.182	7083
260.244	6195
260.306	4642
260.368	6269
260.430	5218
260.492	14291
260.554	33396
260.616	29118
260.678	38338
260.740	60309
260.802	15493
260.864	11951
260.926	9049
260.988	8744
261.050	7902
261.112	21755
261.174	58011
261.236	47105
261.298	14166
261.359	23765
261.421	38884
261.483	11341
261.545	8552
261.607	4924
261.669	6255
261.731	14935
261.793	41846
261.854	18110
261.916	10438
261.978	8753
262.040	10986
262.102	7226
262.164	16358
262.225	14950
262.287	7273
262.349	20520
262.411	16654
262.472	7577
262.534	15806
262.596	40124
262.658	12454
262.719	7153
262.781	10496
262.843	36486
262.904	17362
262.966	9727
263.028	12101
263.090	51806
263.151	140667
263.213	48500
263.275	26270
263.336	12320
263.398	9157
263.459	5953
263.521	7692
263.583	19387
263.644	14368
263.706	5943
263.767	4397
263.829	5053
263.891	2945
263.952	3819
264.014	3630
264.075	7832
264.137	24121
264.198	11125
264.260	4070
264.321	4396
264.383	13296
264.444	40371
264.506	11755
264.567	7664
264.629	13055
264.690	32228
264.752	12368
264.813	7180
264.875	4489
264.936	5439
264.998	4650
265.059	3866
265.120	3739
265.182	5020
265.243	14079
265.305	14537
265.366	4768
265.427	4130
265.489	4217
265.550	2606
265.611	4813
265.673	5994
265.734	4444
265.795	3400
265.857	2436
265.918	2559
265.979	6301
266.040	25662
266.102	22215
266.163	9450
266.224	11076
266.286	7346
266.347	3269
266.408	5006
266.469	6009
266.530	5029
266.592	3542
266.653	10895
266.714	22325
266.775	6984
266.836	4385
266.898	4059
266.959	8094
267.020	6622
267.081	5145
267.142	4600
267.203	3953
267.264	3284
267.326	5618
267.387	3205
267.448	2715
267.509	3966
267.570	3181
267.631	2886
267.692	2972
267.753	2449
267.814	3670
267.875	9407
267.936	26509
267.997	13149
268.058	9209
268.119	6119
268.180	6631
268.241	4155
268.302	4071
268.363	3570
268.424	5143
268.485	5789
268.546	4002
268.607	2406
268.668	1975
268.729	2819
268.790	5008
268.851	5815
268.912	15207
268.972	20704
269.033	10229
269.094	4527
269.155	3029
269.216	3146
269.277	4723
269.338	3340
269.398	3309
269.459	5609
269.520	7349
269.581	11739
269.642	14425
269.702	8884
269.763	5961
269.824	5161
269.885	7367
269.945	12908
270.006	4963
270.067	3424
270.128	3803
270.188	3691
270.249	4061
270.310	3039
270.370	3491
270.431	3849
270.492	2922
270.553	4534
270.613	11863
270.674	26192
270.734	12470
270.795	5839
270.856	9400
270.916	8529
270.977	4397
271.038	7350
271.098	6875
271.159	10947
271.219	12712
271.280	4762
271.340	4021
271.401	6016
271.462	21714
271.522	11253
271.583	5938
271.643	6531
271.704	4971
271.764	7971
271.825	16828
271.885	54650
271.946	79409
272.006	25883
272.066	31477
272.127	61485
272.187	18281
272.248	10412
272.308	10947
272.369	40361
272.429	25053
272.489	19779
272.550	21151
272.610	19116
272.671	15947
272.731	15105
272.791	28105
272.852	14559
272.912	11913
272.972	7314
273.033	6981
273.093	13214
273.153	11644
273.214	7932
273.274	9289
273.334	30736
273.394	66290
273.455	28957
273.515	23727
273.575	58630
273.635	25623
273.696	32787
273.756	62464
273.816	27599
273.876	15469
273.936	32528
273.997	64839
274.057	17695
274.117	11726
274.177	17269
274.237	73861
274.297	70736
274.358	52257
274.418	51062
274.478	40553
274.538	16624
274.598	15150
274.658	51083
274.718	71217
274.778	27535
274.838	13658
274.898	28447
274.958	96571
275.018	67963
275.078	43205
275.138	18627
275.198	10891
275.258	8405
275.318	11257
275.378	19971
275.438	22207
275.498	15155
275.558	36161
275.618	82625
275.678	48895
275.738	28826
275.798	23154
275.858	13582
275.918	7299
275.978	8717
276.038	8688
276.098	6988
276.157	14844
276.217	45177
276.277	22269
276.337	14776
276.397	8783
276.457	10655
276.517	7903
276.576	6601
276.636	5369
276.696	10987
276.756	26083
276.815	22419
276.875	8997
276.935	11851
276.995	10131
277.055	5948
277.114	6488
277.174	10096
277.234	36096
277.293	16964
277.353	8797
277.413	6950
277.472	7888
277.532	8616
277.592	10080
277.651	29767
277.711	65189
277.771	21955
277.830	69018
277.890	64391
277.950	38679
278.009	113303
278.069	46845
278.128	40599
278.188	65847
278.248	27815
278.307	62773
278.367	46052
278.426	15108
278.486	10880
278.545	7821
278.605	7201
278.664	6892
278.724	8781
278.783	22441
278.843	64058
278.902	19855
278.962	11174
279.021	13092
279.081	18340
279.140	18794
279.199	13619
279.259	11227
279.318	12766
279.378	16995
279.437	31641
279.496	109489
279.556	300507
279.615	270341
279.675	77196
279.734	44114
279.793	58928
279.853	90500
279.912	35238
279.971	20265
280.031	18967
280.090	30477
280.149	60031
280.208	49587
280.268	200010
280.327	231165
280.386	61984
280.445	41755
280.505	40042
280.564	20448
280.623	16191
280.682	22157
280.742	35665
280.801	13064
280.860	9685
280.919	7673
280.978	8096
281.037	8546
281.097	6676
281.156	7817
281.215	5651
281.274	8924
281.333	39914
281.392	34816
281.451	9067
281.510	6645
281.569	6574
281.628	5419
281.688	5528
281.747	7182
281.806	7970
281.865	5409
281.924	5109
281.983	5856
282.042	3842
282.101	3840
282.160	4537
282.219	4151
282.278	6881
282.337	22538
282.396	18614
282.454	7416
282.513	8616
282.572	33833
282.631	23690
282.690	8118
282.749	5930
282.808	7664
282.867	8163
282.926	8187
282.985	4538
283.043	4141
283.102	4656
283.161	6720
283.220	18834
283.279	44207
283.338	14056
283.396	7364
283.455	7454
283.514	8226
283.573	13050
283.631	9248
283.690	6394
283.749	6412
283.808	14143
283.866	18888
283.925	7271
283.984	6493
284.043	9580
284.101	10781
284.160	8204
284.219	13776
284.277	10423
284.336	14519
284.395	46898
284.453	44103
284.512	15326
284.570	19506
284.629	16541
284.688	13865
284.746	16892
284.805	17281
284.863	24875
284.922	30081
284.981	31983
285.039	44247
285.098	79008
285.156	183307
285.215	358240
285.273	351923
285.332	211719
285.390	109701
285.449	67574
285.507	45417
285.566	33115
285.624	25618
285.683	19467
285.741	15639
285.799	13962
285.858	13005
285.916	12725
285.975	8992
286.033	7495
286.091	6691
286.150	5791
286.208	7484
286.267	10397
286.325	8729
286.383	13842
286.442	12597
286.500	6350
286.558	5716
286.616	4991
286.675	8232
286.733	7706
286.791	7201
286.850	7221
286.908	12367
286.966	20067
287.024	8957
287.083	6033
287.141	4973
287.199	5869
287.257	9575
287.315	7049
287.374	7755
287.432	19550
287.490	14668
287.548	8081
287.606	5447
287.664	5375
287.723	9407
287.781	14760
287.839	7247
287.897	7655
287.955	9207
288.013	14217
288.071	33269
288.129	120244
288.187	360440
288.245	169661
288.303	50873
288.361	30755
288.419	26191
288.477	18219
288.535	11775
288.593	9459
288.651	7723
288.709	5478
288.767	5244
288.825	6175
288.883	4996
288.941	5292
288.999	4305
289.057	3818
289.115	5395
289.173	5837
289.231	5238
289.289	7171
289.346	5485
289.404	6940
289.462	11584
289.520	12657
289.578	6006
289.636	3356
289.694	2883
289.751	2613
289.809	3309
289.867	4023
289.925	4763
289.983	7228
290.040	4118
290.098	3491
290.156	5181
290.214	7095
290.271	3963
290.329	2631
290.387	2402
290.444	3299
290.502	1783
290.560	3017
290.617	3631
290.675	4737
290.733	4138
290.790	6237
290.848	3849
290.906	6879
290.963	5505
291.021	5420
291.078	4358
291.136	5957
291.194	17721
291.251	45440
291.309	13636
291.366	5301
291.424	4678
291.481	5554
291.539	5683
291.596	5197
291.654	2626
291.711	2607
291.769	4363
291.826	12626
291.884	9169
291.941	4181
291.999	4028
292.056	6115
292.114	5771
292.171	3352
292.228	3823
292.286	7406
292.343	13702
292.401	18959
292.458	13016
292.515	7433
292.573	8892
292.630	8681
292.687	9535
292.745	5999
292.802	8631
292.859	26256
292.917	44741
292.974	28755
293.031	9229
293.089	6721
293.146	6067
293.203	4195
293.260	4715
293.318	7521
293.375	10565
293.432	6505
293.489	4359
293.546	5102
293.604	8655
293.661	25617
293.718	67243
293.775	37136
293.832	17172
293.889	14648
293.947	16967
294.004	11704
294.061	9895
294.118	19970
294.175	42887
294.232	52901
294.289	22050
294.346	10573
294.403	8561
294.460	8643
294.517	8559
294.574	5735
294.631	4987
294.688	8659
294.745	20193
294.802	71932
294.859	85171
294.916	36505
294.973	22674
295.030	16892
295.087	13802
295.144	8852
295.201	7754
295.258	6923
295.315	9138
295.372	27072
295.429	56840
295.486	25273
295.542	14881
295.599	31799
295.656	58863
295.713	38404
295.770	53473
295.827	22369
295.883	11377
295.940	10679
295.997	16893
296.054	17772
296.111	9303
296.167	6057
296.224	4537
296.281	4162
296.338	4232
296.394	5949
296.451	7213
296.508	21412
296.564	48221
296.621	31351
296.678	51308
296.734	83446
296.791	31700
296.848	16126
296.904	17337
296.961	37728
297.018	60327
297.074	48335
297.131	17204
297.187	12875
297.244	18845
297.301	54340
297.357	105273
297.414	38697
297.470	14648
297.527	10220
297.583	8104
297.640	9663
297.696	7218
297.753	5671
297.809	4687
297.866	3697
297.922	4339
297.979	4444
298.035	5812
298.092	10553
298.148	32440
298.204	36023
298.261	17280
298.317	25415
298.374	67767
298.430	43963
298.486	21273
298.543	16995
298.599	12209
298.656	11323
298.712	20581
298.768	51316
298.824	38680
298.881	14402
298.937	8379
298.993	7718
299.050	9955
299.106	9936
299.162	6953
299.218	7070
299.275	5796
299.331	8091
299.387	15237
299.443	55292
299.500	63056
299.556	24278
299.612	11875
299.668	10044
299.724	10307
299.780	10613
299.837	9305
299.893	15235
299.949	50281
300.005	67178
300.061	50426
300.117	85412
300.173	45456
300.229	19639
300.285	21952
300.341	27978
300.397	14430
300.453	8750
300.510	7457
300.566	8267
300.622	9282
300.678	20881
300.734	46926
300.790	51530
300.845	64716
300.901	39579
300.957	51040
301.013	47201
301.069	18672
301.125	13143
301.181	13347
301.237	10198
301.293	7018
301.349	6308
301.405	4611
301.461	5790
301.516	5819
301.572	8051
301.628	17108
301.684	17999
301.740	22892
301.796	38798
301.851	26447
301.907	41063
301.963	45634
302.019	62749
302.074	164418
302.130	169330
302.186	75711
302.242	31116
302.297	19526
302.353	20330
302.409	37139
302.464	36363
302.520	27926
302.576	63062
302.631	77640
302.687	44441
302.743	18756
302.798	11319
302.854	8299
302.910	9033
302.965	11548
303.021	21709
303.076	21351
303.132	26300
303.187	32395
303.243	18047
303.299	8806
303.354	7051
303.410	5305
303.465	5023
303.521	5761
303.576	6100
303.632	8024
303.687	16862
303.743	50607
303.798	47864
303.853	18836
303.909	9918
303.964	9007
304.020	13788
304.075	23731
304.130	20620
304.186	36540
304.241	38953
304.297	31133
304.352	16601
304.358	15877
304.407	10010
304.449	10033
304.463	10049
304.518	9265
304.539	9238
304.573	9207
304.629	9011
304.630	9168
304.684	16695
304.720	30152
304.739	36849
304.794	63532
304.811	54284
304.850	32293
304.902	14990
304.905	13878
304.960	8950
304.992	7979
305.015	7294
305.071	6241
305.083	5992
305.126	5109
305.173	4052
305.181	3892
305.236	4306
305.264	4930
305.292	5528
305.347	6959
305.354	7060
305.402	7683
305.445	7092
305.457	6939
305.512	10131
305.535	10754
305.567	11734
305.622	12945
305.626	13414
305.678	23281
305.716	44087
305.733	51704
305.788	67991
305.807	58957
305.843	43148
305.897	49102
305.898	49127
305.953	54135
305.988	37044
306.008	27626
306.063	16684
306.078	15087
306.118	11519
306.168	7979
306.173	7665
306.228	6394
306.259	5573
306.283	4949
306.338	4731
306.349	4838
306.393	5186
306.440	4959
306.448	5018
306.503	6790
306.530	9411
306.558	14328
306.613	35379
306.620	38273
306.668	53871
306.711	59667
306.723	59518
306.778	47770
306.801	36190
306.833	22988
306.888	11909
306.892	11526
306.943	8084
306.982	7058
306.997	6836
307.052	7471
307.072	7573
307.107	8830
307.162	14087
307.163	14202
307.217	25545
307.253	31370
307.272	32541
307.327	34998
307.343	31175
307.381	23132
307.434	19481
307.436	19808
307.491	37605
307.524	57134
307.546	62983
307.600	55909
307.614	48601
307.655	28558
307.704	14828
307.710	14186
307.765	18312
307.795	23516
307.819	28360
307.874	51827
307.885	51362
307.929	37571
307.975	18696
307.984	16771
308.038	14862
308.065	17406
308.093	27453
308.148	55421
308.156	63401
308.202	101988
308.246	129956
308.257	131348
308.312	73508
308.336	56338
308.366	43840
308.421	33883
308.426	32404
308.475	18918
308.517	12722
308.530	11494
308.585	9906
308.607	10054
308.639	11835
308.694	15817
308.697	16250
308.748	34969
308.787	57944
308.803	59118
308.857	44199
308.877	34631
308.912	23851
308.967	17492
308.967	17471
309.021	20780
309.058	25734
309.076	30688
309.130	51576
309.148	60085
309.185	100078
309.238	168076
309.239	168341
309.293	205731
309.328	184661
309.348	161327
309.402	76951
309.418	58197
309.457	38066
309.508	24866
309.511	24488
309.566	26919
309.598	30601
309.620	38212
309.674	63549
309.688	70723
309.729	68565
309.778	50800
309.783	49368
309.837	32005
309.868	25540
309.892	29426
309.946	44161
309.959	49648
310.001	63532
310.049	74890
310.055	72887
310.109	44032
310.139	27004
310.163	20447
310.218	12568
310.229	11670
310.272	10284
310.319	8833
310.326	8623
310.381	8129
310.409	7889
310.435	7683
310.489	7057
310.499	7097
310.543	8003
310.589	8782
310.598	8630
310.652	8175
310.679	7559
310.706	6548
310.760	4429
310.769	4185
310.814	3656
310.859	3217
310.868	3289
310.923	3820
310.948	4059
310.977	4963
311.031	7005
311.038	7339
311.085	6914
311.128	5882
311.139	5787
311.193	5257
311.218	5151
311.247	4590
311.301	3632
311.308	3502
311.356	3874
311.398	4403
311.410	4248
311.464	3457
311.488	3087
311.518	3189
311.572	3452
311.578	3493
311.626	5195
311.668	6893
311.680	7182
311.734	8243
311.758	8761
311.788	8355
311.842	7575
311.847	7504
311.896	9338
311.937	11093
311.950	10711
312.004	9084
312.027	8312
312.058	6814
312.112	4279
312.117	4048
312.165	3962
312.207	3936
312.297	5789
312.386	4556
312.476	5478
312.566	12033
312.656	5529
312.745	2633
312.835	4487
312.925	4844
313.015	5603
313.104	6290
313.194	3134
313.284	3749
313.374	5374
313.463	3740
313.553	3538
313.643	1615
313.732	2613
313.822	2563
313.912	3680
314.001	3960
314.091	5393
314.180	6602
314.270	6416
314.360	9530
314.449	7152
314.539	3468
314.628	3665
314.718	5057
314.808	8720
314.897	3507
314.987	3408
315.076	6047
315.166	9078
315.255	8120
315.345	7336
315.434	9122
315.524	8663
315.613	8301
315.703	10083
315.792	13349
315.881	36185
315.971	14457
316.060	19830
316.150	36660
316.239	38180
316.328	11651
316.418	4248
316.507	3864
316.597	7001
316.686	6085
316.775	16538
316.865	39336
316.954	6411
317.043	3569
317.133	3675
317.222	3646
317.311	3355
317.400	2128
317.490	6779
317.579	7713
317.668	4509
317.757	8778
317.847	21184
317.936	64436
318.025	26805
318.114	14669
318.203	10095
318.293	14323
318.382	26162
318.471	18098
318.560	29396
318.649	49835
318.738	10820
318.828	9099
318.917	9904
319.006	15753
319.095	42413
319.184	68231
319.273	35654
319.362	17199
319.451	6899
319.540	6076
319.629	16005
319.718	25233
319.807	13183
319.896	27407
319.985	83213
320.074	26423
320.163	10071
320.252	23268
320.341	13701
320.430	8801
320.519	12525
320.608	7553
320.697	5834
320.786	6315
320.875	8439
320.964	11065
321.053	17212
321.142	24909
321.230	25175
321.319	20602
321.408	45452
321.497	19920
321.586	20292
321.675	34718
321.764	28419
321.852	17048
321.941	25016
322.030	16724
322.119	20782
322.207	51753
322.296	49522
322.385	19248
322.474	21905
322.562	55294
322.651	28387
322.740	23832
322.829	39352
322.917	51579
323.006	22559
323.095	16510
323.183	16182
323.272	23648
323.361	46871
323.449	137537
323.538	48208
323.626	101512
323.715	58749
323.804	27342
323.892	95136
323.981	44291
324.069	16618
324.158	55837
324.246	45498
324.335	11852
324.424	16080
324.512	5960
324.601	6931
324.689	9119
324.778	18294
324.866	35182
324.954	9161
325.043	8770
325.131	24005
325.220	44917
325.308	48849
325.397	32993
325.485	17308
325.574	4519
325.662	4696
325.750	3752
325.839	4758
325.927	3542
326.015	7768
326.104	17817
326.192	24885
326.280	4662
326.369	5015
326.457	6870
326.545	12287
326.634	5271
326.722	3622
326.810	3453
326.898	3490
326.987	5026
327.075	13175
327.163	18112
327.251	8373
327.340	3530
327.428	4863
327.516	3034
327.604	5479
327.692	6498
327.781	9975
327.869	17692
327.957	8886
328.045	6405
328.133	4865
328.221	8436
328.309	4948
328.397	2983
328.485	4875
328.574	8238
328.662	29154
328.750	21784
328.838	9511
328.926	2824
329.014	3130
329.102	6278
329.190	16197
329.278	8795
329.366	2835
329.454	2523
329.542	2991
329.630	1397
329.718	3441
329.806	4231
329.893	4746
329.981	2400
330.069	2995
330.157	7944
330.245	15883
330.333	7586
330.421	4771
330.509	9616
330.597	34511
330.684	20231
330.772	8635
330.860	13670
330.948	14654
331.036	4205
331.123	1931
331.211	2461
331.299	4393
331.387	12848
331.475	20402
331.562	7094
331.650	3616
331.738	6432
331.825	10177
331.913	3811
332.001	2796
332.089	7470
332.176	20075
332.264	55653
332.352	34911
332.439	7141
332.527	5245
332.614	5656
332.702	9401
332.790	6239
332.877	25461
332.965	48000
333.052	9813
333.140	11641
333.228	24940
333.315	5729
333.403	7717
333.490	32299
333.578	24098
333.665	22384
333.753	9023
333.840	4563
333.928	9434
334.015	33061
334.103	44856
334.190	109657
334.278	23053
334.365	11198
334.452	6634
334.540	4907
334.627	9420
334.715	14826
334.802	36963
334.889	181915
334.977	146728
335.064	15674
335.151	5658
335.239	6362
335.326	11946
335.413	49649
335.501	51233
335.588	6857
335.675	3716
335.762	6909
335.850	11308
335.937	10908
336.024	40101
336.111	157303
336.199	51936
336.286	7484
336.373	3519
336.460	2588
336.547	3036
336.635	4722
336.722	4650
336.809	3835
336.896	9052
336.983	30881
337.070	69769
337.157	97902
337.245	111434
337.332	70275
337.419	8031
337.506	4123
337.593	7521
337.680	25204
337.767	55163
337.854	17420
337.941	22438
338.028	38751
338.115	11040
338.202	12137
338.289	34468
338.376	113606
338.463	30690
338.550	38613
338.637	34174
338.724	24419
338.811	37302
338.898	6569
338.984	3702
339.071	3874
339.158	5979
339.245	15486
339.332	11389
339.419	26427
339.506	22026
339.593	1813
339.679	3000
339.766	2273
339.853	6020
339.940	10614
340.027	3976
340.113	3943
340.200	6315
340.287	4232
340.374	5703
340.460	9517
340.547	3848
340.634	9829
340.720	34757
340.807	16613
340.894	3451
340.980	4062
341.067	3180
341.154	4470
341.240	6495
341.327	14224
341.414	3452
341.500	1448
341.587	3955
341.674	4001
341.760	10251
341.847	11136
341.933	3223
342.020	849
342.106	1171
342.193	3744
342.279	7938
342.366	5198
342.452	9754
342.539	5564
342.625	15664
342.712	34871
342.798	13758
342.885	4691
342.971	1341
343.058	1025
343.144	2239
343.230	2986
343.317	1436
343.403	921
343.490	2011
343.576	1141
343.662	2759
343.749	2895
343.835	4988
343.921	14282
344.008	81399
344.094	152757
344.180	31393
344.267	13983
344.353	50064
344.439	51682
344.525	17592
344.612	4875
344.698	4612
344.784	2773
344.870	1886
344.957	2407
345.043	6560
345.129	4257
345.215	9535
345.301	4310
345.387	2029
345.474	1457
345.560	2542
345.646	4822
345.732	3243
345.818	2145
345.904	2824
345.990	4535
346.076	7297
346.162	14696
346.249	4243
346.335	1851
346.421	5311
346.507	22495
346.593	62806
346.679	12209
346.765	4913
346.851	2041
346.937	2649
347.023	1885
347.108	4876
347.194	2612
347.280	3068
347.366	4348
347.452	22060
347.538	79801
347.624	56182
347.710	44739
347.796	7956
347.882	2690
347.967	3184
348.053	4692
348.139	2710
348.225	2026
348.311	2471
348.397	2392
348.482	4249
348.568	4464
348.654	2006
348.740	2605
348.825	2028
348.911	9590
348.997	42421
349.083	71035
349.168	10671
349.254	2378
349.340	1836
349.425	1953
349.511	4506
349.597	5173
349.682	13897
349.768	43054
349.854	15109
349.939	3000
350.025	2732
350.110	1638
350.196	1371
350.282	258
350.367	2921
350.453	11627
350.538	10222
350.624	4360
350.709	3532
350.795	1740
350.880	2212
350.966	3893
351.051	9273
351.137	7127
351.222	3589
351.308	14750
351.393	32838
351.479	5795
351.564	1084
351.649	3014
351.735	2128
351.820	1359
351.906	2380
351.991	5733
352.076	25713
352.162	31552
352.247	5557
352.332	4126
352.418	6896
352.503	12207
352.588	54203
352.673	35372
352.759	7870
352.844	3375
352.929	4651
353.014	5937
353.100	4378
353.185	7991
353.270	12875
353.355	10958
353.441	3408
353.526	6542
353.611	12515
353.696	12457
353.781	7612
353.866	1739
353.952	4156
354.037	11522
354.122	26228
354.207	22169
354.292	7496
354.377	3160
354.462	2759
354.547	4054
354.632	4499
354.717	6434
354.802	8655
354.887	3205
354.972	2823
355.057	2082
355.142	2058
355.227	3634
355.312	7783
355.397	17955
355.482	40611
355.567	17599
355.652	14766
355.737	16862
355.822	53783
355.907	34762
355.991	5413
356.076	2077
356.161	2884
356.246	2276
356.331	3186
356.416	14556
356.501	93063
356.585	78403
356.670	9179
356.755	7752
356.840	12983
356.924	68901
357.009	203883
357.094	64111
357.179	13957
357.263	8367
357.348	10201
357.433	8876
357.517	7577
357.602	4865
357.687	4696
357.771	6556
357.856	8393
357.941	9788
358.025	50578
358.110	186459
358.195	72211
358.279	9212
358.364	9445
358.448	38307
358.533	94391
358.617	63857
358.702	63636
358.787	20520
358.871	11995
358.956	9108
359.040	2212
359.125	1560
359.209	2304
359.294	3781
359.378	5966
359.462	8080
359.547	6774
359.631	5083
359.716	2884
359.800	2362
359.885	6362
359.969	2766
360.053	2843
360.138	2314
360.222	6050
360.306	11428
360.391	8625
360.475	11546
360.559	25811
360.644	32839
360.728	25016
360.812	56112
360.896	126468
360.981	46189
361.065	21564
361.149	6155
361.233	5754
361.318	4780
361.402	5957
361.486	4639
361.570	2752
361.654	5682
361.739	20055
361.823	90972
361.907	117499
361.991	16062
362.075	11182
362.159	23821
362.243	14901
362.327	10092
362.411	13231
362.495	9394
362.580	4170
362.664	1729
362.748	1317
362.832	2719
362.916	4558
363.000	23141
363.084	95693
363.168	137262
363.252	27298
363.336	10553
363.420	19686
363.503	69751
363.587	62566
363.671	10368
363.755	6859
363.839	10717
363.923	4374
364.007	13572
364.091	15365
364.175	30802
364.258	98450
364.342	44063
364.426	36090
364.510	19006
364.594	14003
364.677	27785
364.761	118323
364.845	68300
364.929	21916
365.013	16160
365.096	15451
365.180	16956
365.264	35104
365.347	101959
365.431	34591
365.515	8012
365.598	4324
365.682	4973
365.766	9420
365.849	10365
365.933	6782
366.017	9020
366.100	4406
366.184	2666
366.267	4978
366.351	2672
366.435	2352
366.518	1445
366.602	1989
366.685	2597
366.769	4533
366.852	8651
366.936	13905
367.019	7264
367.103	6764
367.186	10976
367.270	2995
367.353	1862
367.436	2633
367.520	1520
367.603	3658
367.687	6441
367.770	13767
367.853	8996
367.937	36565
368.020	49172
368.104	10204
368.187	11492
368.270	15952
368.353	13129
368.437	32505
368.520	86301
368.603	38032
368.687	41992
368.770	64798
368.853	14401
368.936	16373
369.020	12465
369.103	4609
369.186	2614
369.269	3503
369.352	9957
369.436	13484
369.519	7728
369.602	3053
369.685	4882
369.768	4104
369.851	2633
369.934	1684
370.018	4361
370.101	12452
370.184	10531
370.267	6635
370.350	12245
370.433	21459
370.516	61779
370.599	66565
370.682	20177
370.765	36235
370.848	49231
370.931	85140
371.014	26835
371.097	4846
371.180	3836
371.263	2516
371.346	777
371.429	2394
371.511	3306
371.594	8598
371.677	13250
371.760	13260
371.843	13013
371.926	71277
372.009	137041
372.091	39844
372.174	39109
372.257	82412
372.340	26260
372.423	22100
372.505	21822
372.588	9912
372.671	31182
372.754	85267
372.836	36402
372.919	34269
373.002	52416
373.085	14021
373.167	12917
373.250	38616
373.332	81780
373.415	112955
373.498	201776
373.580	66140
373.663	105347
373.746	120721
373.828	25025
373.911	13361
373.993	17714
374.076	61237
374.159	49438
374.241	26735
374.324	71922
374.406	41922
374.489	73988
374.571	175607
374.654	60352
374.736	38243
374.819	116805
374.901	159507
374.983	143680
375.066	22476
375.148	12155
375.231	55226
375.313	81192
375.395	25262
375.478	5440
375.560	5153
375.643	8481
375.725	42548
375.807	153939
375.890	126420
375.972	67183
376.054	37561
376.136	68859
376.219	25002
376.301	49591
376.383	121751
376.465	38920
376.548	26427
376.630	37756
376.712	104105
376.794	38579
376.877	4411
376.959	2152
377.041	5566
377.123	11576
377.205	9903
377.287	1468
377.369	3081
377.452	1981
377.534	2828
377.616	2808
377.698	2463
377.780	1183
377.862	3034
377.944	2841
378.026	975
378.108	2684
378.190	2454
378.272	1598
378.354	1392
378.436	1631
378.518	7101
378.600	22750
378.682	21019
378.764	48609
378.846	33159
378.928	10161
379.010	12173
379.091	5752
379.173	3425
379.255	2334
379.337	6648
379.419	27095
379.501	68416
379.583	22037
379.664	6682
379.746	18062
379.828	48942
379.910	62788
379.991	52395
380.073	7347
380.155	5082
380.237	3277
380.318	2273
380.400	2440
380.482	10704
380.564	14962
380.645	15689
380.727	13036
380.809	6868
380.890	5037
380.972	3144
381.053	3905
381.135	5926
381.217	18440
381.298	49158
381.380	20537
381.461	25583
381.543	111352
381.624	111887
381.706	18008
381.787	10419
381.869	12195
381.951	52436
382.032	168538
382.113	87760
382.195	17476
382.276	13761
382.358	35565
382.439	91901
382.521	106842
382.602	153780
382.684	66896
382.765	128738
382.846	124905
382.928	181849
383.009	85076
383.090	62615
383.172	259819
383.253	368389
383.334	124490
383.416	141310
383.497	59357
383.578	25145
383.659	50340
383.741	216404
383.822	551837
383.903	245805
383.984	100180
384.066	167599
384.147	87539
384.228	17393
384.309	13169
384.390	8793
384.471	6785
384.553	8936
384.634	11991
384.715	12257
384.796	6040
384.877	10314
384.958	45606
385.039	47225
385.120	14361
385.201	7583
385.282	9918
385.363	11241
385.444	7898
385.525	22079
385.606	74568
385.687	52631
385.768	12734
385.849	17554
385.930	79868
386.011	115385
386.092	24776
386.173	5862
386.254	4844
386.335	5419
386.416	6710
386.496	30636
386.577	43818
386.658	15369
386.739	8669
386.820	9073
386.901	6183
386.981	5395
387.062	3745
387.143	11696
387.224	48993
387.304	38591
387.385	12241
387.466	8199
387.547	10883
387.627	6620
387.708	21477
387.789	91479
387.869	97542
387.950	21636
388.031	3103
388.111	3365
388.192	16018
388.273	22258
388.353	9821
388.434	6753
388.514	19757
388.595	89707
388.676	97892
388.756	43566
388.837	43116
388.917	21503
388.998	3176
389.078	4324
389.159	3723
389.239	2864
389.320	8724
389.400	5737
389.480	22116
389.561	49734
389.641	19978
389.722	7581
389.802	12754
389.883	25413
389.963	65104
390.043	39055
390.124	12816
390.204	18885
390.284	53123
390.365	30636
390.445	40925
390.525	86773
390.605	65787
390.686	20231
390.766	6496
390.846	5048
390.927	2206
391.007	2844
391.087	5102
391.167	4570
391.247	3446
391.328	13622
391.408	14989
391.488	7129
391.568	1714
391.648	5403
391.728	7325
391.808	8353
391.888	9483
391.969	29051
392.049	40730
392.129	16574
392.209	24002
392.289	57510
392.369	26785
392.449	23184
392.529	11503
392.609	10803
392.689	19223
392.769	58684
392.849	41822
392.929	34458
393.009	78710
393.089	47456
393.169	36355
393.248	141679
393.328	561350
393.408	527302
393.488	112554
393.568	29337
393.648	13944
393.728	9514
393.807	5865
393.887	6085
393.967	5165
394.047	6328
394.127	6529
394.206	9890
394.286	45881
394.366	194796
394.446	161203
394.525	23367
394.605	6195
394.685	11541
394.764	35288
394.844	57688
394.924	30855
395.003	8037
395.083	5762
395.163	5029
395.242	4313
395.322	5121
395.402	1888
395.481	7058
395.561	26746
395.640	62321
395.720	44193
395.799	72239
395.879	40916
395.958	12731
396.038	59093
396.117	250897
396.197	216671
396.276	46228
396.356	18573
396.435	18282
396.515	11197
396.594	16723
396.673	35752
396.753	163481
396.832	501008
396.912	327794
396.991	68306
397.070	17545
397.150	8225
397.229	6909
397.308	7547
397.388	11007
397.467	5297
397.546	3713
397.625	1339
397.705	7216
397.784	5314
397.863	2173
397.942	1822
398.022	4427
398.101	26948
398.180	63713
398.259	24407
398.338	6450
398.417	3796
398.497	2850
398.576	3079
398.655	990
398.734	1859
398.813	3769
398.892	27323
398.971	71753
399.050	25024
399.129	1758
399.208	1540
399.287	2098
399.366	534
399.445	1275
399.524	1405
399.603	1206
399.682	6746
399.761	28853
399.840	81467
399.919	48717
399.998	4612
400.077	614
400.156	655
400.235	4141
400.313	1451
400.392	3920
400.471	26225
400.550	36614
400.629	7681
400.708	4402
400.786	4563
400.865	14417
400.944	13227
401.023	5882
401.102	24
401.180	1777
401.259	2369
401.338	3222
401.416	4587
401.495	3890
401.574	2231
401.652	2159
401.731	3911
401.810	3363
401.888	288
401.967	31
402.046	1309
402.124	4399
402.203	4408
402.281	3393
402.360	5447
402.438	18439
402.517	9469
402.596	3656
402.674	2649
402.753	1937
402.831	1901
402.910	3784
402.988	22143
403.066	62720
403.145	27588
403.223	21913
403.302	48431
403.380	33446
403.459	31511
403.537	10720
403.615	2675
403.694	-296
403.772	1016
403.850	1017
403.929	527
404.007	1570
404.085	6132
404.164	5853
404.242	1238
404.320	3179
404.398	5780
404.477	30708
404.555	138371
404.633	96439
404.711	10494
404.789	2545
404.868	2716
404.946	872
405.024	397
405.102	954
405.180	-112
405.258	-213
405.336	1747
405.415	2365
405.493	6072
405.571	4958
405.649	1149
405.727	760
405.805	4257
405.883	3378
405.961	4114
406.039	3573
406.117	1223
406.195	5658
406.273	35226
406.351	112441
406.429	52792
406.507	7820
406.585	1305
406.663	2530
406.740	3950
406.818	2614
406.896	1472
406.974	2754
407.052	11391
407.130	69329
407.208	78683
407.285	12701
407.363	1456
407.441	2394
407.519	1267
407.596	2263
407.674	4720
407.752	8396
407.830	13353
407.907	7810
407.985	2123
408.063	1274
408.141	666
408.218	4576
408.296	3318
408.373	2378
408.451	2622
408.529	2619
408.606	218
408.684	152
408.762	-51
408.839	165
408.917	-155
408.994	54
409.072	-865
409.149	301
409.227	2096
409.304	2835
409.382	342
409.459	1245
409.537	3230
409.614	2578
409.692	819
409.769	1823
409.846	3492
409.924	5639
410.001	1110
410.079	1284
410.156	862
410.233	1469
410.311	676
410.388	900
410.465	1700
410.543	2309
410.620	161
410.697	2647
410.775	1914
410.852	280
410.929	1912
411.006	4370
411.083	2039
411.161	6301
411.238	6673
411.315	2708
411.392	580
411.469	3107
411.547	2776
411.624	-146
411.701	-203
411.778	2480
411.855	7285
411.932	3095
412.009	-188
412.086	1398
412.163	1163
412.240	2711
412.317	3579
412.394	2809
412.471	-111
412.548	1007
412.625	853
412.702	2614
412.779	4961
412.856	3107
412.933	-13
413.010	1117
413.087	3731
413.164	24030
413.241	28520
413.318	6074
413.395	4512
413.471	6012
413.548	1187
413.625	1420
413.702	2030
413.779	1737
413.855	-284
413.932	-293
414.009	-967
414.086	402
414.162	518
414.239	4540
414.316	24816
414.393	49769
414.469	12414
414.546	1318
414.623	375
414.699	194
414.776	1136
414.853	423
414.929	1273
415.006	1299
415.082	2154
415.159	826
415.236	565
415.312	2082
415.389	4988
415.465	5954
415.542	2564
415.618	973
415.695	3616
415.771	2262
415.848	1401
415.924	2111
416.000	492
416.077	1213
416.153	-1352
416.230	-722
416.306	-486
416.383	1604
416.459	582
416.535	182
416.612	35
416.688	187
416.764	609
416.841	259
416.917	390
416.993	874
417.069	2140
417.146	2511
417.222	2434
417.298	1901
417.374	26
417.451	1388
417.527	2040
417.603	2647
417.679	1052
417.755	784
417.831	-819
417.908	812
417.984	-147
418.060	76
418.136	5580
418.212	6712
418.288	1227
418.364	1373
418.440	1063
418.516	3694
418.592	5083
418.668	11139
418.744	14601
418.820	9631
418.896	1606
418.972	57
419.048	813
419.124	6842
419.200	2493
419.276	547
419.352	-1454
419.428	530
419.504	722
419.579	2580
419.655	349
419.731	2243
419.807	10366
419.883	18259
419.959	10343
420.034	2873
420.110	8273
420.186	33227
420.262	19744
420.337	3394
420.413	1649
420.489	894
420.565	1081
420.640	560
420.716	1104
420.792	-194
420.867	548
420.943	632
421.019	3824
421.094	2371
421.170	449
421.245	-254
421.321	157
421.397	-17
421.472	1248
421.548	2020
421.623	2822
421.699	2239
421.774	1396
421.850	888
421.925	4689
422.001	3417
422.076	1572
422.152	1966
422.227	5079
422.302	5179
422.378	6936
422.453	14615
422.529	44814
422.604	162512
422.679	263632
422.755	127729
422.830	31811
422.905	11620
422.981	4824
423.056	3242
423.131	2476
423.207	2229
423.282	2783
423.357	8365
423.432	4484
423.508	6820
423.583	14364
423.658	8907
423.733	2024
423.808	2967
423.883	4126
423.959	2895
424.034	472
424.109	954
424.184	-1349
424.259	124
424.334	-429
424.409	-369
424.484	-167
424.559	1010
424.634	1109
424.709	3413
424.784	2474
424.859	2447
424.934	4637
425.009	24791
425.084	35035
425.159	10197
425.234	483
425.309	-339
425.384	324
425.459	-227
425.534	871
425.609	957
425.683	-45
425.758	816
425.833	834
425.908	3342
425.983	15577
426.058	38026
426.132	12397
426.207	2673
426.282	5820
426.357	3212
426.431	188
426.506	1570
426.581	778
426.655	1051
426.730	-396
426.805	886
426.879	1240
426.954	2014
427.029	7009
427.103	44126
427.178	94584
427.253	34549
427.327	3086
427.402	3775
427.476	6111
427.551	1421
427.625	1953
427.700	962
427.774	253
427.849	2650
427.923	-10
427.998	507
428.072	933
428.147	5230
428.221	21548
428.296	47199
428.370	17754
428.444	3150
428.519	6073
428.593	12718
428.667	10403
428.742	13838
428.816	12290
428.890	36668
428.965	42170
429.039	17373
429.113	14424
429.188	3851
429.262	1130
429.336	6181
429.410	18344
429.485	10463
429.559	11638
429.633	7026
429.707	2205
429.781	9464
429.855	45571
429.930	57588
430.004	47038
430.078	68418
430.152	49714
430.226	72964
430.300	57787
430.374	7537
430.448	4108
430.522	26247
430.596	64428
430.670	34725
430.744	82874
430.818	107835
430.892	19279
430.966	3495
431.040	929
431.114	-85
431.188	381
431.262	1460
431.336	1396
431.410	8164
431.484	17823
431.557	9879
431.631	790
431.705	1751
431.779	8850
431.853	39362
431.927	22175
432.000	2125
432.074	492
432.148	2480
432.222	1081
432.295	635
432.369	609
432.443	5711
432.516	44570
432.590	95571
432.664	29028
432.737	2694
432.811	330
432.885	61
432.958	303
433.032	-237
433.106	-329
433.179	-435
433.253	-626
433.326	-946
433.400	-1269
433.473	-34
433.547	-822
433.620	529
433.694	3006
433.767	4427
433.841	1228
433.914	-243
433.988	-707
434.061	602
434.134	-89
434.208	-806
434.281	-1277
434.355	-872
434.428	-585
434.501	-83
434.575	-599
434.648	-211
434.721	-1176
434.795	-706
434.868	-1079
434.941	-603
435.014	-1536
435.088	-512
435.161	1468
435.234	3088
435.307	4302
435.381	1547
435.454	103
435.527	1533
435.600	-284
435.673	32
435.746	-442
435.819	-855
435.892	-1059
435.966	-1195
436.039	-823
436.112	274
436.185	-1477
436.258	322
436.331	-1403
436.404	-579
436.477	-1214
436.550	-1259
436.623	-774
436.696	-437
436.769	283
436.842	720
436.915	752
436.987	1969
437.060	-149
437.133	-79
437.206	-1451
437.279	429
437.352	-901
437.425	-335
437.498	825
437.570	4401
437.643	2794
437.716	-507
437.789	-130
437.861	3917
437.934	10501
438.007	3690
438.080	160
438.152	1752
438.225	6713
438.298	60445
438.370	139532
438.443	51100
438.516	10245
438.588	1586
438.661	-179
438.734	13
438.806	398
438.879	1008
438.951	2036
439.024	5602
439.096	868
439.169	26
439.241	-1113
439.314	-24
439.386	1835
439.459	6527
439.531	9628
439.604	2518
439.676	-289
439.749	-1467
439.821	-1335
439.893	97
439.966	626
440.038	1833
440.110	724
440.183	356
440.255	-133
440.327	3252
440.400	23856
440.472	89615
440.544	51635
440.617	6836
440.689	4368
440.761	5988
440.833	9027
440.905	4826
440.978	-635
441.050	174
441.122	-590
441.194	-421
441.266	-252
441.338	-541
441.411	3611
441.483	27242
441.555	36897
441.627	8042
441.699	3969
441.771	3492
441.843	512
441.915	-402
441.987	-334
442.059	-534
442.131	1157
442.203	2084
442.275	2797
442.347	2161
442.419	2603
442.491	16310
442.563	38057
442.635	19929
442.706	17152
442.778	12200
442.850	1346
442.922	595
442.994	1534
443.066	2968
443.137	1278
443.209	655
443.281	1619
443.353	5505
443.425	24290
443.496	76707
443.568	66868
443.640	22178
443.711	4799
443.783	1520
443.855	109
443.926	-178
443.998	457
444.070	1491
444.141	1638
444.213	2840
444.285	5354
444.356	6407
444.428	4935
444.499	909
444.571	24
444.642	492
444.714	811
444.785	3289
444.857	5641
444.928	12639
445.000	5933
445.071	8522
445.143	8089
445.214	4264
445.285	9044
445.357	23358
445.428	62703
445.500	131073
445.571	77431
445.642	34034
445.714	19594
445.785	19159
445.856	5649
445.928	5293
445.999	3653
446.070	3023
446.141	3643
446.213	4755
446.284	1638
446.355	2333
446.426	1031
446.497	2046
446.569	3834
446.640	5977
446.711	4900
446.782	1657
446.853	5706
446.924	5013
446.995	2021
447.066	1817
447.138	3821
447.209	1407
447.280	-433
447.351	-258
447.422	-535
447.493	981
447.564	2706
447.635	4386
447.706	1116
447.777	-286
447.847	-1097
447.918	1038
447.989	1404
448.060	2958
448.131	8577
448.202	7508
448.273	4288
448.344	1073
448.414	167
448.485	919
448.556	598
448.627	-877
448.698	-508
448.768	-754
448.839	-366
448.910	3375
448.981	3016
449.051	1350
449.122	-1162
449.193	29
449.263	-679
449.334	-106
449.405	939
449.475	4904
449.546	3426
449.616	4633
449.687	2105
449.758	274
449.828	-388
449.899	-168
449.969	-1363
450.040	-3
450.110	1911
450.181	3768
450.251	329
450.322	-88
450.392	-475
450.463	-157
450.533	-1298
450.604	-10
450.674	-1061
450.744	171
450.815	-935
450.885	58
450.955	-2
451.026	-291
451.096	-514
451.166	536
451.237	5573
451.307	12600
451.377	3627
451.447	-675
451.518	-955
451.588	-591
451.658	-399
451.728	2363
451.799	14870
451.869	13907
451.939	1783
452.009	556
452.079	-1628
452.149	-247
452.219	3504
452.289	17307
452.360	10757
452.430	883
452.500	309
452.570	2326
452.640	3820
452.710	11844
452.780	16142
452.850	13386
452.920	12081
452.990	4174
453.060	1521
453.129	3258
453.199	5094
453.269	25262
453.339	46348
453.409	67486
453.479	72108
453.549	99120
453.619	95861
453.688	35802
453.758	4084
453.828	1369
453.898	952
453.968	447
454.037	0
454.087	245
454.107	328
454.168	-1059
454.177	-1289
454.247	-255
454.249	-225
454.316	31
454.330	344
454.386	1444
454.411	4122
454.456	8026
454.492	9539
454.525	10863
454.574	5178
454.595	2751
454.655	843
454.665	579
454.734	1522
454.736	1706
454.804	6504
454.817	8816
454.873	16552
454.898	18079
454.943	20099
454.979	14303
455.013	9323
455.060	4929
455.082	3484
455.141	4549
455.152	4506
455.221	14419
455.222	14634
455.291	19944
455.303	18214
455.360	10671
455.384	10050
455.430	9030
455.465	9646
455.499	9676
455.546	14453
455.569	15904
455.627	9461
455.638	8470
455.707	1627
455.708	1640
455.777	172
455.789	336
455.846	951
455.869	679
455.916	246
455.950	650
455.985	995
456.031	1094
456.054	1021
456.112	401
456.124	302
456.193	908
456.193	888
456.262	1923
456.274	2264
456.332	3526
456.355	4211
456.401	4613
456.436	3356
456.470	2294
456.516	947
456.540	334
456.597	-43
456.609	-70
456.678	755
456.678	738
456.747	477
456.759	337
456.817	-205
456.840	245
456.886	980
456.920	877
456.955	1032
457.001	1326
457.024	1738
457.082	3073
457.093	3303
457.162	7185
457.163	7238
457.232	8462
457.243	7851
457.301	4210
457.324	2782
457.370	1195
457.405	1176
457.439	1146
457.485	1128
457.508	1240
457.566	1962
457.577	2103
457.646	2068
457.647	2105
457.715	6245
457.727	6915
457.784	11110
457.808	13733
457.853	16134
457.889	18015
457.922	15707
457.969	10017
457.991	11900
458.050	18426
458.060	19442
458.129	30155
458.130	30512
458.198	21835
458.211	19222
458.267	9914
458.292	5872
458.336	4438
458.372	4686
458.405	8304
458.453	13515
458.474	18451
458.533	35447
458.543	36487
458.611	48110
458.614	48524
458.680	22790
458.694	16170
458.749	7681
458.775	5008
458.818	3265
458.855	2730
458.887	2693
458.936	2440
458.955	2269
459.016	2576
459.024	2647
459.093	3435
459.097	3446
459.162	3485
459.177	3607
459.230	4695
459.257	5535
459.299	5917
459.338	5747
459.368	5902
459.418	6430
459.437	5756
459.499	3622
459.505	3634
459.574	3212
459.579	3213
459.643	2584
459.659	2439
459.711	2800
459.740	3095
459.780	3415
459.820	4033
459.849	4245
459.900	4310
459.917	4182
459.981	3378
459.986	3332
460.054	3141
460.061	3114
460.123	3481
460.141	3732
460.191	5570
460.222	6583
460.260	7178
460.302	8427
460.328	7538
460.382	4509
460.397	4325
460.462	3466
460.465	3456
460.534	4437
460.543	4520
460.602	8344
460.623	9856
460.671	14850
460.703	18526
460.739	16205
460.783	12684
460.808	10330
460.864	4308
460.876	4210
460.944	3877
460.945	3867
461.013	4070
461.024	4009
461.081	4635
461.104	5333
461.150	5259
461.184	4868
461.218	4590
461.264	3629
461.286	3697
461.345	4597
461.355	4582
461.423	4429
461.425	4419
461.491	4174
461.505	4276
461.559	10055
461.585	12561
461.628	21459
461.665	30770
461.696	34706
461.745	42333
461.764	36611
461.825	11342
461.832	10949
461.901	7088
461.905	7083
461.969	6056
461.985	5626
462.037	5117
462.065	4850
462.105	5012
462.145	5738
462.173	9761
462.225	16951
462.241	18698
462.305	27237
462.310	26487
462.378	14159
462.385	12336
462.446	7081
462.465	6070
462.514	5646
462.545	5555
462.582	5239
462.625	4831
462.650	4685
462.705	4282
462.718	4464
462.785	5671
462.786	5740
462.854	9789
462.865	10498
462.922	13283
462.945	14360
462.990	10103
463.025	6175
463.058	5209
463.104	4244
463.126	4355
463.184	4739
463.194	4804
463.262	5087
463.264	5115
463.330	5353
463.344	5323
463.398	6593
463.424	7058
463.466	6771
463.504	6879
463.533	6911
463.583	6559
463.601	6979
463.663	8500
463.669	8769
463.737	12257
463.743	12557
463.805	19348
463.823	21327
463.873	31509
463.903	37893
463.940	40424
463.982	43868
464.008	35105
464.062	13783
464.076	12621
464.142	6761
464.144	6705
464.211	5726
464.221	5641
464.279	6338
464.301	6581
464.347	7740
464.381	8707
464.414	9397
464.461	10305
464.482	10916
464.540	12628
464.550	12114
464.617	7798
464.620	7648
464.685	10381
464.699	10960
464.753	11176
464.779	11426
464.820	11311
464.859	10661
464.888	10481
464.938	10659
464.956	11084
465.018	12451
465.023	12194
465.091	8550
465.098	8134
465.158	8383
465.177	8506
465.226	8209
465.257	7978
465.293	9012
465.336	10250
465.361	11727
465.416	15081
465.428	16165
465.495	21915
465.496	22041
465.563	35993
465.575	38453
465.631	46768
465.654	50297
465.698	30994
465.734	14050
465.765	11537
465.813	7953
465.833	7737
465.893	7586
465.900	7642
465.968	7998
465.972	8009
466.035	6967
466.052	6691
466.102	8068
466.131	8780
466.170	8045
466.210	7251
466.237	7712
466.290	8570
466.304	8720
466.369	9335
466.372	9420
466.439	11344
466.449	11598
466.506	12417
466.528	12705
466.573	18557
466.607	22894
466.641	36672
466.687	55847
466.708	62646
466.766	81430
466.775	75076
466.842	25741
466.845	23354
466.909	14920
466.925	12941
466.977	12176
467.004	11802
467.044	12009
467.083	12220
467.111	12783
467.163	13732
467.178	14152
467.242	15770
467.245	15751
467.312	14686
467.321	14515
467.379	14567
467.400	14539
467.446	16297
467.480	17512
467.559	14540
467.638	12078
467.717	13190
467.796	16977
467.875	19813
467.955	17559
468.034	24784
468.113	63285
468.192	94171
468.271	23988
468.350	15495
468.429	19077
468.508	20385
468.588	15422
468.667	13432
468.746	11736
468.825	12208
468.904	11438
468.983	15434
469.062	25258
469.141	32236
469.220	11818
469.299	10201
469.378	11470
469.456	14004
469.535	11663
469.614	12223
469.693	13375
469.772	19013
469.851	27626
469.930	20260
470.009	13972
470.088	15376
470.166	21300
470.245	39165
470.324	48523
470.403	27917
470.482	16347
470.560	13556
470.639	15548
470.718	20096
470.797	13934
470.875	16176
470.954	24646
471.033	25645
471.111	11174
471.190	9930
471.269	8670
471.347	8601
471.426	10091
471.505	11962
471.583	10725
471.662	10213
471.740	10195
471.819	9750
471.898	9134
471.976	9427
472.055	9991
472.133	11415
472.212	17048
472.290	17705
472.369	11349
472.447	9315
472.526	9522
472.604	10412
472.683	12642
472.761	13817
472.839	12490
472.918	10862
472.996	11623
473.075	13799
473.153	12441
473.231	10306
473.310	14052
473.388	14376
473.466	11533
473.545	14293
473.623	22111
473.701	23524
473.780	11121
473.858	9499
473.936	12357
474.014	11340
474.093	12598
474.171	19613
474.249	29743
474.327	19445
474.405	9379
474.484	10613
474.562	10682
474.640	10612
474.718	11872
474.796	10803
474.874	9741
474.952	9355
475.030	8933
475.108	10317
475.187	11859
475.265	14221
475.343	26377
475.421	30239
475.499	10436
475.577	11520
475.655	14903
475.733	34795
475.811	64411
475.889	57992
475.966	38773
476.044	12639
476.122	20438
476.200	27406
476.278	19121
476.356	10125
476.434	11931
476.512	17135
476.590	25675
476.667	21041
476.745	9646
476.823	11518
476.901	10156
476.979	10826
477.056	10688
477.134	11226
477.212	10645
477.290	11363
477.367	8382
477.445	8835
477.523	9575
477.601	10411
477.678	10322
477.756	13476
477.834	14382
477.911	9775
477.989	10468
478.066	9969
478.144	12309
478.222	18464
478.299	36928
478.377	29966
478.454	9369
478.532	9179
478.609	11943
478.687	12558
478.764	9310
478.842	10362
478.919	13401
478.997	12261
479.074	8614
479.152	12744
479.229	15868
479.307	10305
479.384	7613
479.461	8421
479.539	9615
479.616	12251
479.694	10622
479.771	11069
479.848	11796
479.926	16636
480.003	20173
480.080	9959
480.157	9529
480.235	8561
480.312	9245
480.389	10389
480.467	20477
480.544	26355
480.621	11895
480.698	11701
480.775	13980
480.853	14141
480.930	9257
481.007	10839
481.084	12583
481.161	13107
481.238	12668
481.315	9070
481.392	8213
481.470	8474
481.547	8533
481.624	8330
481.701	9200
481.778	9335
481.855	11035
481.932	19224
482.009	34214
482.086	25128
482.163	12416
482.240	23080
482.317	46424
482.393	33214
482.470	11497
482.547	11384
482.624	10092
482.701	11647
482.778	10058
482.855	8682
482.932	7753
483.009	8669
483.085	11264
483.162	14198
483.239	14295
483.316	9771
483.393	10706
483.469	9756
483.546	12051
483.623	13546
483.699	9617
483.776	10937
483.853	12504
483.930	18408
484.006	50900
484.083	91336
484.160	33371
484.236	31644
484.313	25670
484.389	21566
484.466	18376
484.543	18086
484.619	19062
484.696	22445
484.772	22814
484.849	25445
484.925	17796
485.002	17665
485.078	20448
485.155	22457
485.231	16664
485.308	15808
485.384	17495
485.461	23740
485.537	47594
485.614	61529
485.690	20871
485.766	17440
485.843	19781
485.919	38722
485.995	41508
486.072	15221
486.148	14604
486.224	14646
486.301	16704
486.377	22235
486.453	24694
486.530	19611
486.606	21823
486.682	24915
486.758	38135
486.835	49049
486.911	37811
486.987	68794
487.063	89178
487.139	122284
487.215	74454
487.292	26752
487.368	19175
487.444	24314
487.520	34618
487.596	33175
487.672	46114
487.748	143080
487.824	214196
487.900	58178
487.976	23355
488.052	25215
488.128	34024
488.204	27395
488.280	18934
488.356	23361
488.432	57386
488.508	99406
488.584	32972
488.660	19247
488.736	19655
488.812	21531
488.888	29184
488.964	42942
489.039	116257
489.115	193602
489.191	103468
489.267	20708
489.343	17364
489.418	14442
489.494	12915
489.570	12356
489.646	15123
489.722	14953
489.797	14994
489.873	26174
489.949	69695
490.024	62727
490.100	14739
490.176	15156
490.251	22891
490.327	35541
490.403	16567
490.478	13107
490.554	10851
490.629	10803
490.705	11962
490.781	13204
490.856	14188
490.932	18103
491.007	19134
491.083	17656
491.158	14071
491.234	20760
491.309	52509
491.385	57372
491.460	15882
491.536	18295
491.611	16188
491.686	20379
491.762	30421
491.837	76373
491.913	128026
491.988	187248
492.063	241709
492.139	52422
492.214	27272
492.289	12670
492.365	12417
492.440	16981
492.515	17333
492.590	15609
492.666	11564
492.741	18614
492.816	30982
492.891	15884
492.967	11245
493.042	10527
493.117	10112
493.192	11222
493.267	14990
493.342	33063
493.418	40878
493.493	12785
493.568	9495
493.643	10243
493.718	15130
493.793	29082
493.868	36008
493.943	20527
494.018	11949
494.093	11075
494.168	11597
494.243	9838
494.318	8747
494.393	8591
494.468	9093
494.543	10816
494.618	13119
494.693	11201
494.768	9524
494.842	11315
494.917	10019
494.992	10743
495.067	10128
495.142	9755
495.217	11234
495.292	13513
495.366	15799
495.441	21459
495.516	28479
495.591	41893
495.665	167223
495.740	430137
495.815	159932
495.890	20807
495.964	12538
496.039	16022
496.114	12215
496.188	13343
496.263	13260
496.338	12692
496.412	15000
496.487	18762
496.561	22916
496.636	23885
496.710	16121
496.785	18444
496.860	20415
496.934	14999
497.009	15450
497.083	13267
497.158	12586
497.232	17340
497.307	24508
497.381	17522
497.455	21843
497.530	30350
497.604	20247
497.679	21098
497.753	36028
497.827	50137
497.902	43442
497.976	47979
498.050	114951
498.125	527366
498.199	572486
498.273	83845
498.348	51193
498.422	36406
498.496	35328
498.570	34294
498.645	21992
498.719	21650
498.793	30163
498.867	51632
498.941	66225
499.016	191448
499.090	591753
499.164	219868
499.238	21217
499.312	17953
499.386	24716
499.460	22242
499.534	19966
499.609	26293
499.683	39436
499.757	39954
499.831	79611
499.905	369194
499.979	372965
500.053	55228
500.127	53995
500.201	41823
500.275	22672
500.349	22240
500.422	25461
500.496	42764
500.570	92431
500.644	203803
500.718	399933
500.792	95443
500.866	20761
500.940	26594
501.013	23176
501.087	23845
501.161	44749
501.235	57299
501.309	107160
501.382	325998
501.456	310440
501.530	64238
501.603	104077
501.677	43757
501.751	16177
501.825	22026
501.898	37118
501.972	126165
502.046	85818
502.119	21616
502.193	52657
502.266	141482
502.340	70053
502.413	53180
502.487	117856
502.561	71199
502.634	22281
502.708	17702
502.781	15519
502.855	12759
502.928	8719
503.002	10795
503.075	10243
503.149	12040
503.222	11511
503.295	13623
503.369	17853
503.442	25021
503.516	83661
503.589	244136
503.662	165216
503.736	46480
503.809	108704
503.882	92502
503.956	125685
504.029	127483
504.102	91672
504.175	117400
504.249	33079
504.322	19272
504.395	17124
504.468	12334
504.542	11501
504.615	7796
504.688	8770
504.761	8703
504.834	13802
504.907	18816
504.980	35621
505.053	15834
505.127	19816
505.200	23185
505.273	19637
505.346	11487
505.419	8380
505.492	8300
505.565	5883
505.638	7527
505.711	6010
505.784	5885
505.857	7142
505.930	8770
506.003	6832
506.076	10633
506.149	13105
506.221	18048
506.294	17078
506.367	42170
506.440	173638
506.513	101316
506.586	19928
506.659	12366
506.731	9028
506.804	13334
506.877	23487
506.950	13799
507.022	8789
507.095	11957
507.168	17748
507.241	12495
507.313	7852
507.386	10790
507.459	19805
507.531	11290
507.604	7841
507.677	7875
507.749	5557
507.822	12400
507.894	23871
507.967	22359
508.040	9988
508.112	10276
508.185	9084
508.257	9908
508.330	19508
508.402	9666
508.475	8705
508.547	10659
508.620	9383
508.692	19004
508.765	11131
508.837	6168
508.909	6665
508.982	7032
509.054	11192
509.127	8768
509.199	6561
509.271	5454
509.344	5795
509.416	6379
509.488	5858
509.560	7844
509.633	9134
509.705	12699
509.777	10113
509.849	19332
509.922	10416
509.994	6320
510.066	6671
510.138	5693
510.210	13163
510.283	10751
510.355	9162
510.427	9423
510.499	8039
510.571	8057
510.643	8084
510.715	22683
510.787	18645
510.859	10420
510.931	13659
511.003	21828
511.076	18020
511.148	7661
511.219	7741
511.291	17025
511.363	22045
511.435	8012
511.507	5411
511.579	6891
511.651	7639
511.723	6613
511.795	7157
511.867	7216
511.939	9691
512.010	28022
512.082	24736
512.154	10185
512.226	8325
512.298	12346
512.369	18936
512.441	15622
512.513	19308
512.585	11549
512.656	11670
512.728	15654
512.800	8309
512.871	9773
512.943	9966
513.015	7333
513.086	9128
513.158	11942
513.230	12293
513.301	23316
513.373	32040
513.444	13141
513.516	10144
513.588	9411
513.659	12736
513.731	19624
513.802	14865
513.874	39154
513.945	80287
514.016	21067
514.088	9272
514.159	10897
514.231	18652
514.302	20380
514.374	11680
514.445	10923
514.516	31292
514.588	22478
514.659	12711
514.730	27712
514.802	24200
514.873	12348
514.944	12182
515.016	11944
515.087	15294
515.158	19901
515.229	29053
515.301	11594
515.372	13878
515.443	9272
515.514	8025
515.585	6918
515.656	8298
515.728	8714
515.799	7523
515.870	10386
515.941	11275
516.012	10787
516.083	13828
516.154	18306
516.225	32398
516.296	29320
516.367	26064
516.438	34433
516.509	46398
516.580	64668
516.651	207722
516.722	831905
516.793	330047
516.864	62242
516.935	61125
517.006	70445
517.077	97159
517.148	213384
517.219	867896
517.289	1345695
517.360	295783
517.431	91580
517.502	26183
517.573	24098
517.643	20828
517.714	22581
517.785	24987
517.856	29958
517.926	40552
517.997	53389
518.068	70370
518.138	97052
518.209	139059
518.280	513743
518.350	2042849
518.421	729920
518.492	79584
518.562	40394
518.633	35205
518.703	30927
518.774	50073
518.845	126742
518.915	121191
518.986	37708
519.056	33726
519.127	62697
519.197	91710
519.268	193630
519.338	126255
519.408	28600
519.479	38915
519.549	28944
519.620	15886
519.690	10868
519.760	10964
519.831	13693
519.901	13403
519.971	10331
520.042	11253
520.112	13911
520.182	17675
520.253	21945
520.323	10181
520.393	11093
520.463	16638
520.534	10099
520.604	22046
520.674	14914
520.744	15422
520.814	27270
520.885	29874
520.955	48186
521.025	213143
521.095	90619
521.165	15354
521.235	11799
521.305	9218
521.375	9855
521.445	12123
521.515	20013
521.585	22914
521.655	21102
521.725	16460
521.795	13338
521.865	6244
521.935	17478
522.005	14495
522.075	9098
522.145	11441
522.215	12574
522.285	20107
522.355	27106
522.424	58116
522.494	50402
522.564	25389
522.634	55807
522.704	186184
522.774	65118
522.843	14455
522.913	13823
522.983	20330
523.053	14207
523.122	13517
523.192	21931
523.262	100791
523.331	92088
523.401	14126
523.471	8278
523.540	10235
523.610	6464
523.680	6495
523.749	7415
523.819	10413
523.888	11111
523.958	5864
524.027	7689
524.097	9191
524.166	8467
524.236	10668
524.305	10653
524.375	8090
524.444	5625
524.514	8714
524.583	8430
524.653	11522
524.722	14731
524.791	8044
524.861	9643
524.930	7089
524.999	9459
525.069	16367
525.138	10290
525.207	14579
525.277	10306
525.346	9159
525.415	8728
525.484	10013
525.554	12368
525.623	12982
525.692	10919
525.761	12253
525.830	14232
525.900	16963
525.969	27149
526.038	40083
526.107	75334
526.176	230005
526.245	177331
526.314	64984
526.383	124659
526.452	153756
526.522	277693
526.591	272052
526.660	109297
526.729	56754
526.797	55109
526.867	107053
526.935	500703
527.004	751265
527.073	346483
527.142	32848
527.211	16808
527.280	17171
527.349	18482
527.418	7560
527.487	10202
527.555	6853
527.624	6929
527.693	5224
527.762	7848
527.831	6430
527.899	7852
527.968	6723
528.037	6657
528.106	11113
528.174	27221
528.243	18745
528.312	29285
528.380	44466
528.449	10605
528.518	8702
528.586	4056
528.655	5919
528.723	6029
528.792	5166
528.861	6608
528.929	4750
528.998	6579
529.066	3769
529.135	4669
529.203	4896
529.272	3989
529.340	5421
529.409	7034
529.477	4767
529.545	8165
529.614	10707
529.682	7864
529.751	13406
529.819	12406
529.887	8383
529.956	4698
530.024	6201
530.092	4162
530.161	8754
530.229	19683
530.297	7924
530.365	6027
530.434	3899
530.502	3955
530.570	4507
530.638	2987
530.707	5991
530.775	7812
530.843	3750
530.911	4238
530.979	4020
531.047	4130
531.115	4429
531.183	4081
531.252	4765
531.320	5393
531.388	3631
531.456	5356
531.524	2267
531.592	5507
531.660	7044
531.728	5022
531.796	4212
531.864	4657
531.932	5578
532.000	5287
532.067	6418
532.135	8246
532.203	10120
532.271	9703
532.339	22557
532.407	77513
532.475	42328
532.542	17972
532.610	19217
532.678	24273
532.746	118777
532.814	332652
532.881	76688
532.949	12151
533.017	7624
533.084	7136
533.152	5454
533.220	6239
533.287	8101
533.355	6037
533.423	5314
533.490	4119
533.558	5665
533.625	5628
533.693	6771
533.761	6949
533.828	7577
533.896	6329
533.963	22205
534.031	26927
534.098	39632
534.166	14869
534.233	5555
534.300	7775
534.368	6469
534.435	6586
534.503	6358
534.570	7568
534.637	8291
534.705	10099
534.772	12015
534.840	19693
534.907	101391
534.974	122494
535.041	14986
535.109	12434
535.176	6454
535.243	6718
535.310	7045
535.378	6178
535.445	5592
535.512	4772
535.579	5879
535.646	4954
535.714	5432
535.781	6979
535.848	6096
535.915	6877
535.982	5683
536.049	6683
536.116	7693
536.183	6729
536.250	7023
536.317	8118
536.384	10532
536.451	20101
536.518	23295
536.585	11143
536.652	17184
536.719	30334
536.786	23337
536.853	15932
536.920	25810
536.987	46983
537.053	39227
537.120	159826
537.187	135280
537.254	12488
537.321	8106
537.388	10161
537.454	6306
537.521	6021
537.588	6296
537.654	7852
537.721	7840
537.788	9089
537.855	6577
537.921	8910
537.988	7599
538.055	8925
538.121	8477
538.188	9115
538.254	17250
538.321	47694
538.388	27640
538.454	9582
538.521	7723
538.587	7088
538.654	6937
538.720	6811
538.787	7334
538.853	8609
538.920	12518
538.986	12881
539.053	9311
539.119	11012
539.185	9419
539.252	12885
539.318	23351
539.385	15828
539.451	10522
539.517	12220
539.583	15151
539.650	38920
539.716	117861
539.782	29391
539.849	10983
539.915	10426
539.981	11179
540.047	15050
540.114	12121
540.180	13744
540.246	12844
540.312	18644
540.378	45709
540.444	47151
540.510	42200
540.576	133502
540.643	38040
540.709	9708
540.775	9747
540.841	8699
540.907	11893
540.973	18273
541.039	19257
541.105	25142
541.171	10655
541.237	9258
541.303	9845
541.369	12769
541.435	17334
541.500	40847
541.566	24319
541.632	9043
541.698	7500
541.764	8403
541.830	7309
541.896	7643
541.961	8740
542.027	9109
542.093	8507
542.159	10276
542.224	10265
542.290	16917
542.356	36535
542.421	48676
542.487	17436
542.553	10231
542.618	11754
542.684	10683
542.750	11257
542.815	12950
542.881	25762
542.947	112572
543.012	79864
543.078	11769
543.143	8335
543.209	9756
543.274	10248
543.340	13099
543.405	37575
543.471	66738
543.536	12700
543.602	9548
543.667	6986
543.732	7442
543.798	6311
543.863	8249
543.928	6345
543.994	5858
544.059	6774
544.124	7883
544.190	6336
544.255	8538
544.320	9293
544.386	10579
544.451	17328
544.516	22159
544.581	18487
544.646	65402
544.712	107331
544.777	18772
544.842	11849
544.907	12190
544.972	9661
545.037	10011
545.102	11316
545.168	11106
545.233	12517
545.298	14431
545.363	15333
545.428	17547
545.493	36643
545.558	93680
545.623	32446
545.688	12126
545.753	11090
545.818	10693
545.883	10560
545.947	10610
546.012	12494
546.077	13182
546.142	12630
546.207	12901
546.272	20059
546.337	21697
546.401	14857
546.466	12400
546.531	11730
546.596	14715
546.661	14246
546.725	13675
546.790	11327
546.855	14424
546.919	12024
546.984	15183
547.049	16367
547.113	20879
547.178	18162
547.243	22199
547.307	24780
547.372	29842
547.436	31783
547.501	24478
547.565	27238
547.630	31817
547.695	30543
547.759	31677
547.823	27846
547.888	24013
547.952	24871
548.017	25892
548.081	29446
548.146	36927
548.210	33014
548.274	26828
548.339	27487
548.403	24816
548.468	23679
548.532	23043
548.596	22701
548.660	23560
548.725	28503
548.789	33302
548.853	32872
548.917	27404
548.982	33310
549.046	33764
549.110	21391
549.174	22483
549.238	24629
549.303	25116
549.367	28766
549.431	25876
549.495	24431
549.559	23462
549.623	27696
549.687	32648
549.751	42180
549.815	37394
549.879	35391
549.943	33040
550.007	35185
550.071	36523
550.135	39488
550.199	33137
550.263	30530
550.327	31203
550.391	38078
550.455	34666
550.519	33913
550.582	36857
550.646	47513
550.710	49487
550.774	39737
550.838	40339
550.901	39403
550.965	43266
551.029	44710
551.093	50553
551.156	58780
551.220	94146
551.284	116887
551.347	63918
551.411	85005
551.475	96700
551.538	45468
551.602	36656
551.666	37231
551.729	32475
551.793	31299
551.856	31540
551.920	29844
551.983	31917
552.047	30543
552.110	31720
552.174	29660
552.237	31906
552.301	30432
552.364	28673
552.428	28089
552.491	30308
552.554	31148
552.618	31770
552.681	34066
552.745	36918
552.808	62033
552.871	82819
552.934	43268
552.998	31505
553.061	31089
553.124	28709
553.187	27181
553.251	28505
553.314	29407
553.377	27614
553.440	30929
553.503	35430
553.567	38743
553.630	30077
553.693	27960
553.756	29379
553.819	27621
553.882	26794
553.945	25933
554.008	25267
554.071	25624
554.134	26154
554.197	24235
554.260	24921
554.323	26904
554.386	26280
554.449	27972
554.512	26217
554.575	24674
554.638	26206
554.701	26272
554.764	24901
554.827	24326
554.889	22223
554.952	20965
555.015	21102
555.078	20348
555.141	21760
555.203	21242
555.266	21524
555.329	21888
555.391	21298
555.454	21776
555.517	23223
555.580	19108
555.642	17685
555.705	17750
555.768	18771
555.830	17863
555.893	16831
555.955	17718
556.018	18680
556.080	18053
556.143	17619
556.206	18728
556.268	19883
556.330	20584
556.393	19468
556.455	18193
556.518	25753
556.580	27858
556.643	16686
556.705	16164
556.767	15974
556.830	16860
556.892	19925
556.955	32472
557.017	23163
557.079	16281
557.142	16783
557.204	19342
557.266	43149
557.328	34695
557.391	14359
557.453	13000
557.515	14311
557.577	18822
557.639	21402
557.701	15095
557.764	14184
557.826	15736
557.888	16837
557.950	18174
558.012	19201
558.074	23901
558.136	58148
558.198	141668
558.260	44559
558.322	21756
558.384	23291
558.446	28010
558.508	33355
558.570	42361
558.632	69870
558.694	100398
558.756	93649
558.818	290351
558.880	711700
558.942	181027
559.003	152576
559.065	67366
559.127	32446
559.189	32332
559.251	36158
559.312	50386
559.374	126573
559.436	448430
559.498	183152
559.559	33859
559.621	32244
559.683	35422
559.744	60295
559.806	208409
559.868	284559
559.929	47164
559.991	33392
560.052	47561
560.114	138230
560.176	77837
560.237	78600
560.299	126546
560.360	26223
560.422	14416
560.483	13325
560.545	12360
560.606	11240
560.667	10256
560.729	10845
560.790	9668
560.852	11010
560.913	11022
560.974	10832
561.036	9486
561.097	10476
561.158	11177
561.220	11625
561.281	11239
561.342	12765
561.403	15086
561.465	21364
561.526	58417
561.587	76551
561.648	16208
561.709	11668
561.771	10540
561.832	10679
561.893	10603
561.954	9558
562.015	8573
562.076	10009
562.137	9734
562.198	10154
562.259	9723
562.320	10536
562.381	12480
562.442	22020
562.503	16103
562.564	10711
562.625	10367
562.686	10088
562.747	12451
562.808	10887
562.869	10204
562.930	13425
562.991	12556
563.051	11339
563.112	9371
563.173	9013
563.234	9041
563.294	9520
563.355	10602
563.416	10844
563.477	8886
563.537	10249
563.598	10700
563.659	10972
563.720	10364
563.780	10979
563.841	11165
563.901	10367
563.962	9033
564.023	10339
564.083	10400
564.144	10600
564.204	10862
564.265	10852
564.325	13203
564.386	27595
564.446	25892
564.507	10493
564.567	9280
564.628	9687
564.688	9105
564.749	9295
564.809	11642
564.869	15121
564.930	10112
564.990	10240
565.050	7759
565.111	9371
565.171	8217
565.231	8947
565.292	9094
565.352	8432
565.412	9891
565.472	9697
565.532	10867
565.593	10448
565.653	8911
565.713	9525
565.773	10694
565.833	14084
565.893	19855
565.953	9949
566.013	9324
566.074	10119
566.134	14461
566.194	24580
566.254	27135
566.314	16364
566.374	9550
566.434	9275
566.494	9211
566.554	8618
566.614	8209
566.673	8847
566.733	10672
566.793	10301
566.853	10783
566.913	9913
566.973	10396
567.033	11256
567.092	13454
567.152	12207
567.212	11630
567.272	11247
567.331	12166
567.391	11194
567.451	12406
567.511	17810
567.570	19124
567.630	10895
567.690	9238
567.749	9592
567.809	9821
567.868	11410
567.928	11814
567.988	12682
568.047	13406
568.107	13860
568.166	17156
568.226	27879
568.285	36895
568.345	27821
568.404	19733
568.464	19289
568.523	17194
568.582	17801
568.642	20223
568.701	24758
568.761	36895
568.820	59332
568.879	52846
568.939	36581
568.998	24832
569.057	18136
569.116	14602
569.176	13028
569.235	10412
569.294	10333
569.353	10128
569.413	9740
569.472	9424
569.531	8717
569.590	8939
569.649	8483
569.708	8394
569.767	10802
569.827	13571
569.886	11796
569.945	8882
570.004	9858
570.063	8706
570.122	10779
570.181	10568
570.240	12128
570.299	13146
570.358	12990
570.417	8803
570.475	8098
570.534	10112
570.593	10773
570.652	11046
570.711	12792
570.770	10237
570.829	11981
570.887	11847
570.946	13641
571.005	8209
571.064	9201
571.122	11818
571.181	12294
571.240	9100
571.299	8345
571.357	9914
571.416	10689
571.475	10716
571.533	12860
571.592	8301
571.650	9644
571.709	7293
571.768	8792
571.826	8562
571.885	8026
571.943	6852
572.002	7648
572.060	8548
572.119	7097
572.177	6571
572.236	6794
572.294	6942
572.352	7386
572.411	6851
572.469	7105
572.528	8211
572.586	7025
572.644	10088
572.703	14759
572.761	9319
572.819	7356
572.877	6964
572.936	6440
572.994	7219
573.052	7135
573.110	7662
573.169	8539
573.227	6272
573.285	6684
573.343	5634
573.401	6717
573.459	6707
573.517	6748
573.576	6585
573.634	7061
573.692	7675
573.750	7519
573.808	6743
573.866	7458
573.924	9979
573.982	11150
574.040	7228
574.098	7142
574.155	5653
574.213	6231
574.271	5081
574.329	7297
574.387	6448
574.445	6200
574.503	5587
574.560	5166
574.618	5749
574.676	5783
574.734	5323
574.792	6250
574.849	5512
574.907	5684
574.965	4781
575.022	5378
575.080	4456
575.138	5787
575.195	7006
575.253	6659
575.311	7560
575.368	6349
575.426	5209
575.483	6843
575.541	6361
575.598	5212
575.656	6109
575.713	5983
575.771	4984
575.828	6558
575.886	5479
575.943	6982
576.001	6537
576.058	6689
576.115	7785
576.173	9905
576.230	10893
576.287	13658
576.345	9662
576.402	7718
576.459	6846
576.517	7521
576.574	8333
576.631	9593
576.688	7498
576.746	6543
576.803	5982
576.860	5777
576.917	6426
576.974	5750
577.031	5900
577.089	6819
577.146	6490
577.203	6228
577.260	6441
577.317	8480
577.374	10219
577.431	9302
577.488	7834
577.545	6269
577.602	6355
577.659	6099
577.716	5332
577.773	6015
577.830	5065
577.886	5879
577.943	5507
578.000	5254
578.057	7065
578.114	6747
578.171	6091
578.227	5980
578.284	5153
578.341	6305
578.398	4574
578.454	7262
578.511	8770
578.568	11050
578.625	8829
578.681	6801
578.738	5634
578.794	5954
578.851	5933
578.908	5349
578.964	5865
579.021	6562
579.077	5428
579.134	5791
579.190	5538
579.247	6127
579.303	5516
579.360	4644
579.416	5131
579.473	5513
579.529	3708
579.586	4870
579.642	5246
579.698	6315
579.755	6201
579.811	6236
579.867	5601
579.924	5465
579.980	5196
580.036	5951
580.093	6456
580.149	5497
580.205	5897
580.261	5649
580.317	6503
580.374	7762
580.430	9540
580.486	9349
580.542	6755
580.598	6912
580.619	6646
580.654	6191
580.692	5683
580.710	5443
580.765	6173
580.767	6203
580.823	5955
580.838	5803
580.879	5417
580.911	5699
580.935	5913
580.984	5190
580.991	5104
581.047	6090
581.057	5977
581.103	5482
581.130	6039
581.159	6630
581.203	6574
581.215	6568
581.270	6675
581.276	6583
581.326	5813
581.349	5753
581.382	5634
581.422	6105
581.438	6333
581.494	6811
581.494	6803
581.550	6705
581.567	6807
581.606	6959
581.640	6288
581.661	5895
581.713	6783
581.717	6866
581.773	5667
581.786	5774
581.829	6075
581.859	6208
581.885	6385
581.932	6198
581.940	6156
581.996	6301
582.004	6198
582.052	5596
582.077	5313
582.107	5035
582.150	5416
582.163	5558
582.219	6165
582.223	6155
582.274	5924
582.296	6246
582.330	6787
582.368	6553
582.386	6491
582.441	6128
582.441	6130
582.497	5797
582.514	5602
582.552	5135
582.587	5180
582.608	5253
582.659	5537
582.663	5547
582.719	5547
582.732	5547
582.774	5666
582.805	6131
582.830	6527
582.877	5751
582.885	5619
582.941	5343
582.950	5300
582.996	5105
583.023	5729
583.052	6487
583.095	5886
583.107	5677
583.162	5549
583.168	5652
583.218	6556
583.240	6314
583.273	6018
583.313	5804
583.328	5752
583.384	5506
583.385	5519
583.439	5642
583.458	5719
583.494	6010
583.531	5396
583.549	5106
583.603	5844
583.605	5858
583.660	6405
583.676	6261
583.715	6042
583.748	6197
583.770	6246
583.820	5877
583.825	5838
583.881	5941
583.893	5797
583.936	5596
583.965	5130
583.991	4514
584.038	6160
584.046	6471
584.101	5152
584.110	5199
584.156	5351
584.183	5307
584.211	5378
584.255	5237
584.266	5138
584.321	4996
584.328	5038
584.376	5594
584.400	5599
584.431	5445
584.472	4926
584.486	4790
584.541	5167
584.545	5210
584.596	5788
584.617	5882
584.651	6361
584.689	6966
584.706	6978
584.761	5419
584.762	5423
584.816	6313
584.834	6501
584.871	6459
584.906	6633
584.926	6776
584.978	6421
584.980	6417
585.035	6985
585.051	7376
585.090	8218
585.123	8473
585.145	8571
585.195	8430
585.200	8468
585.254	9863
585.267	10157
585.309	10330
585.340	11266
585.364	12339
585.412	12422
585.419	12372
585.473	14116
585.484	14602
585.528	17361
585.556	21065
585.583	25891
585.628	40020
585.637	44114
585.692	95174
585.700	103730
585.747	139028
585.772	102929
585.801	54426
585.845	21065
585.856	15509
585.910	10777
585.917	10429
585.965	9283
585.989	8929
586.019	8517
586.061	7825
586.074	7667
586.128	8164
586.133	8203
586.183	8795
586.205	9386
586.237	9982
586.277	9396
586.292	9075
586.346	8903
586.349	8873
586.401	8641
586.421	8770
586.455	8886
586.493	9847
586.509	10655
586.564	13831
586.565	14062
586.618	23704
586.637	23310
586.672	19855
586.709	13280
586.727	10384
586.781	9279
586.781	9265
586.835	8374
586.853	8388
586.889	7949
586.925	7584
586.944	7628
586.996	7865
586.998	7859
587.052	8317
587.068	8366
587.106	8420
587.140	8563
587.161	8573
587.212	8379
587.215	8383
587.269	9083
587.284	9222
587.323	9100
587.356	8814
587.377	8798
587.427	9641
587.431	9657
587.485	9451
587.499	9480
587.539	10061
587.571	9988
587.593	9722
587.643	10421
587.648	10476
587.702	10874
587.715	10965
587.755	11347
587.786	11317
587.810	11025
587.858	10892
587.864	10967
587.917	12410
587.930	12728
587.971	14022
588.001	15160
588.025	15562
588.073	15870
588.079	15956
588.133	17207
588.145	17679
588.187	19287
588.217	20327
588.241	21408
588.288	24282
588.295	24691
588.348	28833
588.360	29915
588.402	33709
588.431	36728
588.456	39308
588.503	46220
588.510	47159
588.564	55234
588.575	57576
588.617	66894
588.646	73911
588.671	80998
588.718	99815
588.725	104056
588.778	147250
588.789	160443
588.832	256007
588.861	339215
588.886	458432
588.932	721433
588.939	741362
588.993	811647
589.004	803363
589.047	526754
589.075	328156
589.100	234507
589.147	126247
589.154	119031
589.207	91111
589.218	87286
589.261	82466
589.290	82615
589.314	85570
589.361	97790
589.368	102483
589.421	154046
589.433	169590
589.475	297466
589.504	408633
589.528	514910
589.576	707153
589.582	688888
589.635	399002
589.647	334332
589.689	167807
589.718	84345
589.742	65147
589.790	42160
589.795	40788
589.849	32577
589.861	31827
589.902	29748
589.932	27040
589.955	24475
590.004	19100
590.009	18642
590.062	16003
590.075	15512
590.115	14739
590.146	14286
590.168	13805
590.218	12829
590.222	12790
590.275	12828
590.289	12945
590.328	12655
590.360	12290
590.381	12055
590.431	11549
590.435	11496
590.488	11309
590.503	11296
590.541	11003
590.574	10526
590.594	10334
590.645	10496
590.647	10493
590.700	10727
590.716	10844
590.753	10062
590.787	9343
590.806	9338
590.859	9546
590.859	9529
590.912	9720
590.930	9807
590.965	9746
591.001	9740
591.018	9569
591.071	9184
591.072	9204
591.124	8842
591.143	8837
591.177	9039
591.214	9159
591.230	9355
591.283	10425
591.285	10482
591.336	11135
591.356	11457
591.389	11354
591.427	11058
591.442	10578
591.495	8965
591.498	8870
591.547	9219
591.569	9471
591.600	9054
591.640	8431
591.653	8568
591.706	9400
591.711	9503
591.759	9577
591.782	9731
591.811	10037
591.853	10463
591.864	10306
591.917	9404
591.924	9332
591.969	9763
591.995	10026
592.022	9638
592.066	9036
592.075	9159
592.127	10158
592.137	10383
592.180	10802
592.208	11078
592.233	10424
592.279	9159
592.285	9109
592.338	9050
592.350	9072
592.390	8804
592.421	8651
592.443	8719
592.491	8933
592.495	8890
592.548	8686
592.562	8658
592.600	8732
592.633	8857
592.653	8719
592.704	8389
592.705	8441
592.775	8678
592.846	8571
592.916	9847
592.987	10396
593.058	9070
593.128	8162
593.199	8704
593.270	9058
593.341	8276
593.411	8456
593.482	8271
593.553	9378
593.623	9013
593.694	8966
593.764	9197
593.835	8623
593.906	8602
593.976	8834
594.047	9324
594.117	11590
594.188	10385
594.258	9408
594.329	9943
594.399	9632
594.470	9313
594.540	10182
594.611	9575
594.681	9369
594.751	9212
594.822	11338
594.892	11046
594.963	10504
595.033	9919
595.103	10798
595.174	10797
595.244	16237
595.314	15863
595.384	11710
595.455	11012
595.525	12187
595.595	11853
595.665	11974
595.736	11205
595.806	11414
595.876	10717
595.946	11909
596.016	12551
596.087	12375
596.157	12379
596.227	12006
596.297	12796
596.367	13835
596.437	15383
596.507	17488
596.577	17817
596.647	14092
596.717	14283
596.787	15034
596.857	13711
596.927	14195
596.997	14229
597.067	14610
597.137	15967
597.207	15928
597.277	14156
597.347	14765
597.417	13779
597.487	15946
597.557	14441
597.626	15564
597.696	16300
597.766	16721
597.836	18417
597.906	15198
597.975	12321
598.045	13184
598.115	13616
598.185	14891
598.254	16049
598.324	18857
598.394	18517
598.464	18570
598.533	16243
598.603	15823
598.672	16070
598.742	16261
598.812	16070
598.881	15554
598.951	15865
599.020	15992
599.090	16346
599.159	17621
599.229	15994
599.299	15190
599.368	15433
599.437	16034
599.507	14500
599.576	15063
599.646	14744
599.715	14380
599.785	13545
599.854	14501
599.924	13732
599.993	14411
600.062	12900
600.132	13966
600.201	14968
600.270	18340
600.340	17287
600.409	17080
600.478	15356
600.547	16784
600.617	15418
600.686	13192
600.755	12700
600.824	13268
600.894	12612
600.963	10728
601.032	10272
601.101	10652
601.170	9014
601.239	10698
601.308	10796
601.378	10705
601.447	9628
601.516	10412
601.585	10853
601.654	12838
601.723	9741
601.792	10600
601.861	10625
601.930	13114
601.999	13014
602.068	11365
602.137	13218
602.206	13030
602.275	12284
602.343	14374
602.412	14572
602.481	11400
602.550	11436
602.619	11806
602.688	12812
602.756	11280
602.825	11292
602.894	12597
602.963	12056
603.032	11616
603.100	12158
603.169	12250
603.238	12075
603.307	11991
603.375	12443
603.444	13637
603.513	12364
603.581	13110
603.650	12876
603.719	13258
603.787	12665
603.856	14336
603.924	14302
603.993	15224
604.061	14384
604.130	15976
604.198	16074
604.267	16184
604.335	16096
604.404	16119
604.472	16326
604.541	16940
604.609	16465
604.678	16828
604.746	16853
604.815	16843
604.883	17219
604.951	18122
605.020	17921
605.088	18031
605.156	18659
605.225	18742
605.293	18213
605.361	18020
605.429	19492
605.498	19935
605.566	20568
605.634	22586
605.702	21682
605.771	22962
605.839	22184
605.907	22577
605.975	20328
606.043	20630
606.111	20560
606.180	21002
606.248	19933
606.316	21684
606.384	20019
606.452	23787
606.520	25364
606.588	22668
606.656	21403
606.724	21831
606.792	20922
606.860	18759
606.928	15488
606.996	16866
607.064	14946
607.132	15794
607.200	17197
607.267	17546
607.335	16778
607.403	20031
607.471	16788
607.539	18122
607.607	17823
607.674	15200
607.742	16085
607.810	17122
607.878	16209
607.946	15696
608.013	15240
608.081	17311
608.149	16826
608.216	17453
608.284	17948
608.352	18238
608.419	17069
608.487	20280
608.555	18091
608.622	18524
608.690	17809
608.757	19714
608.825	21022
608.893	20858
608.960	21566
609.028	21202
609.095	21340
609.163	18506
609.230	15957
609.298	15981
609.365	15121
609.432	17483
609.500	18958
609.567	21132
609.635	24374
609.702	26479
609.769	24197
609.837	19932
609.904	15840
609.971	16220
610.039	20807
610.106	26449
610.173	49503
610.241	112155
610.308	51552
610.375	20515
610.442	15972
610.509	15752
610.577	16744
610.644	17386
610.711	17695
610.778	18465
610.845	19197
610.912	19690
610.980	20113
611.047	20941
611.114	20509
611.181	19505
611.248	18585
611.315	22038
611.382	20485
611.449	21945
611.516	22351
611.583	22735
611.650	21789
611.717	23188
611.784	22793
611.851	24830
611.918	27989
611.984	32820
612.051	50459
612.118	107184
612.185	265457
612.252	129821
612.319	33091
612.386	29103
612.452	26092
612.519	27826
612.586	26767
612.653	26792
612.719	26102
612.786	24809
612.853	22240
612.919	22548
612.986	23357
613.053	21406
613.120	19702
613.186	19065
613.253	20754
613.319	19125
613.386	19867
613.453	20725
613.519	22221
613.586	24571
613.652	30671
613.719	25796
613.785	23723
613.852	20072
613.918	18703
613.985	21475
614.051	21718
614.118	25198
614.184	22838
614.250	19870
614.317	19832
614.383	19978
614.449	19468
614.516	20280
614.582	20736
614.648	19398
614.715	18964
614.781	20009
614.847	20268
614.914	20089
614.980	18266
615.046	19722
615.112	18582
615.179	19419
615.245	19470
615.311	20743
615.377	21451
615.443	21376
615.509	19974
615.575	21845
615.642	20289
615.708	23040
615.774	23164
615.840	25968
615.906	28948
615.972	38232
616.038	61626
616.104	139018
616.170	353168
616.236	238555
616.302	47766
616.368	36047
616.434	24813
616.500	25644
616.565	28357
616.631	33319
616.697	26090
616.763	29125
616.829	44606
616.895	76794
616.961	63401
617.026	27584
617.092	20507
617.158	21252
617.224	20087
617.289	19841
617.355	18246
617.421	16922
617.487	18996
617.552	17466
617.618	15750
617.684	15755
617.749	18552
617.815	16305
617.880	15676
617.946	16430
618.012	16478
618.077	16214
618.143	15714
618.208	16268
618.274	17155
618.339	17896
618.405	13956
618.470	14810
618.536	13647
618.601	15145
618.667	12765
618.732	13234
618.798	12764
618.863	12779
618.928	12055
618.994	14990
619.059	15210
619.124	19537
619.190	15764
619.255	12827
619.320	12541
619.386	13072
619.451	11429
619.516	12576
619.581	12062
619.647	12978
619.712	11851
619.777	12022
619.842	12494
619.907	12915
619.972	12253
620.038	12205
620.103	11161
620.168	10747
620.233	11279
620.298	11726
620.363	11805
620.428	12788
620.493	12167
620.558	12936
620.623	12348
620.688	12929
620.753	12080
620.818	12734
620.883	12736
620.948	12693
621.013	12588
621.078	12963
621.143	11525
621.207	15336
621.272	12362
621.337	14094
621.402	13271
621.467	16037
621.532	15060
621.596	13334
621.661	12660
621.726	12531
621.791	12652
621.855	13921
621.920	13033
621.985	13319
622.049	15316
622.114	13690
622.179	13830
622.243	14872
622.308	14269
622.373	16423
622.437	14614
622.502	13751
622.566	12728
622.631	12608
622.695	15611
622.760	14407
622.824	14001
622.889	14373
622.953	14536
623.018	23213
623.082	20913
623.147	14873
623.211	14026
623.276	14841
623.340	12648
623.404	12697
623.469	13265
623.533	12677
623.597	12285
623.662	12856
623.726	11031
623.790	10827
623.854	9956
623.919	12328
623.983	10755
624.047	11460
624.111	11410
624.176	12687
624.240	12201
624.304	14452
624.368	10837
624.432	12034
624.496	13230
624.560	15101
624.625	14415
624.689	12974
624.753	12205
624.817	12675
624.881	11606
624.945	11431
625.009	11078
625.073	12065
625.137	11582
625.201	16110
625.265	15462
625.329	12259
625.393	12832
625.456	12446
625.520	12834
625.584	13724
625.648	15569
625.712	19306
625.776	34990
625.839	35653
625.903	15542
625.967	11926
626.031	18285
626.095	23064
626.158	11964
626.222	8632
626.286	8828
626.349	7442
626.413	7175
626.477	10499
626.540	7461
626.604	7858
626.668	9181
626.731	8297
626.795	7010
626.858	7670
626.922	6881
626.986	8530
627.049	6309
627.113	9126
627.176	7916
627.240	7520
627.303	7134
627.366	6862
627.430	8022
627.493	7658
627.557	6650
627.620	8387
627.684	7464
627.747	9122
627.810	5407
627.874	6871
627.937	4841
628.000	8159
628.064	7352
628.127	4142
628.190	5650
628.253	5969
628.317	4910
628.380	6612
628.443	4857
628.506	5307
628.569	5672
628.632	4533
628.696	4762
628.759	4722
628.822	4560
628.885	3996
628.948	4092
629.011	4455
629.074	4630
629.137	4420
629.200	3162
629.263	6423
629.326	3557
629.389	3776
629.452	4347
629.515	4495
629.578	4247
629.641	5349
629.704	4072
629.767	4486
629.830	4434
629.892	3427
629.955	4032
630.018	6440
630.081	5277
630.144	7032
630.207	3595
630.269	6244
630.332	4490
630.395	4769
630.458	3518
630.520	3084
630.583	4829
630.646	4341
630.708	3603
630.771	3416
630.834	4842
630.896	3432
630.959	4125
631.021	3486
631.084	3443
631.146	4487
631.209	4739
631.272	3393
631.334	2962
631.397	4030
631.459	3566
631.522	4064
631.584	3491
631.646	5221
631.709	5354
631.771	6478
631.834	4588
631.896	4872
631.958	3040
632.021	4543
632.083	2611
632.145	4515
632.208	2797
632.270	4611
632.332	1797
632.395	2492
632.457	4065
632.519	3188
632.581	4307
632.643	3150
632.706	4081
632.768	2857
632.830	3861
632.892	3216
632.954	3145
633.016	4201
633.078	2512
633.141	3063
633.203	2335
633.265	3226
633.327	3432
633.389	2751
633.451	4355
633.513	4845
633.575	4022
633.637	5210
633.698	4326
633.760	3909
633.822	4138
633.884	4153
633.946	2899
634.008	3533
634.070	3523
634.132	3960
634.193	3481
634.255	4967
634.317	4308
634.379	5190
634.441	3850
634.502	2668
634.564	3366
634.626	3444
634.687	3955
634.749	3042
634.811	2591
634.873	2443
634.934	3141
634.996	3717
635.057	2075
635.119	2021
635.181	2904
635.242	3419
635.304	702
635.365	4459
635.427	1672
635.488	2949
635.550	1768
635.611	3578
635.673	1328
635.734	4033
635.796	1771
635.857	5258
635.918	3028
635.980	5530
636.041	3743
636.102	5206
636.164	4069
636.225	5946
636.286	2477
636.348	3130
636.409	2950
636.470	2416
636.531	1789
636.593	3016
636.654	2949
636.715	2857
636.776	2141
636.838	1641
636.899	2495
636.960	2168
637.021	1509
637.082	2089
637.143	1965
637.204	720
637.265	1413
637.326	2683
637.387	2631
637.448	1352
637.509	1421
637.570	2337
637.631	3147
637.692	947
637.753	522
637.814	2003
637.875	1207
637.936	2988
637.997	1291
638.058	1674
638.119	2427
638.179	2268
638.240	932
638.301	1727
638.362	1562
638.423	1662
638.483	3385
638.544	369
638.605	1566
638.666	584
638.726	1627
638.787	2753
638.848	1324
638.908	1202
638.969	1767
639.030	1708
639.090	745
639.151	806
639.211	2968
639.272	5078
639.332	7568
639.393	3219
639.453	359
639.514	1323
639.574	1650
639.635	1108
639.695	2548
639.756	1608
639.816	1876
639.877	2607
639.937	7576
639.997	8233
640.058	1772
640.118	-221
640.178	2344
640.239	1245
640.299	492
640.359	1610
640.420	1303
640.480	2397
640.540	2236
640.600	1721
640.661	2140
640.721	1723
640.781	3973
640.841	-75
640.901	1817
640.961	2289
641.021	1599
641.082	2470
641.142	4220
641.202	3509
641.262	-44
641.322	2631
641.382	-613
641.442	2095
641.502	1431
641.562	1305
641.622	315
641.682	1558
641.742	1358
641.802	1471
641.861	2140
641.921	1978
641.981	2695
642.041	3443
642.101	2238
642.161	363
642.221	360
642.280	1480
642.340	62
642.400	-527
642.460	2243
642.519	788
642.579	714
642.639	1937
642.698	-1874
642.758	3093
642.818	1284
642.877	986
642.937	1262
642.997	3551
643.056	3465
643.116	470
643.175	2624
643.235	848
643.294	790
643.354	2613
643.414	2192
643.473	2540
643.532	2459
643.592	5620
643.651	10221
643.711	21091
643.770	42699
643.830	109376
643.889	220273
643.948	37622
644.008	5064
644.067	3381
644.126	2601
644.186	1344
644.245	2233
644.304	-75
644.363	2997
644.423	-12
644.482	923
644.541	2185
644.600	-996
644.659	2023
644.719	1702
644.778	3634
644.837	7170
644.896	18202
644.955	40451
645.014	10136
645.073	1447
645.132	1225
645.191	998
645.250	741
645.309	1804
645.368	1532
645.427	1653
645.486	2990
645.545	7178
645.604	1818
645.663	221
645.722	1653
645.781	1172
645.840	2180
645.898	2514
645.957	5080
646.016	7447
646.075	16686
646.134	35023
646.192	106514
646.251	137927
646.310	13692
646.369	3249
646.427	3220
646.486	1080
646.545	1490
646.603	575
646.662	1060
646.721	972
646.779	752
646.838	-274
646.896	1943
646.955	1873
647.014	4867
647.072	8114
647.131	25007
647.189	8165
647.248	1474
647.306	1113
647.365	1708
647.423	-1557
647.481	2115
647.540	-485
647.598	681
647.657	-215
647.715	1093
647.773	-370
647.832	1749
647.890	-1215
647.948	-84
648.007	198
648.065	-445
648.123	-832
648.181	1779
648.240	-103
648.298	-923
648.356	-511
648.414	856
648.472	-310
648.531	388
648.589	168
648.647	9
648.705	-631
648.763	-12
648.821	553
648.879	664
648.937	364
648.995	1490
649.053	589
649.111	3112
649.169	5816
649.227	12052
649.285	27197
649.343	80936
649.401	31594
649.459	11925
649.516	6484
649.574	503
649.632	2776
649.690	2695
649.748	1369
649.806	1403
649.863	5916
649.921	17649
649.979	8307
650.037	1036
650.094	-1010
650.152	895
650.210	-808
650.268	563
650.325	-513
650.383	-460
650.440	-832
650.498	229
650.556	283
650.613	-422
650.671	-246
650.728	-202
650.786	-56
650.843	59
650.901	-2003
650.958	597
651.016	-110
651.073	-391
651.131	-621
651.188	-828
651.246	-404
651.303	-544
651.360	-305
651.418	122
651.475	-506
651.532	-949
651.590	54
651.647	-964
651.704	-69
651.762	-526
651.819	-323
651.876	-436
651.933	-377
651.990	911
652.048	-1902
652.105	-497
652.162	49
652.219	-383
652.276	-433
652.333	-450
652.390	-932
652.448	-516
652.505	455
652.562	41
652.619	-1593
652.676	-10
652.733	226
652.790	28
652.847	-1584
652.904	-86
652.961	-1432
653.017	-854
653.074	-513
653.131	343
653.188	-1543
653.245	510
653.302	-678
653.359	-326
653.415	-64
653.472	-1021
653.529	-596
653.586	-379
653.642	-1255
653.699	389
653.756	-1367
653.813	-935
653.869	-675
653.926	-519
653.983	-977
654.039	59
654.096	-892
654.152	826
654.209	-2102
654.266	420
654.322	-1701
654.379	-347
654.435	17
654.492	-673
654.548	-3
654.605	843
654.661	-72
654.717	3
654.774	-184
654.830	-523
654.887	-858
654.943	211
655.000	-318
655.056	222
655.112	-1446
655.168	-1094
655.225	-922
655.281	236
655.337	257
655.394	1863
655.450	91
655.506	994
655.562	275
655.618	1499
655.675	-1755
655.731	168
655.787	-1386
655.843	932
655.899	-1293
655.955	318
656.011	-481
656.067	-773
656.123	73
656.179	923
656.235	897
656.291	-1320
656.347	-271
656.403	-28
656.459	-508
656.515	122
656.571	-953
656.627	-71
656.683	-753
656.739	-93
656.795	-696
656.850	-568
656.906	-247
656.962	909
657.018	-651
657.074	55
657.129	-1039
657.185	-248
657.241	969
657.297	466
657.352	-611
657.408	-686
657.464	264
657.519	-683
657.575	-1610
657.630	-377
657.686	-1134
657.742	-1623
657.797	-1005
657.853	-849
657.908	-435
657.964	-1432
658.019	-1177
658.075	-109
658.130	196
658.186	-1399
658.241	-509
658.297	-1192
658.352	-1610
658.407	-693
658.463	-1428
658.518	-605
658.573	-407
658.629	-867
658.684	-534
658.739	428
658.795	-1424
658.850	-915
658.905	-1565
658.960	279
659.016	-1370
659.071	-349
659.126	-1118
659.181	-777
659.236	2250
659.291	1278
659.346	398
659.401	210
659.457	-322
659.512	-1168
659.567	-613
659.622	-622
659.677	-676
659.732	-709
659.787	-1666
659.842	-385
659.897	413
659.952	79
660.007	-1191
660.061	-609
660.116	-1851
660.171	-1079
660.226	-1153
660.281	-546
660.336	-1207
660.391	-531
660.445	-2029
660.500	-52
660.555	-299
660.610	-1490
660.664	-186
660.719	-740
660.774	-937
660.828	-168
660.883	-842
660.938	116
660.992	-2036
661.047	-533
661.101	-1506
661.156	-905
661.211	-1050
661.265	-606
661.320	-850
661.374	-1020
661.429	-1330
661.483	-301
661.538	-1826
661.592	-874
661.647	-1549
661.701	-783
661.755	-1016
661.810	-583
661.864	-1652
661.919	-1513
661.973	-865
662.027	104
662.081	-900
662.136	-547
662.190	-232
662.244	59
662.299	-946
662.353	41
662.407	-1457
662.461	-170
662.515	-453
662.569	-512
662.624	-548
662.678	-391
662.732	-998
662.786	-1104
662.840	-1018
662.894	-629
662.948	-1390
663.002	-1034
663.056	-721
663.110	-1251
663.164	-1502
663.218	-918
663.272	-891
663.326	140
663.380	-296
663.434	431
663.488	-1721
663.542	-615
663.595	-1258
663.649	-942
663.703	-1216
663.757	-61
663.811	-1480
663.864	-852
663.918	-870
663.972	-332
664.026	-1075
664.079	-393
664.133	-728
664.187	-582
664.240	-694
664.294	-889
664.348	-188
664.401	69
664.455	-1074
664.508	-586
664.562	-1096
664.615	-612
664.669	-1687
664.722	-571
664.776	-837
664.829	-633
664.883	-1503
664.936	-713
664.990	-374
665.043	244
665.097	-641
665.150	-630
665.203	-1489
665.257	-3
665.310	-684
665.363	-143
665.417	13
665.470	-249
665.523	-728
665.576	-1081
665.630	-825
665.683	-12
665.736	-383
665.789	-308
665.842	-787
665.895	-121
665.949	-329
666.002	-190
666.055	-522
666.108	546
666.161	-807
666.214	-107
666.267	-310
666.320	460
666.373	-623
666.426	564
666.479	-1090
666.532	-440
666.585	-518
666.638	-171
666.691	-197
666.744	-196
666.796	362
666.849	118
666.902	-1210
666.955	-501
667.008	-1003
667.060	-690
667.113	-1469
667.166	-239
667.219	-831
667.271	-981
667.324	-667
667.377	-23
667.430	-738
667.482	83
667.535	-828
667.587	152
667.640	-126
667.693	627
667.745	1580
667.798	2287
667.850	-161
667.903	-156
667.955	-933
668.008	-235
668.060	-800
668.113	37
668.165	-513
668.218	198
668.270	-660
668.322	26
668.375	-613
668.427	1032
668.479	-360
668.532	-234
668.584	-353
668.636	434
668.689	-965
668.741	76
668.793	-267
668.845	33
668.898	-188
668.950	107
669.002	-258
669.054	-432
669.106	-880
669.158	1028
669.211	-348
669.263	-260
669.315	98
669.367	52
669.419	-857
669.471	903
669.523	-735
669.575	-152
669.627	-1210
669.679	-327
669.731	293
669.783	520
669.835	103
669.886	-461
669.938	-235
669.990	-396
670.042	-774
670.094	48
670.146	-1021
670.197	114
670.249	-315
670.301	-590
670.353	140
670.404	446
670.456	300
670.508	466
670.560	1607
670.611	3947
670.663	6383
670.715	20945
670.766	31487
670.818	8200
670.869	59
670.921	600
670.972	-78
671.024	1046
671.075	165
671.127	445
671.178	-141
671.230	-477
671.281	-179
671.333	-544
671.384	87
671.436	439
671.487	342
671.538	807
671.590	2436
671.641	3824
671.692	6293
671.744	14579
671.795	7925
671.846	1240
671.897	556
671.949	5
672.000	42
672.051	61
672.102	790
672.153	-211
672.204	-153
672.256	639
672.307	-1015
672.358	668
672.409	568
672.460	-247
672.511	-400
672.562	158
672.613	-360
672.664	-324
672.715	-315
672.766	502
672.817	-826
672.868	175
672.919	-551
672.970	-189
673.021	-739
673.071	70
673.122	122
673.173	-19
673.224	-711
673.275	571
673.326	-532
673.376	725
673.427	-802
673.478	-975
673.528	-349
673.579	264
673.630	-726
673.680	1204
673.731	-719
673.782	38
673.832	-305
673.883	260
673.934	-1210
673.984	-580
674.035	-1375
674.085	-323
674.136	32
674.186	289
674.237	351
674.287	1068
674.338	99
674.388	-641
674.438	-931
674.489	128
674.539	511
674.589	221
674.640	-192
674.690	-20
674.740	-637
674.791	121
674.841	-37
674.891	-214
674.942	295
674.992	307
675.042	-696
675.092	-219
675.142	-515
675.193	-985
675.243	-210
675.293	468
675.343	-590
675.393	212
675.443	-472
675.493	72
675.543	-777
675.593	-153
675.643	-658
675.693	240
675.743	284
675.793	59
675.843	-846
675.893	-179
675.943	159
675.993	-683
676.043	-1236
676.093	756
676.142	-206
676.192	-268
676.242	-924
676.292	-1129
676.341	-251
676.391	93
676.441	503
676.491	-696
676.540	-1284
676.590	-578
676.640	-641
676.689	-351
676.739	-388
676.789	-449
676.838	-841
676.888	-205
676.937	-550
676.987	-411
677.037	-654
677.086	-587
677.136	-541
677.185	-861
677.235	-1529
677.284	298
677.333	-1164
677.383	-1021
677.432	-1351
677.482	355
677.531	-962
677.580	-441
677.630	-773
677.679	-253
677.728	59
677.778	-679
677.827	-656
677.876	-490
677.925	-802
677.975	97
678.024	-739
678.073	-334
678.122	-445
678.171	-277
678.220	-592
678.269	17
678.319	-900
678.368	-629
678.417	-831
678.466	-18
678.515	-345
678.564	-361
678.613	-133
678.662	-790
678.711	-532
678.760	329
678.809	-628
678.857	-592
678.906	3
678.955	-665
679.004	-259
679.053	-185
679.102	-239
679.151	-354
679.199	-1150
679.248	-150
679.297	-364
679.346	-172
679.394	-1127
679.443	-103
679.492	-1046
679.540	-756
679.589	-668
679.638	-984
679.686	-845
679.735	-397
679.784	-755
679.832	-902
679.881	-1042
679.929	-270
679.978	-1056
680.026	535
680.075	-341
680.123	-820
680.172	-1006
680.220	-537
680.268	-1115
680.317	-597
680.365	-984
680.414	-1098
680.462	-189
680.510	-47
680.559	-1546
680.607	-511
680.655	-529
680.703	-806
680.752	-631
680.800	-7
680.848	-1211
680.896	-527
680.945	-1125
680.993	-881
681.041	-488
681.089	-79
681.137	-1443
681.185	-180
681.233	-1903
681.258	-1269
681.281	-684
681.329	-839
681.377	-1071
681.380	-1045
681.425	-840
681.473	-312
681.502	-597
681.521	-832
681.569	-715
681.617	-1120
681.624	-1062
681.665	-763
681.713	-756
681.745	-26
681.761	295
681.809	-794
681.857	73
681.867	-63
681.904	-574
681.952	-315
681.989	-375
682.000	-411
682.048	504
682.096	-325
682.111	54
682.143	794
682.191	-137
682.233	998
682.239	1158
682.286	-57
682.334	-509
682.354	-711
682.382	-1017
682.430	576
682.476	55
682.477	32
682.525	731
682.572	-181
682.598	-20
682.620	105
682.667	377
682.715	1073
682.720	980
682.763	-62
682.810	-69
682.841	-420
682.857	-597
682.905	370
682.952	361
682.963	480
683.000	797
683.047	224
683.085	919
683.095	1112
683.142	192
683.190	739
683.206	601
683.237	273
683.284	302
683.328	-151
683.332	-195
683.379	470
683.426	-49
683.449	236
683.473	485
683.521	706
683.568	713
683.571	658
683.615	-115
683.662	1014
683.693	517
683.709	185
683.757	324
683.804	986
683.814	958
683.851	913
683.898	1188
683.936	1254
683.945	1254
683.992	1278
684.039	1007
684.057	1017
684.086	1030
684.133	1224
684.179	1254
684.180	1244
684.227	1823
684.274	388
684.300	764
684.321	1059
684.368	666
684.415	2338
684.422	2168
684.462	1029
684.509	1233
684.543	693
684.556	527
684.603	1016
684.649	529
684.665	915
684.696	1651
684.743	561
684.786	1455
684.790	1528
684.837	858
684.883	1763
684.908	1406
684.930	1027
684.977	1453
685.023	519
685.029	650
685.070	1551
685.117	1098
685.150	1362
685.164	1510
685.210	1644
685.257	2266
685.272	2045
685.303	1480
685.350	1986
685.393	2144
685.396	2150
685.443	2235
685.490	2501
685.514	2472
685.536	2363
685.583	2522
685.629	2120
685.636	2039
685.675	1685
685.722	2366
685.757	1997
685.768	1852
685.815	2179
685.861	1732
685.878	1769
685.908	1867
685.954	1506
686.000	2330
686.000	2340
686.047	2629
686.093	2913
686.121	2902
686.139	2807
686.185	2561
686.232	2450
686.242	2417
686.278	2295
686.324	2244
686.363	2590
686.370	2644
686.416	2169
686.463	1800
686.484	1807
686.509	1981
686.555	2216
686.601	2120
686.606	2160
686.647	2210
686.693	2177
686.727	2010
686.739	1991
686.785	1577
686.831	2458
686.848	2343
686.877	2086
686.923	2446
686.969	2355
686.969	2355
687.015	2661
687.061	2413
687.090	2375
687.107	2259
687.153	2378
687.199	2170
687.211	1997
687.245	1718
687.291	2496
687.332	2525
687.336	2523
687.382	2362
687.428	2463
687.453	2517
687.474	2526
687.520	2554
687.565	2626
687.574	2446
687.611	1711
687.657	2253
687.695	1923
687.702	1904
687.748	2540
687.794	2852
687.816	2796
687.839	2572
687.885	2159
687.931	2394
687.937	2372
687.976	2494
688.022	2390
688.058	2902
688.067	2992
688.113	2792
688.158	2617
688.179	2689
688.204	2831
688.249	2538
688.295	3097
688.300	3085
688.340	2999
688.386	3000
688.421	2480
688.431	2328
688.477	3199
688.522	2782
688.542	2758
688.567	2775
688.613	3203
688.658	2514
688.663	2512
688.703	2649
688.749	3126
688.784	3440
688.794	3456
688.839	3186
688.884	2989
688.905	2939
688.930	2914
688.975	2899
689.020	2464
689.026	2460
689.065	2608
689.110	2751
689.146	2662
689.155	2657
689.201	2695
689.246	2977
689.267	3036
689.291	3024
689.336	3190
689.381	2688
689.388	2678
689.426	2833
689.471	3650
689.509	2937
689.516	2776
689.561	3047
689.606	2876
689.630	2792
689.651	2855
689.696	3010
689.741	3541
689.750	3545
689.785	3353
689.830	3521
689.871	3075
689.875	3041
689.920	2672
689.965	2864
689.992	2933
690.010	3052
690.054	2819
690.099	3143
690.112	3112
690.144	3060
690.189	3064
690.233	3385
690.233	3393
690.278	3241
690.323	2881
690.354	2979
690.367	3092
690.412	3435
690.457	3361
690.474	3397
690.501	3312
690.546	3410
690.590	2949
690.595	2935
690.635	3083
690.680	2934
690.716	3141
690.724	3202
690.769	3531
690.813	3939
690.836	3739
690.857	3611
690.902	4129
690.946	3943
690.957	4009
690.991	4065
691.035	3700
691.077	3843
691.080	3870
691.124	3996
691.168	4236
691.198	4096
691.213	3935
691.257	3999
691.301	3337
691.318	3382
691.346	3643
691.390	3124
691.434	3529
691.439	3503
691.478	3565
691.522	4304
691.559	4022
691.567	3943
691.611	4538
691.655	4620
691.680	4686
691.699	4622
691.743	4184
691.787	4030
691.800	3712
691.831	3264
691.875	4022
691.919	4065
691.921	4059
691.964	4036
692.008	4317
692.041	3874
692.052	3848
692.096	4095
692.139	4733
692.162	4867
692.183	4617
692.227	4543
692.271	3693
692.282	3615
692.315	4024
692.359	4102
692.402	4831
692.403	4844
692.447	4352
692.490	4824
692.523	4439
692.534	4433
692.578	4765
692.622	4477
692.643	4874
692.666	4924
692.709	4508
692.753	3821
692.763	3700
692.797	4061
692.840	4845
692.884	4869
692.884	4878
692.928	4679
692.971	4578
693.004	4332
693.015	4289
693.059	4101
693.102	4143
693.124	4118
693.146	4222
693.189	4417
693.233	4218
693.245	4244
693.276	4473
693.320	4872
693.363	5122
693.365	5121
693.407	5025
693.450	4678
693.485	4211
693.493	4185
693.537	4649
693.580	4482
693.605	4709
693.624	4746
693.667	4067
693.710	4346
693.725	4149
693.753	4267
693.797	4902
693.840	5155
693.845	5187
693.883	5020
693.926	5119
693.966	5168
693.970	5173
694.013	4688
694.056	4340
694.086	3942
694.099	3952
694.142	4316
694.185	4594
694.206	4797
694.229	5016
694.272	4843
694.315	5364
694.326	5306
694.358	5198
694.401	5461
694.444	5688
694.446	5680
694.487	5795
694.530	5842
694.566	5881
694.573	5791
694.616	5101
694.659	4571
694.686	4213
694.702	4394
694.745	4754
694.787	4883
694.806	5057
694.830	4984
694.873	4758
694.916	4569
694.926	4417
694.959	4383
695.002	4751
695.044	4978
695.046	4981
695.087	5265
695.130	4966
695.166	5338
695.172	5414
695.215	5218
695.258	5353
695.286	5225
695.301	5053
695.343	4804
695.386	4425
695.406	4211
695.428	4314
695.471	4636
695.514	4781
695.526	4800
695.556	4677
695.599	4726
695.641	4352
695.646	4345
695.684	4650
695.726	4569
695.766	4908
695.769	4945
695.811	5015
695.854	4873
695.886	4934
695.896	4897
695.938	4785
695.981	4338
696.005	4233
696.023	4422
696.065	4584
696.108	5060
696.125	5138
696.150	5114
696.192	5254
696.235	5177
696.245	5177
696.277	5150
696.319	4861
696.361	4885
696.365	4855
696.404	5115
696.446	5508
696.485	5761
696.488	5790
696.530	5986
696.572	6067
696.604	6204
696.614	6143
696.656	5683
696.698	5381
696.724	5108
696.740	5129
696.783	5215
696.825	5229
696.844	5260
696.867	5253
696.909	5032
696.951	4904
696.964	4869
696.992	4937
697.034	4950
697.076	4874
697.083	4875
697.118	5222
697.160	5522
697.202	5807
697.203	5795
697.244	5372
697.286	4933
697.323	4519
697.327	4587
697.369	5093
697.411	5533
697.442	5868
697.453	5829
697.494	5529
697.536	5357
697.562	5226
697.578	5373
697.620	5585
697.661	5880
697.682	5990
697.703	6112
697.744	6304
697.786	6668
697.801	6689
697.828	6759
697.869	6936
697.911	7098
697.921	7129
697.952	6704
697.994	6045
698.035	5430
698.040	5330
698.077	5352
698.118	5416
698.160	5455
698.160	5436
698.201	5450
698.243	5389
698.279	5359
698.284	5400
698.325	5565
698.367	5799
698.399	5919
698.408	5925
698.449	5878
698.491	5797
698.518	5771
698.532	5836
698.573	5921
698.614	6042
698.638	6071
698.656	6035
698.697	5915
698.738	5802
698.757	5726
698.779	5784
698.820	5853
698.862	5939
698.877	5947
698.903	6109
698.944	6345
698.985	6571
698.996	6615
699.026	6525
699.067	6370
699.116	6166
699.235	5072
699.354	5802
699.474	6237
699.593	6037
699.713	6072
699.832	6349
699.951	6800
700.070	6573
700.190	5739
700.309	6076
700.428	5153
700.547	5705
700.667	6078
700.786	6975
700.905	6656
701.024	6004
701.143	4735
701.262	5736
701.381	4861
701.500	6173
701.619	6642
701.738	5770
701.857	4705
701.976	4938
702.095	4697
702.214	6352
702.333	6676
702.452	6593
702.571	5243
702.690	5012
702.809	4010
702.928	4661
703.047	5364
703.165	5931
703.284	4452
703.403	5075
703.522	5357
703.640	5825
703.759	6758
703.878	8125
703.997	5137
704.115	5265
704.234	4054
704.353	5302
704.471	3928
704.590	4921
704.708	4335
704.827	4750
704.946	4236
705.064	5265
705.183	4427
705.301	5971
705.420	7717
705.538	7331
705.656	6062
705.775	5252
705.893	6145
706.012	6798
706.130	5706
706.249	6468
706.367	6383
706.485	6623
706.604	6042
706.722	7056
706.840	7229
706.958	6776
707.077	5203
707.195	6142
707.313	4977
707.431	5401
707.549	6221
707.668	5861
707.786	6223
707.904	5416
708.022	5514
708.140	5655
708.258	4203
708.376	6714
708.494	4986
708.612	6897
708.730	9222
708.848	8024
708.966	7191
709.084	8420
709.202	7088
709.320	7770
709.438	6266
709.556	7117
709.674	6579
709.791	7298
709.909	5369
710.027	6891
710.145	5861
710.263	7305
710.380	6884
710.498	6546
710.616	6105
710.733	6609
710.851	6883
710.969	7745
711.086	7019
711.204	6973
711.322	6154
711.439	6527
711.557	5718
711.674	6759
711.792	5974
711.909	6260
712.027	5608
712.144	5796
712.262	5429
712.379	7163
712.497	9082
712.614	9777
712.732	8201
712.849	7815
712.966	8609
713.084	11290
713.201	8112
713.318	8916
713.436	7859
713.553	8189
713.670	8620
713.787	8463
713.905	7979
714.022	7657
714.139	7525
714.256	8844
714.373	9379
714.490	13851
714.608	29419
714.725	117007
714.842	90391
714.959	10320
715.076	7450
715.193	7271
715.310	7570
715.427	7114
715.544	6144
715.661	6816
715.778	6485
715.895	7572
716.011	7045
716.128	6386
716.245	7162
716.362	9703
716.479	9058
716.596	7662
716.713	6910
716.829	6090
716.946	6200
717.063	5947
717.180	5409
717.296	6097
717.413	5848
717.530	5686
717.646	5735
717.763	5859
717.880	4854
717.996	5781
718.113	5711
718.229	5901
718.346	5113
718.462	6005
718.579	8339
718.695	16332
718.812	8824
718.928	7571
719.045	5868
719.161	5417
719.277	5101
719.394	5293
719.510	5606
719.626	6312
719.743	6495
719.859	7200
719.975	9157
720.092	31858
720.208	55662
720.324	8964
720.440	5858
720.557	7605
720.673	13094
720.789	13170
720.905	22294
721.021	7989
721.137	4516
721.253	6236
721.369	5221
721.486	6247
721.602	7592
721.718	5112
721.834	4140
721.950	5334
722.066	4541
722.181	4578
722.297	5158
722.413	4715
722.529	3515
722.645	4232
722.761	3652
722.877	4794
722.993	3910
723.108	4542
723.224	3940
723.340	3667
723.456	3813
723.571	4240
723.687	3424
723.803	4115
723.918	3714
724.034	3806
724.150	3692
724.265	5426
724.381	9153
724.497	9541
724.612	3869
724.728	3755
724.843	3070
724.959	4499
725.074	8553
725.190	9265
725.305	4089
725.421	4130
725.536	2608
725.651	3949
725.767	3130
725.882	3776
725.997	3147
726.113	3853
726.228	2517
726.343	3045
726.459	3400
726.574	3805
726.689	2605
726.804	3477
726.920	3009
727.035	4012
727.150	2409
727.265	3415
727.380	2835
727.495	3653
727.610	3694
727.725	2588
727.841	3746
727.956	4504
728.071	3229
728.186	2271
728.301	2690
728.416	3543
728.531	3366
728.645	2416
728.760	3785
728.875	4471
728.990	2927
729.105	3759
729.220	3804
729.335	3542
729.449	2674
729.564	2436
729.679	1630
729.794	2131
729.908	3633
730.023	2995
730.138	2409
730.253	3128
730.367	2263
730.482	3181
730.596	2119
730.711	2808
730.826	2164
730.940	2469
731.055	2835
731.169	2425
731.284	2022
731.398	2414
731.513	2855
731.627	3217
731.742	3185
731.856	3138
731.970	2831
732.085	3243
732.199	3076
732.313	4976
732.428	9963
732.542	31752
732.656	14592
732.771	3706
732.885	3090
732.999	2867
733.113	3225
733.227	3140
733.342	2793
733.456	2615
733.570	2463
733.684	3184
733.798	2527
733.912	3676
734.026	1230
734.140	2362
734.254	3029
734.368	6138
734.482	5492
734.596	2817
734.710	1788
734.824	2996
734.938	2596
735.052	2079
735.166	2912
735.280	3712
735.393	1726
735.507	3174
735.621	3335
735.735	6015
735.849	2196
735.962	2913
736.076	2167
736.190	3020
736.303	3774
736.417	4216
736.531	2440
736.644	2898
736.758	2207
736.872	2015
736.985	1640
737.099	2309
737.212	1120
737.326	2899
737.439	2939
737.553	1572
737.666	1854
737.780	1903
737.893	1231
738.007	1693
738.120	1739
738.233	2322
738.347	1798
738.460	1905
738.573	2538
738.687	2229
738.800	2823
738.913	4194
739.026	1884
739.140	1725
739.253	1235
739.366	2326
739.479	1924
739.592	2541
739.705	1197
739.818	2130
739.932	1376
740.045	2165
740.158	2145
740.271	2497
740.384	2103
740.497	1952
740.610	2466
740.723	2468
740.836	2151
740.949	1711
741.062	3314
741.174	3830
741.287	1614
741.400	893
741.513	2323
741.626	2351
741.739	2193
741.851	2525
741.964	1367
742.077	1815
742.189	2507
742.302	2801
742.415	1815
742.527	1747
742.640	1273
742.753	1724
742.865	1374
742.978	1556
743.090	1261
743.203	1492
743.316	1525
743.428	1030
743.541	1418
743.653	1576
743.766	1535
743.878	1832
743.990	2201
744.103	3298
744.215	2266
744.327	1755
744.440	3320
744.552	5553
744.664	1288
744.777	1015
744.889	824
745.001	2741
745.113	1440
745.226	2282
745.338	1423
745.450	1862
745.562	487
745.674	911
745.786	1455
745.898	1200
746.010	1692
746.122	1986
746.234	411
746.347	1817
746.459	1551
746.570	1490
746.682	1712
746.794	3143
746.906	1270
747.018	2024
747.130	1617
747.242	1936
747.354	1943
747.466	2102
747.577	1239
747.689	1395
747.801	1292
747.913	1693
748.024	1305
748.136	1337
748.248	1741
748.359	1934
748.471	647
748.583	1632
748.694	1663
748.806	1676
748.918	1795
749.029	2502
749.141	1959
749.252	2849
749.364	2414
749.475	6135
749.587	1966
749.698	1273
749.809	1329
749.921	1592
750.032	1041
750.144	2081
750.255	752
750.366	1407
750.478	994
750.589	1726
750.700	1410
750.811	1542
750.923	3020
751.034	8732
751.145	5459
751.256	1566
751.367	1671
751.479	1984
751.590	819
751.701	689
751.812	734
751.923	1755
752.034	1417
752.145	530
752.256	522
752.367	1235
752.478	716
752.589	1547
752.700	474
752.811	1021
752.922	933
753.032	1367
753.143	2089
753.254	1095
753.365	1124
753.476	1133
753.586	747
753.697	1149
753.808	1541
753.919	1500
754.029	491
754.140	1755
754.251	288
754.361	789
754.472	806
754.582	841
754.693	1103
754.804	1753
754.914	-174
755.025	1748
755.135	521
755.246	1474
755.356	-130
755.466	1878
755.577	1550
755.687	299
755.798	797
755.908	685
756.018	628
756.129	1046
756.239	982
756.349	1598
756.460	688
756.570	1317
756.680	1078
756.790	953
756.900	1135
757.011	1076
757.121	886
757.231	1890
757.341	1053
757.451	1162
757.561	170
757.671	1249
757.781	198
757.891	1800
758.001	-30
758.111	1352
758.221	1455
758.331	1540
758.441	615
758.551	3558
758.661	1531
758.771	1833
758.880	876
758.990	1206
759.100	88
759.210	758
759.320	834
759.429	1135
759.539	237
759.649	184
759.758	91
759.868	1379
759.978	1306
760.087	1363
760.197	834
760.307	571
760.416	1101
760.526	1013
760.635	1213
760.745	1603
760.854	737
760.964	1780
761.073	1195
761.182	1833
761.292	1440
761.401	1806
761.511	245
761.620	985
761.729	580
761.839	1732
761.948	1177
762.057	1333
762.166	444
762.276	-7
762.385	1898
762.494	1213
762.603	1253
762.712	954
762.822	342
762.931	1312
763.040	506
763.149	1235
763.258	844
763.367	1734
763.476	1654
763.585	1041
763.694	994
763.803	1930
763.912	1396
764.021	1540
764.130	208
764.238	1168
764.347	662
764.456	1034
764.565	1160
764.674	1433
764.783	185
764.891	648
765.000	1488
765.109	1743
765.217	723
765.326	2160
765.435	1514
765.543	2276
765.652	736
765.761	1229
765.869	2677
765.978	3928
766.086	5740
766.195	11885
766.303	40325
766.412	151257
766.520	84068
766.629	9533
766.737	3278
766.846	3341
766.954	2266
767.062	2930
767.171	2143
767.279	2025
767.387	883
767.496	1583
767.604	535
767.712	1459
767.820	1107
767.928	1442
768.037	798
768.145	1516
768.253	959
768.361	847
768.469	777
768.577	997
768.685	1337
768.793	1528
768.901	445
769.009	1377
769.117	1131
769.225	1596
769.333	1353
769.441	2779
769.549	5098
769.657	13698
769.765	55867
769.873	114773
769.981	16496
770.088	2303
770.196	1450
770.304	2390
770.412	1947
770.519	1610
770.627	2191
770.735	916
770.842	755
770.950	1989
771.058	742
771.165	1994
771.273	580
771.380	1255
771.488	1027
771.595	2114
771.703	440
771.810	1829
771.918	374
772.025	808
772.133	868
772.240	1394
772.348	1706
772.455	1399
772.562	673
772.670	1955
772.777	1742
772.884	1335
772.991	733
773.099	1948
773.206	-111
773.313	1711
773.420	396
773.528	1020
773.635	1525
773.742	2190
773.849	1223
773.956	967
774.063	1417
774.170	1315
774.277	894
774.384	1531
774.491	27
774.598	2453
774.705	988
774.812	2714
774.919	1825
775.026	1748
775.133	1111
775.239	1845
775.346	1670
775.453	669
775.560	1108
775.667	1087
775.773	1226
775.880	1872
775.987	708
776.093	2189
776.200	363
776.307	877
776.413	937
776.520	1113
776.627	1187
776.733	1637
776.840	-274
776.946	2322
777.053	2867
777.159	4808
777.266	758
777.372	4745
777.478	2535
777.585	2375
777.691	518
777.798	1431
777.904	1547
778.010	3500
778.117	1981
778.223	1075
778.329	847
778.435	1490
778.542	851
778.648	928
778.754	-82
778.860	1361
778.966	416
779.072	489
779.178	-159
779.284	1096
779.391	450
779.497	239
779.603	1592
779.708	53
779.815	1305
779.920	1174
780.026	827
780.132	1197
780.238	-480
780.344	1287
780.450	1352
780.556	643
780.661	-55
780.767	1142
780.873	-306
780.979	1740
781.085	568
781.190	1173
781.296	-102
781.402	370
781.507	-528
781.613	925
781.719	433
781.824	1083
781.930	702
782.035	1084
782.141	300
782.246	677
782.352	-116
782.457	681
782.563	246
782.668	747
782.773	-45
782.879	770
782.984	1438
783.090	2453
783.195	3345
783.300	1658
783.405	946
783.511	1048
783.616	756
783.721	1805
783.826	-75
783.932	1460
784.037	937
784.142	1084
784.247	-221
784.352	734
784.457	917
784.562	1318
784.667	684
784.772	1054
784.877	111
784.982	1476
785.087	584
785.192	2057
785.297	849
785.402	813
785.507	239
785.611	749
785.716	719
785.821	1012
785.926	-12
786.031	1024
786.135	15
786.240	761
786.345	-66
786.450	1372
786.554	465
786.659	88
786.763	-689
786.868	1758
786.973	2006
787.077	656
787.182	-41
787.286	583
787.391	294
787.495	-259
787.600	645
787.704	-52
787.809	864
787.913	117
788.017	220
788.122	610
788.226	-43
788.330	278
788.435	-305
788.539	558
788.643	360
788.747	-20
788.852	0
788.956	465
789.060	627
789.164	310
789.268	-222
789.372	430
789.476	-77
789.580	408
789.684	-402
789.788	1053
789.892	-390
789.996	737
790.100	857
790.204	-241
790.308	-582
790.412	-57
790.516	568
790.620	545
790.724	499
790.828	-384
790.931	-958
791.035	2020
791.139	-494
791.242	52
791.346	-105
791.450	151
791.554	-189
791.657	252
791.761	313
791.864	1279
791.968	292
792.072	1097
792.175	86
792.279	304
792.382	-90
792.486	836
792.589	345
792.693	625
792.796	-915
792.899	726
793.003	328
793.106	-1547
793.209	129
793.313	1464
793.416	-1036
793.519	1491
793.623	1219
793.726	3208
793.829	-83
793.932	636
794.035	326
794.138	1153
794.242	288
794.345	963
794.448	467
794.551	1309
794.654	2221
794.757	1407
794.860	1247
794.963	212
795.066	-1045
795.169	634
795.272	-681
795.375	873
795.477	-271
795.580	1281
795.683	-1431
795.786	549
795.889	-1521
795.991	631
796.094	-578
796.197	-1038
796.300	1258
796.402	-295
796.505	-484
796.608	92
796.710	356
796.813	-198
796.915	-142
797.018	1135
797.120	184
797.223	-798
797.326	14
797.428	302
797.530	-383
797.633	387
797.735	547
797.838	1901
797.940	260
798.042	-97
798.145	-160
798.247	815
798.349	-1673
798.452	1148
798.554	-437
798.656	-560
798.758	742
798.860	223
798.962	-93
799.065	-209
799.167	-1038
799.269	888
799.371	664
799.473	387
799.575	-299
799.677	377
799.779	2189
799.881	470
799.983	361
800.085	487
800.187	237
800.289	-683
800.390	-11
800.492	358
800.594	-130
800.696	-181
800.798	-24
800.899	222
801.001	-176
801.103	415
801.205	-663
801.306	678
801.408	-1785
801.509	-406
801.611	-109
801.713	138
801.814	-1697
801.916	-36
802.017	-440
802.119	-238
802.220	-200
802.322	-1631
802.423	1375
802.525	-1039
802.626	-292
802.727	-194
802.829	-127
802.930	-1649
803.031	262
803.133	375
803.234	-579
803.335	-688
803.436	-1899
803.538	263
803.639	-1486
803.740	836
803.841	-1445
803.942	1264
804.043	-111
804.144	-654
804.245	-1024
804.346	-486
804.447	-458
804.548	436
804.649	907
804.750	-68
804.851	-641
804.952	-252
805.053	-76
805.154	-1286
805.255	-118
805.355	-241
805.456	294
805.557	-753
805.658	-1536
805.758	167
805.859	-790
805.960	318
806.061	-1126
806.161	-1251
806.262	-651
806.362	2
806.463	-764
806.564	-110
806.664	-1044
806.765	143
806.865	-625
806.966	305
807.066	-847
807.166	-2
807.267	-280
807.367	-354
807.468	-14
807.568	-1874
807.668	556
807.769	-240
807.869	-1553
807.969	-286
808.069	117
808.170	125
808.270	-1173
808.370	720
808.470	607
808.570	-775
808.670	-1265
808.770	192
808.870	-1002
808.970	-28
809.070	-1213
809.170	-1282
809.271	-20
809.370	-374
809.470	435
809.570	254
809.670	-1472
809.770	-325
809.870	-262
809.970	377
810.070	-663
810.169	93
810.269	-2037
810.369	-299
810.469	-1233
810.568	-706
810.668	-1126
810.768	-683
810.867	-285
810.967	-564
811.066	-1001
811.166	-400
811.265	-411
811.365	-861
811.464	-702
811.564	236
811.663	-717
811.763	-1641
811.862	-668
811.962	117
812.061	-772
812.160	-814
812.260	-1086
812.359	268
812.458	-746
812.557	-191
812.657	-330
812.756	-112
812.855	-959
812.954	-211
813.053	-865
813.153	-111
813.252	-1730
813.351	-56
813.450	-941
813.549	-561
813.648	-540
813.747	-540
813.846	-682
813.945	-632
814.044	-902
814.143	-223
814.242	-447
814.341	-795
814.439	-623
814.538	-173
814.637	-890
814.736	-544
814.835	80
814.933	-773
815.032	-560
815.131	-194
815.229	-1279
815.328	417
815.427	-621
815.525	418
815.624	-826
815.722	-930
815.821	50
815.919	-942
816.018	-1337
816.116	253
816.215	-1204
816.313	498
816.412	-1051
816.510	-476
816.609	-78
816.707	-857
816.805	-237
816.904	248
817.002	-713
817.100	872
817.198	-70
817.296	-663
817.395	-266
817.493	1314
817.591	-1413
817.689	602
817.787	-337
817.885	1098
817.983	2858
818.081	7841
818.179	21207
818.277	60506
818.375	33036
818.473	5298
818.571	1776
818.669	1105
818.767	1050
818.865	945
818.963	1053
819.061	3293
819.158	6178
819.256	19392
819.354	49800
819.452	111009
819.549	42876
819.647	6417
819.745	2128
819.842	2079
819.940	365
820.038	-260
820.135	-774
820.233	1181
820.330	-175
820.428	-653
820.525	333
820.623	450
820.720	-798
820.818	382
820.915	-476
821.012	-308
821.110	-1074
821.207	238
821.304	-305
821.402	-90
821.499	1141
821.596	1198
821.693	-334
821.791	1010
821.888	751
821.985	3484
822.082	620
822.179	937
822.276	-645
822.373	459
822.470	-799
822.567	-540
822.664	-1406
822.761	320
822.858	-1487
822.955	-90
823.052	354
823.149	-27
823.246	-790
823.343	-839
823.440	-61
823.536	-449
823.633	-1633
823.730	-170
823.827	-938
823.923	-528
824.020	-453
824.117	-267
824.213	-1006
824.310	-627
824.407	-1903
824.503	-244
824.600	-840
824.696	-356
824.793	-659
824.889	-758
824.986	-751
825.082	405
825.179	-584
825.275	-387
825.371	-1400
825.468	-842
825.564	-2012
825.660	16
825.757	-546
825.853	2
825.949	-1747
826.045	-770
826.142	-1099
826.238	-636
826.334	-164
826.430	-1031
826.526	-1088
826.622	-813
826.718	-393
826.814	-378
826.910	-359
827.006	-231
827.102	-629
827.198	25
827.294	-934
827.390	-391
827.486	-337
827.582	-929
827.678	-1357
827.774	-293
827.869	-1646
827.965	329
828.061	-1479
828.157	201
828.252	-1073
828.348	-1432
828.444	-596
828.539	-997
828.635	-1528
828.731	-98
828.826	-1400
828.922	-263
829.017	-1102
829.113	-505
829.208	-2075
829.304	-485
829.399	-69
829.495	-615
829.590	-454
829.685	-714
829.781	-1320
829.876	-419
829.971	-1163
830.066	-155
830.162	-684
830.257	-782
830.352	-1860
830.447	288
830.543	-665
830.638	-847
830.733	-900
830.828	-1185
830.923	-615
831.018	-480
831.113	-586
831.208	-738
831.303	-1464
831.398	-230
831.493	-1064
831.588	-287
831.683	-1883
831.778	-644
831.873	-1389
831.967	-498
832.062	-1285
832.157	-1810
832.252	405
832.346	-1134
832.441	-739
832.536	739
832.631	2125
832.725	1902
832.820	-1216
832.914	-757
833.009	-1432
833.104	-553
833.198	117
833.293	-266
833.387	-1156
833.482	-801
833.576	-1284
833.670	-250
833.765	-855
833.859	-249
833.954	-502
834.048	216
834.142	-445
834.237	-878
834.331	-1197
834.425	-84
834.519	-1955
834.613	369
834.708	-1725
834.802	-778
834.896	-1539
834.990	-1099
835.084	-292
835.178	-804
835.272	-1556
835.366	-671
835.460	-1055
835.554	-241
835.648	-184
835.742	-1399
835.836	-336
835.930	-1646
836.024	-1382
836.117	90
836.211	-1488
836.305	-73
836.399	65
836.493	-942
836.586	-619
836.680	-437
836.774	-1159
836.867	-392
836.961	-1800
837.055	-1205
837.148	-1274
837.242	-926
837.335	-1257
837.429	-366
837.522	-1557
837.616	-62
837.709	425
837.803	-835
837.896	-169
837.989	-245
838.083	-811
838.176	1399
838.269	-116
838.363	-652
838.456	-957
838.549	465
838.642	272
838.735	3495
838.829	-457
838.922	-578
839.015	-1595
839.108	-1263
839.201	-1492
839.294	-111
839.387	-284
839.480	-997
839.573	-349
839.666	366
839.759	-1147
839.852	-1577
839.945	-59
840.038	-15
840.131	-316
840.223	-1445
840.316	-771
840.409	-878
840.502	-1528
840.594	696
840.687	-2226
840.780	-7
840.873	-1630
840.965	-265
841.058	-370
841.150	1143
841.243	-268
841.336	277
841.428	-877
841.521	-544
841.613	-944
841.706	-519
841.798	-1020
841.890	-89
841.983	-1267
842.075	701
842.167	-1065
842.260	-647
842.352	-352
842.444	-683
842.537	125
842.629	2430
842.721	-1714
842.813	-916
842.905	-2410
842.997	706
843.090	-1269
843.182	596
843.274	-225
843.366	4230
843.458	6220
843.550	2983
843.642	-945
843.734	-403
843.826	-1122
843.918	-50
844.009	-538
844.101	-702
844.193	-1032
844.285	-245
844.377	-881
844.469	969
844.560	-1054
844.652	75
844.744	33
844.835	-326
844.927	-804
845.019	-1255
845.110	-841
845.202	-257
845.293	-599
845.385	-798
845.476	-294
845.568	811
845.659	-747
845.751	182
845.842	-1121
845.934	-736
846.025	-1333
846.116	-849
846.208	-1044
846.299	-924
846.390	-1471
846.482	-606
846.573	-181
846.664	359
846.755	-174
846.846	295
846.937	-1387
847.029	-645
847.120	-2021
847.211	-586
847.302	-334
847.393	-1204
847.484	-559
847.575	-1503
847.666	-1995
847.757	-1103
847.847	-1498
847.938	1148
848.029	-1273
848.120	-1001
848.211	-644
848.302	-882
848.392	-930
848.483	-1
848.574	-1509
848.664	-889
848.755	-730
848.846	-623
848.936	-1224
849.027	-1182
849.118	-1122
849.208	-1422
849.299	-731
849.389	-548
849.480	1351
849.570	3948
849.661	8597
849.751	14767
849.841	2655
849.932	-38
850.022	-1630
850.112	-2
850.203	-1436
850.293	-856
850.383	-2121
850.474	-1460
850.564	-1641
850.654	-792
850.744	-1023
850.834	-907
850.924	-1003
851.014	-307
851.104	-1543
851.194	-879
851.284	-711
851.374	155
851.464	-1137
851.554	-240
851.644	-361
851.734	7
851.824	-1255
851.914	-1100
852.004	-469
852.094	-1656
852.183	-1624
852.273	117
852.363	-1009
852.452	-157
852.542	-1467
852.632	-1066
852.721	-1071
852.811	-1199
852.901	-1549
852.990	-705
853.080	-628
853.169	-685
853.259	-714
853.348	-907
853.438	-554
853.527	606
853.617	-320
853.706	3131
853.795	7101
853.885	19012
853.974	34256
854.063	68554
854.152	96752
854.242	25025
854.331	997
854.420	-210
854.509	808
854.598	586
854.687	-524
854.777	-7
854.866	-887
854.955	-67
855.044	-1107
855.133	-1233
855.222	-1095
855.311	-1174
855.400	-707
855.488	-971
855.577	-1389
855.666	-692
855.755	-1009
855.844	-241
855.933	-1557
856.021	-1386
856.110	-984
856.199	-1082
856.288	-1891
856.376	-1123
856.465	-1649
856.554	-240
856.642	-1756
856.731	-580
856.819	-1085
856.908	-1226
856.996	-1574
857.085	-763
857.173	-1192
857.262	-1272
857.350	-674
857.438	-301
857.527	-669
857.615	-714
857.703	-2298
857.792	-735
857.880	-1585
857.968	-1026
858.056	-1321
858.145	-600
858.233	-1419
858.321	-764
858.409	-883
858.497	-1282
858.585	-1581
858.673	-200
858.761	-801
858.849	-605
858.937	-1066
859.025	-695
859.113	-1078
859.201	-823
859.289	-1029
859.377	-1004
859.465	-1439
859.552	-277
859.640	-1975
859.728	-615
859.816	-1369
859.903	-1129
859.991	-1730
860.079	-848
860.166	-1951
860.254	-1144
860.342	-1163
860.429	-1228
860.517	-1517
860.604	-398
860.692	-1129
860.779	-1145
860.867	-1620
860.954	-587
861.042	-1093
861.129	-654
861.216	-1762
861.304	-857
861.391	-1286
861.478	-1115
861.565	-373
861.653	-563
861.740	-2014
861.827	-701
861.914	-443
862.001	-1500
862.089	-1912
862.176	-1527
862.263	-1797
862.350	-1104
862.437	-1745
862.524	-666
862.611	-987
862.698	-541
862.785	-1146
862.871	-673
862.958	-2110
863.045	-989
863.132	-1275
863.219	-717
863.306	-1592
863.392	-106
863.479	-934
863.566	-994
863.652	-1433
863.739	-1353
863.826	-1150
863.912	-633
863.999	-1695
864.086	-1527
864.172	-1553
864.259	-685
864.345	-1114
864.432	-348
864.518	-1285
864.604	-721
864.691	-1196
864.777	-1667
864.863	-143
864.950	-28
865.036	-1538
865.122	-316
865.209	-745
865.295	6
865.381	-1053
865.467	181
865.553	339
865.639	494
865.726	2624
865.812	8043
865.898	15904
865.984	24578
866.070	51228
866.156	46809
866.242	7595
866.328	1264
866.414	-690
866.499	-262
866.585	-248
866.671	-1265
866.757	-212
866.843	-103
866.928	-1193
867.014	-488
867.100	-169
867.186	-279
867.271	-659
867.357	773
867.442	-171
867.528	520
867.614	-703
867.699	-645
867.785	200
867.870	-639
867.956	-215
868.041	30
868.127	-511
868.212	479
868.297	-425
868.383	62
868.468	-206
868.553	1228
868.639	1508
868.724	4052
868.809	2686
868.894	103
868.979	-1880
869.065	-419
869.150	-1671
869.235	-355
869.320	-922
869.405	-932
869.490	-1336
869.575	-1945
869.660	-588
869.745	-437
869.830	-1122
869.915	-1539
870.000	-938
870.085	-633
870.169	-977
870.254	-302
870.339	-1195
870.424	-1204
870.509	-1218
870.593	255
870.678	-620
870.763	-110
870.847	-1048
870.932	-992
871.016	-1386
871.101	-556
871.186	-1425
871.270	-1436
871.355	-1505
871.439	42
871.523	-1804
871.608	-762
871.692	-1379
871.777	-492
871.861	-1593
871.945	-496
872.030	-1190
872.114	-465
872.198	-1690
872.282	-1276
872.367	-1604
872.451	-1219
872.535	-1438
872.619	-491
872.703	-1763
872.787	-761
872.871	-1412
872.955	-803
873.039	-1515
873.123	-1209
873.207	-1669
873.291	-510
873.375	-1666
873.459	-540
873.543	-1089
873.627	-1159
873.711	-825
873.794	-224
873.878	-1622
873.962	-1051
874.045	-1514
874.129	-491
874.137	-521
874.213	-819
874.245	-796
874.296	-768
874.352	-1300
874.380	-1553
874.460	-132
874.464	-76
874.547	-2005
874.568	-1508
874.631	-40
874.676	-489
874.714	-869
874.784	-965
874.798	-978
874.881	-436
874.892	-593
874.965	-1664
874.999	-1599
875.048	-1572
875.107	-566
875.131	-129
875.215	-793
875.215	-793
875.298	-907
875.323	-984
875.381	-1227
875.430	-964
875.465	-712
875.538	-1294
875.548	-1394
875.631	-1560
875.646	-1539
875.714	-1399
875.753	-1031
875.798	-597
875.861	-1283
875.881	-1475
875.964	-602
875.968	-598
876.047	-741
876.076	-894
876.130	-1051
876.183	-1276
876.213	-1396
876.291	-251
876.296	-181
876.379	-520
876.398	-676
876.462	-1219
876.506	-877
876.545	-503
876.613	-234
876.628	-188
876.711	-820
876.721	-772
876.794	-389
876.828	-688
876.877	-1153
876.935	-493
876.960	-151
877.043	-999
877.043	-996
877.125	-306
877.150	-316
877.208	-341
877.258	-850
877.291	-1160
877.365	-838
877.374	-799
877.456	-492
877.472	-539
877.539	-731
877.579	-324
877.622	61
877.687	-818
877.704	-1053
877.787	-85
877.794	-142
877.869	-577
877.901	-490
877.952	-563
878.008	-668
878.034	-639
878.115	-356
878.117	-349
878.199	-1447
878.222	-1112
878.282	-176
878.329	-154
878.364	-245
878.437	-302
878.447	-283
878.529	-1122
878.544	-936
878.611	-177
878.651	-649
878.694	-1053
878.758	-515
878.776	-375
878.858	106
878.865	107
878.941	-239
878.972	-557
879.023	-692
879.078	-331
879.105	-270
879.185	-238
879.187	-235
879.269	-380
879.292	-440
879.351	-419
879.399	-299
879.433	-355
879.506	-483
879.516	-473
879.598	-472
879.613	-466
879.680	-470
879.720	-325
879.762	-187
879.827	-292
879.844	-360
879.926	-275
879.933	-330
880.007	-194
880.040	172
880.089	359
880.147	205
880.171	271
880.253	1918
880.254	1920
880.335	2837
880.360	3538
880.417	5973
880.467	9246
880.499	11845
880.574	14158
880.580	13684
880.662	4441
880.680	2956
880.744	929
880.787	-102
880.825	-540
880.893	-202
880.907	-50
880.989	-182
881.000	-95
881.070	280
881.106	110
881.152	-221
881.213	22
881.233	123
881.315	-329
881.319	-337
881.396	9
881.426	154
881.478	105
881.532	235
881.559	435
881.639	-105
881.641	-128
881.722	380
881.745	84
881.803	-333
881.852	-226
881.885	-57
881.958	152
881.966	135
882.047	457
882.064	344
882.129	505
882.171	1020
882.210	1540
882.277	2032
882.291	1949
882.372	1038
882.383	906
882.454	7
882.489	-155
882.535	48
882.596	107
882.616	130
882.697	497
882.702	483
882.778	-12
882.808	-204
882.859	-400
882.914	-121
882.940	97
883.020	-64
883.021	-64
883.102	-544
883.127	-485
883.183	389
883.233	679
883.264	322
883.339	-394
883.345	-386
883.426	-276
883.445	-94
883.507	594
883.551	335
883.587	16
883.657	384
883.668	475
883.749	467
883.763	543
883.830	661
883.869	392
883.910	97
883.975	-34
883.991	-37
884.072	-272
884.081	-242
884.152	438
884.187	369
884.233	-30
884.292	-16
884.314	-5
884.394	-281
884.398	-298
884.475	-2
884.504	130
884.555	215
884.610	304
884.636	346
884.716	362
884.716	370
884.797	702
884.821	789
884.877	459
884.927	289
884.958	299
885.033	-16
885.038	-23
885.118	242
885.139	219
885.199	-240
885.244	-537
885.279	-220
885.350	302
885.359	301
885.439	394
885.456	315
885.520	156
885.561	399
885.600	433
885.667	64
885.680	71
885.760	320
885.773	345
885.840	586
885.878	826
885.920	942
885.984	672
886.000	584
886.080	555
886.089	500
886.160	295
886.195	370
886.240	522
886.300	521
886.320	530
886.400	672
886.406	681
886.480	1120
886.511	1203
886.560	1212
886.616	1293
886.640	1227
886.720	789
886.722	774
886.800	654
886.827	626
886.879	466
886.932	208
886.959	339
887.038	858
887.039	859
887.119	297
887.143	163
887.198	273
887.248	354
887.278	494
887.354	764
887.358	759
887.437	600
887.459	520
887.517	521
887.564	578
887.596	831
887.669	1424
887.676	1403
887.755	935
887.774	822
887.835	714
887.880	622
887.914	644
887.985	632
887.994	655
888.073	857
888.090	912
888.153	958
888.195	880
888.232	675
888.300	424
888.311	463
888.391	566
888.405	595
888.470	691
888.510	654
888.549	552
888.615	610
888.628	698
888.708	1032
888.720	1089
888.787	1240
888.825	1260
888.866	995
888.930	661
888.945	696
889.024	803
889.035	818
889.103	918
889.140	919
889.182	956
889.245	1088
889.261	1085
889.340	997
889.349	983
889.419	722
889.454	567
889.498	668
889.559	841
889.577	916
889.656	1198
889.664	1222
889.735	1324
889.768	1366
889.814	1160
889.873	877
889.978	762
890.083	1095
890.187	1168
890.292	1096
890.397	1012
890.501	312
890.606	742
890.710	397
890.815	1525
890.919	919
891.024	979
891.128	1728
891.233	483
891.337	1020
891.442	756
891.546	660
891.650	485
891.755	334
891.859	2631
891.963	1137
892.068	995
892.172	520
892.276	398
892.380	324
892.484	144
892.589	1522
892.693	578
892.797	558
892.901	697
893.005	767
893.109	970
893.213	1303
893.317	1577
893.421	831
893.525	-139
893.629	685
893.733	253
893.837	853
893.941	554
894.045	1298
894.148	220
894.252	1352
894.356	1412
894.460	979
894.564	694
894.667	443
894.771	21
894.875	874
894.978	1033
895.082	38
895.186	932
895.289	1173
895.393	593
895.496	1194
895.600	1181
895.703	529
895.807	1327
895.910	138
896.014	801
896.117	620
896.221	456
896.324	581
896.427	1046
896.531	1164
896.634	-447
896.737	1143
896.840	1239
896.944	333
897.047	679
897.150	982
897.253	1077
897.356	1085
897.460	357
897.563	510
897.666	1014
897.769	708
897.872	1291
897.975	1406
898.078	1022
898.181	455
898.284	-23
898.387	923
898.490	625
898.593	716
898.695	553
898.798	264
898.901	463
899.004	1177
899.107	734
899.209	482
899.312	617
899.415	1047
899.518	187
899.620	446
899.723	842
899.826	1975
899.928	3120
900.031	839
900.133	248
900.236	-40
900.338	1383
900.441	658
900.543	294
900.646	-377
900.748	519
900.851	917
900.953	599
901.055	587
901.158	1228
901.260	1140
901.362	981
901.465	-221
901.567	745
901.669	447
901.771	854
901.873	215
901.976	902
902.078	646
902.180	1319
902.282	457
902.384	1038
902.486	566
902.588	1145
902.690	1320
902.792	915
902.894	1334
902.996	592
903.098	641
903.200	1383
903.302	456
903.404	100
903.505	-161
903.607	-31
903.709	745
903.811	1106
903.913	-388
904.014	-188
904.116	-484
904.218	746
904.319	822
904.421	1383
904.523	559
904.624	485
904.726	377
904.827	1051
904.929	564
905.030	1076
905.132	1159
905.233	463
905.335	-162
905.436	418
905.537	88
905.639	554
905.740	442
905.841	224
905.943	525
906.044	334
906.145	345
906.247	-136
906.348	1260
906.449	597
906.550	808
906.651	150
906.752	-341
906.854	890
906.955	974
907.056	457
907.157	541
907.258	610
907.359	746
907.460	1698
907.561	508
907.662	268
907.762	311
907.863	683
907.964	264
908.065	235
908.166	339
908.267	353
908.367	-217
908.468	924
908.569	732
908.670	833
908.770	1398
908.871	995
908.971	1192
909.072	813
909.173	578
909.273	367
909.374	351
909.474	567
909.575	121
909.675	1088
909.776	282
909.876	145
909.977	221
910.077	1148
910.177	310
910.278	563
910.378	-148
910.478	242
910.579	594
910.679	268
910.779	499
910.879	1055
910.980	-192
911.080	1010
911.180	591
911.280	230
911.380	219
911.480	66
911.580	-82
911.680	362
911.780	684
911.880	98
911.980	-533
912.080	129
912.180	-47
912.280	779
912.380	21
912.480	-345
912.580	402
912.679	41
912.779	891
912.879	867
912.979	227
913.078	142
913.178	558
913.278	-12
913.377	-140
913.477	61
913.577	-189
913.676	704
913.776	-384
913.875	970
913.975	686
914.074	725
914.174	-49
914.273	-166
914.373	433
914.472	255
914.572	-140
914.671	955
914.770	-127
914.870	83
914.969	-1016
915.068	328
915.167	398
915.267	242
915.366	413
915.465	546
915.564	180
915.663	776
915.763	571
915.862	1101
915.961	53
916.060	-656
916.159	-316
916.258	-24
916.357	269
916.456	843
916.555	-172
916.654	-333
916.752	374
916.851	195
916.950	572
917.049	824
917.148	-67
917.247	672
917.345	659
917.444	259
917.543	-141
917.642	-73
917.740	400
917.839	918
917.937	331
918.036	206
918.135	85
918.233	920
918.332	577
918.430	446
918.529	131
918.627	-398
918.726	404
918.824	991
918.923	199
919.021	264
919.119	169
919.218	663
919.316	638
919.414	231
919.512	67
919.611	311
919.709	511
919.807	21
919.905	467
920.003	560
920.102	88
920.200	99
920.298	-209
920.396	610
920.494	621
920.592	-278
920.690	719
920.788	800
920.886	-330
920.984	321
921.082	-605
921.180	931
921.277	200
921.375	677
921.473	-168
921.571	939
921.669	412
921.766	786
921.864	836
921.962	733
922.060	506
922.157	-172
922.255	-117
922.352	905
922.450	735
922.548	683
922.645	-160
922.743	1126
922.840	1531
922.938	1630
923.035	1108
923.133	1381
923.230	1295
923.327	1862
923.425	1993
923.522	1807
923.619	1719
923.717	1652
923.814	581
923.911	835
924.008	2159
924.106	1600
924.203	566
924.300	1637
924.397	1340
924.494	2134
924.591	1401
924.688	1341
924.786	1207
924.883	1594
924.979	1676
925.077	1267
925.173	1678
925.270	1655
925.367	1397
925.464	1989
925.561	1434
925.658	1839
925.755	1955
925.852	2068
925.948	1798
926.045	1701
926.142	1601
926.239	2124
926.335	1055
926.432	2199
926.529	1848
926.625	1773
926.722	1070
926.818	1740
926.915	2071
927.011	1304
927.108	1177
927.204	709
927.301	1026
927.397	1056
927.494	1430
927.590	1494
927.687	909
927.783	1617
927.879	1426
927.976	657
928.072	1165
928.168	1105
928.264	945
928.361	467
928.457	1672
928.553	401
928.649	1588
928.745	1379
928.841	825
928.937	1417
929.033	696
929.129	1459
929.225	749
929.321	925
929.417	1724
929.513	900
929.609	747
929.705	837
929.801	1187
929.897	618
929.993	690
930.089	591
930.184	1122
930.280	790
930.376	860
930.471	1051
930.567	893
930.663	1461
930.758	-73
930.854	1920
930.950	592
931.045	170
931.141	345
931.236	1533
931.332	1516
931.427	914
931.523	487
931.618	636
931.714	1098
931.809	1228
931.905	277
932.000	636
932.095	825
932.191	339
932.286	674
932.381	1369
932.476	365
932.572	954
932.667	79
932.762	1192
932.857	780
932.952	1426
933.047	159
933.142	582
933.237	531
933.332	500
933.427	1174
933.522	546
933.617	442
933.712	475
933.807	1376
933.902	696
933.997	1019
934.092	1105
934.187	753
934.282	537
934.376	354
934.471	1451
934.566	-54
934.661	823
934.755	748
934.850	990
934.945	274
935.039	1646
935.134	643
935.228	1149
935.323	785
935.417	1468
935.512	208
935.606	708
935.701	562
935.795	518
935.890	1676
935.984	917
936.079	1086
936.173	1782
936.267	439
936.362	759
936.456	595
936.550	1447
936.644	1215
936.738	1040
936.833	1027
936.927	505
937.021	345
937.115	405
937.209	-121
937.303	1750
937.397	119
937.491	1346
937.585	1091
937.679	130
937.773	366
937.867	599
937.961	770
938.055	1088
938.149	1310
938.243	963
938.337	74
938.430	1190
938.524	2071
938.618	1639
938.712	1396
938.805	812
938.899	672
938.993	1015
939.086	1239
939.180	2567
939.274	1952
939.367	1050
939.461	464
939.554	50
939.648	587
939.741	656
939.835	628
939.928	1511
940.022	618
940.115	717
940.208	847
940.302	1350
940.395	362
940.488	-325
940.582	622
940.675	906
940.768	674
940.861	364
940.954	985
941.048	974
941.141	685
941.234	804
941.327	2563
941.420	2402
941.513	1305
941.606	1155
941.699	1219
941.792	1683
941.885	830
941.978	1135
942.071	688
942.164	-174
942.257	580
942.349	385
942.442	359
942.535	273
942.628	636
942.721	1395
942.813	-551
942.906	1383
942.999	305
943.091	885
943.184	843
943.277	468
943.369	487
943.462	450
943.554	707
943.647	-643
943.739	855
943.832	703
943.924	213
944.017	299
944.109	-459
944.201	639
944.294	75
944.386	842
944.478	157
944.571	992
944.663	967
944.755	355
944.847	832
944.940	1176
945.032	100
945.124	943
945.216	1310
945.308	514
945.400	830
945.492	1288
945.584	917
945.676	1159
945.768	419
945.860	1463
945.952	650
946.044	1289
946.136	718
946.228	153
946.320	-106
946.412	618
946.503	58
946.595	852
946.687	243
946.779	-51
946.870	240
946.962	308
947.054	659
947.145	438
947.237	140
947.329	659
947.420	-105
947.512	773
947.603	515
947.695	546
947.786	131
947.878	295
947.969	601
948.061	663
948.152	-777
948.243	826
948.335	439
948.426	457
948.517	-895
948.609	-17
948.700	-57
948.791	14
948.882	-8
948.973	372
949.065	-128
949.156	135
949.247	260
949.338	553
949.429	-341
949.520	368
949.611	-554
949.702	800
949.793	84
949.884	443
949.975	267
950.066	109
950.157	-130
950.247	404
950.338	-290
950.429	209
950.520	579
950.611	1349
950.701	868
950.792	638
950.883	825
950.973	94
951.064	294
951.155	120
951.245	960
951.336	438
951.427	-380
951.517	1635
951.608	1101
951.698	154
951.788	50
951.879	504
951.969	-611
952.060	84
952.150	555
952.240	466
952.331	-1207
952.421	1074
952.511	-837
952.602	360
952.692	-531
952.782	150
952.872	338
952.962	211
953.052	662
953.143	214
953.233	10
953.323	479
953.413	208
953.503	-62
953.593	115
953.683	319
953.773	-357
953.863	-460
953.953	-99
954.042	111
954.132	143
954.222	954
954.312	545
954.402	832
954.492	1211
954.581	1762
954.671	75
954.761	-194
954.850	650
954.940	-111
955.030	-26
955.119	-263
955.209	113
955.298	-378
955.388	-542
955.477	973
955.567	-1044
955.656	126
955.746	333
955.835	-306
955.925	-582
956.014	-709
956.103	-169
956.193	52
956.282	-944
956.371	266
956.461	49
956.550	-230
956.639	819
956.728	108
956.817	18
956.906	33
956.995	792
957.085	-1062
957.174	604
957.263	-33
957.352	-199
957.441	-291
957.530	-332
957.619	-105
957.708	-988
957.796	-205
957.885	-302
957.974	-803
958.063	-767
958.152	-517
958.241	-915
958.329	-402
958.418	-649
958.507	-433
958.596	793
958.684	-492
958.773	262
958.861	-617
958.950	916
959.039	-125
959.127	-509
959.216	370
959.304	43
959.393	-322
959.481	-939
959.570	-411
959.658	-509
959.746	626
959.835	1387
959.923	2198
960.011	-248
960.100	358
960.188	402
960.276	-508
960.365	202
960.453	-153
960.541	-1075
960.629	-180
960.717	-653
960.805	-1489
960.893	100
960.981	-1282
961.069	364
961.158	363
961.245	448
961.333	168
961.421	-1033
961.509	-15
961.597	-957
961.685	-628
961.773	164
961.861	-384
961.949	640
962.036	-1240
962.124	546
962.212	-145
962.299	-330
962.387	-826
962.475	-219
962.562	-1021
962.650	52
962.738	265
962.825	-228
962.913	-6
963.000	-181
963.088	-2
963.175	176
963.263	511
963.350	-334
963.438	-118
963.525	45
963.612	3634
963.700	8437
963.787	15602
963.874	5180
963.962	843
964.049	250
964.136	-520
964.223	-582
964.310	-265
964.398	20
964.485	-306
964.572	1204
964.659	3029
964.746	1349
964.833	-283
964.920	-92
965.007	-683
965.094	-1010
965.181	-641
965.268	60
965.355	97
965.441	-550
965.528	-299
965.615	-265
965.702	-148
965.789	-1274
965.875	169
965.962	-692
966.049	-797
966.136	-81
966.222	-764
966.309	-558
966.395	-695
966.482	-197
966.569	-810
966.655	-579
966.742	-408
966.828	-305
966.915	-905
967.001	-243
967.087	228
967.174	-169
967.260	884
967.347	877
967.433	5962
967.519	9068
967.605	1753
967.692	-347
967.778	-805
967.864	226
967.950	-596
968.036	-894
968.123	407
968.209	-55
968.295	-1559
968.381	599
968.467	-109
968.553	-1608
968.639	456
968.725	-359
968.811	1911
968.897	461
968.983	-732
969.069	-534
969.154	-146
969.240	339
969.326	-970
969.412	-1526
969.497	-1259
969.583	-1171
969.669	610
969.755	-513
969.840	-918
969.926	-139
970.012	-874
970.097	41
970.183	-72
970.268	324
970.354	1359
970.439	2485
970.525	5948
970.610	570
970.696	-274
970.781	-153
970.866	-1396
970.952	-23
971.037	-524
971.122	-413
971.208	-387
971.293	48
971.378	-1535
971.463	-769
971.549	657
971.634	-480
971.719	-276
971.804	365
971.889	1232
971.974	-503
972.059	-716
972.144	-632
972.229	243
972.314	-879
972.399	137
972.484	-173
972.569	-46
972.654	87
972.739	3347
972.824	1647
972.908	-132
972.993	-963
973.078	-795
973.163	-332
973.247	-677
973.332	-2206
973.417	876
973.501	-1573
973.586	-666
973.671	-548
973.755	-743
973.840	261
973.924	286
974.009	-554
974.093	-501
974.178	409
974.262	1664
974.346	1114
974.431	-414
974.515	-922
974.600	-775
974.684	-831
974.768	-1302
974.852	358
974.937	-823
975.021	-958
975.105	-803
975.189	-457
975.273	-239
975.358	-1180
975.442	-1631
975.526	-262
975.610	-997
975.694	-1447
975.778	-5
975.862	-383
975.946	-1777
976.030	-413
976.114	-1413
976.198	1
976.281	-152
976.365	288
976.449	-692
976.533	687
976.617	-1509
976.700	-639
976.784	65
976.868	-138
976.951	856
977.035	-400
977.119	-424
977.202	-735
977.286	-447
977.369	-1155
977.453	-388
977.536	-1590
977.620	-230
977.703	-412
977.787	-1361
977.870	-102
977.953	275
978.037	-1168
978.120	978
978.203	1209
978.287	2372
978.370	903
978.453	-748
978.536	-757
978.620	1021
978.703	1271
978.786	280
978.869	-1009
978.952	-1397
979.035	-53
979.118	-508
979.201	-1259
979.284	-756
979.367	-807
979.450	70
979.533	-1326
979.616	-710
979.699	-1068
979.782	-286
979.865	-929
979.948	-971
980.030	-1362
980.113	-413
980.196	-1563
980.279	216
980.361	-513
980.444	-1213
980.526	7
980.609	-406
980.692	-230
980.774	13
980.857	-1669
980.939	-262
981.022	-1166
981.104	-984
981.187	-1307
981.269	-106
981.352	-798
981.434	-1116
981.516	-100
981.599	163
981.681	-65
981.763	-700
981.846	-1174
981.928	-967
982.010	-1060
982.092	-1265
982.174	-72
982.256	-999
982.339	-1141
982.421	-462
982.503	-471
982.585	-1697
982.667	-923
982.749	-797
982.831	-1201
982.913	-1888
982.995	141
983.077	-333
983.158	120
983.240	-1254
983.322	-304
983.404	104
983.486	-1043
983.568	-7
983.649	-737
983.731	-409
983.813	-994
983.894	-930
983.976	-2043
984.058	-1708
984.139	-336
984.221	-2037
984.302	-574
984.384	-557
984.465	-751
984.547	-805
984.628	-1720
984.710	-462
984.791	-912
984.872	-1441
984.954	-1684
985.035	46
985.116	-1557
985.198	-1479
985.279	213
985.360	-94
985.441	-977
985.522	-393
985.604	-731
985.685	-2640
985.766	-802
985.847	15
985.928	-1582
986.009	-91
986.090	-866
986.171	-96
986.252	-1322
986.333	-640
986.414	-1217
986.495	-454
986.576	-765
986.656	-898
986.737	-328
986.818	-1123
986.899	-870
986.980	-1666
987.060	185
987.141	-1372
987.222	-464
987.302	-135
987.383	-735
987.464	-760
987.544	187
987.625	-1591
987.705	-562
987.786	-602
987.866	-1227
987.947	-1053
988.027	-729
988.108	-1381
988.188	-563
988.268	-717
988.349	-1329
988.429	-520
988.509	-1440
988.589	-1003
988.670	-2048
988.750	99
988.830	-1090
988.910	-481
988.990	-1038
989.070	-891
989.151	-821
989.231	-1369
989.311	-1038
989.391	-481
989.471	-1616
989.551	-322
989.631	-2100
989.711	-84
989.791	-1891
989.870	-1213
989.950	-794
990.030	-519
990.110	-918
990.190	-1624
990.269	-795
990.349	-469
990.429	-1502
990.509	-400
990.588	-1203
990.668	-1348
990.747	-999
990.827	-1374
990.907	-624
990.986	-602
991.066	-41
991.145	-1365
991.225	-777
991.304	-1007
991.383	-373
991.463	-1147
991.542	-745
991.622	-1708
991.701	-894
991.780	-1253
991.859	-665
991.939	-963
992.018	-536
992.097	-796
992.176	-1682
992.256	-1932
992.335	-1852
992.414	-299
992.493	-1367
992.572	-1236
992.651	76
992.730	-1570
992.809	-837
992.888	-1666
992.967	-1239
993.046	-651
993.125	-2154
993.203	-1427
993.282	-1320
993.361	-1484
993.440	-1959
993.519	-2363
993.597	-1813
993.676	-982
993.755	-567
993.834	-1110
993.912	-1761
993.991	-819
994.069	-1886
994.148	-1022
994.226	-1681
994.305	-1071
994.384	-1929
994.462	-290
994.540	-1773
994.619	-1529
994.697	-1001
994.776	-993
994.854	-478
994.932	-1717
995.011	-1441
995.089	-1685
995.167	-1722
995.245	-1078
995.324	-1549
995.402	-972
995.480	-1482
995.558	-984
995.636	-2269
995.714	-827
995.792	-680
995.870	-1600
995.948	-816
996.026	-1080
996.104	-2807
996.182	-506
996.260	-1228
996.338	-933
996.416	-2353
996.494	-2013
996.572	-351
996.649	-1395
996.727	-1836
996.805	-792
996.883	-1445
996.960	-1278
997.038	-812
997.116	-1103
997.193	-2174
997.271	-1452
997.348	-1393
997.426	-1630
997.504	-2256
997.581	104
997.658	-1019
997.736	-2033
997.813	-1639
997.891	-509
997.968	-1100
998.046	-895
998.123	-1417
998.200	-670
998.277	-2012
998.355	-1011
998.432	-1299
998.509	-1288
998.586	-1472
998.663	-665
998.741	-1752
998.818	-1305
998.895	-1996
998.972	-1213
999.049	-1340
999.126	-1639
999.203	-772
999.280	-1054
999.357	-1961
999.434	-1642
999.511	-681
999.587	-117
999.664	-1807
999.741	-645
999.818	-770
999.895	-1111
999.971	-1615
1000.048	-727
1000.125	25
1000.202	-1651
1000.278	-1151
1000.355	-1085
1000.431	-1992
1000.508	-1294
1000.584	-851
1000.661	-1532
1000.738	-2041
1000.814	-1092
1000.890	-815
1000.967	-1653
1001.043	-830
1001.120	-1617
1001.196	-1357
1001.272	-1639
1001.349	-1067
1001.425	-727
1001.501	-1563
1001.577	-1783
1001.654	-1012
1001.730	-1656
1001.806	-898
1001.882	-1817
1001.958	-814
1002.034	-1181
1002.110	-1665
1002.186	-1670
1002.262	-1050
1002.338	-1773
1002.414	-999
1002.490	-708
1002.566	-1301
1002.642	-1213
1002.718	-940
1002.794	-717
1002.870	-1408
1002.945	-666
1003.021	-1954
1003.097	-1667
1003.173	-1056
1003.248	-1883
1003.324	-1619
1003.400	-1158
1003.475	-2139
1003.551	-1258
1003.626	-1134
1003.702	-1650
1003.777	-1530
1003.853	-1507
1003.928	-1625
1004.004	-1169
1004.079	-593
1004.155	-1305
1004.230	-1862
1004.305	75
1004.381	-2258
1004.456	-1571
1004.531	-1235
1004.607	-757
1004.682	-1225
1004.757	-670
1004.832	-1800
1004.907	-1468
1004.982	-752
1005.057	-865
1005.133	-1714
1005.208	-1240
1005.283	-1694
1005.358	-468
1005.433	-1884
1005.508	-1268
1005.583	-1873
1005.657	-880
1005.732	-444
1005.807	-1193
1005.882	-1469
1005.957	-1307
1006.032	-523
1006.106	-1070
1006.181	-1436
1006.256	-614
1006.331	-2312
1006.405	-1268
1006.480	-2037
1006.554	-1870
1006.629	-1442
1006.704	-1440
1006.778	-1676
1006.853	-1257
1006.927	-1611
1007.002	-1341
1007.076	-1044
1007.150	-1669
1007.225	-1003
1007.299	-685
1007.373	-2418
1007.448	-781
1007.522	-899
1007.596	-356
1007.671	-1560
1007.745	-826
1007.819	-1531
1007.893	-1134
1007.967	-1050
1008.041	-2027
1008.115	-1323
1008.190	-1845
1008.264	-1212
1008.338	-1688
1008.412	-2090
1008.486	-380
1008.560	-965
1008.633	-2072
1008.707	-1819
1008.781	-769
1008.855	-1698
1008.929	-784
1009.003	-2115
1009.076	-1343
1009.150	-922
1009.224	-1405
1009.298	-823
1009.371	-1474
1009.445	-1203
1009.519	-1347
1009.592	-2486
1009.666	-1667
1009.739	-863
1009.813	-2242
1009.886	-361
1009.960	-1930
1010.033	-497
1010.107	-851
1010.180	-2767
1010.253	-1043
1010.327	-2297
1010.400	-553
1010.473	-2090
1010.547	-276
1010.620	-1724
1010.693	-1128
1010.766	-1510
1010.840	-1001
1010.913	-1688
1010.986	-1583
1011.059	-1806
1011.132	-1483
1011.205	-1352
1011.278	-691
1011.351	-1606
1011.424	-1115
1011.497	-1384
1011.570	-898
1011.643	-2173
1011.716	-1261
1011.789	-1613
1011.862	-965
1011.934	-512
1012.007	-1535
1012.080	-1611
1012.153	-1712
1012.225	-963
1012.298	-1959
1012.371	-2010
1012.443	-1230
1012.516	-1798
1012.588	-712
1012.661	-2169
1012.733	-2050
1012.806	-565
1012.879	-1780
1012.951	-753
1013.023	-1588
1013.096	-1593
1013.168	-1677
1013.241	-1060
1013.313	-1340
1013.385	-2117
1013.458	-1331
1013.530	-1375
1013.602	-2323
1013.674	-1700
1013.746	-1717
1013.819	-1910
1013.891	-1119
1013.963	-2236
1014.035	-2194
1014.107	-1857
1014.179	-1111
1014.251	-2161
1014.323	-1461
1014.395	-567
1014.467	-1286
1014.539	-2309
1014.611	-1582
1014.683	-1795
1014.754	-1011
1014.826	-1442
1014.898	-2124
1014.970	-2182
1015.042	-766
1015.113	-2227
1015.185	-1665
1015.257	-1511
1015.328	-495
1015.400	-951
1015.471	-1402
1015.543	-2113
1015.615	-1611
1015.686	-1506
1015.757	-2080
1015.829	-1129
1015.901	-2367
1015.972	-1676
1016.043	-2534
1016.115	-2068
1016.186	-2596
1016.257	-1381
1016.328	-1273
1016.400	-1794
1016.471	-2172
1016.542	-1819
1016.613	-1499
1016.685	-1931
1016.756	-1464
1016.827	-1695
1016.898	-1529
1016.969	-1630
1017.040	-2238
1017.111	-2182
1017.182	-1015
1017.253	-1478
1017.324	-2036
1017.395	-2342
1017.466	-2116
1017.537	-1830
1017.608	-1976
1017.678	-1773
1017.749	-2305
1017.820	-2097
1017.891	-1626
1017.961	-2730
1018.032	-1598
1018.103	-926
1018.173	-1694
1018.244	-1829
1018.315	-1748
1018.385	-1862
1018.456	-1051
1018.526	-2228
1018.597	-1710
1018.667	-1973
1018.738	-1868
1018.808	-1806
1018.878	-1627
1018.949	-1035
1019.019	-1725
1019.089	-1516
1019.160	-1981
1019.230	-3075
1019.300	-1444
1019.371	-2887
1019.441	-838
1019.511	-1715
1019.581	-2020
1019.651	-2098
1019.721	-1781
1019.791	-1973
1019.861	-2141
1019.931	-1364
1020.001	-1857
1020.071	-2520
1020.141	-2049
1020.211	-1344
1020.281	-2455
1020.351	-2102
1020.421	-537
1020.491	-1807
1020.560	-1904
1020.630	-1797
1020.700	-2043
1020.770	-1970
1020.839	-1337
1020.909	-1854
1020.979	-1746
1021.048	-2991
1021.118	-1740
1021.187	-1774
1021.257	-2223
1021.326	-2195
1021.396	-2354
1021.465	-1423
1021.535	-2083
1021.604	-2639
1021.674	-1774
1021.743	-1495
1021.812	-2796
1021.882	-1641
1021.951	-1718
1022.020	-2074
1022.089	-2139
1022.159	-2172
1022.228	-1943
1022.297	-1626
1022.366	-1753
1022.435	-1855
1022.504	-1589
1022.573	-2426
1022.642	-1803
1022.711	-1764
1022.781	-1153
1022.849	-2095
1022.918	-2027
1022.987	-2344
1023.056	-1695
1023.125	-2155
1023.194	-1354
1023.263	-1592
1023.331	-1870
1023.400	-3753
1023.469	-2384
1023.538	-1964
1023.606	-2553
1023.675	-1696
1023.744	-1760
1023.812	-2527
1023.881	-2278
1023.949	-2298
1024.018	-1882
1024.086	-2221
1024.155	-1659
1024.223	-2185
1024.292	-1552
1024.360	-2040
1024.429	-2118
1024.497	-2617
1024.565	-1151
1024.634	-2436
1024.702	-2503
1024.770	-1803
1024.838	-1958
1024.907	-2047
1024.975	-1429
1025.043	-2144
1025.111	-2021
1025.179	-1972
1025.247	-1183
1025.315	-2362
1025.383	-2015
1025.451	-2878
1025.519	-2662
1025.587	-1991
1025.655	-1604
1025.723	-2201
1025.791	-2942
1025.859	-2127
1025.927	-1786
1025.995	-2455
1026.062	-1646
1026.130	-2072
1026.198	-2217
1026.266	-2298
1026.333	-2059
1026.401	-1682
1026.469	-1493
1026.536	-2414
1026.604	-2167
1026.671	-2403
1026.739	-2746
1026.806	-1903
1026.874	-1740
1026.941	-2215
1027.009	-2789
1027.076	-2178
1027.144	-2135
1027.211	-2113
1027.278	-2192
1027.345	-2049
1027.413	-1478
1027.480	-2855
1027.547	-2108
1027.614	-2980
1027.682	-1699
1027.749	-2152
1027.816	-2206
1027.883	-1617
1027.950	-1602
1028.017	-2289
1028.084	-1932
1028.151	-2536
1028.218	-1423
1028.285	-1710
1028.352	-2476
1028.419	-2377
1028.486	-2075
1028.553	-2100
1028.619	-2641
1028.686	-1514
1028.753	-2055
1028.820	-2102
1028.886	-1648
1028.953	-2191
1029.020	-2798
1029.086	-2248
1029.153	-2359
1029.220	-2418
1029.286	-2053
1029.353	-2022
1029.419	-2315
1029.486	-1655
1029.552	-2850
1029.619	-2572
1029.685	-2017
1029.751	-2326
1029.818	-1947
1029.884	-3092
1029.951	-1234
1030.017	-2334
1030.083	-2303
1030.149	-1999
1030.216	-1892
1030.282	-1793
1030.348	-2085
1030.414	-2396
1030.480	-2133
1030.546	-2194
1030.612	-1533
1030.678	-2986
1030.744	-1830
1030.810	-2711
1030.876	-1720
1030.942	-2314
1031.008	-2155
1031.074	-3073
1031.140	-2073
1031.206	-1280
1031.272	-2278
1031.337	-2119
1031.403	-1595
1031.469	-1719
1031.534	-2424
1031.600	-1509
1031.666	-2777
1031.731	-2432
1031.797	-1757
1031.863	-2486
1031.928	-2423
1031.994	-3123
1032.059	-1714
1032.125	-2003
1032.190	-1703
1032.256	-2718
1032.321	-2265
1032.386	-3136
1032.452	-1493
1032.517	-2083
1032.582	-2144
1032.647	-2983
1032.713	-2120
1032.778	-2116
1032.843	-2118
1032.908	-2471
1032.974	-1118
1033.039	-2074
1033.104	-815
1033.169	-2178
1033.234	-1287
1033.299	-2079
1033.364	-1176
1033.429	-1516
1033.494	-2681
1033.559	-1920
1033.624	-2175
1033.688	-2224
1033.753	-1461
1033.818	-1813
1033.883	-1798
1033.948	-1862
1034.013	-1677
1034.077	-1894
1034.142	-886
1034.207	-2092
1034.271	-1586
1034.336	-1353
1034.400	-1007
1034.465	-670
1034.530	-1137
1034.594	-1494
1034.658	-2090
1034.723	-1968
1034.787	-1635
1034.852	-1791
1034.916	-2153
1034.981	-1832
1035.045	-2428
1035.109	-2893
1035.173	-1880
1035.238	-2286
1035.302	-1615
1035.366	-1789
1035.430	-2411
1035.495	-2252
1035.559	-2169
1035.623	-2143
1035.687	-2879
1035.751	-2515
1035.815	-1368
1035.879	-3158
1035.943	-1777
1036.007	-2037
1036.071	-1969
1036.135	-1933
1036.198	-1740
1036.262	-2441
1036.326	-1760
1036.390	-1991
1036.454	-1206
1036.517	-1742
1036.581	-1177
1036.645	-1314
1036.709	-1139
1036.772	-1635
1036.836	-2612
1036.900	-2193
1036.963	-2131
1037.026	-2106
1037.090	-1780
1037.154	-2732
1037.217	-1656
1037.280	-3151
1037.344	-1527
1037.407	-2689
1037.471	-2452
1037.534	-1820
1037.597	-912
1037.661	-2372
1037.724	-2300
1037.787	-2641
1037.850	-2938
1037.913	-2376
1037.977	-975
1038.040	-2060
1038.103	-2302
1038.166	-1992
1038.229	-1709
1038.292	-2156
1038.355	-1611
1038.418	-2324
1038.481	-1454
1038.544	-2203
1038.607	-1987
1038.670	-1365
1038.732	-2212
1038.795	-2011
1038.858	-2046
1038.921	-1853
1038.984	-1450
1039.046	-2310
1039.109	-2445
1039.172	-1995
1039.234	-2303
1039.297	-1928
1039.360	-2549
1039.422	-1706
1039.485	-1689
1039.547	-3003
1039.610	-1430
1039.672	-2308
1039.734	-2334
1039.797	-2257
1039.859	-1361
1039.922	-2424
1039.984	-1944
1040.046	-1915
1040.109	-1598
1040.171	-2620
1040.233	-2086
1040.295	-2259
1040.358	-2988
1040.420	-1790
1040.482	-1871
1040.544	-2637
1040.606	-2636
1040.668	-2531
1040.730	-2693
1040.792	-2661
1040.854	-1876
1040.916	-2188
1040.978	-2429
1041.040	-2003
1041.102	-1594
1041.164	-1727
1041.225	-2248
1041.287	-2764
1041.349	-2236
1041.411	-2440
1041.472	-1467
1041.534	-2626
1041.596	-2020
1041.657	-1887
1041.719	-2487
1041.781	-1884
1041.842	-2411
1041.904	-1971
1041.965	-2019
1042.027	-1882
1042.088	-1725
1042.150	-1633
1042.211	-2328
1042.272	-2379
1042.334	-1987
1042.395	-2147
1042.456	-1359
1042.518	-2092
1042.579	-1684
1042.640	-2606
1042.701	-2168
1042.763	-2020
1042.824	-1696
1042.885	-2242
1042.946	-2223
1043.007	-2332
1043.068	-2890
1043.129	-1596
1043.190	-2445
1043.251	-1714
1043.312	-2762
1043.373	-1933
1043.434	-2235
1043.495	-2522
1043.556	-1883
1043.616	-1892
1043.677	-2749
1043.738	-2385
1043.799	-2337
1043.859	-1667
1043.920	-1908
1043.981	-1941
1044.041	-2195
1044.102	-2092
1044.162	-2109
1044.223	-2888
1044.284	-2604
1044.344	-2396
1044.405	-2403
1044.465	-2435
1044.525	-1866
1044.586	-2594
1044.646	-1571
1044.707	-1854
1044.767	-2524
1044.827	-2592
1044.887	-2085
1044.948	-1721
1045.008	-2018
1045.068	-2086
1045.128	-1168
1045.188	-2944
1045.249	-1290
1045.309	-1978
1045.369	-1273
1045.429	-786
1045.489	-2337
1045.549	-2577
1045.609	-1579
1045.669	-2291
1045.729	-1792
1045.789	-2083
1045.848	-1635
1045.908	-1719
1045.968	-1087
1046.028	-1646
1046.088	-1199
1046.147	-1711
1046.207	-1854
1046.267	-1875
1046.326	-2099
1046.386	-1887
1046.446	-1424
1046.505	-1294
1046.565	-541
1046.624	-1696
1046.684	-718
1046.743	-1320
1046.803	-390
1046.862	140
1046.922	0
