'Start Wavelength	183.907
'End Wavelength	1046.922
'Gate Delay	5.000
'Gate Width (ms)	1.050
'Laser Output Level	0.000
'X Position	0.000
'Y Position	0.000
'Z Position	0.000
'Grid Point Number	1.000
'Shot Number	100.000
183.907	-317.000
183.977	-423.000
184.047	-1086
184.116	242
184.186	665
184.256	33
184.325	417
184.395	-587
184.465	21
184.534	6
184.604	-526
184.674	-148
184.743	-259
184.813	63
184.883	-353
184.952	393
185.022	630
185.092	298
185.161	-179
185.231	-317
185.301	-492
185.370	141
185.440	-247
185.509	-424
185.579	-303
185.649	-633
185.718	612
185.788	175
185.857	-757
185.927	426
185.996	52
186.066	461
186.136	107
186.205	-317
186.275	125
186.344	-469
186.414	-259
186.483	-1374
186.553	-139
186.622	1011
186.692	470
186.761	201
186.831	356
186.900	10
186.970	-106
187.039	-204
187.109	-446
187.178	18
187.248	-118
187.317	308
187.387	-132
187.456	108
187.526	-543
187.595	416
187.664	-237
187.734	261
187.803	348
187.873	668
187.942	304
188.012	797
188.081	-144
188.150	-72
188.220	-78
188.289	220
188.358	675
188.428	206
188.497	-165
188.567	104
188.636	-306
188.705	-42
188.775	290
188.844	-1320
188.913	36
188.983	304
189.052	-445
189.121	-386
189.191	-319
189.260	570
189.329	366
189.399	51
189.468	37
189.537	7
189.606	-202
189.676	426
189.745	303
189.814	464
189.883	-121
189.953	-498
190.022	165
190.091	1297
190.161	2388
190.230	331
190.299	-152
190.368	-774
190.437	-230
190.507	-480
190.576	571
190.645	62
190.714	-305
190.783	-151
190.853	34
190.922	80
190.991	-241
191.060	345
191.129	-99
191.198	-261
191.268	-2
191.337	50
191.406	-107
191.475	-371
191.544	-527
191.613	-552
191.682	-646
191.752	204
191.821	53
191.890	-146
191.959	-39
192.028	386
192.097	-11
192.166	-248
192.235	-619
192.304	756
192.373	-202
192.442	-49
192.511	142
192.580	-11
192.650	129
192.719	332
192.788	273
192.857	243
192.926	188
192.995	-227
193.064	643
193.133	689
193.202	1207
193.271	381
193.340	937
193.409	424
193.478	557
193.547	473
193.615	323
193.684	2043
193.753	531
193.822	979
193.891	532
193.960	500
194.029	-74
194.098	583
194.167	-8
194.236	730
194.305	-116
194.374	268
194.443	-62
194.512	388
194.580	414
194.649	1021
194.718	258
194.787	596
194.856	140
194.925	667
194.994	-28
195.062	-50
195.131	-245
195.200	-226
195.269	666
195.338	436
195.407	73
195.475	47
195.544	553
195.613	629
195.682	-154
195.751	944
195.819	163
195.888	362
195.957	786
196.026	212
196.094	884
196.163	219
196.232	720
196.301	828
196.369	571
196.438	57
196.507	-214
196.576	346
196.644	50
196.713	154
196.782	-562
196.850	557
196.919	601
196.988	435
197.056	31
197.125	-46
197.194	-277
197.262	99
197.331	-160
197.400	108
197.468	52
197.537	329
197.606	-14
197.674	1693
197.743	1904
197.812	8
197.880	1584
197.949	451
198.017	1738
198.086	1187
198.155	1235
198.223	806
198.292	1926
198.360	833
198.429	-87
198.497	-249
198.566	1346
198.635	2073
198.703	1022
198.772	1054
198.840	1888
198.909	2425
198.977	13
199.046	373
199.114	492
199.183	443
199.251	-685
199.320	-684
199.388	-197
199.457	931
199.525	526
199.594	695
199.662	464
199.731	-536
199.799	123
199.867	222
199.936	-3
200.004	285
200.073	687
200.141	1356
200.210	-137
200.278	194
200.346	-621
200.415	237
200.483	387
200.552	607
200.620	809
200.688	612
200.757	134
200.825	-272
200.893	336
200.962	316
201.030	450
201.098	692
201.167	89
201.235	-176
201.303	326
201.372	524
201.440	705
201.508	436
201.577	87
201.645	25
201.713	460
201.781	853
201.850	1573
201.918	50
201.986	773
202.055	914
202.123	172
202.191	631
202.259	-91
202.327	645
202.396	542
202.464	182
202.532	156
202.600	4022
202.669	2103
202.737	32
202.805	524
202.873	155
202.941	805
203.009	852
203.078	369
203.146	918
203.214	292
203.282	-86
203.350	430
203.418	318
203.487	214
203.555	233
203.623	210
203.691	604
203.759	-123
203.827	439
203.895	115
203.963	83
204.031	-469
204.099	770
204.168	-357
204.236	366
204.304	198
204.372	740
204.440	-15
204.508	-1244
204.576	-370
204.644	389
204.712	314
204.780	793
204.848	-768
204.916	2
204.984	164
205.052	1069
205.120	-200
205.188	110
205.256	0
205.324	155
205.392	-165
205.460	64
205.528	186
205.596	11
205.664	772
205.732	1109
205.799	2234
205.867	3573
205.935	255
206.003	1114
206.071	732
206.139	638
206.207	142
206.275	281
206.343	-7
206.411	-42
206.478	133
206.546	791
206.614	284
206.682	-112
206.750	267
206.818	673
206.885	1045
206.953	-64
207.021	677
207.089	472
207.157	356
207.225	205
207.292	-233
207.360	807
207.428	78
207.496	-78
207.563	211
207.631	459
207.699	168
207.767	87
207.834	415
207.902	330
207.970	-286
208.038	-184
208.105	-112
208.173	1123
208.241	964
208.309	609
208.376	683
208.444	1175
208.512	1070
208.579	-963
208.647	376
208.715	576
208.782	411
208.850	211
208.918	137
208.985	817
209.053	350
209.120	623
209.188	352
209.256	94
209.323	0
209.391	1150
209.459	1345
209.526	921
209.594	430
209.661	919
209.729	1026
209.796	993
209.864	758
209.932	-389
209.999	843
210.067	612
210.134	853
210.202	982
210.269	1066
210.337	1595
210.404	561
210.472	512
210.539	265
210.607	666
210.674	617
210.742	966
210.809	115
210.877	958
210.944	1161
211.012	-885
211.079	1512
211.146	974
211.214	443
211.281	1389
211.349	795
211.416	851
211.484	1326
211.551	456
211.618	986
211.686	525
211.753	-420
211.821	1448
211.888	523
211.955	248
212.023	636
212.090	325
212.157	279
212.225	-431
212.292	2303
212.359	4071
212.427	13117
212.494	5908
212.561	1468
212.629	741
212.696	1526
212.763	529
212.831	249
212.898	1240
212.965	403
213.032	269
213.100	759
213.167	175
213.234	1380
213.301	938
213.369	612
213.436	1100
213.503	562
213.570	696
213.638	759
213.705	-187
213.772	10
213.839	1444
213.906	1622
213.973	1137
214.041	379
214.108	748
214.175	1278
214.242	669
214.309	154
214.376	414
214.444	8
214.511	1330
214.578	743
214.645	852
214.712	659
214.779	1187
214.846	257
214.913	1230
214.980	1590
215.048	1756
215.115	957
215.182	1063
215.249	502
215.316	721
215.383	1147
215.450	1271
215.517	37
215.584	1106
215.651	181
215.718	-96
215.785	1286
215.852	1720
215.919	637
215.986	764
216.053	393
216.120	334
216.187	1091
216.254	1312
216.321	389
216.388	797
216.455	1137
216.522	591
216.589	1945
216.656	3075
216.722	2526
216.789	1958
216.856	1746
216.923	2053
216.990	1152
217.057	611
217.124	1126
217.191	101
217.258	2006
217.324	2121
217.391	3443
217.458	2198
217.525	1411
217.592	705
217.659	307
217.725	1949
217.792	1681
217.859	2068
217.926	-459
217.993	1424
218.059	984
218.126	166
218.193	509
218.260	307
218.327	-25
218.393	69
218.460	218
218.527	-187
218.594	331
218.660	2495
218.727	1935
218.794	889
218.860	1590
218.927	272
218.994	140
219.061	728
219.127	967
219.194	1146
219.261	464
219.327	-443
219.394	356
219.461	-783
219.527	570
219.594	2091
219.661	743
219.727	-79
219.794	891
219.860	500
219.927	975
219.994	1502
220.060	2996
220.127	2259
220.193	1282
220.260	1060
220.326	1693
220.393	3021
220.460	5219
220.526	2808
220.593	365
220.659	2336
220.726	1184
220.792	5722
220.859	4898
220.925	5151
220.992	9719
221.058	9285
221.125	7726
221.191	6811
221.258	2024
221.324	2061
221.391	2014
221.457	587
221.524	628
221.590	1848
221.657	7052
221.723	4188
221.789	4398
221.856	4235
221.922	1433
221.989	1359
222.055	872
222.121	-393
222.188	1768
222.254	1603
222.321	1210
222.387	213
222.453	327
222.520	371
222.586	319
222.652	828
222.719	-521
222.785	823
222.851	653
222.918	153
222.984	-91
223.050	-50
223.116	-901
223.183	1064
223.249	-314
223.315	-195
223.382	253
223.448	41
223.514	449
223.580	172
223.647	-503
223.713	-421
223.779	95
223.845	511
223.911	668
223.978	-465
224.044	558
224.110	-201
224.176	56
224.242	576
224.309	-1073
224.375	346
224.441	380
224.507	-411
224.573	-684
224.639	335
224.705	-804
224.772	712
224.838	159
224.904	267
224.970	336
225.036	449
225.102	-752
225.168	1720
225.234	533
225.300	132
225.366	595
225.432	48
225.499	-227
225.565	583
225.631	-91
225.697	676
225.763	1090
225.829	986
225.895	1664
225.961	2704
226.027	1876
226.093	109
226.159	1483
226.225	2534
226.291	6130
226.357	14173
226.423	6402
226.489	1790
226.554	2177
226.620	1386
226.686	1750
226.752	3732
226.818	4909
226.884	18545
226.950	16941
227.016	5320
227.082	2939
227.148	2261
227.214	2147
227.279	1253
227.345	880
227.411	832
227.477	1112
227.543	3885
227.609	4429
227.674	2126
227.740	1153
227.806	1516
227.872	-908
227.938	1402
228.003	1114
228.069	1180
228.135	40
228.201	503
228.267	419
228.332	1139
228.398	1457
228.464	1165
228.530	-514
228.595	1112
228.661	-173
228.727	1388
228.792	1665
228.858	473
228.924	-795
228.990	2243
229.055	-283
229.121	842
229.187	534
229.252	249
229.318	220
229.384	309
229.449	236
229.515	-1332
229.581	-872
229.646	1909
229.712	655
229.777	2735
229.843	3250
229.909	2126
229.974	1345
230.040	1731
230.105	1226
230.171	1048
230.236	1697
230.302	2814
230.368	2241
230.433	952
230.499	214
230.564	1133
230.630	-7
230.695	812
230.761	1584
230.826	-445
230.892	2371
230.957	584
231.023	457
231.088	1319
231.154	979
231.219	2355
231.284	1377
231.350	2191
231.415	802
231.481	639
231.546	594
231.612	411
231.677	-138
231.742	352
231.808	1445
231.873	803
231.939	-814
232.004	4490
232.069	2859
232.135	914
232.200	571
232.265	930
232.331	569
232.396	260
232.461	-18
232.527	1066
232.592	497
232.657	1112
232.723	2276
232.788	1532
232.853	653
232.918	172
232.984	89
233.049	593
233.114	1395
233.179	2620
233.245	4426
233.310	5385
233.375	198
233.440	1883
233.506	960
233.571	922
233.636	757
233.701	853
233.766	3079
233.832	4953
233.897	734
233.962	-365
234.027	2537
234.092	1082
234.157	460
234.222	1007
234.288	2031
234.353	10266
234.418	10227
234.483	5282
234.548	2809
234.613	469
234.678	1383
234.743	1654
234.808	10998
234.873	5257
234.938	2963
235.004	1618
235.069	1138
235.134	955
235.199	1447
235.264	758
235.329	-31
235.394	1406
235.459	2394
235.524	622
235.589	1389
235.654	346
235.719	-95
235.784	1716
235.849	1158
235.913	5399
235.978	6007
236.043	6612
236.108	1643
236.173	1145
236.238	2387
236.303	832
236.368	535
236.433	3170
236.498	6133
236.563	3336
236.627	4499
236.692	23090
236.757	18822
236.822	6757
236.887	4686
236.952	4311
237.017	1079
237.081	4018
237.146	2959
237.211	8733
237.276	21172
237.341	43292
237.405	18721
237.470	6938
237.535	5562
237.600	3264
237.664	2121
237.729	857
237.794	2074
237.859	6577
237.923	4345
237.988	2389
238.053	3995
238.118	5029
238.182	13120
238.247	13870
238.312	4508
238.376	4093
238.441	1762
238.506	3108
238.570	116
238.635	2574
238.700	1000
238.764	853
238.829	5782
238.893	8052
238.958	2828
239.023	2379
239.087	1189
239.152	1691
239.216	530
239.281	1614
239.346	1388
239.410	1183
239.475	2238
239.539	13690
239.604	11377
239.668	3477
239.733	1643
239.797	2087
239.862	7408
239.926	11990
239.991	5283
240.055	2526
240.120	416
240.184	1873
240.249	16
240.313	868
240.378	1337
240.442	7393
240.507	14753
240.571	3349
240.635	5257
240.700	8819
240.764	2845
240.829	1693
240.893	-106
240.957	1522
241.022	6892
241.086	14785
241.151	5839
241.215	1304
241.279	4317
241.344	7075
241.408	3634
241.472	780
241.537	2674
241.601	2332
241.665	296
241.730	460
241.794	2032
241.858	499
241.922	1335
241.987	1232
242.051	740
242.115	-222
242.179	1126
242.244	432
242.308	1909
242.372	1583
242.436	899
242.501	1401
242.565	19
242.629	322
242.693	1406
242.757	-294
242.822	532
242.886	1907
242.950	1317
243.014	922
243.078	1184
243.142	1114
243.206	1576
243.271	2221
243.335	481
243.399	2898
243.463	11099
243.527	39095
243.591	11084
243.655	3548
243.719	1717
243.783	2639
243.847	4481
243.911	5074
243.975	6174
244.040	3241
244.104	2459
244.168	2275
244.232	2316
244.296	3833
244.360	3847
244.424	2020
244.488	2229
244.552	2593
244.615	238
244.679	1265
244.743	1295
244.807	1390
244.871	866
244.935	1096
244.999	-344
245.063	871
245.127	1576
245.191	3311
245.255	3135
245.319	2585
245.383	829
245.446	2386
245.510	341
245.574	1481
245.638	2233
245.702	456
245.766	6580
245.829	3784
245.893	1768
245.957	1502
246.021	2076
246.085	1320
246.149	2440
246.212	7480
246.276	12311
246.340	4089
246.404	3472
246.467	3645
246.531	4666
246.595	4059
246.659	2758
246.722	2751
246.786	2796
246.850	4029
246.913	5096
246.977	1400
247.041	1759
247.104	1861
247.168	1461
247.232	6327
247.295	16838
247.359	8120
247.423	2266
247.486	5628
247.550	4076
247.614	2508
247.677	3619
247.741	1881
247.804	1134
247.868	2448
247.932	5215
247.995	16319
248.059	4891
248.122	1063
248.186	3621
248.249	5245
248.313	23103
248.376	25692
248.440	16726
248.503	4409
248.567	4353
248.630	5546
248.694	8023
248.757	9943
248.821	25427
248.884	14344
248.948	12042
249.011	20548
249.075	30307
249.138	26117
249.202	9152
249.265	4917
249.328	10330
249.392	5199
249.455	4451
249.519	2264
249.582	4024
249.645	6956
249.709	4800
249.772	2857
249.835	3385
249.899	4058
249.962	3859
250.025	2208
250.089	8774
250.152	14678
250.215	5797
250.279	3899
250.342	5047
250.405	3847
250.468	3299
250.532	4499
250.595	7294
250.658	30574
250.721	60875
250.785	18157
250.848	10142
250.911	5138
250.974	4965
251.038	6343
251.101	15610
251.164	7509
251.227	8155
251.290	6272
251.354	9548
251.417	46801
251.480	49756
251.543	25103
251.606	91623
251.669	68581
251.732	21093
251.795	20714
251.859	22994
251.922	55946
251.985	33553
252.048	10713
252.111	7574
252.174	6673
252.237	11894
252.300	30727
252.363	31530
252.426	78205
252.489	30826
252.552	13966
252.615	9130
252.678	9502
252.741	21545
252.804	28186
252.867	76578
252.930	43855
252.993	22076
253.056	12745
253.119	8072
253.182	6497
253.245	11091
253.308	8725
253.371	7783
253.434	7089
253.497	7092
253.559	15440
253.622	9851
253.685	11119
253.748	11471
253.811	5565
253.874	8985
253.937	7566
254.000	4255
254.062	8772
254.125	16269
254.188	12792
254.251	10750
254.314	4974
254.376	9908
254.439	10839
254.502	7957
254.565	8929
254.628	17702
254.690	9633
254.753	5044
254.816	4472
254.878	4521
254.941	11193
255.004	12924
255.067	5081
255.129	3579
255.192	2208
255.255	1248
255.317	3543
255.380	2016
255.443	1215
255.505	1155
255.568	1109
255.631	1948
255.693	2199
255.756	146
255.819	2275
255.881	1611
255.944	1141
256.006	835
256.069	1160
256.132	1407
256.194	3038
256.257	11174
256.319	7617
256.382	7078
256.444	4320
256.507	2100
256.569	2094
256.632	1231
256.694	4186
256.757	9954
256.819	36021
256.882	11818
256.944	5159
257.007	4009
257.069	4142
257.132	2385
257.194	2545
257.257	1286
257.319	1617
257.381	1556
257.444	8427
257.506	39710
257.569	44625
257.631	22240
257.693	10914
257.756	5034
257.818	5698
257.880	2637
257.943	2290
258.005	1251
258.067	952
258.130	2452
258.192	2508
258.254	6924
258.317	3823
258.379	2684
258.441	8020
258.503	9578
258.566	13464
258.628	20984
258.690	3918
258.753	2753
258.815	5999
258.877	2501
258.939	1601
259.001	2253
259.064	1178
259.126	2715
259.188	5470
259.250	3339
259.312	3042
259.375	10435
259.437	6393
259.499	2444
259.561	1947
259.623	2358
259.685	1299
259.747	1820
259.809	11736
259.872	27691
259.934	36282
259.996	31302
260.058	7468
260.120	3817
260.182	3437
260.244	1843
260.306	1292
260.368	1976
260.430	1959
260.492	3226
260.554	8449
260.616	7705
260.678	16645
260.740	28907
260.802	6328
260.864	3562
260.926	2930
260.988	3679
261.050	2237
261.112	3185
261.174	20662
261.236	22294
261.298	5706
261.359	10864
261.421	17965
261.483	3551
261.545	2597
261.607	807
261.669	2779
261.731	5681
261.793	17428
261.854	5412
261.916	2975
261.978	1762
262.040	2489
262.102	2396
262.164	5293
262.225	4903
262.287	2669
262.349	5753
262.411	5573
262.472	3007
262.534	6235
262.596	18209
262.658	5683
262.719	2440
262.781	4673
262.843	15093
262.904	8113
262.966	4240
263.028	4920
263.090	25066
263.151	71317
263.213	20421
263.275	8184
263.336	4866
263.398	3487
263.459	2329
263.521	2165
263.583	6406
263.644	3929
263.706	1788
263.767	446
263.829	1586
263.891	842
263.952	772
264.014	348
264.075	1603
264.137	2310
264.198	2678
264.260	621
264.321	511
264.383	2563
264.444	6729
264.506	1241
264.567	1527
264.629	1638
264.690	2329
264.752	2270
264.813	1665
264.875	259
264.936	1363
264.998	8
265.059	99
265.120	662
265.182	2753
265.243	14332
265.305	15468
265.366	4300
265.427	2399
265.489	2080
265.550	-350
265.611	676
265.673	1253
265.734	175
265.795	1132
265.857	596
265.918	382
265.979	4311
266.040	27572
266.102	23039
266.163	5493
266.224	3058
266.286	2195
266.347	879
266.408	1878
266.469	1929
266.530	1837
266.592	779
266.653	3752
266.714	6103
266.775	1489
266.836	1090
266.898	1234
266.959	1689
267.020	1757
267.081	2889
267.142	1490
267.203	1991
267.264	1327
267.326	2947
267.387	1476
267.448	851
267.509	1198
267.570	736
267.631	996
267.692	1016
267.753	4514
267.814	990
267.875	3426
267.936	9411
267.997	2119
268.058	1338
268.119	246
268.180	2218
268.241	139
268.302	460
268.363	-477
268.424	761
268.485	851
268.546	1026
268.607	6
268.668	233
268.729	371
268.790	244
268.851	1279
268.912	3552
268.972	5657
269.033	1756
269.094	152
269.155	368
269.216	584
269.277	1121
269.338	1095
269.398	874
269.459	73
269.520	1323
269.581	2743
269.642	2656
269.702	1671
269.763	1658
269.824	765
269.885	2471
269.945	4023
270.006	1462
270.067	-231
270.128	492
270.188	-64
270.249	423
270.310	-423
270.370	445
270.431	1448
270.492	539
270.553	398
270.613	2119
270.674	7313
270.734	3064
270.795	1314
270.856	2388
270.916	1629
270.977	977
271.038	488
271.098	1963
271.159	2935
271.219	2880
271.280	2187
271.340	923
271.401	1702
271.462	8849
271.522	3502
271.583	1790
271.643	1611
271.704	1035
271.764	1095
271.825	4196
271.885	20189
271.946	31795
272.006	9474
272.066	13080
272.127	26151
272.187	7637
272.248	3483
272.308	4139
272.369	18140
272.429	10750
272.489	5362
272.550	5742
272.610	5764
272.671	5578
272.731	5420
272.791	10314
272.852	3981
272.912	3908
272.972	1036
273.033	2355
273.093	3979
273.153	3957
273.214	3700
273.274	3952
273.334	11664
273.394	27747
273.455	10222
273.515	9521
273.575	21687
273.635	10762
273.696	13899
273.756	29477
273.816	11615
273.876	7166
273.936	14624
273.997	29698
274.057	6652
274.117	4786
274.177	5939
274.237	27658
274.297	28690
274.358	22374
274.418	20999
274.478	15463
274.538	5617
274.598	4505
274.658	21969
274.718	31371
274.778	11044
274.838	5553
274.898	12806
274.958	43666
275.018	31132
275.078	19950
275.138	7263
275.198	3829
275.258	3321
275.318	4617
275.378	5956
275.438	6596
275.498	5043
275.558	15946
275.618	39150
275.678	20023
275.738	9339
275.798	6829
275.858	3769
275.918	1484
275.978	2926
276.038	2542
276.098	1909
276.157	3544
276.217	14921
276.277	7838
276.337	4581
276.397	2284
276.457	3949
276.517	2241
276.576	2109
276.636	2952
276.696	4881
276.756	9443
276.815	7532
276.875	2782
276.935	3546
276.995	3648
277.055	3269
277.114	2243
277.174	3682
277.234	12351
277.293	6003
277.353	2747
277.413	2771
277.472	2070
277.532	3123
277.592	4341
277.651	19655
277.711	45289
277.771	13891
277.830	41082
277.890	38045
277.950	23523
278.009	78480
278.069	32280
278.128	28648
278.188	44039
278.248	17511
278.307	45338
278.367	31555
278.426	8589
278.486	4828
278.545	4046
278.605	3598
278.664	3417
278.724	3536
278.783	10521
278.843	30954
278.902	9972
278.962	5417
279.021	7250
279.081	16112
279.140	16115
279.199	7302
279.259	6948
279.318	7596
279.378	11849
279.437	22063
279.496	71489
279.556	227947
279.615	211236
279.675	60398
279.734	32756
279.793	43782
279.853	61111
279.912	21755
279.971	12039
280.031	11044
280.090	16827
280.149	30465
280.208	35108
280.268	147756
280.327	177794
280.386	46228
280.445	24538
280.505	20496
280.564	10842
280.623	8405
280.682	9233
280.742	13723
280.801	5937
280.860	4044
280.919	2757
280.978	3043
281.037	3491
281.097	3398
281.156	4257
281.215	2855
281.274	3461
281.333	16489
281.392	14650
281.451	2894
281.510	2464
281.569	2263
281.628	2985
281.688	2644
281.747	1964
281.806	2648
281.865	1854
281.924	1501
281.983	1573
282.042	1195
282.101	1082
282.160	1755
282.219	1550
282.278	1670
282.337	6443
282.396	5323
282.454	2248
282.513	2954
282.572	10657
282.631	6542
282.690	2595
282.749	815
282.808	2595
282.867	2527
282.926	2067
282.985	1340
283.043	1827
283.102	1847
283.161	2892
283.220	5605
283.279	15689
283.338	4697
283.396	2443
283.455	2754
283.514	3237
283.573	8548
283.631	6670
283.690	2347
283.749	2106
283.808	4965
283.866	6322
283.925	1954
283.984	2689
284.043	3122
284.101	4275
284.160	1888
284.219	4172
284.277	3843
284.336	9026
284.395	18788
284.453	16776
284.512	6228
284.570	7208
284.629	8037
284.688	8196
284.746	9625
284.805	10986
284.863	15977
284.922	18588
284.981	20846
285.039	28994
285.098	49083
285.156	116603
285.215	223802
285.273	224084
285.332	134494
285.390	67735
285.449	42183
285.507	28912
285.566	21300
285.624	16458
285.683	11686
285.741	8337
285.799	7724
285.858	5966
285.916	6163
285.975	4296
286.033	3629
286.091	4281
286.150	3101
286.208	2931
286.267	3670
286.325	4095
286.383	3627
286.442	3545
286.500	2934
286.558	3915
286.616	1919
286.675	3797
286.733	3779
286.791	2710
286.850	3203
286.908	2899
286.966	5790
287.024	3337
287.083	1218
287.141	1272
287.199	3014
287.257	2360
287.315	2191
287.374	2468
287.432	6273
287.490	4488
287.548	2153
287.606	2180
287.664	2336
287.723	3195
287.781	3121
287.839	1750
287.897	2706
287.955	3399
288.013	5346
288.071	14577
288.129	58478
288.187	194660
288.245	82110
288.303	22160
288.361	13159
288.419	9662
288.477	6631
288.535	4700
288.593	3105
288.651	2740
288.709	1947
288.767	1727
288.825	677
288.883	1503
288.941	2254
288.999	1634
289.057	787
289.115	586
289.173	545
289.231	722
289.289	912
289.346	1835
289.404	1375
289.462	2322
289.520	2789
289.578	1480
289.636	955
289.694	954
289.751	305
289.809	669
289.867	-479
289.925	1579
289.983	2129
290.040	158
290.098	299
290.156	998
290.214	659
290.271	253
290.329	446
290.387	-140
290.444	499
290.502	-509
290.560	-142
290.617	-192
290.675	853
290.733	658
290.790	1214
290.848	277
290.906	737
290.963	1027
291.021	673
291.078	450
291.136	853
291.194	3422
291.251	9950
291.309	2155
291.366	274
291.424	759
291.481	-275
291.539	1190
291.596	1088
291.654	-195
291.711	218
291.769	1331
291.826	2418
291.884	1831
291.941	-370
291.999	268
292.056	-158
292.114	518
292.171	-23
292.228	-101
292.286	1174
292.343	2845
292.401	3460
292.458	1885
292.515	806
292.573	846
292.630	1778
292.687	2435
292.745	450
292.802	974
292.859	5279
292.917	15486
292.974	7730
293.031	1661
293.089	933
293.146	887
293.203	253
293.260	312
293.318	995
293.375	1758
293.432	-767
293.489	677
293.546	798
293.604	2296
293.661	12269
293.718	31857
293.775	13637
293.832	5576
293.889	4867
293.947	5293
294.004	3140
294.061	1918
294.118	4420
294.175	10100
294.232	9016
294.289	4528
294.346	1597
294.403	1303
294.460	760
294.517	2121
294.574	632
294.631	999
294.688	1135
294.745	5682
294.802	25446
294.859	20881
294.916	7036
294.973	5323
295.030	3607
295.087	2877
295.144	1926
295.201	1286
295.258	614
295.315	1605
295.372	9031
295.429	23630
295.486	8610
295.542	2380
295.599	4849
295.656	8255
295.713	8532
295.770	18150
295.827	6245
295.883	1665
295.940	2284
295.997	3468
296.054	4401
296.111	1186
296.167	818
296.224	179
296.281	-36
296.338	383
296.394	865
296.451	1747
296.508	6281
296.564	14773
296.621	8569
296.678	19406
296.734	33099
296.791	11007
296.848	5601
296.904	4939
296.961	10968
297.018	21461
297.074	16562
297.131	5973
297.187	4296
297.244	6621
297.301	22330
297.357	49726
297.414	16606
297.470	5272
297.527	3558
297.583	3981
297.640	2670
297.696	1175
297.753	1126
297.809	1106
297.866	-436
297.922	199
297.979	778
298.035	1800
298.092	3345
298.148	11794
298.204	12209
298.261	5554
298.317	7567
298.374	27143
298.430	18019
298.486	6891
298.543	5581
298.599	7470
298.656	11043
298.712	10668
298.768	17936
298.824	14593
298.881	4618
298.937	3071
298.993	1099
299.050	3052
299.106	1205
299.162	919
299.218	2688
299.275	2282
299.331	1748
299.387	6372
299.443	24227
299.500	29263
299.556	11491
299.612	4950
299.668	4713
299.724	5538
299.780	6160
299.837	3369
299.893	5862
299.949	19179
300.005	25540
300.061	18848
300.117	38108
300.173	18821
300.229	8254
300.285	8796
300.341	8674
300.397	4994
300.453	3134
300.510	2807
300.566	3531
300.622	4090
300.678	10885
300.734	21501
300.790	20201
300.845	27469
300.901	16084
300.957	19831
301.013	15608
301.069	5854
301.125	3652
301.181	3843
301.237	3627
301.293	1590
301.349	2473
301.405	2729
301.461	4122
301.516	10574
301.572	5899
301.628	4550
301.684	5824
301.740	9281
301.796	18463
301.851	10312
301.907	14930
301.963	15368
302.019	24205
302.074	72330
302.130	76729
302.186	39976
302.242	15095
302.297	8894
302.353	7259
302.409	14463
302.464	15351
302.520	10226
302.576	22570
302.631	29828
302.687	14542
302.743	5553
302.798	2908
302.854	1772
302.910	2510
302.965	3418
303.021	6325
303.076	7150
303.132	5973
303.187	7955
303.243	3877
303.299	2006
303.354	1107
303.410	855
303.465	541
303.521	813
303.576	1635
303.632	1970
303.687	6269
303.743	23461
303.798	22521
303.853	8735
303.909	3048
303.964	2855
304.020	3650
304.075	7106
304.130	5451
304.186	9660
304.241	9939
304.297	7574
304.352	2853
304.358	2813
304.407	2490
304.449	1902
304.463	1706
304.518	1656
304.539	1635
304.573	1579
304.629	1933
304.630	1983
304.684	4637
304.720	11577
304.739	14969
304.794	29260
304.811	24671
304.850	13319
304.902	5057
304.905	4558
304.960	3222
304.992	3065
305.015	2973
305.071	3759
305.083	3672
305.126	3107
305.173	1626
305.181	1418
305.236	739
305.264	812
305.292	1001
305.347	2662
305.354	2906
305.402	4249
305.445	4392
305.457	4389
305.512	3588
305.535	3503
305.567	3448
305.622	3921
305.626	4106
305.678	10172
305.716	20597
305.733	23731
305.788	30703
305.807	26180
305.843	19297
305.897	26086
305.898	26126
305.953	27814
305.988	17697
306.008	12521
306.063	6780
306.078	5611
306.118	3203
306.168	2326
306.173	2262
306.228	1514
306.259	1313
306.283	1172
306.338	733
306.349	784
306.393	1288
306.440	2050
306.448	2138
306.503	1804
306.530	2184
306.558	3515
306.613	7156
306.620	7827
306.668	14359
306.711	23394
306.723	24021
306.778	19445
306.801	14295
306.833	8842
306.888	4349
306.892	4133
306.943	2968
306.982	2258
306.997	2077
307.052	2127
307.072	1920
307.107	1749
307.162	2392
307.163	2398
307.217	3762
307.253	4312
307.272	4310
307.327	5555
307.343	5242
307.381	4805
307.434	5187
307.436	5422
307.491	10771
307.524	16483
307.546	18028
307.600	20495
307.614	18956
307.655	11823
307.704	5095
307.710	4898
307.765	5672
307.795	6618
307.819	7649
307.874	11199
307.885	11406
307.929	10172
307.975	8387
307.984	8834
308.038	13608
308.065	17383
308.093	35824
308.148	78359
308.156	87378
308.202	136463
308.246	176115
308.257	169474
308.312	84308
308.336	51799
308.366	38163
308.421	24463
308.426	23053
308.475	14808
308.517	9706
308.530	8957
308.585	7845
308.607	7303
308.639	7261
308.694	8047
308.697	8103
308.748	12529
308.787	16841
308.803	16772
308.857	14362
308.877	12931
308.912	12485
308.967	13654
308.967	13663
309.021	23389
309.058	30546
309.076	38490
309.130	67123
309.148	76994
309.185	144141
309.238	251997
309.239	252945
309.293	283268
309.328	268974
309.348	230121
309.402	103235
309.418	71545
309.457	50960
309.508	31791
309.511	31781
309.566	36108
309.598	39577
309.620	54072
309.674	95853
309.688	106714
309.729	96242
309.778	70829
309.783	68575
309.837	40792
309.868	27031
309.892	29202
309.946	36435
309.959	38876
310.001	47842
310.049	56379
310.055	54452
310.109	33405
310.139	21341
310.163	17274
310.218	10184
310.229	8830
310.272	7157
310.319	5623
310.326	5364
310.381	3769
310.409	3038
310.435	3286
310.489	3605
310.499	3693
310.543	3488
310.589	3304
310.598	3311
310.652	3227
310.679	3169
310.706	3002
310.760	2857
310.769	2798
310.814	2851
310.859	2896
310.868	2949
310.923	3200
310.948	3355
310.977	3658
311.031	4062
311.038	4150
311.085	3736
311.128	3033
311.139	3107
311.193	3434
311.218	3636
311.247	3599
311.301	3488
311.308	3457
311.356	3073
311.398	2765
311.410	2834
311.464	2974
311.488	3070
311.518	3026
311.572	2901
311.578	2877
311.626	4256
311.668	5457
311.680	5285
311.734	4364
311.758	3939
311.788	4145
311.842	4490
311.847	4513
311.896	5414
311.937	6151
311.950	6185
312.004	6227
312.027	6230
312.058	5367
312.112	3775
312.117	3608
312.165	3568
312.207	3523
312.297	3715
312.386	3003
312.476	4731
312.566	10515
312.656	5076
312.745	3047
312.835	3307
312.925	3565
313.015	3130
313.104	3660
313.194	4684
313.284	4261
313.374	6348
313.463	6071
313.553	3711
313.643	3157
313.732	2369
313.822	3316
313.912	3005
314.001	5149
314.091	5230
314.180	5003
314.270	5975
314.360	5941
314.449	5524
314.539	3642
314.628	3171
314.718	3550
314.808	4122
314.897	3483
314.987	4495
315.076	5383
315.166	6401
315.255	5375
315.345	5714
315.434	5277
315.524	5432
315.613	6217
315.703	9408
315.792	18977
315.881	71752
315.971	21264
316.060	10856
316.150	10074
316.239	9584
316.328	4371
316.418	4009
316.507	4101
316.597	5582
316.686	4650
316.775	5640
316.865	10288
316.954	4093
317.043	2751
317.133	3094
317.222	3610
317.311	3481
317.400	2640
317.490	6723
317.579	7717
317.668	7039
317.757	12493
317.847	33279
317.936	124378
318.025	38093
318.114	25292
318.203	12114
318.293	10469
318.382	18157
318.471	14417
318.560	17167
318.649	24847
318.738	6497
318.828	6008
318.917	6049
319.006	5989
319.095	12708
319.184	34059
319.273	23830
319.362	14660
319.451	4511
319.540	5238
319.629	11059
319.718	20318
319.807	7910
319.896	12667
319.985	43900
320.074	18009
320.163	4632
320.252	5848
320.341	4763
320.430	4219
320.519	8948
320.608	4726
320.697	4164
320.786	4643
320.875	7480
320.964	10956
321.053	14472
321.142	20102
321.230	20879
321.319	14626
321.408	34610
321.497	14918
321.586	14343
321.675	13005
321.764	12126
321.852	8306
321.941	19372
322.030	12971
322.119	12665
322.207	35668
322.296	17984
322.385	11389
322.474	16806
322.562	46837
322.651	22417
322.740	15961
322.829	19858
322.917	15294
323.006	11225
323.095	10504
323.183	6511
323.272	9328
323.361	17362
323.449	45065
323.538	15691
323.626	29227
323.715	18216
323.804	7033
323.892	26093
323.981	16607
324.069	6033
324.158	13070
324.246	11951
324.335	7170
324.424	11970
324.512	4683
324.601	5970
324.689	6159
324.778	7209
324.866	10191
324.954	3688
325.043	4096
325.131	6487
325.220	9425
325.308	11530
325.397	9564
325.485	6899
325.574	3959
325.662	2777
325.750	3204
325.839	3386
325.927	2411
326.015	3522
326.104	4567
326.192	6368
326.280	3069
326.369	3282
326.457	5362
326.545	10384
326.634	4121
326.722	2602
326.810	3227
326.898	3179
326.987	4409
327.075	8364
327.163	8747
327.251	3202
327.340	3313
327.428	4794
327.516	2953
327.604	3215
327.692	3207
327.781	2923
327.869	4484
327.957	3696
328.045	3853
328.133	2973
328.221	2801
328.309	2815
328.397	3302
328.485	4445
328.574	7133
328.662	24394
328.750	10429
328.838	3556
328.926	3119
329.014	2679
329.102	3590
329.190	8667
329.278	7133
329.366	1827
329.454	1223
329.542	2330
329.630	877
329.718	2188
329.806	3475
329.893	2719
329.981	2356
330.069	3255
330.157	8929
330.245	30810
330.333	14315
330.421	4062
330.509	6098
330.597	27246
330.684	15310
330.772	5595
330.860	4019
330.948	4804
331.036	2468
331.123	1702
331.211	2470
331.299	1951
331.387	4492
331.475	9069
331.562	4254
331.650	2413
331.738	2943
331.825	2368
331.913	2150
332.001	2738
332.089	3104
332.176	4886
332.264	11166
332.352	9013
332.439	3930
332.527	2883
332.614	1924
332.702	3345
332.790	3373
332.877	8166
332.965	17489
333.052	9879
333.140	11030
333.228	32661
333.315	7006
333.403	3697
333.490	8783
333.578	14757
333.665	47526
333.753	16486
333.840	3675
333.928	4817
334.015	8604
334.103	12942
334.190	41976
334.278	12001
334.365	8912
334.452	9837
334.540	5505
334.627	4941
334.715	7220
334.802	13960
334.889	52616
334.977	63214
335.064	17620
335.151	6746
335.239	5119
335.326	5929
335.413	20324
335.501	27721
335.588	5907
335.675	4165
335.762	4374
335.850	7137
335.937	8748
336.024	20069
336.111	66627
336.199	44021
336.286	12406
336.373	5335
336.460	2984
336.547	3369
336.635	4265
336.722	3643
336.809	3967
336.896	6684
336.983	15308
337.070	28818
337.157	43677
337.245	32195
337.332	20160
337.419	3714
337.506	2314
337.593	2839
337.680	7817
337.767	21688
337.854	7661
337.941	7761
338.028	13688
338.115	5723
338.202	5387
338.289	8636
338.376	29903
338.463	10249
338.550	13224
338.637	14003
338.724	5654
338.811	8373
338.898	1459
338.984	1939
339.071	2639
339.158	4417
339.245	13108
339.332	9307
339.419	6813
339.506	5701
339.593	1145
339.679	2662
339.766	2016
339.853	3498
339.940	8198
340.027	3240
340.113	3184
340.200	5570
340.287	3252
340.374	4586
340.460	7806
340.547	2988
340.634	6651
340.720	28401
340.807	15572
340.894	3713
340.980	2922
341.067	2398
341.154	3501
341.240	5716
341.327	13902
341.414	8873
341.500	13278
341.587	4727
341.674	2933
341.760	9005
341.847	9782
341.933	3456
342.020	826
342.106	2368
342.193	4104
342.279	7658
342.366	6460
342.452	8850
342.539	4891
342.625	11225
342.712	29744
342.798	12156
342.885	4429
342.971	1670
343.058	1584
343.144	1956
343.230	3176
343.317	6378
343.403	4836
343.490	2337
343.576	1666
343.662	3409
343.749	4209
343.835	4889
343.921	11849
344.008	76028
344.094	173034
344.180	35152
344.267	12138
344.353	42030
344.439	40545
344.525	14263
344.612	10666
344.698	5875
344.784	3538
344.870	2652
344.957	2504
345.043	5723
345.129	3672
345.215	8532
345.301	5516
345.387	3157
345.474	1482
345.560	1787
345.646	1860
345.732	3391
345.818	7862
345.904	5031
345.990	3901
346.076	3735
346.162	9990
346.249	4094
346.335	2221
346.421	4375
346.507	17490
346.593	69140
346.679	13929
346.765	4548
346.851	3391
346.937	3021
347.023	2868
347.108	2836
347.194	3991
347.280	4967
347.366	6260
347.452	20717
347.538	84031
347.624	54067
347.710	39359
347.796	5537
347.882	2394
347.967	2023
348.053	2419
348.139	1615
348.225	1494
348.311	2399
348.397	3008
348.482	4259
348.568	4762
348.654	2068
348.740	6941
348.825	6032
348.911	8054
348.997	35609
349.083	72856
349.168	10409
349.254	7362
349.340	6610
349.425	2956
349.511	3201
349.597	3836
349.682	10390
349.768	41273
349.854	18336
349.939	3092
350.025	2007
350.110	2823
350.196	1668
350.282	419
350.367	1931
350.453	2849
350.538	3778
350.624	3102
350.709	3038
350.795	1060
350.880	1384
350.966	4114
351.051	5531
351.137	2325
351.222	2726
351.308	11631
351.393	32289
351.479	12136
351.564	5992
351.649	3216
351.735	2434
351.820	2064
351.906	1854
351.991	3595
352.076	20246
352.162	30464
352.247	5656
352.332	4805
352.418	15529
352.503	18179
352.588	46559
352.673	34284
352.759	7108
352.844	3660
352.929	3979
353.014	5413
353.100	3548
353.185	5978
353.270	10592
353.355	10392
353.441	2711
353.526	2621
353.611	9148
353.696	10040
353.781	6604
353.866	2257
353.952	2860
354.037	8508
354.122	19821
354.207	17633
354.292	6045
354.377	2555
354.462	1866
354.547	3269
354.632	3551
354.717	3771
354.802	6617
354.887	3225
354.972	1736
355.057	1815
355.142	1623
355.227	3210
355.312	5487
355.397	13549
355.482	33688
355.567	15081
355.652	11621
355.737	13139
355.822	47958
355.907	36046
355.991	5874
356.076	2515
356.161	2613
356.246	2116
356.331	3849
356.416	11520
356.501	85778
356.585	85167
356.670	12616
356.755	7526
356.840	11041
356.924	51886
357.009	195754
357.094	66828
357.179	14668
357.263	8208
357.348	9036
357.433	8228
357.517	7696
357.602	6093
357.687	7595
357.771	23655
357.856	114635
357.941	55203
358.025	44571
358.110	192140
358.195	81572
358.279	10451
358.364	8210
358.448	29404
358.533	83356
358.617	56690
358.702	58832
358.787	19724
358.871	11032
358.956	8945
359.040	3618
359.125	4070
359.209	8626
359.294	57006
359.378	98868
359.462	19139
359.547	5721
359.631	3047
359.716	1872
359.800	3418
359.885	4870
359.969	2515
360.053	3111
360.138	2542
360.222	6006
360.306	10790
360.391	10525
360.475	50664
360.559	104094
360.644	37636
360.728	21952
360.812	43665
360.896	127534
360.981	41860
361.065	17285
361.149	5558
361.233	4850
361.318	4059
361.402	5631
361.486	5057
361.570	3859
361.654	4713
361.739	15227
361.823	79569
361.907	129561
361.991	22388
362.075	9899
362.159	19871
362.243	15529
362.327	18870
362.411	32534
362.495	13119
362.580	5520
362.664	3729
362.748	3522
362.832	5234
362.916	11164
363.000	49310
363.084	140498
363.168	161802
363.252	31927
363.336	10025
363.420	10566
363.503	30286
363.587	33664
363.671	8516
363.755	5570
363.839	10719
363.923	4718
364.007	12584
364.091	11675
364.175	13329
364.258	56761
364.342	59706
364.426	122208
364.510	65687
364.594	19673
364.677	22782
364.761	112103
364.845	75334
364.929	19560
365.013	14272
365.096	11779
365.180	13021
365.264	13536
365.347	49215
365.431	18343
365.515	4454
365.598	3220
365.682	4217
365.766	3044
365.849	3936
365.933	3600
366.017	4365
366.100	2331
366.184	1243
366.267	2965
366.351	2676
366.435	1879
366.518	2038
366.602	1406
366.685	2907
366.769	3592
366.852	4653
366.936	9181
367.019	6019
367.103	2820
367.186	5420
367.270	1916
367.353	2410
367.436	2953
367.520	2016
367.603	3882
367.687	5544
367.770	12119
367.853	8499
367.937	31561
368.020	50955
368.104	9396
368.187	9023
368.270	11978
368.353	10167
368.437	11182
368.520	19168
368.603	15916
368.687	32631
368.770	63922
368.853	13237
368.936	10445
369.020	8193
369.103	3557
369.186	2438
369.269	2993
369.352	7484
369.436	10252
369.519	5797
369.602	1891
369.685	4389
369.768	2977
369.851	3088
369.934	2055
370.018	3070
370.101	9429
370.184	8731
370.267	4237
370.350	8572
370.433	14723
370.516	58839
370.599	83414
370.682	22185
370.765	29574
370.848	39055
370.931	81458
371.014	25561
371.097	5256
371.180	4507
371.263	2818
371.346	1208
371.429	3723
371.511	2789
371.594	6332
371.677	9475
371.760	8964
371.843	12295
371.926	66757
372.009	158032
372.091	45125
372.174	30539
372.257	83382
372.340	29820
372.423	14212
372.505	13580
372.588	7271
372.671	22535
372.754	79713
372.836	36873
372.919	14809
373.002	25035
373.085	10111
373.167	12706
373.250	31836
373.332	78505
373.415	100544
373.498	212882
373.580	71385
373.663	122657
373.746	153768
373.828	26974
373.911	10034
373.993	8480
374.076	23902
374.159	21693
374.241	16959
374.324	64888
374.406	42909
374.489	62645
374.571	185799
374.654	68256
374.736	32474
374.819	113184
374.901	155042
374.983	156727
375.066	24359
375.148	7716
375.231	21836
375.313	39630
375.395	14658
375.478	5027
375.560	4256
375.643	7355
375.725	29959
375.807	139538
375.890	87738
375.972	21767
376.054	13349
376.136	15254
376.219	8892
376.301	37724
376.383	121951
376.465	39925
376.548	20199
376.630	28891
376.712	99582
376.794	41351
376.877	5803
376.959	1536
377.041	3139
377.123	4427
377.205	4526
377.287	1009
377.369	3230
377.452	1975
377.534	3408
377.616	2870
377.698	2429
377.780	982
377.862	2731
377.944	3580
378.026	597
378.108	2115
378.190	1309
378.272	2383
378.354	1383
378.436	1226
378.518	3029
378.600	11416
378.682	13746
378.764	42792
378.846	31940
378.928	6828
379.010	10524
379.091	5862
379.173	2799
379.255	1993
379.337	4969
379.419	19482
379.501	65052
379.583	22388
379.664	5521
379.746	12597
379.828	41743
379.910	56954
379.991	50653
380.073	7238
380.155	4114
380.237	3363
380.318	2338
380.400	2913
380.482	8324
380.564	12309
380.645	12388
380.727	10998
380.809	6504
380.890	4398
380.972	2709
381.053	3799
381.135	4883
381.217	14195
381.298	43907
381.380	19525
381.461	18663
381.543	94731
381.624	115467
381.706	19199
381.787	9104
381.869	11027
381.951	41554
382.032	170928
382.113	95756
382.195	18183
382.276	13279
382.358	30587
382.439	93059
382.521	101558
382.602	162825
382.684	69586
382.765	127465
382.846	181335
382.928	369633
383.009	191788
383.090	117590
383.172	463272
383.253	690366
383.334	207354
383.416	159180
383.497	81252
383.578	46891
383.659	94184
383.741	371933
383.822	941144
383.903	463549
383.984	131609
384.066	171693
384.147	98089
384.228	24496
384.309	16061
384.390	13948
384.471	9921
384.553	9229
384.634	12568
384.715	13341
384.796	7559
384.877	10345
384.958	44135
385.039	48656
385.120	16430
385.201	8592
385.282	7584
385.363	9019
385.444	10368
385.525	18431
385.606	71995
385.687	60215
385.768	12242
385.849	14399
385.930	74474
386.011	131017
386.092	30070
386.173	6697
386.254	4843
386.335	4678
386.416	5262
386.496	24286
386.577	39890
386.658	12003
386.739	5470
386.820	5273
386.901	2987
386.981	4639
387.062	4408
387.143	9979
387.224	42608
387.304	37941
387.385	13080
387.466	6635
387.547	8789
387.627	8036
387.708	17313
387.789	79977
387.869	101283
387.950	25669
388.031	4694
388.111	1588
388.192	5655
388.273	9051
388.353	7380
388.434	5387
388.514	16068
388.595	84733
388.676	101552
388.756	40105
388.837	35875
388.917	20258
388.998	2887
389.078	4587
389.159	4323
389.239	2823
389.320	7250
389.400	4100
389.480	14894
389.561	47402
389.641	21833
389.722	6470
389.802	9621
389.883	18195
389.963	58844
390.043	30587
390.124	5426
390.204	13186
390.284	45903
390.365	25663
390.445	21457
390.525	76119
390.605	71426
390.686	23244
390.766	9188
390.846	6804
390.927	3947
391.007	2282
391.087	5453
391.167	6025
391.247	3771
391.328	5104
391.408	6559
391.488	5370
391.568	2781
391.648	6594
391.728	8368
391.808	8134
391.888	12243
391.969	27048
392.049	41790
392.129	16345
392.209	19737
392.289	57580
392.369	27429
392.449	13395
392.529	10813
392.609	11794
392.689	18189
392.769	59870
392.849	50653
392.929	33186
393.009	80783
393.089	71655
393.169	79204
393.248	256285
393.328	885127
393.408	925267
393.488	267014
393.568	75579
393.648	36377
393.728	23124
393.807	15442
393.887	13452
393.967	11525
394.047	11942
394.127	13666
394.206	19890
394.286	70555
394.366	361513
394.446	369684
394.525	71081
394.605	17185
394.685	11365
394.764	16839
394.844	27396
394.924	22260
395.003	10158
395.083	7912
395.163	6183
395.242	6853
395.322	6828
395.402	3730
395.481	7268
395.561	11997
395.640	37125
395.720	40517
395.799	39336
395.879	27990
395.958	25613
396.038	101663
396.117	466243
396.197	490130
396.276	113054
396.356	36254
396.435	25125
396.515	21452
396.594	30315
396.673	66201
396.753	263941
396.832	801358
396.912	566741
396.991	130725
397.070	39016
397.150	19203
397.229	15095
397.308	22329
397.388	39381
397.467	17389
397.546	6653
397.625	5783
397.705	9634
397.784	7275
397.863	3539
397.942	3285
398.022	3187
398.101	8803
398.180	25209
398.259	11050
398.338	6059
398.417	4820
398.497	2511
398.576	2829
398.655	940
398.734	1466
398.813	1162
398.892	7356
398.971	28220
399.050	13593
399.129	2698
399.208	2312
399.287	2022
399.366	840
399.445	1585
399.524	812
399.603	196
399.682	4133
399.761	11004
399.840	32904
399.919	23146
399.998	2263
400.077	792
400.156	-405
400.235	3123
400.313	782
400.392	1486
400.471	18989
400.550	32457
400.629	6076
400.708	2622
400.786	1049
400.865	3660
400.944	4322
401.023	4323
401.102	142
401.180	563
401.259	648
401.338	240
401.416	3164
401.495	874
401.574	1038
401.652	801
401.731	2653
401.810	1182
401.888	347
401.967	190
402.046	1944
402.124	3195
402.203	1634
402.281	1939
402.360	3488
402.438	6599
402.517	2844
402.596	1162
402.674	1004
402.753	384
402.831	1076
402.910	2423
402.988	11339
403.066	46006
403.145	24297
403.223	13054
403.302	35328
403.380	25121
403.459	24511
403.537	7956
403.615	2414
403.694	-667
403.772	994
403.850	474
403.929	-22
404.007	41
404.085	3697
404.164	3843
404.242	877
404.320	2574
404.398	8305
404.477	22552
404.555	120582
404.633	100121
404.711	13531
404.789	3714
404.868	1276
404.946	317
405.024	384
405.102	2
405.180	-567
405.258	248
405.336	1473
405.415	-240
405.493	2280
405.571	3372
405.649	741
405.727	941
405.805	2791
405.883	2875
405.961	2222
406.039	1067
406.117	-380
406.195	3405
406.273	23134
406.351	98960
406.429	50819
406.507	3986
406.585	771
406.663	2428
406.740	2562
406.818	1458
406.896	-390
406.974	1532
407.052	5879
407.130	54411
407.208	77008
407.285	12125
407.363	47
407.441	1521
407.519	983
407.596	1750
407.674	5249
407.752	16950
407.830	12909
407.907	3989
407.985	553
408.063	1158
408.141	-752
408.218	1984
408.296	471
408.373	901
408.451	1568
408.529	1575
408.606	354
408.684	318
408.762	-233
408.839	-641
408.917	46
408.994	542
409.072	-446
409.149	323
409.227	3700
409.304	6017
409.382	4366
409.459	5315
409.537	10161
409.614	6506
409.692	3811
409.769	4147
409.846	9373
409.924	12287
410.001	5827
410.079	3599
410.156	3110
410.233	1708
410.311	629
410.388	1302
410.465	1698
410.543	1357
410.620	1128
410.697	1161
410.775	1643
410.852	-463
410.929	2980
411.006	3619
411.083	2005
411.161	4129
411.238	4284
411.315	1426
411.392	324
411.469	2662
411.547	1743
411.624	-460
411.701	94
411.778	1072
411.855	5055
411.932	1637
412.009	494
412.086	606
412.163	994
412.240	214
412.317	1210
412.394	239
412.471	58
412.548	-7
412.625	165
412.702	1124
412.779	3072
412.856	1509
412.933	-1035
413.010	7
413.087	1445
413.164	16674
413.241	24565
413.318	4658
413.395	2986
413.471	3677
413.548	725
413.625	419
413.702	568
413.779	367
413.855	-449
413.932	-332
414.009	-798
414.086	-629
414.162	-216
414.239	1033
414.316	16206
414.393	40932
414.469	12423
414.546	770
414.623	-175
414.699	411
414.776	1202
414.853	-391
414.929	642
415.006	105
415.082	230
415.159	56
415.236	-867
415.312	695
415.389	2939
415.465	4084
415.542	1336
415.618	-44
415.695	1497
415.771	588
415.848	-218
415.924	851
416.000	-237
416.077	216
416.153	-2106
416.230	-1406
416.306	-589
416.383	142
416.459	-386
416.535	52
416.612	-457
416.688	-399
416.764	1169
416.841	246
416.917	416
416.993	529
417.069	625
417.146	1603
417.222	1825
417.298	577
417.374	-661
417.451	448
417.527	1512
417.603	1650
417.679	473
417.755	-116
417.831	-367
417.908	-193
417.984	-771
418.060	-1030
418.136	3486
418.212	4237
418.288	993
418.364	167
418.440	-423
418.516	1605
418.592	653
418.668	5022
418.744	10297
418.820	6655
418.896	460
418.972	-780
419.048	-174
419.124	4695
419.200	2017
419.276	321
419.352	-551
419.428	-60
419.504	281
419.579	1336
419.655	165
419.731	355
419.807	6519
419.883	12482
419.959	7429
420.034	913
420.110	4830
420.186	25224
420.262	18950
420.337	1315
420.413	1106
420.489	-250
420.565	394
420.640	317
420.716	929
420.792	-715
420.867	679
420.943	191
421.019	2626
421.094	1325
421.170	872
421.245	-211
421.321	1323
421.397	1370
421.472	3851
421.548	8065
421.623	7018
421.699	3552
421.774	3608
421.850	2575
421.925	5809
422.001	5123
422.076	5706
422.152	6084
422.227	10561
422.302	14185
422.378	20981
422.453	42525
422.529	107466
422.604	308982
422.679	472185
422.755	323704
422.830	117595
422.905	46631
422.981	24364
423.056	15480
423.131	11252
423.207	7312
423.282	6146
423.357	10879
423.432	6237
423.508	5893
423.583	12655
423.658	8955
423.733	2841
423.808	3387
423.883	3402
423.959	4093
424.034	4277
424.109	3712
424.184	873
424.259	517
424.334	806
424.409	-168
424.484	673
424.559	1090
424.634	738
424.709	2283
424.784	2681
424.859	1044
424.934	3200
425.009	16659
425.084	28279
425.159	9127
425.234	1558
425.309	3090
425.384	40984
425.459	72596
425.534	15571
425.609	666
425.683	-174
425.758	602
425.833	370
425.908	1370
425.983	8870
426.058	28305
426.132	9910
426.207	954
426.282	1428
426.357	-284
426.431	-305
426.506	-342
426.581	555
426.655	80
426.730	-667
426.805	-541
426.879	355
426.954	159
427.029	3055
427.103	29336
427.178	79847
427.253	30792
427.327	3694
427.402	15899
427.476	63784
427.551	30334
427.625	2706
427.700	891
427.774	-800
427.849	-246
427.923	-1181
427.998	324
428.072	-231
428.147	4416
428.221	29495
428.296	101587
428.370	51131
428.444	3574
428.519	1449
428.593	3678
428.667	2470
428.742	3677
428.816	9936
428.890	64203
428.965	137866
429.039	45500
429.113	6648
429.188	1084
429.262	109
429.336	3335
429.410	11604
429.485	6288
429.559	2720
429.633	1700
429.707	741
429.781	6775
429.855	53363
429.930	85594
430.004	24907
430.078	21383
430.152	33310
430.226	131427
430.300	130014
430.374	17056
430.448	3926
430.522	7097
430.596	21363
430.670	21700
430.744	105635
430.818	143918
430.892	24725
430.966	2361
431.040	240
431.114	-487
431.188	-1233
431.262	-378
431.336	-493
431.410	1367
431.484	5567
431.557	4177
431.631	-768
431.705	1544
431.779	17404
431.853	91330
431.927	58741
432.000	4878
432.074	-45
432.148	181
432.222	-257
432.295	-138
432.369	-220
432.443	2319
432.516	28655
432.590	79138
432.664	23798
432.737	582
432.811	-726
432.885	-1300
432.958	-714
433.032	-1486
433.106	-1015
433.179	-1550
433.253	-1459
433.326	-1177
433.400	-1371
433.473	-872
433.547	-1861
433.620	-1432
433.694	1079
433.767	2884
433.841	-3
433.914	1169
433.988	1881
434.061	-472
434.134	-1343
434.208	-1376
434.281	-1189
434.355	-1467
434.428	2886
434.501	1884
434.575	-1364
434.648	-574
434.721	-1269
434.795	-1166
434.868	-1553
434.941	-2214
435.014	-749
435.088	703
435.161	7060
435.234	8029
435.307	5033
435.381	1149
435.454	1851
435.527	4500
435.600	3981
435.673	1957
435.746	600
435.819	-513
435.892	85
435.966	360
436.039	-824
436.112	-1057
436.185	-1459
436.258	-862
436.331	-2223
436.404	-1786
436.477	-1551
436.550	-1825
436.623	-1867
436.696	-1912
436.769	-818
436.842	-608
436.915	-1100
436.987	233
437.060	-378
437.133	643
437.206	-1754
437.279	-1192
437.352	-822
437.425	-590
437.498	-1208
437.570	1734
437.643	939
437.716	-1342
437.789	-1875
437.861	620
437.934	5352
438.007	1053
438.080	-1345
438.152	-54
438.225	3857
438.298	42547
438.370	120787
438.443	41729
438.516	6338
438.588	-693
438.661	-1280
438.734	-989
438.806	-1577
438.879	-728
438.951	313
439.024	760
439.096	-726
439.169	-946
439.241	-1589
439.314	-1446
439.386	-991
439.459	-765
439.531	704
439.604	-422
439.676	-1309
439.749	-1600
439.821	-1482
439.893	-1450
439.966	-1181
440.038	-1148
440.110	-419
440.183	-1144
440.255	-1263
440.327	1189
440.400	13308
440.472	67478
440.544	39154
440.617	2783
440.689	1638
440.761	1637
440.833	3985
440.905	1352
440.978	-1759
441.050	-1272
441.122	-502
441.194	-1533
441.266	-1216
441.338	-1268
441.411	800
441.483	17035
441.555	24299
441.627	3922
441.699	-193
441.771	-87
441.843	-1305
441.915	-950
441.987	-994
442.059	-1497
442.131	-527
442.203	491
442.275	566
442.347	955
442.419	4684
442.491	41454
442.563	106680
442.635	35497
442.706	7766
442.778	4780
442.850	280
442.922	-1324
442.994	291
443.066	601
443.137	309
443.209	228
443.281	1548
443.353	8214
443.425	48237
443.496	194451
443.568	178343
443.640	56522
443.711	7327
443.783	1045
443.855	115
443.926	-870
443.998	-883
444.070	542
444.141	155
444.213	1321
444.285	2296
444.356	890
444.428	-659
444.499	-624
444.571	-1105
444.642	-419
444.714	-765
444.785	1183
444.857	969
444.928	1925
445.000	735
445.071	1703
445.143	2665
445.214	3237
445.285	5944
445.357	21756
445.428	112627
445.500	271387
445.571	154628
445.642	81497
445.714	19597
445.785	7690
445.856	1914
445.928	3081
445.999	1376
446.070	1138
446.141	1473
446.213	1924
446.284	-651
446.355	-294
446.426	-2012
446.497	-162
446.569	-506
446.640	1058
446.711	430
446.782	-1270
446.853	-267
446.924	-177
446.995	-1630
447.066	-895
447.138	-512
447.209	-546
447.280	-1730
447.351	-1828
447.422	-1859
447.493	-698
447.564	-170
447.635	990
447.706	-1404
447.777	-1870
447.847	-1283
447.918	-2271
447.989	-824
448.060	-553
448.131	1014
448.202	1324
448.273	1140
448.344	300
448.414	-1461
448.485	-2143
448.556	-1648
448.627	-1862
448.698	-1439
448.768	-1930
448.839	-1993
448.910	-1006
448.981	-685
449.051	-1388
449.122	-1714
449.193	-1597
449.263	-1468
449.334	-2010
449.405	-215
449.475	1807
449.546	-162
449.616	-270
449.687	1705
449.758	-136
449.828	-1431
449.899	-1656
449.969	-1729
450.040	-2165
450.110	-1452
450.181	-677
450.251	-1636
450.322	-1758
450.392	-1575
450.463	-705
450.533	-1763
450.604	-1733
450.674	-2008
450.744	-1048
450.815	-1948
450.885	-1192
450.955	-1370
451.026	-945
451.096	-1620
451.166	-967
451.237	-462
451.307	1604
451.377	-727
451.447	-2207
451.518	-2301
451.588	-1770
451.658	-1496
451.728	-1050
451.799	2171
451.869	1348
451.939	-1398
452.009	-1355
452.079	-1145
452.149	-1696
452.219	-967
452.289	1713
452.360	289
452.430	-846
452.500	-414
452.570	329
452.640	3760
452.710	11769
452.780	10941
452.850	6654
452.920	5244
452.990	713
453.060	315
453.129	863
453.199	-397
453.269	4191
453.339	8343
453.409	12540
453.479	14196
453.549	19402
453.619	19703
453.688	4918
453.758	-1320
453.828	-462
453.898	-1705
453.968	-1007
454.037	-875
454.087	-1033
454.107	-1105
454.168	-711
454.177	-658
454.247	-1811
454.249	-1835
454.316	-2763
454.330	-2362
454.386	-836
454.411	-370
454.456	354
454.492	568
454.525	773
454.574	560
454.595	449
454.655	-602
454.665	-771
454.734	-1324
454.736	-1295
454.804	-645
454.817	-85
454.873	2239
454.898	1786
454.943	861
454.979	140
455.013	-445
455.060	-550
455.082	-615
455.141	-1145
455.152	-1254
455.221	1076
455.222	1108
455.291	3306
455.303	3871
455.360	6076
455.384	10456
455.430	18021
455.465	13029
455.499	8496
455.546	4268
455.569	2257
455.627	688
455.638	384
455.707	-1347
455.708	-1339
455.777	-1321
455.789	-1301
455.846	-1229
455.869	-1095
455.916	-982
455.950	-1004
455.985	-952
456.031	-1558
456.054	-1910
456.112	-913
456.124	-685
456.193	-1059
456.193	-1071
456.262	-871
456.274	-854
456.332	-843
456.355	-962
456.401	-1196
456.436	-1027
456.470	-895
456.516	-951
456.540	-995
456.597	-997
456.609	-999
456.678	-1292
456.678	-1299
456.747	-1374
456.759	-1317
456.817	-1180
456.840	-1319
456.886	-1633
456.920	-1135
456.955	-624
457.001	-947
457.024	-1144
457.082	-600
457.093	-442
457.162	-219
457.163	-207
457.232	-374
457.243	-435
457.301	-616
457.324	-879
457.370	-1323
457.405	-908
457.439	-608
457.485	-1203
457.508	-1314
457.566	-524
457.577	-428
457.646	-232
457.647	-217
457.715	1446
457.727	1770
457.784	3904
457.808	6551
457.853	10316
457.889	11822
457.922	12209
457.969	7254
457.991	6348
458.050	7534
458.060	7731
458.129	18105
458.130	18314
458.198	21185
458.211	18300
458.267	7303
458.292	4602
458.336	1271
458.372	1119
458.405	2497
458.453	4828
458.474	6218
458.533	14010
458.543	14875
458.611	33229
458.614	33157
458.680	20043
458.694	15535
458.749	4130
458.775	2514
458.818	305
458.855	78
458.887	54
458.936	-341
458.955	-578
459.016	-736
459.024	-657
459.093	343
459.097	396
459.162	130
459.177	33
459.230	216
459.257	125
459.299	-204
459.338	-94
459.368	122
459.418	503
459.437	443
459.499	-282
459.505	-281
459.574	10
459.579	66
459.643	-331
459.659	-631
459.711	-647
459.740	-164
459.780	142
459.820	22
459.849	37
459.900	184
459.917	260
459.981	333
459.986	327
460.054	566
460.061	676
460.123	1159
460.141	839
460.191	269
460.222	246
460.260	252
460.302	581
460.328	729
460.382	661
460.397	592
460.462	-205
460.465	-217
460.534	445
460.543	521
460.602	2667
460.623	3482
460.671	5592
460.703	8714
460.739	9400
460.783	7221
460.808	6000
460.864	1215
460.876	615
460.944	-220
460.945	-227
461.013	-99
461.024	-61
461.081	136
461.104	272
461.150	406
461.184	576
461.218	629
461.264	490
461.286	573
461.345	357
461.355	208
461.423	268
461.425	240
461.491	94
461.505	238
461.559	1198
461.585	1738
461.628	2239
461.665	2510
461.696	2475
461.745	2753
461.764	2694
461.825	1384
461.832	1345
461.901	865
461.905	896
461.969	569
461.985	399
462.037	743
462.065	951
462.105	627
462.145	287
462.173	477
462.225	926
462.241	923
462.305	1404
462.310	1394
462.378	745
462.385	616
462.446	691
462.465	869
462.514	1202
462.545	1279
462.582	1110
462.625	1553
462.650	1422
462.705	31
462.718	2
462.785	414
462.786	411
462.854	-7
462.865	-42
462.922	559
462.945	1006
462.990	1307
463.025	1018
463.058	629
463.104	345
463.126	258
463.184	-284
463.194	-270
463.262	25
463.264	50
463.330	343
463.344	383
463.398	929
463.424	927
463.466	358
463.504	176
463.533	430
463.583	749
463.601	697
463.663	462
463.669	512
463.737	827
463.743	922
463.805	1653
463.823	1745
463.873	2602
463.903	3063
463.940	3030
463.982	3226
464.008	2663
464.062	855
464.076	771
464.142	761
464.144	762
464.211	456
464.221	469
464.279	873
464.301	918
464.347	845
464.381	913
464.414	1306
464.461	1806
464.482	2382
464.540	3885
464.550	3980
464.617	4880
464.620	4912
464.685	3982
464.699	3519
464.753	2746
464.779	2647
464.820	2719
464.859	2728
464.888	2334
464.938	1654
464.956	2003
465.018	3179
465.023	3172
465.091	2951
465.098	2939
465.158	3973
465.177	4358
465.226	3680
465.257	3075
465.293	2673
465.336	2053
465.361	2263
465.416	2865
465.428	2905
465.495	3348
465.496	3355
465.563	3140
465.575	3135
465.631	3390
465.654	3597
465.698	3039
465.734	2169
465.765	1995
465.813	1937
465.833	1719
465.893	1105
465.900	1162
465.968	1649
465.972	1674
466.035	1079
466.052	916
466.102	1628
466.131	2025
466.170	1782
466.210	1475
466.237	1714
466.290	2251
466.304	2253
466.369	2157
466.372	2145
466.439	1604
466.449	1515
466.506	2269
466.528	2557
466.573	3197
466.607	3650
466.641	4744
466.687	6285
466.708	6539
466.766	7248
466.775	6770
466.842	3025
466.845	2840
466.909	2980
466.925	3024
466.977	2521
467.004	2246
467.044	2508
467.083	2804
467.111	2824
467.163	2793
467.178	3042
467.242	4074
467.245	4048
467.312	3352
467.321	3253
467.379	3646
467.400	3781
467.446	3422
467.480	3152
467.559	3657
467.638	2795
467.717	2517
467.796	3884
467.875	3706
467.955	2131
468.034	4627
468.113	5864
468.192	8829
468.271	3559
468.350	3679
468.429	5017
468.508	7015
468.588	3937
468.667	2482
468.746	1365
468.825	2913
468.904	2711
468.983	3207
469.062	3080
469.141	3930
469.220	2382
469.299	1493
469.378	2197
469.456	3738
469.535	3040
469.614	2500
469.693	3057
469.772	4450
469.851	4485
469.930	3657
470.009	3457
470.088	4318
470.166	7503
470.245	15515
470.324	19229
470.403	8332
470.482	4047
470.560	4193
470.639	2844
470.718	4957
470.797	3862
470.875	3366
470.954	3566
471.033	3660
471.111	2686
471.190	3003
471.269	2102
471.347	1136
471.426	2428
471.505	2425
471.583	2652
471.662	2791
471.740	2660
471.819	3560
471.898	2363
471.976	2745
472.055	1206
472.133	2696
472.212	3285
472.290	3177
472.369	2145
472.447	3001
472.526	2220
472.604	2819
472.683	3460
472.761	2827
472.839	2045
472.918	2290
472.996	2165
473.075	2939
473.153	2680
473.231	2684
473.310	2427
473.388	3090
473.466	2192
473.545	3739
473.623	5367
473.701	4834
473.780	1929
473.858	1528
473.936	3253
474.014	2750
474.093	2856
474.171	3049
474.249	3774
474.327	2741
474.405	2114
474.484	1888
474.562	1893
474.640	1795
474.718	1163
474.796	2077
474.874	1999
474.952	2012
475.030	2327
475.108	2145
475.187	1797
475.265	2547
475.343	4330
475.421	4857
475.499	2275
475.577	3062
475.655	3648
475.733	3384
475.811	3895
475.889	4701
475.966	3707
476.044	2186
476.122	2604
476.200	3531
476.278	2757
476.356	1244
476.434	2290
476.512	2657
476.590	3645
476.667	3504
476.745	1991
476.823	2543
476.901	2186
476.979	2221
477.056	2322
477.134	1935
477.212	2207
477.290	2829
477.367	680
477.445	1020
477.523	800
477.601	1268
477.678	1570
477.756	1156
477.834	1914
477.911	2321
477.989	2684
478.066	1605
478.144	1990
478.222	2321
478.299	4288
478.377	3153
478.454	1435
478.532	1421
478.609	2097
478.687	2569
478.764	1376
478.842	1938
478.919	2325
478.997	2300
479.074	918
479.152	2102
479.229	1440
479.307	1529
479.384	1023
479.461	435
479.539	395
479.616	1234
479.694	429
479.771	1206
479.848	1074
479.926	76
480.003	2204
480.080	2510
480.157	1643
480.235	1852
480.312	1255
480.389	1165
480.467	1864
480.544	1932
480.621	1521
480.698	1991
480.775	1849
480.853	2154
480.930	1799
481.007	1238
481.084	1442
481.161	1560
481.238	1671
481.315	1096
481.392	555
481.470	1428
481.547	479
481.624	568
481.701	1665
481.778	1685
481.855	606
481.932	2095
482.009	1856
482.086	2423
482.163	1511
482.240	3452
482.317	5869
482.393	4684
482.470	914
482.547	1926
482.624	791
482.701	1780
482.778	1207
482.855	732
482.932	1384
483.009	773
483.085	744
483.162	1784
483.239	2374
483.316	806
483.393	2492
483.469	2353
483.546	1337
483.623	1401
483.699	522
483.776	1692
483.853	441
483.930	2273
484.006	2925
484.083	6836
484.160	6737
484.236	12480
484.313	8998
484.389	6125
484.466	6060
484.543	4870
484.619	5363
484.696	7957
484.772	6509
484.849	6213
484.925	4726
485.002	4641
485.078	5119
485.155	5886
485.231	4420
485.308	4538
485.384	4606
485.461	5238
485.537	5695
485.614	8086
485.690	4728
485.766	4658
485.843	5449
485.919	7562
485.995	8799
486.072	5303
486.148	4599
486.224	4959
486.301	3703
486.377	5160
486.453	3698
486.530	4959
486.606	7380
486.682	7219
486.758	7575
486.835	7981
486.911	5332
486.987	10536
487.063	15369
487.139	22575
487.215	13672
487.292	7755
487.368	5963
487.444	6288
487.520	7492
487.596	7847
487.672	15808
487.748	49145
487.824	75236
487.900	20865
487.976	6747
488.052	4646
488.128	6080
488.204	5167
488.280	4685
488.356	5078
488.432	7235
488.508	10242
488.584	5452
488.660	5626
488.736	5015
488.812	5282
488.888	7667
488.964	8705
489.039	20573
489.115	34395
489.191	19020
489.267	5697
489.343	3541
489.418	2946
489.494	3154
489.570	1672
489.646	5401
489.722	3797
489.797	3264
489.873	3783
489.949	6942
490.024	6097
490.100	3135
490.176	3382
490.251	5427
490.327	7444
490.403	3174
490.478	3563
490.554	2986
490.629	2657
490.705	2238
490.781	3385
490.856	1714
490.932	3309
491.007	3861
491.083	3303
491.158	2480
491.234	3326
491.309	5444
491.385	5078
491.460	2539
491.536	4247
491.611	2994
491.686	4296
491.762	5449
491.837	13639
491.913	21135
491.988	31304
492.063	40867
492.139	8685
492.214	5423
492.289	3620
492.365	2340
492.440	2732
492.515	2090
492.590	3166
492.666	1989
492.741	2898
492.816	3432
492.891	2458
492.967	2748
493.042	2699
493.117	1054
493.192	2698
493.267	4681
493.342	17078
493.418	23575
493.493	5046
493.568	1908
493.643	2712
493.718	2327
493.793	4077
493.868	5588
493.943	4064
494.018	2774
494.093	1480
494.168	2163
494.243	2813
494.318	2076
494.393	1845
494.468	1633
494.543	2638
494.618	2193
494.693	1128
494.768	1203
494.842	1141
494.917	2179
494.992	2425
495.067	2482
495.142	1576
495.217	2021
495.292	2948
495.366	3632
495.441	3584
495.516	5881
495.591	6958
495.665	28014
495.740	74053
495.815	27820
495.890	3042
495.964	81
496.039	4715
496.114	2071
496.188	2317
496.263	1953
496.338	1524
496.412	1178
496.487	3225
496.561	3714
496.636	3607
496.710	2500
496.785	2334
496.860	2143
496.934	2031
497.009	2583
497.083	2338
497.158	1626
497.232	3003
497.307	3469
497.381	2697
497.455	3517
497.530	3275
497.604	2375
497.679	2308
497.753	3330
497.827	4945
497.902	3827
497.976	5010
498.050	10708
498.125	43911
498.199	49777
498.273	11518
498.348	7372
498.422	5629
498.496	5291
498.570	5438
498.645	1962
498.719	1244
498.793	2808
498.867	5015
498.941	5078
499.016	15760
499.090	44991
499.164	18253
499.238	2671
499.312	2722
499.386	3110
499.460	3907
499.534	3094
499.609	4209
499.683	3566
499.757	4037
499.831	6250
499.905	26579
499.979	27342
500.053	4983
500.127	5380
500.201	5653
500.275	3300
500.349	3258
500.422	3011
500.496	6732
500.570	13043
500.644	19935
500.718	29367
500.792	8178
500.866	2220
500.940	2446
501.013	2204
501.087	1427
501.161	5267
501.235	5114
501.309	9226
501.382	21262
501.456	22516
501.530	5884
501.603	6442
501.677	3524
501.751	22
501.825	3664
501.898	2762
501.972	8187
502.046	4993
502.119	961
502.193	4474
502.266	9531
502.340	4546
502.413	3912
502.487	7492
502.561	3748
502.634	1457
502.708	3130
502.781	1200
502.855	2223
502.928	30
503.002	1510
503.075	473
503.149	1183
503.222	1137
503.295	175
503.369	2197
503.442	1939
503.516	6621
503.589	14728
503.662	9590
503.736	3798
503.809	7424
503.882	7097
503.956	9658
504.029	13105
504.102	25266
504.175	41537
504.249	9828
504.322	4461
504.395	1809
504.468	1479
504.542	959
504.615	249
504.688	1741
504.761	-884
504.834	2874
504.907	2839
504.980	5821
505.053	2535
505.127	-571
505.200	5440
505.273	916
505.346	780
505.419	29
505.492	1296
505.565	287
505.638	1416
505.711	-516
505.784	-458
505.857	-868
505.930	2144
506.003	-345
506.076	1986
506.149	1149
506.221	-245
506.294	2871
506.367	1506
506.440	11296
506.513	8877
506.586	1562
506.659	958
506.731	695
506.804	1092
506.877	2112
506.950	1236
507.022	764
507.095	-399
507.168	1834
507.241	2652
507.313	635
507.386	82
507.459	3497
507.531	829
507.604	-248
507.677	1889
507.749	-780
507.822	2349
507.894	4620
507.967	6164
508.040	1410
508.112	2927
508.185	1913
508.257	573
508.330	4257
508.402	1477
508.475	1141
508.547	1390
508.620	697
508.692	2738
508.765	2013
508.837	721
508.909	1269
508.982	1233
509.054	1964
509.127	1383
509.199	813
509.271	671
509.344	1060
509.416	724
509.488	1076
509.560	1611
509.633	800
509.705	2298
509.777	1624
509.849	3052
509.922	525
509.994	783
510.066	1667
510.138	32
510.210	6293
510.283	3272
510.355	3180
510.427	3103
510.499	1894
510.571	1547
510.643	1120
510.715	5211
510.787	2025
510.859	3116
510.931	2986
511.003	3790
511.076	4046
511.148	562
511.219	473
511.291	2579
511.363	2350
511.435	1917
511.507	456
511.579	2552
511.651	2272
511.723	1688
511.795	865
511.867	1698
511.939	1665
512.010	2135
512.082	2929
512.154	702
512.226	1394
512.298	4228
512.369	4557
512.441	5051
512.513	4656
512.585	2288
512.656	3407
512.728	3177
512.800	2538
512.871	3132
512.943	3101
513.015	1285
513.086	2388
513.158	2971
513.230	2270
513.301	3589
513.373	7260
513.444	2457
513.516	2402
513.588	2967
513.659	2748
513.731	3608
513.802	1820
513.874	7272
513.945	13348
514.016	3256
514.088	3037
514.159	1080
514.231	3719
514.302	5028
514.374	4389
514.445	1382
514.516	5985
514.588	2162
514.659	2095
514.730	2729
514.802	5248
514.873	1122
514.944	4274
515.016	3000
515.087	2266
515.158	3348
515.229	3746
515.301	1171
515.372	3368
515.443	1717
515.514	1785
515.585	1639
515.656	2706
515.728	3187
515.799	1846
515.870	3442
515.941	3010
516.012	1946
516.083	4702
516.154	4614
516.225	8720
516.296	9061
516.367	8693
516.438	9926
516.509	14446
516.580	20783
516.651	72873
516.722	294439
516.793	118589
516.864	21800
516.935	19319
517.006	25600
517.077	31501
517.148	70308
517.219	356126
517.289	573781
517.360	75410
517.431	17293
517.502	6994
517.573	7571
517.643	6315
517.714	6573
517.785	8293
517.856	10058
517.926	15242
517.997	19755
518.068	27304
518.138	39733
518.209	54260
518.280	216360
518.350	902743
518.421	328226
518.492	31095
518.562	13376
518.633	10178
518.703	7586
518.774	15837
518.845	46155
518.915	49999
518.986	13140
519.056	7128
519.127	11582
519.197	14765
519.268	19414
519.338	11017
519.408	4102
519.479	7566
519.549	4619
519.620	5153
519.690	3466
519.760	1836
519.831	3203
519.901	2905
519.971	3665
520.042	2368
520.112	2286
520.182	5805
520.253	6974
520.323	6494
520.393	19446
520.463	44270
520.534	23596
520.604	68134
520.674	20276
520.744	13356
520.814	67763
520.885	54850
520.955	7786
521.025	15097
521.095	6855
521.165	2912
521.235	1795
521.305	1058
521.375	2827
521.445	2490
521.515	3042
521.585	3606
521.655	2220
521.725	3253
521.795	3499
521.865	-869
521.935	4202
522.005	491
522.075	1195
522.145	1873
522.215	1123
522.285	2259
522.355	3180
522.424	4511
522.494	4465
522.564	3443
522.634	9278
522.704	31273
522.774	10997
522.843	3178
522.913	1904
522.983	2992
523.053	2227
523.122	2680
523.192	3257
523.262	16340
523.331	15464
523.401	3094
523.471	1478
523.540	1897
523.610	793
523.680	1574
523.749	1209
523.819	1201
523.888	962
523.958	659
524.027	1209
524.097	956
524.166	1684
524.236	551
524.305	3413
524.375	117
524.444	-492
524.514	2794
524.583	620
524.653	581
524.722	2266
524.791	1530
524.861	2937
524.930	-34
524.999	755
525.069	3398
525.138	1272
525.207	467
525.277	2295
525.346	1671
525.415	2067
525.484	1465
525.554	1625
525.623	2207
525.692	2658
525.761	2977
525.830	3758
525.900	4736
525.969	7268
526.038	13764
526.107	25540
526.176	93138
526.245	82093
526.314	23421
526.383	47393
526.452	66805
526.522	109624
526.591	118310
526.660	26789
526.729	13765
526.797	15202
526.867	24856
526.935	111875
527.004	249969
527.073	152635
527.142	11165
527.211	5454
527.280	4361
527.349	3328
527.418	387
527.487	3712
527.555	1707
527.624	1829
527.693	-485
527.762	2160
527.831	-232
527.899	1498
527.968	651
528.037	-386
528.106	2484
528.174	4823
528.243	2500
528.312	3377
528.380	5894
528.449	261
528.518	1604
528.586	444
528.655	1137
528.723	1460
528.792	629
528.861	-470
528.929	-676
528.998	1482
529.066	202
529.135	1153
529.203	486
529.272	400
529.340	1958
529.409	2972
529.477	272
529.545	-283
529.614	4341
529.682	2605
529.751	3965
529.819	9694
529.887	3806
529.956	1730
530.024	2502
530.092	651
530.161	3199
530.229	4189
530.297	2578
530.365	2772
530.434	2825
530.502	1070
530.570	1275
530.638	-296
530.707	1339
530.775	2703
530.843	480
530.911	1247
530.979	1797
531.047	1406
531.115	1936
531.183	800
531.252	1049
531.320	1752
531.388	-42
531.456	2168
531.524	-69
531.592	2366
531.660	3592
531.728	720
531.796	832
531.864	2380
531.932	1137
532.000	1595
532.067	2034
532.135	2510
532.203	3602
532.271	1777
532.339	5559
532.407	14435
532.475	8131
532.542	4185
532.610	4544
532.678	5328
532.746	22850
532.814	64677
532.881	18073
532.949	3952
533.017	2900
533.084	2455
533.152	1627
533.220	2266
533.287	1889
533.355	2177
533.423	1894
533.490	986
533.558	1775
533.625	1742
533.693	1928
533.761	2018
533.828	2026
533.896	898
533.963	4913
534.031	5483
534.098	8332
534.166	3584
534.233	2106
534.300	3410
534.368	2846
534.435	2171
534.503	3288
534.570	9277
534.637	4552
534.705	3687
534.772	5469
534.840	9587
534.907	40981
534.974	59720
535.041	6431
535.109	2965
535.176	1429
535.243	2208
535.310	1971
535.378	1877
535.445	1116
535.512	3018
535.579	1975
535.646	1132
535.714	1882
535.781	2293
535.848	2305
535.915	3322
535.982	1759
536.049	1946
536.116	3632
536.183	1288
536.250	1373
536.317	2218
536.384	2149
536.451	4778
536.518	4997
536.585	1279
536.652	3440
536.719	6826
536.786	3513
536.853	3221
536.920	4749
536.987	8450
537.053	6571
537.120	27307
537.187	26435
537.254	3539
537.321	1924
537.388	4043
537.454	797
537.521	1814
537.588	1691
537.654	2564
537.721	2530
537.788	2941
537.855	660
537.921	2588
537.988	1448
538.055	4423
538.121	1533
538.188	2378
538.254	2357
538.321	9634
538.388	5786
538.454	2392
538.521	2149
538.587	2053
538.654	1312
538.720	909
538.787	1474
538.853	3065
538.920	2307
538.986	1673
539.053	1583
539.119	2826
539.185	1853
539.252	3663
539.318	5133
539.385	5047
539.451	966
539.517	3706
539.583	4238
539.650	6293
539.716	20769
539.782	5704
539.849	1611
539.915	3036
539.981	1452
540.047	3116
540.114	3049
540.180	3965
540.246	1884
540.312	4334
540.378	8645
540.444	10826
540.510	8311
540.576	22892
540.643	7335
540.709	947
540.775	2712
540.841	2205
540.907	4520
540.973	13152
541.039	7928
541.105	5228
541.171	2446
541.237	1955
541.303	2445
541.369	4366
541.435	4323
541.500	8296
541.566	3394
541.632	1932
541.698	1351
541.764	2572
541.830	1549
541.896	747
541.961	3002
542.027	1610
542.093	1254
542.159	2113
542.224	1477
542.290	4609
542.356	6768
542.421	9735
542.487	4434
542.553	1605
542.618	1997
542.684	1858
542.750	1780
542.815	3893
542.881	3841
542.947	18810
543.012	15855
543.078	2432
543.143	2032
543.209	1899
543.274	1976
543.340	2645
543.405	6691
543.471	11892
543.536	3696
543.602	2600
543.667	230
543.732	3326
543.798	350
543.863	2751
543.928	2228
543.994	1058
544.059	2107
544.124	2417
544.190	716
544.255	2921
544.320	2524
544.386	2037
544.451	3961
544.516	4466
544.581	3495
544.646	12307
544.712	20987
544.777	4178
544.842	2173
544.907	2291
544.972	2184
545.037	1960
545.102	2203
545.168	2493
545.233	2967
545.298	3394
545.363	3393
545.428	3167
545.493	7673
545.558	16728
545.623	6421
545.688	2431
545.753	3108
545.818	1740
545.883	3353
545.947	2357
546.012	3025
546.077	2157
546.142	4144
546.207	3348
546.272	5155
546.337	5255
546.401	4665
546.466	4250
546.531	3571
546.596	4358
546.661	4742
546.725	6228
546.790	3357
546.855	5885
546.919	5356
546.984	6062
547.049	6725
547.113	7953
547.178	8431
547.243	10608
547.307	11621
547.372	13378
547.436	12338
547.501	13491
547.565	14608
547.630	15508
547.695	14275
547.759	13344
547.823	12232
547.888	13546
547.952	13585
548.017	13440
548.081	14385
548.146	14380
548.210	15186
548.274	15062
548.339	15351
548.403	15100
548.468	12303
548.532	13368
548.596	12932
548.660	12490
548.725	14939
548.789	15728
548.853	16457
548.917	15289
548.982	13989
549.046	13601
549.110	11381
549.174	11245
549.238	12999
549.303	14566
549.367	17006
549.431	15035
549.495	14160
549.559	13590
549.623	16703
549.687	18160
549.751	20072
549.815	21215
549.879	22588
549.943	21262
550.007	21575
550.071	22170
550.135	20950
550.199	18197
550.263	18050
550.327	17199
550.391	17088
550.455	18627
550.519	21311
550.582	22553
550.646	26815
550.710	27586
550.774	24290
550.838	24321
550.901	24721
550.965	27627
551.029	27075
551.093	30315
551.156	32769
551.220	38171
551.284	50351
551.347	37393
551.411	29149
551.475	30123
551.538	27099
551.602	25247
551.666	23137
551.729	20458
551.793	20378
551.856	22210
551.920	19667
551.983	20662
552.047	20925
552.110	21638
552.174	20042
552.237	20671
552.301	20282
552.364	18550
552.428	18943
552.491	18843
552.554	20597
552.618	20279
552.681	21825
552.745	22551
552.808	34577
552.871	46293
552.934	26571
552.998	20279
553.061	19419
553.124	19246
553.187	17082
553.251	18148
553.314	18750
553.377	17813
553.440	20714
553.503	25186
553.567	30017
553.630	21391
553.693	19065
553.756	19837
553.819	18919
553.882	18378
553.945	17318
554.008	18711
554.071	17887
554.134	19775
554.197	18007
554.260	16965
554.323	17735
554.386	17119
554.449	19191
554.512	18090
554.575	16430
554.638	17188
554.701	16341
554.764	17240
554.827	15689
554.889	14835
554.952	14543
555.015	14454
555.078	14100
555.141	14947
555.203	14615
555.266	14356
555.329	13780
555.391	13037
555.454	13796
555.517	12948
555.580	12641
555.642	12211
555.705	11647
555.768	11361
555.830	12511
555.893	12212
555.955	9642
556.018	10238
556.080	10234
556.143	11247
556.206	10036
556.268	11389
556.330	11430
556.393	11386
556.455	10540
556.518	9785
556.580	9998
556.643	9379
556.705	8866
556.767	8107
556.830	8797
556.892	8985
556.955	10603
557.017	10238
557.079	8262
557.142	8621
557.204	7925
557.266	13826
557.328	11260
557.391	6786
557.453	7437
557.515	6310
557.577	7781
557.639	8084
557.701	6672
557.764	7125
557.826	7260
557.888	8166
557.950	8753
558.012	9652
558.074	11050
558.136	27668
558.198	76811
558.260	29184
558.322	10591
558.384	11422
558.446	13804
558.508	15411
558.570	18912
558.632	27133
558.694	36868
558.756	46222
558.818	141438
558.880	394749
558.942	125092
559.003	83192
559.065	44097
559.127	16185
559.189	15671
559.251	18167
559.312	25095
559.374	60665
559.436	239733
559.498	126868
559.559	18896
559.621	14859
559.683	17408
559.744	28336
559.806	100539
559.868	170393
559.929	30467
559.991	16322
560.052	22890
560.114	72081
560.176	48912
560.237	38132
560.299	71657
560.360	15215
560.422	4671
560.483	4562
560.545	3138
560.606	3111
560.667	2735
560.729	3117
560.790	2523
560.852	2928
560.913	2466
560.974	3635
561.036	1801
561.097	3245
561.158	2425
561.220	3296
561.281	2718
561.342	2624
561.403	3174
561.465	3911
561.526	11955
561.587	16707
561.648	3729
561.709	2688
561.771	2100
561.832	1720
561.893	2198
561.954	1883
562.015	1266
562.076	1752
562.137	1519
562.198	2000
562.259	2316
562.320	2171
562.381	2120
562.442	3920
562.503	3595
562.564	1758
562.625	1752
562.686	2080
562.747	1123
562.808	1298
562.869	2402
562.930	2076
562.991	1967
563.051	1568
563.112	1362
563.173	1670
563.234	983
563.294	1496
563.355	1109
563.416	2517
563.477	1439
563.537	1519
563.598	1251
563.659	2283
563.720	911
563.780	1965
563.841	1791
563.901	2397
563.962	535
564.023	1252
564.083	1062
564.144	2349
564.204	567
564.265	1348
564.325	1718
564.386	2675
564.446	2319
564.507	1956
564.567	910
564.628	1379
564.688	1256
564.749	517
564.809	1592
564.869	2047
564.930	1403
564.990	1765
565.050	701
565.111	2345
565.171	863
565.231	1577
565.292	2287
565.352	812
565.412	1596
565.472	1565
565.532	988
565.593	1449
565.653	1374
565.713	1191
565.773	1152
565.833	2131
565.893	3806
565.953	1533
566.013	1189
566.074	1248
566.134	1966
566.194	2434
566.254	3457
566.314	2584
566.374	1549
566.434	1649
566.494	1019
566.554	1397
566.614	1349
566.673	1600
566.733	2026
566.793	2147
566.853	1381
566.913	2026
566.973	1284
567.033	1516
567.092	1054
567.152	2378
567.212	2606
567.272	1858
567.331	2007
567.391	1623
567.451	2542
567.511	2460
567.570	1380
567.630	1691
567.690	1448
567.749	2441
567.809	1984
567.868	2087
567.928	1335
567.988	2606
568.047	1970
568.107	2789
568.166	3560
568.226	5987
568.285	10066
568.345	7406
568.404	5059
568.464	4165
568.523	3163
568.582	4477
568.642	3848
568.701	5970
568.761	7521
568.820	16632
568.879	14024
568.939	8158
568.998	4325
569.057	3540
569.116	2262
569.176	2568
569.235	1201
569.294	1301
569.353	1954
569.413	2257
569.472	1079
569.531	1668
569.590	372
569.649	1007
569.708	859
569.767	2124
569.827	1774
569.886	1983
569.945	1028
570.004	1902
570.063	763
570.122	2109
570.181	979
570.240	1524
570.299	1228
570.358	2699
570.417	1557
570.475	1518
570.534	2418
570.593	1922
570.652	1607
570.711	1833
570.770	1461
570.829	2295
570.887	1660
570.946	2865
571.005	1480
571.064	2365
571.122	3482
571.181	1897
571.240	1265
571.299	1735
571.357	1119
571.416	1564
571.475	1426
571.533	1570
571.592	1238
571.650	2111
571.709	634
571.768	1877
571.826	2152
571.885	894
571.943	1052
572.002	676
572.060	816
572.119	1319
572.177	502
572.236	1003
572.294	572
572.352	1890
572.411	1416
572.469	1166
572.528	755
572.586	1324
572.644	889
572.703	2542
572.761	950
572.819	632
572.877	863
572.936	1266
572.994	1107
573.052	1046
573.110	86
573.169	1733
573.227	810
573.285	1905
573.343	491
573.401	82
573.459	917
573.517	772
573.576	1454
573.634	1675
573.692	1228
573.750	627
573.808	822
573.866	555
573.924	488
573.982	1170
574.040	607
574.098	1272
574.155	152
574.213	999
574.271	972
574.329	1116
574.387	643
574.445	811
574.503	21
574.560	370
574.618	565
574.676	-299
574.734	13
574.792	672
574.849	209
574.907	775
574.965	51
575.022	146
575.080	506
575.138	340
575.195	518
575.253	285
575.311	751
575.368	1393
575.426	-125
575.483	1461
575.541	-57
575.598	563
575.656	617
575.713	800
575.771	712
575.828	314
575.886	577
575.943	1117
576.001	124
576.058	354
576.115	217
576.173	765
576.230	578
576.287	2774
576.345	546
576.402	-124
576.459	437
576.517	450
576.574	-184
576.631	1448
576.688	525
576.746	-391
576.803	-29
576.860	-285
576.917	93
576.974	56
577.031	58
577.089	984
577.146	130
577.203	956
577.260	519
577.317	1142
577.374	-337
577.431	960
577.488	77
577.545	366
577.602	-162
577.659	-157
577.716	-380
577.773	741
577.830	515
577.886	558
577.943	-168
578.000	196
578.057	288
578.114	1113
578.171	751
578.227	532
578.284	-606
578.341	1188
578.398	1085
578.454	827
578.511	1574
578.568	745
578.625	856
578.681	1202
578.738	-132
578.794	1178
578.851	203
578.908	61
578.964	23
579.021	1136
579.077	1277
579.134	1283
579.190	202
579.247	752
579.303	-549
579.360	620
579.416	-90
579.473	31
579.529	-578
579.586	500
579.642	-14
579.698	1192
579.755	-343
579.811	1091
579.867	82
579.924	235
579.980	624
580.036	817
580.093	738
580.149	1608
580.205	588
580.261	536
580.317	1235
580.374	911
580.430	709
580.486	1440
580.542	239
580.598	805
580.619	727
580.654	588
580.692	757
580.710	832
580.765	89
580.767	60
580.823	1154
580.838	1040
580.879	712
580.911	1066
580.935	1312
580.984	410
580.991	288
581.047	1601
581.057	1305
581.103	-73
581.130	74
581.159	232
581.203	740
581.215	871
581.270	791
581.276	744
581.326	226
581.349	782
581.382	1567
581.422	1280
581.438	1174
581.494	572
581.494	579
581.550	766
581.567	1076
581.606	1719
581.640	951
581.661	483
581.713	1652
581.717	1736
581.773	1270
581.786	1173
581.829	853
581.859	908
581.885	961
581.932	1159
581.940	1190
581.996	1744
582.004	1684
582.052	1333
582.077	1177
582.107	957
582.150	1600
582.163	1778
582.219	934
582.223	1015
582.274	2115
582.296	1980
582.330	1625
582.368	1620
582.386	1679
582.441	1609
582.441	1604
582.497	1190
582.514	1399
582.552	2039
582.587	2463
582.608	2645
582.659	1335
582.663	1222
582.719	1922
582.732	2043
582.774	2636
582.805	2324
582.830	1991
582.877	2440
582.885	2507
582.941	2008
582.950	2031
582.996	2316
583.023	2697
583.052	3150
583.095	3449
583.107	3478
583.162	3990
583.168	3941
583.218	3158
583.240	3166
583.273	3444
583.313	2906
583.328	2631
583.384	3181
583.385	3172
583.439	3073
583.458	3040
583.494	2862
583.531	2989
583.549	3184
583.603	3888
583.605	3895
583.660	3002
583.676	2854
583.715	2828
583.748	3088
583.770	3209
583.820	3174
583.825	3183
583.881	3180
583.893	3317
583.936	3629
583.965	3239
583.991	2917
584.038	3770
584.046	3961
584.101	3851
584.110	3852
584.156	3655
584.183	3550
584.211	3452
584.255	3609
584.266	3725
584.321	3741
584.328	3808
584.376	4173
584.400	4102
584.431	4134
584.472	4540
584.486	4575
584.541	4100
584.545	4107
584.596	4697
584.617	4751
584.651	5083
584.689	5774
584.706	5877
584.761	4998
584.762	4989
584.816	5508
584.834	5527
584.871	5532
584.906	6048
584.926	6286
584.978	6455
584.980	6490
585.035	6876
585.051	7066
585.090	7671
585.123	8647
585.145	9440
585.195	10710
585.200	10877
585.254	12861
585.267	13176
585.309	14799
585.340	16748
585.364	17934
585.412	19303
585.419	19683
585.473	23522
585.484	24177
585.528	30958
585.556	37212
585.583	59441
585.628	103292
585.637	123309
585.692	263102
585.700	286412
585.747	333162
585.772	308977
585.801	196836
585.845	51317
585.856	42326
585.910	21035
585.917	18686
585.965	15564
585.989	14038
586.019	13005
586.061	11926
586.074	11804
586.128	11535
586.133	11467
586.183	11585
586.205	11754
586.237	11719
586.277	10920
586.292	10584
586.346	9563
586.349	9524
586.401	9985
586.421	10029
586.455	10614
586.493	11079
586.509	11615
586.564	13145
586.565	13164
586.618	17258
586.637	18220
586.672	17289
586.709	15981
586.727	15913
586.781	17125
586.781	17166
586.835	13180
586.853	12226
586.889	11760
586.925	11439
586.944	11503
586.996	11446
586.998	11493
587.052	11988
587.068	11980
587.106	11987
587.140	11984
587.161	12035
587.212	12335
587.215	12417
587.269	12755
587.284	12893
587.323	13340
587.356	13646
587.377	13715
587.427	13765
587.431	13868
587.485	14827
587.499	15017
587.539	15540
587.571	15457
587.593	15849
587.643	17507
587.648	17667
587.702	17779
587.715	17820
587.755	18280
587.786	18883
587.810	19582
587.858	20349
587.864	20593
587.917	22627
587.930	23048
587.971	24449
588.001	25022
588.025	26092
588.073	28370
588.079	28874
588.133	32706
588.145	33427
588.187	36867
588.217	39279
588.241	42121
588.288	47315
588.295	48412
588.348	56624
588.360	58377
588.402	66802
588.431	72146
588.456	78049
588.503	89225
588.510	91388
588.564	106945
588.575	110190
588.617	129927
588.646	143150
588.671	162348
588.718	198942
588.725	213274
588.778	324852
588.789	348558
588.832	622773
588.861	817660
588.886	1127898
588.932	1734484
588.939	1761884
588.993	1887462
589.004	1883706
589.047	1266695
589.075	844249
589.100	646934
589.147	310205
589.154	299737
589.207	220946
589.218	204662
589.261	194443
589.290	187309
589.314	200060
589.361	225702
589.368	243733
589.421	391796
589.433	423977
589.475	800998
589.504	1072887
589.528	1313308
589.576	1775222
589.582	1717849
589.635	1055319
589.647	905996
589.689	501030
589.718	229761
589.742	189099
589.790	111275
589.795	108682
589.849	82592
589.861	76470
589.902	67589
589.932	60610
589.955	56354
590.004	46793
590.009	46553
590.062	42412
590.075	41115
590.115	38293
590.146	36033
590.168	35514
590.218	33724
590.222	33667
590.275	31238
590.289	30499
590.328	30655
590.360	30352
590.381	30013
590.431	28877
590.435	28974
590.488	28566
590.503	28371
590.541	28170
590.574	27577
590.594	27590
590.645	27443
590.647	27526
590.700	26433
590.716	25964
590.753	26011
590.787	25797
590.806	25850
590.859	25913
590.859	26038
590.912	26411
590.930	26471
590.965	26015
591.001	25367
591.018	25639
591.071	25919
591.072	25806
591.124	25699
591.143	25484
591.177	25630
591.214	25548
591.230	25999
591.283	27201
591.285	27126
591.336	27825
591.356	27921
591.389	27896
591.427	27516
591.442	27294
591.495	26045
591.498	25832
591.547	25014
591.569	24501
591.600	25000
591.640	25389
591.653	25667
591.706	26310
591.711	26256
591.759	27293
591.782	27656
591.811	28330
591.853	28921
591.864	28826
591.917	27746
591.924	27452
591.969	27747
591.995	27714
592.022	27813
592.066	27643
592.075	28016
592.127	29590
592.137	29724
592.180	31177
592.208	31943
592.233	31238
592.279	29435
592.285	29629
592.338	30149
592.350	30127
592.390	29872
592.421	29432
592.443	30165
592.491	31369
592.495	31513
592.548	31516
592.562	31375
592.600	31359
592.633	31088
592.653	31194
592.704	30924
592.705	31118
592.775	31832
592.846	32976
592.916	33843
592.987	35420
593.058	33994
593.128	32896
593.199	33006
593.270	33304
593.341	33111
593.411	36294
593.482	36477
593.553	36999
593.623	36947
593.694	37437
593.764	37519
593.835	36836
593.906	36483
593.976	36883
594.047	38380
594.117	41284
594.188	41635
594.258	39794
594.329	39738
594.399	39845
594.470	42164
594.540	41686
594.611	44407
594.681	43665
594.751	42759
594.822	46232
594.892	48664
594.963	48308
595.033	48470
595.103	50218
595.174	51658
595.244	55982
595.314	59667
595.384	52995
595.455	54995
595.525	55822
595.595	58703
595.665	59249
595.736	57633
595.806	58294
595.876	59213
595.946	59124
596.016	62539
596.087	64184
596.157	63539
596.227	63613
596.297	67100
596.367	72051
596.437	77396
596.507	78539
596.577	79323
596.647	78084
596.717	80577
596.787	81016
596.857	82984
596.927	83445
596.997	82868
597.067	84257
597.137	87689
597.207	87138
597.277	87532
597.347	84313
597.417	80547
597.487	83259
597.557	84780
597.626	87369
597.696	88952
597.766	90420
597.836	86531
597.906	77112
597.975	76350
598.045	77869
598.115	80563
598.185	87882
598.254	98239
598.324	107059
598.394	108493
598.464	106816
598.533	104163
598.603	95787
598.672	94025
598.742	97664
598.812	97820
598.881	98948
598.951	98876
599.020	99797
599.090	105546
599.159	107104
599.229	102622
599.299	100342
599.368	103799
599.437	103254
599.507	96089
599.576	92494
599.646	93030
599.715	92496
599.785	90743
599.854	89580
599.924	89926
599.993	88767
600.062	90531
600.132	93604
600.201	97740
600.270	112869
600.340	119298
600.409	116343
600.478	117707
600.547	122449
600.617	111163
600.686	92574
600.755	86778
600.824	83808
600.894	82446
600.963	81556
601.032	81530
601.101	81205
601.170	78253
601.239	77899
601.308	80536
601.378	79318
601.447	81525
601.516	81952
601.585	84804
601.654	87600
601.723	87500
601.792	89142
601.861	93039
601.930	101023
601.999	102039
602.068	99347
602.137	104177
602.206	104659
602.275	103558
602.343	107715
602.412	108719
602.481	104710
602.550	106377
602.619	107631
602.688	108480
602.756	109945
602.825	108632
602.894	112309
602.963	113115
603.032	114798
603.100	115079
603.169	111961
603.238	116735
603.307	113860
603.375	115976
603.444	119957
603.513	116760
603.581	120556
603.650	125663
603.719	111972
603.787	111264
603.856	115250
603.924	117505
603.993	122038
604.061	124751
604.130	131230
604.198	132661
604.267	134522
604.335	138952
604.404	139109
604.472	142919
604.541	142802
604.609	147019
604.678	148512
604.746	151374
604.815	157489
604.883	153908
604.951	152510
605.020	156241
605.088	151610
605.156	150521
605.225	153264
605.293	152703
605.361	154013
605.429	154646
605.498	158630
605.566	162046
605.634	169741
605.702	171530
605.771	174701
605.839	177929
605.907	169506
605.975	169418
606.043	162908
606.111	160073
606.180	167613
606.248	157763
606.316	157982
606.384	163077
606.452	152478
606.520	154203
606.588	150842
606.656	149352
606.724	144745
606.792	135960
606.860	123428
606.928	110831
606.996	106667
607.064	106236
607.132	109093
607.200	117611
607.267	119069
607.335	121449
607.403	125226
607.471	120232
607.539	117365
607.607	117786
607.674	102685
607.742	104698
607.810	104371
607.878	102139
607.946	106079
608.013	110912
608.081	113605
608.149	113631
608.216	117948
608.284	120399
608.352	120244
608.419	118999
608.487	119175
608.555	114239
608.622	117288
608.690	125943
608.757	138893
608.825	140987
608.893	137489
608.960	130922
609.028	128570
609.095	126171
609.163	123027
609.230	108418
609.298	99869
609.365	103641
609.432	114133
609.500	125372
609.567	141830
609.635	165603
609.702	174782
609.769	164397
609.837	124897
609.904	109006
609.971	113308
610.039	132704
610.106	190801
610.173	416989
610.241	1010392
610.308	460104
610.375	148268
610.442	119154
610.509	112247
610.577	113877
610.644	113643
610.711	117607
610.778	122728
610.845	127311
610.912	137107
610.980	143434
611.047	145271
611.114	140525
611.181	133634
611.248	132478
611.315	142070
611.382	144087
611.449	148543
611.516	151882
611.583	149323
611.650	150896
611.717	154620
611.784	157520
611.851	166859
611.918	181571
611.984	223401
612.051	352728
612.118	814275
612.185	2084843
612.252	1081569
612.319	257093
612.386	207506
612.452	184603
612.519	175688
612.586	173883
612.653	174280
612.719	181192
612.786	171533
612.853	156492
612.919	153355
612.986	156585
613.053	145852
613.120	135752
613.186	132300
613.253	132134
613.319	132055
613.386	133278
613.453	137227
613.519	140228
613.586	143122
613.652	157881
613.719	147585
613.785	144413
613.852	139789
613.918	136907
613.985	142129
614.051	155704
614.118	182789
614.184	170123
614.250	139128
614.317	140669
614.383	138309
614.449	141933
614.516	138766
614.582	140370
614.648	136243
614.715	136863
614.781	132879
614.847	134539
614.914	132123
614.980	128472
615.046	128742
615.112	132733
615.179	133667
615.245	135794
615.311	135930
615.377	144733
615.443	144970
615.509	142044
615.575	146390
615.642	142287
615.708	149750
615.774	157619
615.840	168460
615.906	188428
615.972	250459
616.038	429296
616.104	1002708
616.170	2481644
616.236	1812537
616.302	382821
616.368	283984
616.434	193770
616.500	179653
616.565	210315
616.631	270557
616.697	203219
616.763	220569
616.829	372027
616.895	699272
616.961	601577
617.026	219035
617.092	152240
617.158	142936
617.224	138628
617.289	128237
617.355	121077
617.421	119122
617.487	119799
617.552	111702
617.618	109742
617.684	110621
617.749	113162
617.815	104802
617.880	103808
617.946	104462
618.012	108060
618.077	108909
618.143	102707
618.208	104814
618.274	114177
618.339	114019
618.405	91225
618.470	92012
618.536	89889
618.601	89135
618.667	81956
618.732	77937
618.798	77048
618.863	76420
618.928	77265
618.994	79595
619.059	82141
619.124	92328
619.190	80301
619.255	74768
619.320	76702
619.386	75496
619.451	73715
619.516	71735
619.581	72986
619.647	76272
619.712	75165
619.777	72370
619.842	72642
619.907	75263
619.972	77747
620.038	76350
620.103	72571
620.168	72702
620.233	74426
620.298	75240
620.363	77037
620.428	78175
620.493	81136
620.558	80475
620.623	82689
620.688	81501
620.753	81147
620.818	81245
620.883	82514
620.948	81939
621.013	81475
621.078	79099
621.143	79699
621.207	83020
621.272	80433
621.337	77980
621.402	75638
621.467	77796
621.532	78017
621.596	77889
621.661	73083
621.726	72599
621.791	74926
621.855	75397
621.920	75201
621.985	74280
622.049	78279
622.114	77905
622.179	77725
622.243	80414
622.308	81926
622.373	87018
622.437	83853
622.502	78201
622.566	77075
622.631	76945
622.695	80361
622.760	78901
622.824	77559
622.889	79771
622.953	83710
623.018	101831
623.082	97760
623.147	85606
623.211	83666
623.276	83202
623.340	76823
623.404	74808
623.469	74293
623.533	76988
623.597	73768
623.662	73313
623.726	66324
623.790	63137
623.854	61192
623.919	64187
623.983	64500
624.047	64990
624.111	66543
624.176	67754
624.240	70007
624.304	74720
624.368	65880
624.432	66832
624.496	72102
624.560	76096
624.625	79044
624.689	75646
624.753	77464
624.817	73114
624.881	71036
624.945	63043
625.009	62635
625.073	63558
625.137	68493
625.201	77777
625.265	74456
625.329	66373
625.393	68888
625.456	67928
625.520	70279
625.584	72164
625.648	76624
625.712	82905
625.776	101683
625.839	100731
625.903	65773
625.967	55554
626.031	68349
626.095	86836
626.158	66757
626.222	48606
626.286	47319
626.349	43549
626.413	41214
626.477	44276
626.540	42989
626.604	41558
626.668	42495
626.731	40348
626.795	41380
626.858	41124
626.922	40969
626.986	40304
627.049	39707
627.113	41932
627.176	41240
627.240	39675
627.303	40267
627.366	39753
627.430	42097
627.493	40251
627.557	39268
627.620	41961
627.684	42552
627.747	42078
627.810	38989
627.874	35179
627.937	34153
628.000	37754
628.064	35366
628.127	29449
628.190	31491
628.253	29929
628.317	28126
628.380	26388
628.443	27176
628.506	27423
628.569	26503
628.632	24022
628.696	24366
628.759	23909
628.822	22485
628.885	22264
628.948	21996
629.011	22474
629.074	23246
629.137	20838
629.200	20709
629.263	23561
629.326	19722
629.389	19981
629.452	21084
629.515	20558
629.578	20602
629.641	21455
629.704	21278
629.767	21005
629.830	20642
629.892	19369
629.955	19016
630.018	22370
630.081	22942
630.144	25996
630.207	20700
630.269	22816
630.332	19672
630.395	20175
630.458	20103
630.520	19334
630.583	20608
630.646	18955
630.708	18189
630.771	18762
630.834	20436
630.896	19668
630.959	20076
631.021	18017
631.084	19571
631.146	19837
631.209	21840
631.272	19379
631.334	20194
631.397	20944
631.459	20486
631.522	23734
631.584	24467
631.646	26238
631.709	29263
631.771	30981
631.834	27734
631.896	24430
631.958	20890
632.021	20828
632.083	18674
632.145	20356
632.208	19722
632.270	20361
632.332	17919
632.395	17873
632.457	19834
632.519	17697
632.581	19416
632.643	17032
632.706	18984
632.768	17190
632.830	19216
632.892	18816
632.954	18810
633.016	19664
633.078	19014
633.141	18536
633.203	18153
633.265	19331
633.327	18712
633.389	19144
633.451	21313
633.513	21924
633.575	21823
633.637	22499
633.698	21530
633.760	21407
633.822	21788
633.884	22274
633.946	22476
634.008	22940
634.070	24648
634.132	28852
634.193	29941
634.255	34222
634.317	34857
634.379	33664
634.441	29247
634.502	24836
634.564	23208
634.626	21969
634.687	19985
634.749	18927
634.811	18945
634.873	17302
634.934	19378
634.996	19486
635.057	17807
635.119	18216
635.181	18942
635.242	20408
635.304	17314
635.365	21528
635.427	18921
635.488	19794
635.550	18532
635.611	19132
635.673	17500
635.734	21389
635.796	23094
635.857	28235
635.918	27537
635.980	31568
636.041	34160
636.102	37259
636.164	37983
636.225	36265
636.286	30464
636.348	25895
636.409	22770
636.470	19616
636.531	18529
636.593	18063
636.654	18765
636.715	16924
636.776	17602
636.838	14982
636.899	15665
636.960	14269
637.021	14273
637.082	14785
637.143	15291
637.204	13759
637.265	13887
637.326	14096
637.387	15698
637.448	13634
637.509	15582
637.570	15045
637.631	15234
637.692	13284
637.753	12260
637.814	13098
637.875	13147
637.936	13529
637.997	12318
638.058	12985
638.119	13958
638.179	13119
638.240	12042
638.301	12437
638.362	12064
638.423	11542
638.483	12883
638.544	10538
638.605	12965
638.666	11335
638.726	12926
638.787	12737
638.848	12137
638.908	10585
638.969	11335
639.030	12112
639.090	10458
639.151	10930
639.211	13514
639.272	15735
639.332	23855
639.393	15308
639.453	13816
639.514	14135
639.574	12408
639.635	10157
639.695	11780
639.756	10876
639.816	11941
639.877	13930
639.937	21764
639.997	26246
640.058	11449
640.118	10600
640.178	11387
640.239	11229
640.299	11255
640.359	10647
640.420	11936
640.480	15009
640.540	18125
640.600	15895
640.661	14204
640.721	12728
640.781	16264
640.841	11052
640.901	11485
640.961	11371
641.021	13244
641.082	15532
641.142	18865
641.202	12734
641.262	8495
641.322	10467
641.382	8944
641.442	10116
641.502	9240
641.562	10120
641.622	10098
641.682	12238
641.742	14868
641.802	12638
641.861	11397
641.921	10519
641.981	11392
642.041	11681
642.101	14410
642.161	8896
642.221	8734
642.280	8521
642.340	9483
642.400	8447
642.460	10811
642.519	9124
642.579	8776
642.639	9808
642.698	8443
642.758	11213
642.818	10314
642.877	8732
642.937	10731
642.997	13056
643.056	16925
643.116	9876
643.175	12000
643.235	9897
643.294	11991
643.354	13236
643.414	14078
643.473	18138
643.532	24678
643.592	36809
643.651	67044
643.711	130321
643.770	285581
643.830	754369
643.889	1469028
643.948	261999
644.008	44876
644.067	27299
644.126	20221
644.186	16639
644.245	14105
644.304	10138
644.363	13052
644.423	9327
644.482	12101
644.541	13048
644.600	12134
644.659	17866
644.719	22584
644.778	39541
644.837	77321
644.896	177797
644.955	406249
645.014	96917
645.073	21553
645.132	14449
645.191	13616
645.250	12892
645.309	13658
645.368	14239
645.427	22159
645.486	42171
645.545	73341
645.604	17079
645.663	11964
645.722	11086
645.781	13596
645.840	17244
645.898	22276
645.957	35477
646.016	61057
646.075	125901
646.134	266030
646.192	796827
646.251	1011165
646.310	113420
646.369	31959
646.427	26872
646.486	18118
646.545	14273
646.603	12006
646.662	10961
646.721	10458
646.779	10467
646.838	11581
646.896	16854
646.955	23634
647.014	43345
647.072	90786
647.131	261706
647.189	95297
647.248	13759
647.306	10826
647.365	9221
647.423	6936
647.481	8418
647.540	6643
647.598	6778
647.657	6309
647.715	7493
647.773	6871
647.832	7246
647.890	5207
647.948	5819
648.007	6770
648.065	4745
648.123	5049
648.181	7466
648.240	7814
648.298	5908
648.356	5889
648.414	6428
648.472	5925
648.531	5883
648.589	5909
648.647	5064
648.705	5414
648.763	5102
648.821	7111
648.879	6588
648.937	8536
648.995	11124
649.053	16544
649.111	28125
649.169	52893
649.227	104574
649.285	241513
649.343	701216
649.401	252117
649.459	46526
649.516	25308
649.574	17105
649.632	29480
649.690	32002
649.748	21084
649.806	32310
649.863	64708
649.921	183147
649.979	94956
650.037	11901
650.094	6568
650.152	7334
650.210	4319
650.268	5649
650.325	5131
650.383	5325
650.440	3904
650.498	4106
650.556	4985
650.613	3531
650.671	4902
650.728	4207
650.786	5425
650.843	8784
650.901	4297
650.958	4136
651.016	4704
651.073	3670
651.131	3557
651.188	3095
651.246	3623
651.303	3297
651.360	4172
651.418	3322
651.475	3369
651.532	2923
651.590	4036
651.647	3380
651.704	4000
651.762	3713
651.819	3161
651.876	2659
651.933	2889
651.990	3356
652.048	2743
652.105	2734
652.162	3367
652.219	2529
652.276	4251
652.333	2825
652.390	2180
652.448	3579
652.505	3418
652.562	3150
652.619	3268
652.676	5061
652.733	5739
652.790	2961
652.847	2131
652.904	3105
652.961	2204
653.017	2579
653.074	3672
653.131	3481
653.188	3033
653.245	2941
653.302	2589
653.359	3139
653.415	3168
653.472	2458
653.529	3234
653.586	2094
653.642	1968
653.699	3878
653.756	2202
653.813	2586
653.869	3502
653.926	2381
653.983	2392
654.039	3919
654.096	2591
654.152	4760
654.209	1396
654.266	2948
654.322	1310
654.379	3569
654.435	3607
654.492	3291
654.548	4649
654.605	7086
654.661	4004
654.717	1511
654.774	3662
654.830	3513
654.887	3397
654.943	1744
655.000	3787
655.056	3330
655.112	2683
655.168	2561
655.225	2919
655.281	3757
655.337	3693
655.394	3950
655.450	4412
655.506	3651
655.562	4691
655.618	4269
655.675	1904
655.731	2491
655.787	2535
655.843	2709
655.899	2184
655.955	2764
656.011	3543
656.067	1690
656.123	2347
656.179	2026
656.235	4152
656.291	1951
656.347	3458
656.403	1932
656.459	1850
656.515	2484
656.571	2965
656.627	3201
656.683	2444
656.739	3166
656.795	2348
656.850	3333
656.906	3758
656.962	3134
657.018	1715
657.074	2703
657.129	4748
657.185	7967
657.241	19369
657.297	9112
657.352	3560
657.408	1551
657.464	3537
657.519	1694
657.575	1739
657.630	1904
657.686	2530
657.742	1350
657.797	1800
657.853	2727
657.908	3073
657.964	1067
658.019	1984
658.075	1997
658.130	2507
658.186	1484
658.241	2209
658.297	1505
658.352	2227
658.407	1778
658.463	2189
658.518	1320
658.573	2594
658.629	1644
658.684	1784
658.739	2150
658.795	1521
658.850	2761
658.905	1343
658.960	1351
659.016	1051
659.071	1751
659.126	2236
659.181	2511
659.236	7074
659.291	6018
659.346	2885
659.401	1464
659.457	3455
659.512	2364
659.567	3658
659.622	1265
659.677	2027
659.732	1507
659.787	1921
659.842	1619
659.897	2717
659.952	1452
660.007	968
660.061	1941
660.116	802
660.171	902
660.226	2129
660.281	2368
660.336	1448
660.391	1446
660.445	1254
660.500	1228
660.555	1831
660.610	150
660.664	2460
660.719	1575
660.774	1865
660.828	2212
660.883	2016
660.938	2953
660.992	127
661.047	1264
661.101	1985
661.156	2435
661.211	1596
661.265	1376
661.320	539
661.374	1608
661.429	747
661.483	2242
661.538	1183
661.592	929
661.647	2593
661.701	1834
661.755	1172
661.810	1556
661.864	699
661.919	932
661.973	2596
662.027	720
662.081	100
662.136	1226
662.190	2354
662.244	968
662.299	2291
662.353	1468
662.407	1385
662.461	1123
662.515	1693
662.569	1020
662.624	1908
662.678	825
662.732	1350
662.786	706
662.840	1690
662.894	1141
662.948	878
663.002	935
663.056	746
663.110	328
663.164	827
663.218	963
663.272	2017
663.326	2038
663.380	2255
663.434	1438
663.488	1516
663.542	1684
663.595	1166
663.649	808
663.703	1548
663.757	1631
663.811	836
663.864	114
663.918	1965
663.972	1226
664.026	740
664.079	995
664.133	1361
664.187	625
664.240	1606
664.294	1378
664.348	1639
664.401	1733
664.455	734
664.508	525
664.562	567
664.615	1345
664.669	949
664.722	555
664.776	1213
664.829	996
664.883	1153
664.936	743
664.990	1019
665.043	1146
665.097	1217
665.150	1918
665.203	347
665.257	1220
665.310	1402
665.363	847
665.417	1662
665.470	1349
665.523	1521
665.576	1837
665.630	635
665.683	1104
665.736	1481
665.789	1509
665.842	437
665.895	1712
665.949	1117
666.002	1519
666.055	1479
666.108	2508
666.161	1688
666.214	2129
666.267	2285
666.320	2909
666.373	2562
666.426	1891
666.479	1409
666.532	1384
666.585	1949
666.638	1575
666.691	1961
666.744	1881
666.796	1755
666.849	1465
666.902	2013
666.955	1344
667.008	1178
667.060	309
667.113	1057
667.166	824
667.219	1682
667.271	1225
667.324	780
667.377	1304
667.430	1064
667.482	1533
667.535	928
667.587	1940
667.640	2007
667.693	3066
667.745	6173
667.798	6090
667.850	1706
667.903	1836
667.955	1003
668.008	1672
668.060	1495
668.113	1259
668.165	2276
668.218	1578
668.270	1258
668.322	1382
668.375	1582
668.427	1416
668.479	521
668.532	630
668.584	1260
668.636	1823
668.689	2299
668.741	400
668.793	1655
668.845	1076
668.898	1614
668.950	1035
669.002	1621
669.054	1237
669.106	856
669.158	1624
669.211	984
669.263	1986
669.315	2959
669.367	2051
669.419	1188
669.471	2638
669.523	3219
669.575	5238
669.627	2966
669.679	1522
669.731	1899
669.783	2488
669.835	3322
669.886	2118
669.938	2015
669.990	675
670.042	1445
670.094	1470
670.146	1954
670.197	1109
670.249	2422
670.301	2021
670.353	2302
670.404	4426
670.456	6102
670.508	10387
670.560	18021
670.611	33699
670.663	63865
670.715	169684
670.766	229071
670.818	38405
670.869	7774
670.921	5222
670.972	3809
671.024	2631
671.075	2346
671.127	1921
671.178	2342
671.230	2087
671.281	2244
671.333	1830
671.384	3561
671.436	4005
671.487	6304
671.538	9928
671.590	16566
671.641	30771
671.692	60652
671.744	113995
671.795	53017
671.846	13369
671.897	6319
671.949	4254
672.000	3191
672.051	2669
672.102	2841
672.153	1725
672.204	2213
672.256	1492
672.307	1490
672.358	1293
672.409	964
672.460	594
672.511	1985
672.562	-13
672.613	1095
672.664	969
672.715	1000
672.766	117
672.817	1233
672.868	637
672.919	731
672.970	1251
673.021	785
673.071	345
673.122	825
673.173	996
673.224	600
673.275	-342
673.326	827
673.376	985
673.427	848
673.478	842
673.528	909
673.579	506
673.630	511
673.680	1305
673.731	642
673.782	198
673.832	542
673.883	552
673.934	179
673.984	1045
674.035	129
674.085	748
674.136	1595
674.186	1204
674.237	1191
674.287	1941
674.338	742
674.388	1037
674.438	960
674.489	1237
674.539	1447
674.589	409
674.640	1255
674.690	930
674.740	508
674.791	700
674.841	423
674.891	273
674.942	672
674.992	-204
675.042	120
675.092	139
675.142	-194
675.193	467
675.243	345
675.293	509
675.343	474
675.393	286
675.443	737
675.493	236
675.543	-138
675.593	739
675.643	277
675.693	1233
675.743	-309
675.793	417
675.843	-326
675.893	153
675.943	218
675.993	-629
676.043	829
676.093	803
676.142	-34
676.192	-115
676.242	-663
676.292	155
676.341	-329
676.391	283
676.441	360
676.491	-449
676.540	475
676.590	1236
676.640	149
676.689	-70
676.739	392
676.789	-353
676.838	257
676.888	-66
676.937	576
676.987	-404
677.037	340
677.086	-533
677.136	871
677.185	-399
677.235	-70
677.284	192
677.333	-523
677.383	-235
677.432	-267
677.482	-1038
677.531	246
677.580	-266
677.630	-873
677.679	-758
677.728	-591
677.778	851
677.827	-209
677.876	-1348
677.925	40
677.975	318
678.024	204
678.073	309
678.122	199
678.171	27
678.220	334
678.269	957
678.319	1072
678.368	1129
678.417	627
678.466	205
678.515	1024
678.564	-391
678.613	-406
678.662	-915
678.711	34
678.760	-110
678.809	-198
678.857	-402
678.906	108
678.955	111
679.004	-138
679.053	-357
679.102	177
679.151	-191
679.199	-370
679.248	315
679.297	354
679.346	6
679.394	18
679.443	-349
679.492	-317
679.540	-709
679.589	-376
679.638	4
679.686	-548
679.735	-515
679.784	-16
679.832	320
679.881	-304
679.929	-792
679.978	-573
680.026	-281
680.075	-707
680.123	-917
680.172	-919
680.220	235
680.268	-386
680.317	-1610
680.365	-940
680.414	-1486
680.462	-420
680.510	1
680.559	-1122
680.607	-697
680.655	-560
680.703	-389
680.752	-368
680.800	-1359
680.848	-253
680.896	-608
680.945	-1076
680.993	-464
681.041	-838
681.089	-79
681.137	-1362
681.185	-572
681.233	-717
681.258	-430
681.281	-165
681.329	15
681.377	-1627
681.380	-1532
681.425	61
681.473	96
681.502	-227
681.521	-475
681.569	-175
681.617	-933
681.624	-755
681.665	326
681.713	-1177
681.745	-706
681.761	-487
681.809	-447
681.857	-738
681.867	-776
681.904	-956
681.952	-450
681.989	-433
682.000	-440
682.048	-365
682.096	146
682.111	16
682.143	-296
682.191	-462
682.233	212
682.239	304
682.286	-199
682.334	-265
682.354	-149
682.382	-7
682.430	782
682.476	-628
682.477	-665
682.525	-208
682.572	-140
682.598	-179
682.620	-242
682.667	-351
682.715	-176
682.720	-197
682.763	-425
682.810	-259
682.841	-403
682.857	-513
682.905	-769
682.952	815
682.963	689
683.000	220
683.047	-448
683.085	455
683.095	693
683.142	518
683.190	-10
683.206	-262
683.237	-731
683.284	-146
683.328	-60
683.332	-64
683.379	207
683.426	341
683.449	162
683.473	28
683.521	-146
683.568	719
683.571	682
683.615	57
683.662	231
683.693	196
683.709	145
683.757	-235
683.804	564
683.814	480
683.851	203
683.898	528
683.936	496
683.945	492
683.992	478
684.039	557
684.057	770
684.086	1054
684.133	512
684.179	1009
684.180	1018
684.227	1067
684.274	1267
684.300	1335
684.321	1359
684.368	631
684.415	1286
684.422	1186
684.462	530
684.509	64
684.543	588
684.556	786
684.603	323
684.649	312
684.665	356
684.696	530
684.743	912
684.786	937
684.790	918
684.837	832
684.883	677
684.908	1201
684.930	1706
684.977	1032
685.023	530
685.029	542
685.070	622
685.117	770
685.150	330
685.164	158
685.210	838
685.257	1197
685.272	1194
685.303	1179
685.350	1065
685.393	922
685.396	914
685.443	1579
685.490	1661
685.514	1533
685.536	1270
685.583	1106
685.629	1302
685.636	1271
685.675	1278
685.722	494
685.757	1714
685.768	2071
685.815	842
685.861	1070
685.878	881
685.908	590
685.954	1004
686.000	1011
686.000	1009
686.047	1285
686.093	1426
686.121	1338
686.139	1218
686.185	1271
686.232	1186
686.242	1139
686.278	976
686.324	1229
686.363	1129
686.370	1125
686.416	1677
686.463	1630
686.484	1490
686.509	1319
686.555	904
686.601	769
686.606	819
686.647	1250
686.693	1278
686.727	1261
686.739	1236
686.785	930
686.831	1323
686.848	1275
686.877	1238
686.923	857
686.969	1188
686.969	1190
687.015	1455
687.061	1305
687.090	1526
687.107	1598
687.153	1365
687.199	2059
687.211	1762
687.245	1032
687.291	1160
687.332	1685
687.336	1726
687.382	1389
687.428	1571
687.453	1489
687.474	1417
687.520	1032
687.565	1209
687.574	1181
687.611	1299
687.657	1022
687.695	1771
687.702	1892
687.748	2107
687.794	2112
687.816	2212
687.839	2224
687.885	2508
687.931	1643
687.937	1738
687.976	2391
688.022	1983
688.058	2537
688.067	2715
688.113	2469
688.158	2729
688.179	2890
688.204	2818
688.249	2539
688.295	2290
688.300	2279
688.340	2300
688.386	2332
688.421	1967
688.431	1904
688.477	1997
688.522	2274
688.542	2310
688.567	2392
688.613	2337
688.658	1976
688.663	2018
688.703	2162
688.749	2227
688.784	1924
688.794	1898
688.839	1884
688.884	2171
688.905	2173
688.930	2126
688.975	2250
689.020	1624
689.026	1676
689.065	1938
689.110	1555
689.146	1461
689.155	1488
689.201	1776
689.246	1906
689.267	1845
689.291	1730
689.336	1768
689.381	1779
689.388	1753
689.426	1705
689.471	1838
689.509	1866
689.516	1888
689.561	2014
689.606	2419
689.630	2263
689.651	2028
689.696	2107
689.741	1969
689.750	1983
689.785	2154
689.830	2533
689.871	1990
689.875	1926
689.920	2130
689.965	1724
689.992	2004
690.010	2303
690.054	2219
690.099	2231
690.112	2364
690.144	2533
690.189	2004
690.233	2215
690.233	2221
690.278	1727
690.323	2059
690.354	2040
690.367	2048
690.412	1844
690.457	2079
690.474	2179
690.501	2356
690.546	2011
690.590	2680
690.595	2656
690.635	2419
690.680	2156
690.716	1961
690.724	1960
690.769	2341
690.813	2745
690.836	2543
690.857	2501
690.902	2954
690.946	3616
690.957	3680
690.991	4443
691.035	6270
691.077	7318
691.080	7303
691.124	6501
691.168	5727
691.198	5541
691.213	5354
691.257	4129
691.301	3418
691.318	3042
691.346	2938
691.390	2855
691.434	2928
691.439	2913
691.478	2966
691.522	3100
691.559	2885
691.567	2855
691.611	3036
691.655	3061
691.680	3154
691.699	3159
691.743	2998
691.787	2841
691.800	2789
691.831	2823
691.875	2577
691.919	2774
691.921	2776
691.964	3212
692.008	3088
692.041	3007
692.052	2983
692.096	3391
692.139	3441
692.162	3597
692.183	3727
692.227	3308
692.271	3659
692.282	3638
692.315	3666
692.359	4148
692.402	3886
692.403	3894
692.447	3830
692.490	3955
692.523	3875
692.534	3807
692.578	3790
692.622	3150
692.643	3048
692.666	2986
692.709	2862
692.753	2609
692.763	2708
692.797	3401
692.840	2856
692.884	3563
692.884	3576
692.928	3224
692.971	3691
693.004	3379
693.015	3252
693.059	3290
693.102	2991
693.124	2759
693.146	2782
693.189	3239
693.233	3694
693.245	3761
693.276	3700
693.320	3654
693.363	3237
693.365	3225
693.407	3418
693.450	3698
693.485	3862
693.493	3952
693.537	4195
693.580	4502
693.605	4716
693.624	5078
693.667	5892
693.710	6528
693.725	6890
693.753	8697
693.797	11324
693.840	14131
693.845	14327
693.883	12640
693.926	11194
693.966	9939
693.970	9785
694.013	7743
694.056	6223
694.086	4808
694.099	4598
694.142	4275
694.185	3587
694.206	3282
694.229	3261
694.272	3528
694.315	3673
694.326	3601
694.358	3889
694.401	4494
694.444	5524
694.446	5530
694.487	5163
694.530	5087
694.566	4752
694.573	4655
694.616	4215
694.659	3621
694.686	3352
694.702	3385
694.745	3316
694.787	3207
694.806	3276
694.830	3398
694.873	3386
694.916	3245
694.926	3227
694.959	3365
695.002	3548
695.044	3840
695.046	3828
695.087	3576
695.130	3535
695.166	3398
695.172	3446
695.215	3610
695.258	3885
695.286	4121
695.301	4116
695.343	3802
695.386	3792
695.406	3635
695.428	3494
695.471	3527
695.514	3276
695.526	3243
695.556	3764
695.599	4390
695.641	4950
695.646	5006
695.684	4706
695.726	4338
695.766	3928
695.769	3930
695.811	3853
695.854	3637
695.886	3755
695.896	3878
695.938	3863
695.981	3977
696.005	4050
696.023	4226
696.065	4635
696.108	5048
696.125	5233
696.150	5267
696.192	5112
696.235	5159
696.245	5116
696.277	5106
696.319	5040
696.361	5224
696.365	5200
696.404	4887
696.446	4726
696.485	4512
696.488	4538
696.530	4535
696.572	4763
696.604	4770
696.614	4711
696.656	4579
696.698	4314
696.724	4164
696.740	4215
696.783	4209
696.825	4378
696.844	4383
696.867	4310
696.909	4230
696.951	4034
696.964	3995
696.992	4223
697.034	4429
697.076	4754
697.083	4765
697.118	4810
697.160	5053
697.202	5199
697.203	5187
697.244	5175
697.286	5203
697.323	5012
697.327	5027
697.369	5212
697.411	5383
697.442	5476
697.453	5489
697.494	5414
697.536	5380
697.562	5326
697.578	5524
697.620	6071
697.661	6590
697.682	6775
697.703	7056
697.744	7713
697.786	8388
697.801	8586
697.828	8494
697.869	8234
697.911	8018
697.921	7939
697.952	7644
697.994	7307
698.035	6903
698.040	6836
698.077	6637
698.118	6358
698.160	6120
698.160	6099
698.201	6415
698.243	6734
698.279	7032
698.284	7037
698.325	6898
698.367	6672
698.399	6519
698.408	6494
698.449	6259
698.491	6046
698.518	5863
698.532	5825
698.573	5692
698.614	5542
698.638	5427
698.656	5614
698.697	6034
698.738	6455
698.757	6638
698.779	6561
698.820	6360
698.862	6172
698.877	6082
698.903	6280
698.944	6575
698.985	6873
698.996	6935
699.026	6606
699.067	6131
699.116	5550
699.235	5784
699.354	5464
699.474	6058
699.593	6916
699.713	6144
699.832	6555
699.951	6423
700.070	6926
700.190	5929
700.309	6008
700.428	6272
700.547	5863
700.667	5894
700.786	5995
700.905	5652
701.024	5294
701.143	5083
701.262	5327
701.381	5835
701.500	5535
701.619	7234
701.738	5816
701.857	6529
701.976	4854
702.095	5461
702.214	6691
702.333	7301
702.452	5198
702.571	6322
702.690	5527
702.809	5467
702.928	5408
703.047	6005
703.165	6011
703.284	4621
703.403	4996
703.522	5358
703.640	5709
703.759	6801
703.878	6552
703.997	5320
704.115	5739
704.234	5624
704.353	5244
704.471	5253
704.590	4901
704.708	4522
704.827	5017
704.946	4854
705.064	4442
705.183	4304
705.301	5033
705.420	5748
705.538	5135
705.656	4183
705.775	5285
705.893	8520
706.012	8804
706.130	4102
706.249	5253
706.367	4786
706.485	5131
706.604	4022
706.722	5985
706.840	6393
706.958	5103
707.077	5277
707.195	4142
707.313	4883
707.431	3933
707.549	4518
707.668	4143
707.786	5254
707.904	4152
708.022	4045
708.140	3618
708.258	4265
708.376	4538
708.494	4342
708.612	5076
708.730	4698
708.848	5142
708.966	5919
709.084	4766
709.202	4390
709.320	4540
709.438	4555
709.556	4820
709.674	4653
709.791	4612
709.909	3607
710.027	3701
710.145	3993
710.263	4193
710.380	4340
710.498	4783
710.616	4297
710.733	4413
710.851	4592
710.969	4648
711.086	4423
711.204	4064
711.322	3999
711.439	3167
711.557	4718
711.674	4339
711.792	3989
711.909	5598
712.027	4188
712.144	4279
712.262	4202
712.379	4330
712.497	4508
712.614	5033
712.732	4924
712.849	4839
712.966	6266
713.084	7145
713.201	4653
713.318	4180
713.436	4988
713.553	4418
713.670	5039
713.787	5771
713.905	4926
714.022	4785
714.139	5183
714.256	8895
714.373	13765
714.490	27667
714.608	91466
714.725	411763
714.842	328491
714.959	18437
715.076	8484
715.193	5892
715.310	5685
715.427	5200
715.544	4932
715.661	4400
715.778	4221
715.895	5143
716.011	4046
716.128	3950
716.245	4854
716.362	6794
716.479	5765
716.596	4255
716.713	4323
716.829	3190
716.946	3531
717.063	3223
717.180	2908
717.296	3897
717.413	3889
717.530	3918
717.646	3164
717.763	4576
717.880	3591
717.996	2699
718.113	3285
718.229	3050
718.346	2572
718.462	3926
718.579	6809
718.695	13708
718.812	6474
718.928	5269
719.045	3748
719.161	3434
719.277	4054
719.394	3378
719.510	3359
719.626	4335
719.743	5553
719.859	9813
719.975	22477
720.092	110619
720.208	221102
720.324	16934
720.440	5064
720.557	5318
720.673	10488
720.789	8016
720.905	11006
721.021	4658
721.137	2982
721.253	3461
721.369	3597
721.486	3537
721.602	4201
721.718	2273
721.834	3800
721.950	2697
722.066	2538
722.181	2560
722.297	3606
722.413	2985
722.529	3215
722.645	3235
722.761	2364
722.877	2078
722.993	3404
723.108	3933
723.224	3667
723.340	3081
723.456	3081
723.571	3329
723.687	2103
723.803	3274
723.918	3028
724.034	2254
724.150	2179
724.265	2473
724.381	4238
724.497	5461
724.612	3136
724.728	2049
724.843	2800
724.959	2850
725.074	4788
725.190	4936
725.305	2888
725.421	2286
725.536	1784
725.651	2042
725.767	1888
725.882	2050
725.997	2653
726.113	2767
726.228	2501
726.343	2514
726.459	1936
726.574	2408
726.689	2058
726.804	2526
726.920	2443
727.035	2137
727.150	3034
727.265	1972
727.380	2534
727.495	2387
727.610	2724
727.725	2581
727.841	3231
727.956	4739
728.071	2627
728.186	2545
728.301	1497
728.416	3273
728.531	3362
728.645	2044
728.760	2892
728.875	3938
728.990	2970
729.105	2796
729.220	3507
729.335	2511
729.449	2808
729.564	1504
729.679	1833
729.794	2314
729.908	2450
730.023	2104
730.138	2771
730.253	1610
730.367	2103
730.482	1676
730.596	2465
730.711	2401
730.826	3529
730.940	2215
731.055	2702
731.169	2242
731.284	2638
731.398	2371
731.513	3165
731.627	2583
731.742	3798
731.856	2900
731.970	3067
732.085	4674
732.199	7323
732.313	13285
732.428	39709
732.542	128052
732.656	59024
732.771	8839
732.885	4774
732.999	4428
733.113	4072
733.227	3679
733.342	3878
733.456	3773
733.570	3164
733.684	2758
733.798	3044
733.912	3444
734.026	3316
734.140	3278
734.254	3216
734.368	4126
734.482	4281
734.596	2287
734.710	2878
734.824	3393
734.938	2740
735.052	3638
735.166	3518
735.280	4095
735.393	2617
735.507	4239
735.621	4320
735.735	3970
735.849	2853
735.962	3486
736.076	3228
736.190	2595
736.303	3502
736.417	3221
736.531	3555
736.644	3079
736.758	1999
736.872	2777
736.985	2708
737.099	2544
737.212	2027
737.326	3201
737.439	3152
737.553	2455
737.666	2838
737.780	2550
737.893	2250
738.007	2966
738.120	2078
738.233	2640
738.347	2783
738.460	2925
738.573	3229
738.687	2561
738.800	3105
738.913	4102
739.026	3301
739.140	2700
739.253	3165
739.366	2751
739.479	1852
739.592	1080
739.705	2431
739.818	2444
739.932	3975
740.045	4413
740.158	2312
740.271	3093
740.384	2160
740.497	2519
740.610	3345
740.723	3347
740.836	3876
740.949	4140
741.062	4616
741.174	3989
741.287	2553
741.400	2726
741.513	3289
741.626	3578
741.739	3050
741.851	2345
741.964	2413
742.077	2756
742.189	2865
742.302	4517
742.415	3490
742.527	2795
742.640	2731
742.753	2373
742.865	2154
742.978	1562
743.090	2381
743.203	1356
743.316	1554
743.428	1410
743.541	1830
743.653	2108
743.766	1692
743.878	1823
743.990	2311
744.103	3142
744.215	3487
744.327	3013
744.440	3118
744.552	6895
744.664	2193
744.777	2005
744.889	1249
745.001	2033
745.113	1671
745.226	2288
745.338	2260
745.450	2234
745.562	1331
745.674	2209
745.786	2207
745.898	2462
746.010	2105
746.122	2985
746.234	4931
746.347	1928
746.459	2350
746.570	1961
746.682	3157
746.794	4301
746.906	2803
747.018	1575
747.130	2125
747.242	1338
747.354	2047
747.466	1915
747.577	2313
747.689	1788
747.801	2414
747.913	886
748.024	2058
748.136	1572
748.248	1594
748.359	1398
748.471	1505
748.583	1351
748.694	1390
748.806	2276
748.918	1148
749.029	1631
749.141	2726
749.252	2706
749.364	2665
749.475	6447
749.587	2377
749.698	1374
749.809	2273
749.921	1583
750.032	936
750.144	704
750.255	990
750.366	1082
750.478	907
750.589	1057
750.700	1499
750.811	2317
750.923	3584
751.034	6630
751.145	6441
751.256	1528
751.367	466
751.479	1496
751.590	745
751.701	443
751.812	1073
751.923	1210
752.034	1004
752.145	1402
752.256	1349
752.367	795
752.478	679
752.589	1594
752.700	1276
752.811	997
752.922	1690
753.032	988
753.143	2116
753.254	683
753.365	1798
753.476	1262
753.586	625
753.697	349
753.808	1125
753.919	178
754.029	834
754.140	1366
754.251	1598
754.361	480
754.472	994
754.582	816
754.693	1754
754.804	662
754.914	920
755.025	752
755.135	640
755.246	853
755.356	891
755.466	1057
755.577	1642
755.687	840
755.798	1255
755.908	883
756.018	1193
756.129	952
756.239	1352
756.349	1258
756.460	1052
756.570	1992
756.680	1429
756.790	1209
756.900	1295
757.011	1643
757.121	341
757.231	123
757.341	1203
757.451	383
757.561	503
757.671	518
757.781	506
757.891	1108
758.001	826
758.111	1250
758.221	1309
758.331	1626
758.441	2058
758.551	2860
758.661	1294
758.771	2272
758.880	589
758.990	1413
759.100	958
759.210	330
759.320	916
759.429	1191
759.539	1191
759.649	1581
759.758	2029
759.868	2119
759.978	1087
760.087	2138
760.197	2158
760.307	1728
760.416	1831
760.526	1167
760.635	2264
760.745	2143
760.854	1781
760.964	2822
761.073	2053
761.182	1545
761.292	1782
761.401	2084
761.511	963
761.620	1196
761.729	1322
761.839	826
761.948	1840
762.057	816
762.166	1575
762.276	-233
762.385	1649
762.494	1052
762.603	1312
762.712	1140
762.822	624
762.931	1452
763.040	461
763.149	1243
763.258	1443
763.367	1377
763.476	989
763.585	955
763.694	1283
763.803	1546
763.912	1713
764.021	1809
764.130	1595
764.238	1738
764.347	1237
764.456	1913
764.565	2068
764.674	2056
764.783	1372
764.891	1328
765.000	3094
765.109	2972
765.217	2761
765.326	3813
765.435	5056
765.543	5706
765.652	5816
765.761	8359
765.869	12821
765.978	21189
766.086	39705
766.195	84468
766.303	235975
766.412	593579
766.520	422112
766.629	103290
766.737	37371
766.846	22227
766.954	14755
767.062	11266
767.171	8036
767.279	6423
767.387	4985
767.496	4633
767.604	4160
767.712	3608
767.820	1993
767.928	3504
768.037	2392
768.145	3382
768.253	3948
768.361	1768
768.469	2659
768.577	2346
768.685	3403
768.793	2769
768.901	2541
769.009	4066
769.117	3439
769.225	5162
769.333	8426
769.441	15832
769.549	31584
769.657	79547
769.765	276142
769.873	461116
769.981	129052
770.088	28848
770.196	13859
770.304	10113
770.412	6949
770.519	4862
770.627	3555
770.735	2801
770.842	2420
770.950	2683
771.058	2676
771.165	2479
771.273	2380
771.380	2484
771.488	2285
771.595	1986
771.703	2179
771.810	2060
771.918	1617
772.025	3400
772.133	2365
772.240	2619
772.348	2644
772.455	2925
772.562	2250
772.670	2282
772.777	2048
772.884	1238
772.991	1669
773.099	2549
773.206	1501
773.313	2423
773.420	2334
773.528	2268
773.635	1734
773.742	2949
773.849	2267
773.956	2063
774.063	1550
774.170	1544
774.277	2192
774.384	724
774.491	1668
774.598	2287
774.705	2177
774.812	1819
774.919	2104
775.026	1621
775.133	2028
775.239	679
775.346	1238
775.453	1466
775.560	2138
775.667	1717
775.773	386
775.880	1508
775.987	942
776.093	2344
776.200	1068
776.307	330
776.413	1724
776.520	1684
776.627	1954
776.733	1749
776.840	517
776.946	3068
777.053	3908
777.159	8284
777.266	3730
777.372	7177
777.478	5496
777.585	3840
777.691	1142
777.798	1545
777.904	3080
778.010	3156
778.117	2621
778.223	1221
778.329	668
778.435	449
778.542	1053
778.648	1161
778.754	993
778.860	643
778.966	689
779.072	932
779.178	1182
779.284	1277
779.391	1194
779.497	-14
779.603	2977
779.708	-130
779.815	1515
779.920	4551
780.026	5594
780.132	926
780.238	575
780.344	1335
780.450	1297
780.556	928
780.661	641
780.767	531
780.873	193
780.979	768
781.085	505
781.190	485
781.296	771
781.402	336
781.507	758
781.613	349
781.719	873
781.824	101
781.930	1599
782.035	879
782.141	852
782.246	783
782.352	167
782.457	896
782.563	691
782.668	146
782.773	610
782.879	-484
782.984	1547
783.090	1945
783.195	3504
783.300	1664
783.405	1219
783.511	33
783.616	1392
783.721	720
783.826	1488
783.932	1523
784.037	1330
784.142	280
784.247	587
784.352	857
784.457	992
784.562	589
784.667	1305
784.772	429
784.877	57
784.982	202
785.087	157
785.192	490
785.297	402
785.402	474
785.507	1541
785.611	-108
785.716	111
785.821	-74
785.926	113
786.031	4
786.135	388
786.240	822
786.345	-253
786.450	1201
786.554	511
786.659	-604
786.763	27
786.868	119
786.973	387
787.077	212
787.182	945
787.286	1186
787.391	-43
787.495	-162
787.600	-25
787.704	-88
787.809	690
787.913	507
788.017	742
788.122	102
788.226	-372
788.330	-512
788.435	159
788.539	-76
788.643	-636
788.747	218
788.852	230
788.956	128
789.060	1633
789.164	-233
789.268	-594
789.372	462
789.476	-489
789.580	-92
789.684	198
789.788	20
789.892	-396
789.996	516
790.100	727
790.204	513
790.308	267
790.412	-471
790.516	-140
790.620	-41
790.724	900
790.828	-57
790.931	-1213
791.035	1030
791.139	515
791.242	-123
791.346	1544
791.450	228
791.554	-13
791.657	-1402
791.761	503
791.864	959
791.968	1237
792.072	436
792.175	87
792.279	-31
792.382	1096
792.486	584
792.589	204
792.693	681
792.796	-746
792.899	1459
793.003	1226
793.106	-1008
793.209	-709
793.313	879
793.416	-711
793.519	1545
793.623	1881
793.726	2890
793.829	653
793.932	231
794.035	-774
794.138	635
794.242	1172
794.345	358
794.448	1273
794.551	1563
794.654	3843
794.757	1990
794.860	-26
794.963	732
795.066	-1075
795.169	398
795.272	-272
795.375	601
795.477	-761
795.580	-348
795.683	-1370
795.786	-219
795.889	-1397
795.991	398
796.094	689
796.197	-1821
796.300	1659
796.402	-479
796.505	-862
796.608	-77
796.710	361
796.813	-162
796.915	-494
797.018	226
797.120	1160
797.223	-1256
797.326	892
797.428	-677
797.530	-829
797.633	-447
797.735	1240
797.838	-1017
797.940	282
798.042	-567
798.145	-384
798.247	463
798.349	-1355
798.452	249
798.554	-170
798.656	-1303
798.758	-58
798.860	-789
798.962	-471
799.065	-867
799.167	-1306
799.269	1214
799.371	1303
799.473	767
799.575	311
799.677	600
799.779	1922
799.881	786
799.983	1140
800.085	-85
800.187	94
800.289	-1232
800.390	-310
800.492	356
800.594	657
800.696	-436
800.798	-256
800.899	-523
801.001	-932
801.103	-284
801.205	-305
801.306	-532
801.408	-1024
801.509	110
801.611	-35
801.713	1088
801.814	-18
801.916	2
802.017	-522
802.119	-1204
802.220	111
802.322	-2436
802.423	1581
802.525	-1687
802.626	874
802.727	-203
802.829	238
802.930	-2267
803.031	699
803.133	-221
803.234	-489
803.335	-711
803.436	-887
803.538	-183
803.639	-1309
803.740	-640
803.841	-206
803.942	-305
804.043	619
804.144	-1174
804.245	227
804.346	-155
804.447	-368
804.548	825
804.649	1314
804.750	-669
804.851	-195
804.952	-1065
805.053	426
805.154	-1278
805.255	791
805.355	64
805.456	-273
805.557	-727
805.658	-709
805.758	-323
805.859	-513
805.960	-718
806.061	-1208
806.161	-723
806.262	-218
806.362	-1235
806.463	-473
806.564	-571
806.664	119
806.765	-503
806.865	-366
806.966	-964
807.066	-255
807.166	-10
807.267	264
807.367	-1128
807.468	297
807.568	-1853
807.668	546
807.769	-75
807.869	-34
807.969	-397
808.069	-509
808.170	-676
808.270	-232
808.370	-81
808.470	565
808.570	-624
808.670	-1289
808.770	-600
808.870	-695
808.970	-219
809.070	-646
809.170	-780
809.271	-41
809.370	-617
809.470	459
809.570	-592
809.670	-842
809.770	-170
809.870	997
809.970	137
810.070	-742
810.169	-210
810.269	-1503
810.369	593
810.469	-368
810.568	-937
810.668	-548
810.768	-1117
810.867	-261
810.967	-1266
811.066	-250
811.166	-1363
811.265	-33
811.365	-902
811.464	-1195
811.564	-240
811.663	-170
811.763	-2444
811.862	0
811.962	140
812.061	-846
812.160	-1274
812.260	-385
812.359	-522
812.458	-1329
812.557	-302
812.657	-637
812.756	1
812.855	-468
812.954	-868
813.053	629
813.153	-885
813.252	-850
813.351	-173
813.450	-380
813.549	-257
813.648	-441
813.747	-1462
813.846	-215
813.945	-758
814.044	-879
814.143	-733
814.242	429
814.341	-2145
814.439	-956
814.538	133
814.637	-686
814.736	-562
814.835	-266
814.933	-1121
815.032	-457
815.131	-858
815.229	107
815.328	824
815.427	103
815.525	1143
815.624	522
815.722	-886
815.821	1297
815.919	389
816.018	-177
816.116	492
816.215	-458
816.313	595
816.412	356
816.510	-485
816.609	1814
816.707	1989
816.805	1086
816.904	891
817.002	1138
817.100	2152
817.198	1608
817.296	541
817.395	541
817.493	1082
817.591	156
817.689	1629
817.787	919
817.885	3114
817.983	4917
818.081	12992
818.179	34618
818.277	97830
818.375	65314
818.473	12437
818.571	4357
818.669	3352
818.767	3954
818.865	3422
818.963	3624
819.061	5680
819.158	12490
819.256	29603
819.354	77930
819.452	183910
819.549	87658
819.647	17103
819.745	6198
819.842	3847
819.940	2566
820.038	1521
820.135	1491
820.233	2300
820.330	1553
820.428	508
820.525	953
820.623	238
820.720	666
820.818	795
820.915	580
821.012	12
821.110	149
821.207	779
821.304	623
821.402	1158
821.499	1727
821.596	3369
821.693	2044
821.791	1198
821.888	1153
821.985	3674
822.082	712
822.179	1448
822.276	403
822.373	937
822.470	613
822.567	-488
822.664	-304
822.761	442
822.858	-343
822.955	-351
823.052	325
823.149	191
823.246	-205
823.343	44
823.440	1034
823.536	-496
823.633	491
823.730	439
823.827	815
823.923	28
824.020	1361
824.117	-77
824.213	75
824.310	326
824.407	770
824.503	-362
824.600	622
824.696	-262
824.793	1158
824.889	-428
824.986	-176
825.082	-60
825.179	544
825.275	-785
825.371	-533
825.468	-28
825.564	-982
825.660	850
825.757	328
825.853	226
825.949	-960
826.045	-198
826.142	-617
826.238	-221
826.334	-4
826.430	-750
826.526	366
826.622	-324
826.718	-271
826.814	-1607
826.910	331
827.006	-711
827.102	-669
827.198	1003
827.294	-987
827.390	170
827.486	494
827.582	-1531
827.678	-972
827.774	4
827.869	-1547
827.965	511
828.061	-845
828.157	-463
828.252	-156
828.348	-690
828.444	617
828.539	-866
828.635	-682
828.731	-159
828.826	-968
828.922	354
829.017	-610
829.113	121
829.208	-627
829.304	-1205
829.399	1177
829.495	-1060
829.590	1516
829.685	-981
829.781	477
829.876	-1105
829.971	-235
830.066	-1060
830.162	28
830.257	-741
830.352	-692
830.447	740
830.543	369
830.638	-995
830.733	-93
830.828	-1101
830.923	-57
831.018	-497
831.113	890
831.208	-1906
831.303	-382
831.398	-638
831.493	-543
831.588	346
831.683	-1080
831.778	-397
831.873	-906
831.967	630
832.062	-1161
832.157	-2036
832.252	424
832.346	-1037
832.441	107
832.536	115
832.631	1851
832.725	622
832.820	-742
832.914	-769
833.009	-481
833.104	41
833.198	510
833.293	-306
833.387	-406
833.482	-425
833.576	-576
833.670	307
833.765	-775
833.859	-125
833.954	-465
834.048	-539
834.142	-325
834.237	-1559
834.331	-775
834.425	-871
834.519	-1632
834.613	-86
834.708	-1071
834.802	-660
834.896	-302
834.990	-1113
835.084	-552
835.178	-776
835.272	-1192
835.366	-1378
835.460	182
835.554	-22
835.648	-39
835.742	-1202
835.836	-463
835.930	-2038
836.024	-427
836.117	-429
836.211	-749
836.305	-753
836.399	101
836.493	-1575
836.586	190
836.680	-1240
836.774	-821
836.867	167
836.961	-2021
837.055	-921
837.148	-859
837.242	-143
837.335	-658
837.429	-1077
837.522	-1109
837.616	-853
837.709	-284
837.803	-1071
837.896	-428
837.989	-974
838.083	-732
838.176	-889
838.269	-1174
838.363	-419
838.456	-1525
838.549	175
838.642	46
838.735	2986
838.829	729
838.922	-1386
839.015	-1020
839.108	-1133
839.201	-1337
839.294	-395
839.387	-440
839.480	-1543
839.573	-1433
839.666	-818
839.759	-860
839.852	-1323
839.945	-548
840.038	-1473
840.131	-1298
840.223	-1340
840.316	-455
840.409	-1362
840.502	-2097
840.594	314
840.687	-938
840.780	-578
840.873	-1595
840.965	-775
841.058	-773
841.150	-851
841.243	-1332
841.336	284
841.428	-1036
841.521	-1593
841.613	-1331
841.706	-1143
841.798	-742
841.890	-1019
841.983	-1401
842.075	-564
842.167	-1284
842.260	-1407
842.352	647
842.444	-359
842.537	-466
842.629	-216
842.721	-1075
842.813	-1174
842.905	-2198
842.997	-678
843.090	-926
843.182	-335
843.274	-1650
843.366	808
843.458	2270
843.550	714
843.642	-1156
843.734	-900
843.826	-998
843.918	-1125
844.009	-853
844.101	-1305
844.193	-902
844.285	-1691
844.377	-358
844.469	1182
844.560	392
844.652	180
844.744	-189
844.835	-499
844.927	-1653
845.019	-1078
845.110	-1651
845.202	-546
845.293	-181
845.385	-1079
845.476	-538
845.568	-861
845.659	-533
845.751	-507
845.842	-877
845.934	-1510
846.025	-282
846.116	-460
846.208	-766
846.299	-1753
846.390	-630
846.482	59
846.573	-816
846.664	-1063
846.755	-304
846.846	-288
846.937	-1474
847.029	-210
847.120	-1283
847.211	-1192
847.302	-640
847.393	-1409
847.484	-385
847.575	-1313
847.666	-1377
847.757	-798
847.847	-949
847.938	-360
848.029	-952
848.120	-1192
848.211	-1211
848.302	-1510
848.392	-1049
848.483	-1090
848.574	-1090
848.664	-1532
848.755	-378
848.846	-477
848.936	-1444
849.027	-79
849.118	-350
849.208	-301
849.299	1047
849.389	2905
849.480	7870
849.570	18098
849.661	38227
849.751	61652
849.841	18053
849.932	1306
850.022	-473
850.112	-686
850.203	-1240
850.293	-217
850.383	-82
850.474	-1078
850.564	-1063
850.654	-920
850.744	-79
850.834	-1144
850.924	-443
851.014	-842
851.104	-450
851.194	-408
851.284	-449
851.374	-704
851.464	-1392
851.554	-1132
851.644	-1381
851.734	-561
851.824	-746
851.914	-1200
852.004	-992
852.094	-1508
852.183	-201
852.273	-853
852.363	-665
852.452	-577
852.542	-659
852.632	-1055
852.721	-390
852.811	-1184
852.901	-174
852.990	-1306
853.080	109
853.169	-1000
853.259	-74
853.348	-269
853.438	1053
853.527	2686
853.617	5236
853.706	10144
853.795	20837
853.885	50192
853.974	97180
854.063	186875
854.152	272154
854.242	90364
854.331	15378
854.420	5669
854.509	3027
854.598	2849
854.687	1234
854.777	952
854.866	-460
854.955	997
855.044	0
855.133	-345
855.222	-247
855.311	-1195
855.400	-40
855.488	-203
855.577	-1078
855.666	-398
855.755	-78
855.844	-587
855.933	-785
856.021	-683
856.110	-831
856.199	-1861
856.288	-462
856.376	-986
856.465	-810
856.554	-396
856.642	-1736
856.731	-990
856.819	-992
856.908	-1772
856.996	-767
857.085	-1070
857.173	-459
857.262	-1396
857.350	-1124
857.438	-1181
857.527	-654
857.615	-921
857.703	-184
857.792	-1704
857.880	-654
857.968	-1028
858.056	-1011
858.145	-1171
858.233	-1166
858.321	-1024
858.409	-870
858.497	-2065
858.585	-1823
858.673	-1099
858.761	-1445
858.849	-1737
858.937	-1510
859.025	-799
859.113	-1080
859.201	-1894
859.289	-617
859.377	-725
859.465	-799
859.552	-1174
859.640	-1392
859.728	-1705
859.816	-750
859.903	-1027
859.991	-744
860.079	-898
860.166	-623
860.254	-1314
860.342	-1138
860.429	-842
860.517	-1544
860.604	-1700
860.692	-423
860.779	-1555
860.867	-356
860.954	-897
861.042	-750
861.129	-1011
861.216	-1503
861.304	-1456
861.391	-548
861.478	-546
861.565	-846
861.653	213
861.740	-1423
861.827	-1062
861.914	-468
862.001	-1431
862.089	-969
862.176	-667
862.263	-1701
862.350	-1440
862.437	-1305
862.524	-1595
862.611	-1360
862.698	-456
862.785	149
862.871	-533
862.958	-1680
863.045	-1290
863.132	-759
863.219	-965
863.306	-2116
863.392	-288
863.479	-1113
863.566	-1382
863.652	-808
863.739	-1083
863.826	-1002
863.912	-941
863.999	-1060
864.086	-936
864.172	-1061
864.259	-1416
864.345	-741
864.432	-503
864.518	-779
864.604	-882
864.691	-1583
864.777	-1078
864.863	-715
864.950	314
865.036	-253
865.122	732
865.209	699
865.295	708
865.381	-263
865.467	351
865.553	2791
865.639	4695
865.726	10703
865.812	24394
865.898	50056
865.984	76773
866.070	146987
866.156	145541
866.242	32402
866.328	5781
866.414	2360
866.499	1878
866.585	833
866.671	1072
866.757	962
866.843	1296
866.928	292
867.014	-668
867.100	502
867.186	-514
867.271	-24
867.357	779
867.442	-76
867.528	363
867.614	619
867.699	542
867.785	550
867.870	1389
867.956	1440
868.041	1316
868.127	418
868.212	847
868.297	1384
868.383	857
868.468	941
868.553	131
868.639	1439
868.724	3726
868.809	2493
868.894	85
868.979	177
869.065	-381
869.150	-401
869.235	-174
869.320	-223
869.405	-996
869.490	-1247
869.575	-545
869.660	406
869.745	71
869.830	-201
869.915	-1057
870.000	-416
870.085	-668
870.169	139
870.254	208
870.339	-569
870.424	-566
870.509	-241
870.593	-1012
870.678	-953
870.763	-329
870.847	-818
870.932	-889
871.016	599
871.101	-872
871.186	-109
871.270	310
871.355	-288
871.439	-545
871.523	-7
871.608	-939
871.692	-811
871.777	-144
871.861	-478
871.945	-1294
872.030	-5
872.114	-979
872.198	-1142
872.282	-632
872.367	-1284
872.451	-1274
872.535	-946
872.619	-513
872.703	-1115
872.787	-1113
872.871	-579
872.955	-1209
873.039	-1167
873.123	-1392
873.207	-679
873.291	-1357
873.375	-282
873.459	122
873.543	-455
873.627	-592
873.711	-1018
873.794	-1834
873.878	-476
873.962	-1402
874.045	-519
874.129	-686
874.137	-688
874.213	-712
874.245	-762
874.296	-843
874.352	-725
874.380	-673
874.460	-741
874.464	-743
874.547	-615
874.568	-509
874.631	-232
874.676	-525
874.714	-754
874.784	-579
874.798	-537
874.881	588
874.892	405
874.965	-966
874.999	-649
875.048	-161
875.107	-441
875.131	-571
875.215	-906
875.215	-906
875.298	-1282
875.323	-1155
875.381	-804
875.430	-285
875.465	71
875.538	-26
875.548	-49
875.631	-1184
875.646	-1095
875.714	-570
875.753	-736
875.798	-988
875.861	-1129
875.881	-1177
875.964	-811
875.968	-806
876.047	-584
876.076	-505
876.130	-407
876.183	-670
876.213	-829
876.291	-476
876.296	-448
876.379	-665
876.398	-795
876.462	-1330
876.506	-935
876.545	-546
876.613	-924
876.628	-976
876.711	-4
876.721	-35
876.794	-313
876.828	-180
876.877	-160
876.935	-757
876.960	-899
877.043	-513
877.043	-511
877.125	-94
877.150	72
877.208	537
877.258	157
877.291	-92
877.365	69
877.374	82
877.456	-163
877.472	-278
877.539	-831
877.579	-400
877.622	125
877.687	-403
877.704	-534
877.787	-577
877.794	-533
877.869	-84
877.901	-236
877.952	-692
878.008	-497
878.034	-246
878.115	-420
878.117	-423
878.199	-225
878.222	-169
878.282	-233
878.329	-194
878.364	-135
878.437	-919
878.447	-1023
878.529	-1169
878.544	-1068
878.611	-520
878.651	-430
878.694	-351
878.758	-258
878.776	-247
878.858	-1171
878.865	-1124
878.941	-502
878.972	-409
879.023	-228
879.078	-481
879.105	-604
879.185	-5
879.187	5
879.269	-532
879.292	-731
879.351	-1065
879.399	-819
879.433	-648
879.506	-92
879.516	-27
879.598	-438
879.613	-462
879.680	-653
879.720	-571
879.762	-378
879.827	-400
879.844	-443
879.926	-638
879.933	-576
880.007	87
880.040	36
880.089	35
880.147	1051
880.171	1582
880.253	4195
880.254	4211
880.335	5929
880.360	6447
880.417	8150
880.467	13203
880.499	16523
880.574	16498
880.580	16223
880.662	4502
880.680	3360
880.744	746
880.787	344
880.825	-110
880.893	-870
880.907	-935
880.989	-94
881.000	-106
881.070	-387
881.106	-386
881.152	-210
881.213	-7
881.233	17
881.315	-307
881.319	-305
881.396	-340
881.426	-329
881.478	-251
881.532	-383
881.559	-438
881.639	-866
881.641	-879
881.722	-380
881.745	-527
881.803	-183
881.852	157
881.885	-106
881.958	-331
881.966	-308
882.047	-513
882.064	-461
882.129	-46
882.171	-33
882.210	-56
882.277	94
882.291	69
882.372	-72
882.383	-149
882.454	-492
882.489	-500
882.535	-517
882.596	-392
882.616	-348
882.697	-855
882.702	-837
882.778	-138
882.808	-55
882.859	-330
882.914	-473
882.940	-277
883.020	-94
883.021	-95
883.102	-276
883.127	-453
883.183	-813
883.233	-939
883.264	-795
883.339	-712
883.345	-714
883.426	-466
883.445	-420
883.507	-63
883.551	-131
883.587	-344
883.657	125
883.668	183
883.749	-145
883.763	-179
883.830	-350
883.869	-513
883.910	-641
883.975	-564
883.991	-449
884.072	-44
884.081	-32
884.152	-358
884.187	-549
884.233	-719
884.292	-485
884.314	-394
884.394	-559
884.398	-558
884.475	-217
884.504	-115
884.555	-51
884.610	-53
884.636	-142
884.716	-400
884.716	-395
884.797	-74
884.821	-50
884.877	139
884.927	137
884.958	-85
885.033	-368
885.038	-367
885.118	-261
885.139	-238
885.199	-330
885.244	-540
885.279	-316
885.350	-48
885.359	-28
885.439	437
885.456	510
885.520	51
885.561	-334
885.600	-551
885.667	-771
885.680	-684
885.760	-75
885.773	-10
885.840	-352
885.878	-524
885.920	-215
885.984	83
886.000	-88
886.080	-718
886.089	-810
886.160	-544
886.195	-303
886.240	-136
886.300	-33
886.320	-93
886.400	-355
886.406	-374
886.480	-65
886.511	51
886.560	-166
886.616	-358
886.640	-273
886.720	-271
886.722	-270
886.800	-668
886.827	-775
886.879	-231
886.932	171
886.959	258
887.038	459
887.039	456
887.119	-202
887.143	-384
887.198	-175
887.248	-30
887.278	127
887.354	380
887.358	370
887.437	107
887.459	46
887.517	-144
887.564	-260
887.596	-12
887.669	513
887.676	464
887.755	-236
887.774	-420
887.835	-424
887.880	-367
887.914	-345
887.985	-292
887.994	-264
888.073	-116
888.090	-76
888.153	348
888.195	572
888.232	431
888.300	220
888.311	186
888.391	-84
888.405	-141
888.470	-116
888.510	-108
888.549	91
888.615	430
888.628	381
888.708	111
888.720	50
888.787	150
888.825	194
888.866	-148
888.930	-627
888.945	-556
889.024	-240
889.035	-196
889.103	173
889.140	369
889.182	79
889.245	-375
889.261	-362
889.340	-290
889.349	-283
889.419	-235
889.454	-207
889.498	-321
889.559	-487
889.577	-543
889.656	-775
889.664	-795
889.735	100
889.768	526
889.814	526
889.873	521
889.978	355
890.083	-729
890.187	128
890.292	-454
890.397	-118
890.501	72
890.606	145
890.710	569
890.815	30
890.919	-415
891.024	89
891.128	1101
891.233	24
891.337	-350
891.442	390
891.546	-177
891.650	-54
891.755	527
891.859	1576
891.963	451
892.068	588
892.172	15
892.276	-424
892.380	144
892.484	-376
892.589	-129
892.693	148
892.797	6
892.901	222
893.005	11
893.109	-191
893.213	530
893.317	-321
893.421	827
893.525	-60
893.629	-351
893.733	736
893.837	-13
893.941	-51
894.045	-395
894.148	-196
894.252	737
894.356	206
894.460	-561
894.564	-104
894.667	-146
894.771	-44
894.875	-555
894.978	-153
895.082	-282
895.186	28
895.289	-455
895.393	100
895.496	-634
895.600	143
895.703	-656
895.807	-135
895.910	744
896.014	-126
896.117	-165
896.221	-45
896.324	137
896.427	368
896.531	-634
896.634	-166
896.737	373
896.840	316
896.944	394
897.047	-466
897.150	-581
897.253	-2
897.356	792
897.460	64
897.563	-24
897.666	625
897.769	-158
897.872	551
897.975	230
898.078	-534
898.181	-47
898.284	-343
898.387	300
898.490	328
898.593	-427
898.695	-526
898.798	173
898.901	152
899.004	-137
899.107	127
899.209	-464
899.312	162
899.415	-189
899.518	-15
899.620	0
899.723	186
899.826	-92
899.928	-820
900.031	-316
900.133	624
900.236	-423
900.338	-165
900.441	-50
900.543	-216
900.646	-334
900.748	228
900.851	-178
900.953	-363
901.055	509
901.158	174
901.260	-147
901.362	-553
901.465	266
901.567	164
901.669	-254
901.771	90
901.873	58
901.976	-812
902.078	-149
902.180	87
902.282	-6
902.384	-1
902.486	3
902.588	-18
902.690	-64
902.792	988
902.894	261
902.996	323
903.098	-90
903.200	-178
903.302	261
903.404	251
903.505	-14
903.607	253
903.709	292
903.811	616
903.913	265
904.014	19
904.116	128
904.218	-27
904.319	403
904.421	468
904.523	-388
904.624	197
904.726	166
904.827	-129
904.929	-393
905.030	-318
905.132	-367
905.233	522
905.335	-452
905.436	-552
905.537	366
905.639	-436
905.740	-382
905.841	81
905.943	-243
906.044	603
906.145	88
906.247	-292
906.348	-298
906.449	405
906.550	264
906.651	45
906.752	-59
906.854	-425
906.955	-44
907.056	-768
907.157	-72
907.258	315
907.359	-96
907.460	-722
907.561	422
907.662	-486
907.762	196
907.863	-577
907.964	84
908.065	-398
908.166	-535
908.267	0
908.367	191
908.468	-588
908.569	-643
908.670	360
908.770	50
908.871	496
908.971	-632
909.072	-422
909.173	195
909.273	-318
909.374	-239
909.474	-770
909.575	-812
909.675	-307
909.776	-759
909.876	-279
909.977	-836
910.077	-904
910.177	-128
910.278	139
910.378	-878
910.478	-285
910.579	-621
910.679	-604
910.779	-147
910.879	-160
910.980	442
911.080	-20
911.180	-92
911.280	-327
911.380	533
911.480	-535
911.580	169
911.680	670
911.780	-98
911.880	183
911.980	-493
912.080	-984
912.180	197
912.280	-290
912.380	-67
912.480	-342
912.580	-6
912.679	-636
912.779	122
912.879	-1189
912.979	60
913.078	-808
913.178	-292
913.278	28
913.377	-208
913.477	-234
913.577	-407
913.676	-12
913.776	214
913.875	502
913.975	-51
914.074	-259
914.174	-307
914.273	-185
914.373	150
914.472	-790
914.572	-153
914.671	-66
914.770	-1116
914.870	16
914.969	-1360
915.068	12
915.167	-260
915.267	351
915.366	-115
915.465	-1283
915.564	220
915.663	-331
915.763	-435
915.862	415
915.961	-258
916.060	-500
916.159	-9
916.258	-704
916.357	-389
916.456	575
916.555	-427
916.654	170
916.752	440
916.851	287
916.950	-522
917.049	-298
917.148	-294
917.247	367
917.345	454
917.444	168
917.543	543
917.642	-764
917.740	-221
917.839	-463
917.937	690
918.036	-582
918.135	-703
918.233	210
918.332	-300
918.430	-505
918.529	333
918.627	-377
918.726	785
918.824	-172
918.923	29
919.021	401
919.119	62
919.218	-71
919.316	-371
919.414	52
919.512	-56
919.611	-621
919.709	-216
919.807	-271
919.905	-11
920.003	465
920.102	70
920.200	-818
920.298	98
920.396	-11
920.494	156
920.592	-407
920.690	-575
920.788	-344
920.886	-740
920.984	-580
921.082	-488
921.180	267
921.277	202
921.375	101
921.473	614
921.571	-127
921.669	-349
921.766	-73
921.864	130
921.962	668
922.060	-364
922.157	416
922.255	121
922.352	192
922.450	419
922.548	512
922.645	-424
922.743	-194
922.840	810
922.938	217
923.035	311
923.133	726
923.230	374
923.327	1126
923.425	1424
923.522	472
923.619	773
923.717	438
923.814	1352
923.911	1142
924.008	355
924.106	646
924.203	481
924.300	607
924.397	-341
924.494	835
924.591	1
924.688	-108
924.786	2
924.883	830
924.979	1466
925.077	534
925.173	369
925.270	633
925.367	975
925.464	394
925.561	438
925.658	1139
925.755	533
925.852	1011
925.948	382
926.045	1332
926.142	1233
926.239	981
926.335	467
926.432	1305
926.529	899
926.625	2037
926.722	740
926.818	622
926.915	-131
927.011	30
927.108	34
927.204	223
927.301	187
927.397	1214
927.494	-191
927.590	750
927.687	651
927.783	681
927.879	697
927.976	180
928.072	343
928.168	138
928.264	156
928.361	-16
928.457	-55
928.553	365
928.649	684
928.745	221
928.841	-453
928.937	-46
929.033	198
929.129	617
929.225	-378
929.321	-155
929.417	-241
929.513	635
929.609	462
929.705	-488
929.801	197
929.897	-461
929.993	47
930.089	464
930.184	82
930.280	114
930.376	-94
930.471	-364
930.567	-735
930.663	682
930.758	316
930.854	-81
930.950	18
931.045	231
931.141	-229
931.236	399
931.332	484
931.427	112
931.523	-100
931.618	1060
931.714	-97
931.809	252
931.905	312
932.000	-194
932.095	59
932.191	358
932.286	-137
932.381	-276
932.476	180
932.572	91
932.667	-285
932.762	53
932.857	838
932.952	-69
933.047	-276
933.142	-492
933.237	-206
933.332	-568
933.427	225
933.522	-338
933.617	-185
933.712	-75
933.807	45
933.902	101
933.997	-52
934.092	-372
934.187	-235
934.282	795
934.376	-283
934.471	-502
934.566	-272
934.661	165
934.755	-671
934.850	-36
934.945	-163
935.039	315
935.134	-231
935.228	-161
935.323	431
935.417	297
935.512	-135
935.606	3
935.701	-61
935.795	17
935.890	-693
935.984	-267
936.079	-531
936.173	-138
936.267	-502
936.362	106
936.456	69
936.550	-606
936.644	-249
936.738	409
936.833	515
936.927	-677
937.021	-316
937.115	-575
937.209	-445
937.303	1397
937.397	-296
937.491	359
937.585	-594
937.679	-573
937.773	830
937.867	-151
937.961	-236
938.055	777
938.149	518
938.243	-122
938.337	389
938.430	10
938.524	281
938.618	115
938.712	35
938.805	-1
938.899	335
938.993	-57
939.086	27
939.180	-93
939.274	1228
939.367	238
939.461	185
939.554	-455
939.648	-165
939.741	102
939.835	-397
939.928	-266
940.022	931
940.115	-648
940.208	843
940.302	-231
940.395	240
940.488	-163
940.582	-605
940.675	-419
940.768	-281
940.861	205
940.954	188
941.048	-11
941.141	-300
941.234	-447
941.327	-21
941.420	532
941.513	-478
941.606	-770
941.699	1111
941.792	436
941.885	158
941.978	-214
942.071	-371
942.164	-896
942.257	-65
942.349	297
942.442	-576
942.535	-711
942.628	-488
942.721	132
942.813	-448
942.906	687
942.999	-337
943.091	-13
943.184	-1029
943.277	-202
943.369	70
943.462	-1047
943.554	-291
943.647	-208
943.739	441
943.832	-73
943.924	-1468
944.017	-266
944.109	-1209
944.201	-171
944.294	-555
944.386	-99
944.478	212
944.571	-371
944.663	107
944.755	-561
944.847	-709
944.940	636
945.032	-781
945.124	-348
945.216	310
945.308	-454
945.400	453
945.492	-491
945.584	89
945.676	-319
945.768	-74
945.860	-303
945.952	-1142
946.044	-360
946.136	-768
946.228	-808
946.320	-503
946.412	-173
946.503	-747
946.595	863
946.687	-1348
946.779	-360
946.870	-124
946.962	-804
947.054	-608
947.145	-438
947.237	-92
947.329	-120
947.420	-337
947.512	-550
947.603	-443
947.695	491
947.786	-1117
947.878	-289
947.969	-457
948.061	-377
948.152	-1665
948.243	-275
948.335	-185
948.426	-916
948.517	5
948.609	-43
948.700	-501
948.791	-1358
948.882	-869
948.973	-363
949.065	-612
949.156	-395
949.247	-562
949.338	529
949.429	-1287
949.520	139
949.611	-497
949.702	-469
949.793	-257
949.884	-629
949.975	-620
950.066	-1573
950.157	-204
950.247	-403
950.338	-522
950.429	-1080
950.520	-448
950.611	-335
950.701	-227
950.792	-632
950.883	-344
950.973	-1149
951.064	-258
951.155	-827
951.245	-189
951.336	-150
951.427	-666
951.517	646
951.608	-472
951.698	-527
951.788	-778
951.879	-1015
951.969	-751
952.060	-795
952.150	-523
952.240	-90
952.331	-1629
952.421	513
952.511	-315
952.602	-200
952.692	-165
952.782	-239
952.872	-617
952.962	115
953.052	-368
953.143	-500
953.233	-90
953.323	-141
953.413	-493
953.503	192
953.593	-548
953.683	-816
953.773	-2182
953.863	-732
953.953	-340
954.042	108
954.132	-992
954.222	832
954.312	-1240
954.402	-647
954.492	-197
954.581	-182
954.671	-1600
954.761	-1045
954.850	-433
954.940	-119
955.030	-171
955.119	-262
955.209	-929
955.298	-916
955.388	-899
955.477	-423
955.567	-449
955.656	-490
955.746	-368
955.835	-469
955.925	-1296
956.014	-269
956.103	-630
956.193	-69
956.282	-18
956.371	-18
956.461	1
956.550	-1261
956.639	-461
956.728	-1485
956.817	-1123
956.906	-950
956.995	-402
957.085	-1472
957.174	-276
957.263	-436
957.352	-553
957.441	-211
957.530	-369
957.619	-190
957.708	-477
957.796	-1309
957.885	-942
957.974	-1288
958.063	-169
958.152	-1744
958.241	-711
958.329	-523
958.418	-290
958.507	-1074
958.596	95
958.684	-797
958.773	-354
958.861	-844
958.950	-195
959.039	-14
959.127	-480
959.216	-573
959.304	317
959.393	-446
959.481	-141
959.570	-716
959.658	-1262
959.746	-321
959.835	-1048
959.923	-1174
960.011	-1326
960.100	-27
960.188	-541
960.276	-757
960.365	-1170
960.453	-1084
960.541	-1978
960.629	280
960.717	-1588
960.805	-834
960.893	-406
960.981	-1239
961.069	382
961.158	-1115
961.245	-1099
961.333	125
961.421	-820
961.509	188
961.597	-542
961.685	-677
961.773	-990
961.861	-785
961.949	-747
962.036	-1300
962.124	-75
962.212	-658
962.299	-845
962.387	-1570
962.475	-883
962.562	-1017
962.650	270
962.738	-801
962.825	-1392
962.913	-422
963.000	-1358
963.088	-1066
963.175	-824
963.263	-28
963.350	-513
963.438	-1140
963.525	-487
963.612	-622
963.700	-150
963.787	490
963.874	-634
963.962	-291
964.049	-782
964.136	-890
964.223	-1463
964.310	-498
964.398	-551
964.485	-1037
964.572	658
964.659	-527
964.746	-647
964.833	-833
964.920	-583
965.007	-1319
965.094	-1312
965.181	-501
965.268	-199
965.355	-477
965.441	-1405
965.528	-466
965.615	-542
965.702	-786
965.789	-514
965.875	-856
965.962	-532
966.049	-921
966.136	398
966.222	-263
966.309	49
966.395	-557
966.482	-330
966.569	-1415
966.655	-1176
966.742	-600
966.828	-686
966.915	-917
967.001	-317
967.087	-1899
967.174	-1170
967.260	562
967.347	-538
967.433	-984
967.519	-349
967.605	-1082
967.692	-840
967.778	-655
967.864	-604
967.950	-720
968.036	-1386
968.123	-388
968.209	-672
968.295	-2624
968.381	441
968.467	-257
968.553	-2213
968.639	-367
968.725	-795
968.811	226
968.897	-1049
968.983	-226
969.069	-1305
969.154	-584
969.240	-1277
969.326	-671
969.412	-1131
969.497	-817
969.583	-1488
969.669	123
969.755	-112
969.840	-549
969.926	-1475
970.012	-1461
970.097	-364
970.183	-1255
970.268	-1365
970.354	-412
970.439	-1343
970.525	195
970.610	-1722
970.696	350
970.781	-68
970.866	-1726
970.952	-737
971.037	-918
971.122	-845
971.208	-701
971.293	-757
971.378	-1909
971.463	-549
971.549	-199
971.634	-973
971.719	-410
971.804	-1276
971.889	354
971.974	-275
972.059	-767
972.144	-560
972.229	-897
972.314	-1238
972.399	-865
972.484	-1154
972.569	-632
972.654	-2125
972.739	-133
972.824	-1395
972.908	-469
972.993	-539
973.078	-1131
973.163	-1111
973.247	-69
973.332	-2770
973.417	177
973.501	-832
973.586	-716
973.671	-1081
973.755	-648
973.840	-663
973.924	-232
974.009	-550
974.093	-791
974.178	-391
974.262	-912
974.346	-695
974.431	-1229
974.515	-592
974.600	-648
974.684	-37
974.768	-253
974.852	-644
974.937	-1197
975.021	-660
975.105	-1403
975.189	-1109
975.273	37
975.358	-1271
975.442	-993
975.526	-340
975.610	-829
975.694	-1131
975.778	-12
975.862	-644
975.946	-2273
976.030	443
976.114	-1073
976.198	-608
976.281	-469
976.365	-416
976.449	-1122
976.533	-174
976.617	-1046
976.700	-870
976.784	-857
976.868	-1643
976.951	-838
977.035	-1174
977.119	-90
977.202	-144
977.286	227
977.369	-1257
977.453	-285
977.536	-550
977.620	-1275
977.703	-165
977.787	-825
977.870	-371
977.953	-528
978.037	-1775
978.120	1267
978.203	-1801
978.287	-479
978.370	-481
978.453	-1303
978.536	-1128
978.620	262
978.703	-179
978.786	-1363
978.869	-1385
978.952	-1894
979.035	-410
979.118	-762
979.201	-1067
979.284	-478
979.367	-1291
979.450	-243
979.533	-1136
979.616	-1084
979.699	-666
979.782	-990
979.865	-1018
979.948	-1023
980.030	-791
980.113	-613
980.196	-1684
980.279	-383
980.361	-647
980.444	-492
980.526	-322
980.609	-578
980.692	-553
980.774	-120
980.857	-2273
980.939	-484
981.022	-1095
981.104	-745
981.187	-329
981.269	7
981.352	-852
981.434	-2026
981.516	-1689
981.599	-463
981.681	236
981.763	-484
981.846	-2019
981.928	-890
982.010	-1385
982.092	-1075
982.174	-46
982.256	-1025
982.339	-1455
982.421	-592
982.503	81
982.585	-2151
982.667	-601
982.749	-660
982.831	-513
982.913	-1623
982.995	-431
983.077	-1547
983.158	-189
983.240	-1554
983.322	98
983.404	-216
983.486	-1574
983.568	-492
983.649	-1018
983.731	-441
983.813	-1373
983.894	-539
983.976	-1644
984.058	-763
984.139	-870
984.221	-2163
984.302	326
984.384	-801
984.465	-1945
984.547	-930
984.628	-1558
984.710	-215
984.791	-1217
984.872	-233
984.954	-1534
985.035	-536
985.116	-1143
985.198	-1032
985.279	-200
985.360	-1377
985.441	-816
985.522	-146
985.604	-1041
985.685	-2882
985.766	-171
985.847	-153
985.928	-2057
986.009	-1292
986.090	-1409
986.171	38
986.252	-1078
986.333	-1239
986.414	-1171
986.495	-945
986.576	-1431
986.656	-620
986.737	-717
986.818	-1178
986.899	-1282
986.980	-1271
987.060	-216
987.141	-1933
987.222	-774
987.302	-901
987.383	-236
987.464	-871
987.544	-385
987.625	-897
987.705	-971
987.786	-582
987.866	-490
987.947	-992
988.027	-1016
988.108	-1259
988.188	-651
988.268	-1096
988.349	-786
988.429	-1206
988.509	-1366
988.589	-582
988.670	-2338
988.750	227
988.830	-1098
988.910	-846
988.990	-565
989.070	-542
989.151	-1631
989.231	-1452
989.311	-258
989.391	-570
989.471	-160
989.551	-880
989.631	-1393
989.711	-884
989.791	-2376
989.870	-1580
989.950	235
990.030	-1621
990.110	-1145
990.190	-1450
990.269	-1272
990.349	-1219
990.429	-1814
990.509	-260
990.588	-1536
990.668	-387
990.747	-960
990.827	-411
990.907	-721
990.986	-706
991.066	-1350
991.145	-1456
991.225	-838
991.304	-1867
991.383	-437
991.463	-999
991.542	-1190
991.622	-1172
991.701	-1925
991.780	-1622
991.859	-1047
991.939	-628
992.018	-997
992.097	-1239
992.176	-1012
992.256	-1839
992.335	-2759
992.414	-914
992.493	-2190
992.572	-1014
992.651	-204
992.730	-1225
992.809	-1823
992.888	-2134
992.967	-1166
993.046	-1014
993.125	-1765
993.203	-864
993.282	-1179
993.361	-362
993.440	-1000
993.519	-895
993.597	-999
993.676	-1922
993.755	-883
993.834	-951
993.912	-2356
993.991	-489
994.069	-1548
994.148	-1313
994.226	-1049
994.305	-444
994.384	-2690
994.462	-120
994.540	-1889
994.619	-1935
994.697	-561
994.776	-1864
994.854	-793
994.932	-2757
995.011	-1507
995.089	-1438
995.167	-1392
995.245	-1317
995.324	-2433
995.402	-533
995.480	-1622
995.558	-1459
995.636	-2296
995.714	-1511
995.792	349
995.870	-1930
995.948	-1576
996.026	-927
996.104	-2319
996.182	-1232
996.260	-2179
996.338	-1072
996.416	-2657
996.494	-1242
996.572	-58
996.649	-1303
996.727	-1713
996.805	-1366
996.883	-1807
996.960	-1807
997.038	-839
997.116	-860
997.193	-1783
997.271	-763
997.348	-2431
997.426	-1142
997.504	-2700
997.581	-739
997.658	-1343
997.736	-1883
997.813	-1997
997.891	-1103
997.968	-2498
998.046	-1794
998.123	-2451
998.200	-1372
998.277	-1980
998.355	-1493
998.432	-2701
998.509	-1647
998.586	-590
998.663	-1225
998.741	-2131
998.818	-2100
998.895	-1700
998.972	-1473
999.049	-523
999.126	-1732
999.203	-1565
999.280	-1707
999.357	-1819
999.434	-1826
999.511	-1532
999.587	-543
999.664	-2519
999.741	-1816
999.818	-900
999.895	-1315
999.971	-2236
1000.048	-1407
1000.125	-1229
1000.202	-1986
1000.278	-1373
1000.355	-671
1000.431	-1908
1000.508	-1703
1000.584	-737
1000.661	-869
1000.738	-1725
1000.814	-1507
1000.890	-1266
1000.967	-2283
1001.043	-1463
1001.120	-2374
1001.196	-1831
1001.272	-1803
1001.349	-2033
1001.425	-1297
1001.501	-1345
1001.577	-2731
1001.654	-1272
1001.730	-1864
1001.806	-940
1001.882	-1577
1001.958	-1406
1002.034	-1243
1002.110	-1404
1002.186	-2001
1002.262	-1718
1002.338	-2480
1002.414	-1598
1002.490	-223
1002.566	-2343
1002.642	-1881
1002.718	-1070
1002.794	-1435
1002.870	-1876
1002.945	-2343
1003.021	-2233
1003.097	-1841
1003.173	-1386
1003.248	-2159
1003.324	-2001
1003.400	-1594
1003.475	-1661
1003.551	-1276
1003.626	-1336
1003.702	-1824
1003.777	-1697
1003.853	-1414
1003.928	-2111
1004.004	-1347
1004.079	-2211
1004.155	-1474
1004.230	-2403
1004.305	-1504
1004.381	-2549
1004.456	-1501
1004.531	-1675
1004.607	-2028
1004.682	-1720
1004.757	-1704
1004.832	-2067
1004.907	-2003
1004.982	-1204
1005.057	-1023
1005.133	-1928
1005.208	-1808
1005.283	-2288
1005.358	-1208
1005.433	-1651
1005.508	-2077
1005.583	-2593
1005.657	-1585
1005.732	-2063
1005.807	-2242
1005.882	-1110
1005.957	-1254
1006.032	-1095
1006.106	-1737
1006.181	-1407
1006.256	-964
1006.331	-1855
1006.405	-1496
1006.480	-2057
1006.554	-2056
1006.629	-1294
1006.704	-2125
1006.778	-1243
1006.853	-1915
1006.927	-2469
1007.002	-1159
1007.076	-2031
1007.150	-1866
1007.225	-1469
1007.299	-1773
1007.373	-2270
1007.448	-1578
1007.522	-803
1007.596	-1960
1007.671	-1823
1007.745	-898
1007.819	-2259
1007.893	-1898
1007.967	-944
1008.041	-1890
1008.115	-1093
1008.190	-1984
1008.264	-1388
1008.338	-2851
1008.412	-2441
1008.486	-768
1008.560	-1482
1008.633	-2483
1008.707	-2318
1008.781	-1332
1008.855	-2546
1008.929	-1697
1009.003	-1564
1009.076	-2104
1009.150	-1396
1009.224	-1741
1009.298	-2171
1009.371	-1448
1009.445	-879
1009.519	-1546
1009.592	-2968
1009.666	-1760
1009.739	-1343
1009.813	-1779
1009.886	-2004
1009.960	-2387
1010.033	-937
1010.107	-1587
1010.180	-2301
1010.253	-2911
1010.327	-2286
1010.400	-1231
1010.473	-1869
1010.547	-1034
1010.620	-2288
1010.693	-1371
1010.766	-1741
1010.840	-1592
1010.913	-1231
1010.986	-2871
1011.059	-2554
1011.132	-1602
1011.205	-1750
1011.278	-1302
1011.351	-2031
1011.424	-1244
1011.497	-2126
1011.570	-1627
1011.643	-1978
1011.716	-2132
1011.789	-2298
1011.862	-1535
1011.934	-2409
1012.007	-2379
1012.080	-1674
1012.153	-1363
1012.225	-887
1012.298	-1815
1012.371	-2749
1012.443	-1869
1012.516	-2520
1012.588	-1789
1012.661	-1584
1012.733	-2064
1012.806	-1693
1012.879	-2685
1012.951	-2491
1013.023	-2373
1013.096	-2066
1013.168	-1955
1013.241	-1728
1013.313	-1385
1013.385	-2201
1013.458	-1836
1013.530	-1037
1013.602	-2668
1013.674	-1065
1013.746	-1789
1013.819	-2356
1013.891	-964
1013.963	-1722
1014.035	-2187
1014.107	-1851
1014.179	-1239
1014.251	-2271
1014.323	-1329
1014.395	-1420
1014.467	-1808
1014.539	-1697
1014.611	-1941
1014.683	-1785
1014.754	-1247
1014.826	-2309
1014.898	-2122
1014.970	-2610
1015.042	-1451
1015.113	-2088
1015.185	-1948
1015.257	-2843
1015.328	-1821
1015.400	-2048
1015.471	-2376
1015.543	-3167
1015.615	-1030
1015.686	-2071
1015.757	-2354
1015.829	-1332
1015.901	-2571
1015.972	-2345
1016.043	-1976
1016.115	-1598
1016.186	-1260
1016.257	-2481
1016.328	-1833
1016.400	-1628
1016.471	-1760
1016.542	-1963
1016.613	-1497
1016.685	-2420
1016.756	-1493
1016.827	-1840
1016.898	-1874
1016.969	-2402
1017.040	-1932
1017.111	-2862
1017.182	-1885
1017.253	-1491
1017.324	-2050
1017.395	-1428
1017.466	-2055
1017.537	-2157
1017.608	-1729
1017.678	-1865
1017.749	-2040
1017.820	-1905
1017.891	-2450
1017.961	-2076
1018.032	-2230
1018.103	-2640
1018.173	-2352
1018.244	-1762
1018.315	-1961
1018.385	-1341
1018.456	-3053
1018.526	-1969
1018.597	-2615
1018.667	-1930
1018.738	-2458
1018.808	-1981
1018.878	-2317
1018.949	-1851
1019.019	-1659
1019.089	-1723
1019.160	-882
1019.230	-1832
1019.300	-2368
1019.371	-2296
1019.441	-1538
1019.511	-2168
1019.581	-2358
1019.651	-1716
1019.721	-2185
1019.791	-2250
1019.861	-1926
1019.931	-1641
1020.001	-1342
1020.071	-2078
1020.141	-2431
1020.211	-2517
1020.281	-2388
1020.351	-2706
1020.421	-2680
1020.491	-1575
1020.560	-2165
1020.630	-3004
1020.700	-1252
1020.770	-2115
1020.839	-2474
1020.909	-2258
1020.979	-2087
1021.048	-1816
1021.118	-1453
1021.187	-2070
1021.257	-1768
1021.326	-1366
1021.396	-939
1021.465	-2306
1021.535	-2471
1021.604	-2632
1021.674	-1467
1021.743	-1653
1021.812	-3269
1021.882	-1855
1021.951	-1364
1022.020	-1579
1022.089	-1670
1022.159	-2534
1022.228	-2842
1022.297	-2510
1022.366	-2325
1022.435	-2004
1022.504	-2545
1022.573	-3060
1022.642	-2268
1022.711	-2909
1022.781	-1275
1022.849	-945
1022.918	-2462
1022.987	-1874
1023.056	-2668
1023.125	-2755
1023.194	-2714
1023.263	-1710
1023.331	-1452
1023.400	-2684
1023.469	-3230
1023.538	-1730
1023.606	-2694
1023.675	-2446
1023.744	-2154
1023.812	-3046
1023.881	-2056
1023.949	-2510
1024.018	-2570
1024.086	-2525
1024.155	-2309
1024.223	-2158
1024.292	-1942
1024.360	-1757
1024.429	-1532
1024.497	-2399
1024.565	-2794
1024.634	-2801
1024.702	-2211
1024.770	-2862
1024.838	-2398
1024.907	-2400
1024.975	-2041
1025.043	-2872
1025.111	-2213
1025.179	-2542
1025.247	-2513
1025.315	-2006
1025.383	-2009
1025.451	-2118
1025.519	-2435
1025.587	-2781
1025.655	-1896
1025.723	-2238
1025.791	-2520
1025.859	-1742
1025.927	-2081
1025.995	-2469
1026.062	-1748
1026.130	-2681
1026.198	-1631
1026.266	-1882
1026.333	-2090
1026.401	-2943
1026.469	-2286
1026.536	-2760
1026.604	-2366
1026.671	-2165
1026.739	-1734
1026.806	-2379
1026.874	-2968
1026.941	-1821
1027.009	-2406
1027.076	-1982
1027.144	-1621
1027.211	-2259
1027.278	-2724
1027.345	-1662
1027.413	-1116
1027.480	-2675
1027.547	-2753
1027.614	-2528
1027.682	-2281
1027.749	-2184
1027.816	-2270
1027.883	-2250
1027.950	-2345
1028.017	-2676
1028.084	-2322
1028.151	-3217
1028.218	-2523
1028.285	-1745
1028.352	-2644
1028.419	-2263
1028.486	-1920
1028.553	-2966
1028.619	-1875
1028.686	-1677
1028.753	-2235
1028.820	-2479
1028.886	-1946
1028.953	-2713
1029.020	-1692
1029.086	-2550
1029.153	-2531
1029.220	-2461
1029.286	-2055
1029.353	-2053
1029.419	-2176
1029.486	-2416
1029.552	-2507
1029.619	-2842
1029.685	-2806
1029.751	-1345
1029.818	-1716
1029.884	-2308
1029.951	-2190
1030.017	-2170
1030.083	-2063
1030.149	-2187
1030.216	-3022
1030.282	-1656
1030.348	-2740
1030.414	-2458
1030.480	-2360
1030.546	-2332
1030.612	-2047
1030.678	-2621
1030.744	-2068
1030.810	-2840
1030.876	-2014
1030.942	-1857
1031.008	-2103
1031.074	-2382
1031.140	-2793
1031.206	-2136
1031.272	-3011
1031.337	-2292
1031.403	-1856
1031.469	-2000
1031.534	-2976
1031.600	-1593
1031.666	-1917
1031.731	-2495
1031.797	-1302
1031.863	-2182
1031.928	-2307
1031.994	-2192
1032.059	-2302
1032.125	-2507
1032.190	-2353
1032.256	-2609
1032.321	-2446
1032.386	-1453
1032.452	-910
1032.517	-3234
1032.582	-2109
1032.647	-2313
1032.713	-2570
1032.778	-1541
1032.843	-1519
1032.908	-2275
1032.974	-2865
1033.039	-2495
1033.104	-1620
1033.169	-2659
1033.234	-1594
1033.299	-1289
1033.364	-1509
1033.429	-2676
1033.494	-1183
1033.559	-2542
1033.624	-2028
1033.688	-2145
1033.753	-2402
1033.818	-1988
1033.883	-1902
1033.948	-2370
1034.013	-1305
1034.077	-2217
1034.142	-1285
1034.207	-2166
1034.271	-1641
1034.336	-1369
1034.400	-1879
1034.465	-1758
1034.530	-2046
1034.594	-1684
1034.658	-2116
1034.723	-2505
1034.787	-2001
1034.852	-1910
1034.916	-2233
1034.981	-2519
1035.045	-2089
1035.109	-2900
1035.173	-2523
1035.238	-3242
1035.302	-1896
1035.366	-2620
1035.430	-1328
1035.495	-2613
1035.559	-2194
1035.623	-2979
1035.687	-2037
1035.751	-2302
1035.815	-3066
1035.879	-2359
1035.943	-1720
1036.007	-2411
1036.071	-2211
1036.135	-1829
1036.198	-2320
1036.262	-2652
1036.326	-923
1036.390	-2358
1036.454	-2186
1036.517	-1809
1036.581	-1555
1036.645	-1729
1036.709	-1321
1036.772	-2385
1036.836	-1805
1036.900	-2297
1036.963	-2413
1037.026	-2191
1037.090	-3005
1037.154	-1650
1037.217	-2266
1037.280	-2598
1037.344	-1935
1037.407	-2465
1037.471	-1937
1037.534	-2395
1037.597	-2384
1037.661	-2505
1037.724	-1621
1037.787	-2672
1037.850	-1821
1037.913	-1926
1037.977	-1250
1038.040	-2967
1038.103	-1903
1038.166	-2312
1038.229	-2925
1038.292	-2022
1038.355	-2985
1038.418	-1862
1038.481	-1875
1038.544	-1667
1038.607	-2122
1038.670	-2261
1038.732	-2490
1038.795	-2225
1038.858	-2282
1038.921	-1638
1038.984	-1844
1039.046	-2912
1039.109	-2123
1039.172	-2100
1039.234	-2469
1039.297	-2441
1039.360	-1421
1039.422	-1902
1039.485	-2838
1039.547	-2576
1039.610	-2447
1039.672	-1781
1039.734	-2666
1039.797	-2845
1039.859	-1460
1039.922	-2592
1039.984	-1967
1040.046	-2862
1040.109	-2164
1040.171	-2167
1040.233	-2244
1040.295	-1870
1040.358	-1898
1040.420	-1914
1040.482	-2848
1040.544	-2216
1040.606	-1770
1040.668	-3052
1040.730	-2526
1040.792	-2107
1040.854	-2190
1040.916	-2013
1040.978	-1750
1041.040	-1611
1041.102	-2155
1041.164	-2084
1041.225	-2038
1041.287	-2792
1041.349	-2271
1041.411	-1918
1041.472	-2233
1041.534	-2100
1041.596	-2729
1041.657	-2546
1041.719	-1814
1041.781	-2662
1041.842	-2529
1041.904	-2440
1041.965	-2459
1042.027	-3290
1042.088	-2337
1042.150	-2447
1042.211	-2101
1042.272	-1129
1042.334	-2354
1042.395	-2709
1042.456	-2015
1042.518	-2328
1042.579	-1742
1042.640	-2165
1042.701	-2174
1042.763	-2294
1042.824	-2034
1042.885	-2237
1042.946	-2474
1043.007	-1475
1043.068	-2279
1043.129	-2609
1043.190	-2204
1043.251	-2132
1043.312	-1854
1043.373	-1711
1043.434	-2362
1043.495	-1760
1043.556	-1452
1043.616	-2178
1043.677	-1542
1043.738	-2334
1043.799	-2525
1043.859	-2192
1043.920	-1530
1043.981	-2874
1044.041	-1987
1044.102	-2936
1044.162	-1790
1044.223	-2301
1044.284	-1975
1044.344	-1861
1044.405	-2581
1044.465	-2341
1044.525	-2132
1044.586	-1675
1044.646	-1344
1044.707	-1511
1044.767	-1103
1044.827	-1904
1044.887	-2160
1044.948	-1786
1045.008	-1621
1045.068	-2196
1045.128	-1654
1045.188	-2514
1045.249	-1257
1045.309	-2449
1045.369	-2078
1045.429	-1822
1045.489	-1711
1045.549	-1950
1045.609	-2320
1045.669	-2361
1045.729	-2253
1045.789	-1956
1045.848	-1216
1045.908	-1802
1045.968	-1600
1046.028	-2269
1046.088	-2095
1046.147	-1916
1046.207	-1364
1046.267	-1333
1046.326	-1956
1046.386	-952
1046.446	-579
1046.505	-1227
1046.565	-432
1046.624	-823
1046.684	55
1046.743	-1093
1046.803	-707
1046.862	-602
1046.922	0
