'Start Wavelength	183.907
'End Wavelength	1046.922
'Gate Delay	5.000
'Gate Width (ms)	1.050
'Laser Output Level	0.000
'X Position	0.000
'Y Position	0.000
'Z Position	0.000
'Grid Point Number	1.000
'Shot Number	100.000
183.907	232.000
183.977	-282.000
184.047	525
184.116	1014
184.186	493
184.256	787
184.325	191
184.395	-202
184.465	1838
184.534	388
184.604	446
184.674	605
184.743	-236
184.813	-112
184.883	269
184.952	118
185.022	-110
185.092	96
185.161	-262
185.231	449
185.301	83
185.370	938
185.440	-24
185.509	302
185.579	937
185.649	30
185.718	424
185.788	384
185.857	-706
185.927	-355
185.996	40
186.066	283
186.136	289
186.205	351
186.275	893
186.344	336
186.414	-11
186.483	-782
186.553	1021
186.622	1719
186.692	259
186.761	-485
186.831	-112
186.900	-202
186.970	802
187.039	185
187.109	922
187.178	874
187.248	227
187.317	715
187.387	243
187.456	-99
187.526	535
187.595	417
187.664	185
187.734	791
187.803	215
187.873	587
187.942	583
188.012	1103
188.081	324
188.150	498
188.220	54
188.289	1120
188.358	452
188.428	985
188.497	110
188.567	563
188.636	-559
188.705	-32
188.775	571
188.844	-201
188.913	1184
188.983	-448
189.052	87
189.121	566
189.191	37
189.260	920
189.329	469
189.399	180
189.468	423
189.537	-154
189.606	-284
189.676	851
189.745	240
189.814	1140
189.883	101
189.953	-59
190.022	1047
190.091	1493
190.161	3975
190.230	1724
190.299	957
190.368	250
190.437	-69
190.507	433
190.576	333
190.645	780
190.714	552
190.783	351
190.853	516
190.922	1067
190.991	816
191.060	617
191.129	-37
191.198	764
191.268	5
191.337	-198
191.406	1187
191.475	997
191.544	-120
191.613	1294
191.682	341
191.752	97
191.821	-57
191.890	39
191.959	912
192.028	186
192.097	346
192.166	1389
192.235	430
192.304	676
192.373	9
192.442	-245
192.511	600
192.580	227
192.650	51
192.719	-352
192.788	519
192.857	533
192.926	268
192.995	154
193.064	455
193.133	599
193.202	1013
193.271	1305
193.340	662
193.409	1068
193.478	934
193.547	2149
193.615	1952
193.684	1825
193.753	1023
193.822	704
193.891	625
193.960	107
194.029	353
194.098	950
194.167	227
194.236	416
194.305	495
194.374	958
194.443	209
194.512	465
194.580	715
194.649	881
194.718	1178
194.787	86
194.856	-248
194.925	853
194.994	582
195.062	937
195.131	805
195.200	1029
195.269	983
195.338	592
195.407	587
195.475	1002
195.544	1476
195.613	753
195.682	1721
195.751	347
195.819	1224
195.888	1023
195.957	1286
196.026	1082
196.094	794
196.163	1264
196.232	644
196.301	949
196.369	1140
196.438	1557
196.507	843
196.576	303
196.644	921
196.713	663
196.782	747
196.850	869
196.919	633
196.988	1113
197.056	459
197.125	954
197.194	1278
197.262	255
197.331	586
197.400	496
197.468	338
197.537	360
197.606	888
197.674	1256
197.743	4473
197.812	1789
197.880	3205
197.949	2767
198.017	3675
198.086	2327
198.155	717
198.223	1680
198.292	3741
198.360	1972
198.429	423
198.497	1060
198.566	1689
198.635	4237
198.703	1530
198.772	1796
198.840	4001
198.909	4898
198.977	1036
199.046	872
199.114	1235
199.183	1058
199.251	682
199.320	359
199.388	116
199.457	764
199.525	357
199.594	406
199.662	885
199.731	811
199.799	1235
199.867	869
199.936	238
200.004	371
200.073	532
200.141	162
200.210	197
200.278	173
200.346	1035
200.415	950
200.483	1701
200.552	867
200.620	624
200.688	568
200.757	825
200.825	-14
200.893	1577
200.962	1208
201.030	523
201.098	62
201.167	914
201.235	1186
201.303	798
201.372	572
201.440	736
201.508	950
201.577	646
201.645	1384
201.713	1125
201.781	445
201.850	1528
201.918	473
201.986	321
202.055	1310
202.123	577
202.191	1085
202.259	793
202.327	1164
202.396	706
202.464	1089
202.532	334
202.600	5199
202.669	2867
202.737	1039
202.805	371
202.873	214
202.941	1207
203.009	566
203.078	-109
203.146	1446
203.214	316
203.282	325
203.350	1669
203.418	202
203.487	753
203.555	1038
203.623	745
203.691	1182
203.759	428
203.827	1319
203.895	1176
203.963	486
204.031	1323
204.099	1051
204.168	487
204.236	1433
204.304	1303
204.372	843
204.440	997
204.508	261
204.576	30
204.644	1073
204.712	659
204.780	1200
204.848	752
204.916	690
204.984	901
205.052	497
205.120	636
205.188	873
205.256	1109
205.324	770
205.392	809
205.460	1100
205.528	1497
205.596	1681
205.664	902
205.732	1428
205.799	3743
205.867	7090
205.935	733
206.003	1196
206.071	-48
206.139	1198
206.207	463
206.275	988
206.343	590
206.411	1169
206.478	998
206.546	1177
206.614	681
206.682	366
206.750	879
206.818	1822
206.885	1791
206.953	-153
207.021	1318
207.089	1434
207.157	389
207.225	1395
207.292	1023
207.360	1204
207.428	140
207.496	993
207.563	677
207.631	1019
207.699	876
207.767	206
207.834	1035
207.902	1436
207.970	981
208.038	1285
208.105	1089
208.173	1366
208.241	1485
208.309	2545
208.376	1432
208.444	2502
208.512	1675
208.579	197
208.647	2131
208.715	1417
208.782	1376
208.850	701
208.918	268
208.985	752
209.053	1548
209.120	1517
209.188	788
209.256	821
209.323	201
209.391	1704
209.459	2622
209.526	1384
209.594	1194
209.661	1335
209.729	1327
209.796	1164
209.864	1239
209.932	499
209.999	2757
210.067	2271
210.134	1508
210.202	902
210.269	2302
210.337	2606
210.404	1300
210.472	1152
210.539	1314
210.607	1191
210.674	1737
210.742	1551
210.809	1551
210.877	1498
210.944	2342
211.012	771
211.079	2443
211.146	1487
211.214	1120
211.281	3112
211.349	1975
211.416	1878
211.484	1502
211.551	1996
211.618	1934
211.686	1921
211.753	830
211.821	2196
211.888	2249
211.955	1150
212.023	1327
212.090	1743
212.157	1678
212.225	409
212.292	4089
212.359	7115
212.427	24512
212.494	9784
212.561	3282
212.629	2627
212.696	1698
212.763	2105
212.831	1773
212.898	2080
212.965	2217
213.032	1755
213.100	2213
213.167	2097
213.234	2211
213.301	1736
213.369	1901
213.436	1368
213.503	1152
213.570	2020
213.638	1643
213.705	1330
213.772	1139
213.839	2829
213.906	3032
213.973	2561
214.041	1798
214.108	1835
214.175	2209
214.242	1645
214.309	881
214.376	1802
214.444	1785
214.511	2174
214.578	1552
214.645	1402
214.712	2075
214.779	1243
214.846	1211
214.913	2511
214.980	2295
215.048	2791
215.115	3606
215.182	2282
215.249	2216
215.316	1866
215.383	2161
215.450	1976
215.517	1162
215.584	1689
215.651	1539
215.718	753
215.785	2003
215.852	2249
215.919	1995
215.986	2357
216.053	1085
216.120	1969
216.187	2262
216.254	1733
216.321	1038
216.388	1622
216.455	2321
216.522	1802
216.589	2346
216.656	4981
216.722	4902
216.789	3524
216.856	3362
216.923	2970
216.990	1769
217.057	2412
217.124	2242
217.191	1871
217.258	3177
217.324	4272
217.391	5645
217.458	3652
217.525	2477
217.592	1444
217.659	1542
217.725	2808
217.792	3482
217.859	5392
217.926	1629
217.993	1560
218.059	1157
218.126	828
218.193	1069
218.260	1326
218.327	1166
218.393	2358
218.460	836
218.527	910
218.594	2101
218.660	4594
218.727	4910
218.794	1554
218.860	2083
218.927	1169
218.994	918
219.061	471
219.127	2091
219.194	4289
219.261	2775
219.327	534
219.394	1608
219.461	216
219.527	1502
219.594	3251
219.661	2212
219.727	1159
219.794	1345
219.860	955
219.927	1201
219.994	2450
220.060	6218
220.127	4172
220.193	1611
220.260	2315
220.326	2816
220.393	4421
220.460	7477
220.526	4144
220.593	2243
220.659	3525
220.726	2531
220.792	11699
220.859	8174
220.925	8371
220.992	13857
221.058	15441
221.125	18209
221.191	13135
221.258	4693
221.324	3663
221.391	2043
221.457	1715
221.524	2562
221.590	4001
221.657	15268
221.723	11179
221.789	10369
221.856	9928
221.922	3731
221.989	2574
222.055	1957
222.121	1100
222.188	3552
222.254	2362
222.321	2068
222.387	1018
222.453	1597
222.520	1371
222.586	887
222.652	1684
222.719	1149
222.785	1568
222.851	1521
222.918	1268
222.984	1860
223.050	1720
223.116	630
223.183	2501
223.249	637
223.315	958
223.382	1647
223.448	1491
223.514	66
223.580	681
223.647	835
223.713	457
223.779	1025
223.845	1090
223.911	1972
223.978	599
224.044	1194
224.110	1033
224.176	1529
224.242	961
224.309	100
224.375	1965
224.441	1449
224.507	961
224.573	383
224.639	1523
224.705	754
224.772	144
224.838	1369
224.904	1912
224.970	1263
225.036	998
225.102	953
225.168	1607
225.234	1069
225.300	1559
225.366	1512
225.432	1554
225.499	1303
225.565	1627
225.631	1327
225.697	1801
225.763	1438
225.829	1770
225.895	2631
225.961	3719
226.027	3639
226.093	2238
226.159	3534
226.225	4183
226.291	9377
226.357	20100
226.423	10040
226.489	5709
226.554	3480
226.620	2452
226.686	3676
226.752	5798
226.818	8260
226.884	26577
226.950	26787
227.016	8119
227.082	5002
227.148	3514
227.214	3806
227.279	3437
227.345	3439
227.411	3363
227.477	2674
227.543	7341
227.609	6956
227.674	5270
227.740	3600
227.806	2514
227.872	2214
227.938	2084
228.003	4611
228.069	2938
228.135	1894
228.201	2006
228.267	1661
228.332	2349
228.398	2016
228.464	2805
228.530	682
228.595	1825
228.661	510
228.727	3417
228.792	3474
228.858	1527
228.924	1070
228.990	2958
229.055	1620
229.121	2750
229.187	1560
229.252	1618
229.318	1109
229.384	2254
229.449	2722
229.515	234
229.581	757
229.646	1983
229.712	1720
229.777	6185
229.843	7269
229.909	4618
229.974	4596
230.040	3599
230.105	2410
230.171	2733
230.236	4014
230.302	7031
230.368	4756
230.433	1710
230.499	2166
230.564	4610
230.630	2333
230.695	2146
230.761	2278
230.826	754
230.892	3787
230.957	1725
231.023	1386
231.088	353
231.154	1857
231.219	1590
231.284	2937
231.350	3390
231.415	1650
231.481	2174
231.546	1433
231.612	1023
231.677	466
231.742	339
231.808	3006
231.873	422
231.939	-380
232.004	3482
232.069	4572
232.135	1858
232.200	857
232.265	2241
232.331	828
232.396	393
232.461	1063
232.527	678
232.592	575
232.657	1594
232.723	3301
232.788	3511
232.853	1257
232.918	1457
232.984	650
233.049	1551
233.114	3435
233.179	4078
233.245	6090
233.310	8632
233.375	2224
233.440	1802
233.506	959
233.571	1086
233.636	1612
233.701	1601
233.766	4131
233.832	6648
233.897	1691
233.962	986
234.027	3485
234.092	1991
234.157	2138
234.222	1348
234.288	3958
234.353	16964
234.418	13490
234.483	7206
234.548	3809
234.613	3040
234.678	2686
234.743	3435
234.808	14159
234.873	9772
234.938	4692
235.004	2526
235.069	2831
235.134	2622
235.199	2468
235.264	1978
235.329	1029
235.394	1663
235.459	3328
235.524	2018
235.589	2925
235.654	2441
235.719	1058
235.784	3214
235.849	2987
235.913	7304
235.978	7928
236.043	9626
236.108	3817
236.173	2326
236.238	4498
236.303	2402
236.368	2092
236.433	4721
236.498	9900
236.563	5092
236.627	8525
236.692	34629
236.757	27926
236.822	9145
236.887	8175
236.952	5911
237.017	4461
237.081	5653
237.146	5451
237.211	11275
237.276	32339
237.341	65980
237.405	26623
237.470	9877
237.535	7488
237.600	5558
237.664	4401
237.729	2311
237.794	3925
237.859	8547
237.923	6677
237.988	4326
238.053	7497
238.118	7271
238.182	22757
238.247	24092
238.312	8637
238.376	5871
238.441	3971
238.506	5670
238.570	2041
238.635	4140
238.700	2099
238.764	2379
238.829	8457
238.893	11986
238.958	6067
239.023	4135
239.087	2781
239.152	3443
239.216	1732
239.281	2638
239.346	2779
239.410	2627
239.475	3537
239.539	20962
239.604	19448
239.668	5277
239.733	2823
239.797	4696
239.862	12602
239.926	18235
239.991	7471
240.055	3231
240.120	3272
240.184	2900
240.249	1754
240.313	2167
240.378	2411
240.442	11038
240.507	23126
240.571	6464
240.635	8524
240.700	12259
240.764	3935
240.829	3423
240.893	1324
240.957	3341
241.022	10392
241.086	22136
241.151	10266
241.215	3140
241.279	5450
241.344	10918
241.408	5388
241.472	2705
241.537	2718
241.601	3799
241.665	2116
241.730	2181
241.794	3816
241.858	2162
241.922	2456
241.987	3591
242.051	1793
242.115	1441
242.179	3260
242.244	2005
242.308	2714
242.372	3022
242.436	3282
242.501	3272
242.565	1706
242.629	2418
242.693	3155
242.757	1496
242.822	2475
242.886	2105
242.950	3635
243.014	2631
243.078	3142
243.142	2907
243.206	2568
243.271	4466
243.335	2840
243.399	5001
243.463	18542
243.527	69161
243.591	21286
243.655	6608
243.719	4722
243.783	5204
243.847	7012
243.911	9428
243.975	8383
244.040	6008
244.104	6492
244.168	1962
244.232	4664
244.296	6424
244.360	8694
244.424	3908
244.488	3674
244.552	4524
244.615	1328
244.679	3384
244.743	3938
244.807	3193
244.871	2449
244.935	3149
244.999	1312
245.063	2502
245.127	3280
245.191	5728
245.255	5057
245.319	3944
245.383	3804
245.446	3704
245.510	2515
245.574	3137
245.638	3537
245.702	2126
245.766	10203
245.829	6658
245.893	3903
245.957	3252
246.021	3661
246.085	3076
246.149	4707
246.212	13413
246.276	24144
246.340	8489
246.404	5910
246.467	6257
246.531	8342
246.595	6608
246.659	5210
246.722	3098
246.786	6097
246.850	6783
246.913	8728
246.977	3719
247.041	4226
247.104	5063
247.168	4625
247.232	10731
247.295	31356
247.359	15823
247.423	5658
247.486	10497
247.550	7056
247.614	5478
247.677	6487
247.741	4688
247.804	3928
247.868	5027
247.932	10094
247.995	29652
248.059	9602
248.122	4012
248.186	6812
248.249	10157
248.313	42323
248.376	47452
248.440	30088
248.503	10613
248.567	9007
248.630	10077
248.694	13332
248.757	18162
248.821	49830
248.884	27219
248.948	22752
249.011	36294
249.075	58551
249.138	50962
249.202	16283
249.265	10580
249.328	13107
249.392	8336
249.455	8084
249.519	6504
249.582	7183
249.645	11905
249.709	9630
249.772	5538
249.835	6138
249.899	7344
249.962	7046
250.025	6789
250.089	18978
250.152	26429
250.215	10898
250.279	8187
250.342	9159
250.405	7640
250.468	7265
250.532	9296
250.595	13894
250.658	59131
250.721	117156
250.785	32893
250.848	17441
250.911	11007
250.974	10270
251.038	15165
251.101	33945
251.164	15575
251.227	13388
251.290	13726
251.354	18631
251.417	89341
251.480	94459
251.543	46583
251.606	170198
251.669	126389
251.732	38139
251.795	39898
251.859	43803
251.922	110597
251.985	62223
252.048	22024
252.111	15859
252.174	13303
252.237	23137
252.300	59203
252.363	56640
252.426	148860
252.489	58267
252.552	27657
252.615	19066
252.678	18817
252.741	42693
252.804	57331
252.867	147124
252.930	78546
252.993	40274
253.056	22934
253.119	18329
253.182	14390
253.245	19701
253.308	16396
253.371	13064
253.434	12695
253.497	15071
253.559	27472
253.622	20416
253.685	16236
253.748	18184
253.811	8603
253.874	12211
253.937	11093
254.000	8835
254.062	17050
254.125	30935
254.188	23319
254.251	19468
254.314	9379
254.376	14308
254.439	17338
254.502	12836
254.565	17424
254.628	33370
254.690	15173
254.753	8875
254.816	7920
254.878	8084
254.941	19190
255.004	23198
255.067	8695
255.129	7063
255.192	5133
255.255	4528
255.317	5265
255.380	5575
255.443	3811
255.505	3973
255.568	3340
255.631	4037
255.693	3664
255.756	3202
255.819	5028
255.881	3242
255.944	3600
256.006	3923
256.069	3011
256.132	3122
256.194	5062
256.257	15612
256.319	11915
256.382	9955
256.444	5747
256.507	4602
256.569	4079
256.632	4068
256.694	6910
256.757	16363
256.819	52253
256.882	19329
256.944	8879
257.007	6931
257.069	7453
257.132	6765
257.194	5131
257.257	4605
257.319	3846
257.381	5030
257.444	11749
257.506	58853
257.569	64267
257.631	32118
257.693	17145
257.756	9660
257.818	8777
257.880	5744
257.943	5012
258.005	3066
258.067	4662
258.130	4863
258.192	5129
258.254	10676
258.317	7656
258.379	5345
258.441	13054
258.503	15545
258.566	20754
258.628	31951
258.690	7203
258.753	6226
258.815	9650
258.877	5368
258.939	4523
259.001	4700
259.064	5114
259.126	5210
259.188	7423
259.250	5204
259.312	6422
259.375	17792
259.437	11980
259.499	5342
259.561	4669
259.623	5461
259.685	5881
259.747	5715
259.809	20106
259.872	44152
259.934	62697
259.996	61066
260.058	16608
260.120	7285
260.182	5761
260.244	5122
260.306	4247
260.368	4781
260.430	3908
260.492	10826
260.554	21677
260.616	14795
260.678	24790
260.740	43466
260.802	11356
260.864	7531
260.926	5141
260.988	6348
261.050	5949
261.112	16397
261.174	47349
261.236	39762
261.298	10810
261.359	16991
261.421	27998
261.483	7875
261.545	6115
261.607	4675
261.669	5038
261.731	10455
261.793	25618
261.854	9652
261.916	7070
261.978	7020
262.040	8732
262.102	5366
262.164	9781
262.225	8434
262.287	3821
262.349	10355
262.411	10454
262.472	5281
262.534	10113
262.596	26058
262.658	9405
262.719	4737
262.781	7622
262.843	23712
262.904	12536
262.966	6970
263.028	9563
263.090	39249
263.151	117049
263.213	38305
263.275	18905
263.336	9709
263.398	6578
263.459	5363
263.521	4843
263.583	11117
263.644	7529
263.706	3831
263.767	3168
263.829	3877
263.891	3102
263.952	3015
264.014	2702
264.075	7177
264.137	20528
264.198	8860
264.260	3783
264.321	4169
264.383	9297
264.444	27724
264.506	10753
264.567	5339
264.629	11084
264.690	25777
264.752	9075
264.813	6389
264.875	3850
264.936	4680
264.998	4488
265.059	3665
265.120	3361
265.182	5105
265.243	21685
265.305	21882
265.366	6165
265.427	3690
265.489	4547
265.550	2445
265.611	3560
265.673	3612
265.734	4197
265.795	3140
265.857	2624
265.918	3037
265.979	5842
266.040	38877
266.102	33170
266.163	8710
266.224	8713
266.286	5266
266.347	3145
266.408	3688
266.469	3537
266.530	3426
266.592	2862
266.653	5328
266.714	9636
266.775	3398
266.836	2903
266.898	2199
266.959	6620
267.020	4930
267.081	3658
267.142	2933
267.203	2004
267.264	1629
267.326	3042
267.387	2218
267.448	2249
267.509	2603
267.570	2226
267.631	1853
267.692	959
267.753	2236
267.814	2725
267.875	5192
267.936	15090
267.997	9496
268.058	6420
268.119	3543
268.180	3493
268.241	2912
268.302	2294
268.363	2342
268.424	2707
268.485	2802
268.546	2592
268.607	1744
268.668	1601
268.729	1805
268.790	3214
268.851	4646
268.912	8860
268.972	10149
269.033	5214
269.094	2923
269.155	1786
269.216	2064
269.277	2812
269.338	1940
269.398	2184
269.459	2456
269.520	3927
269.581	5719
269.642	6389
269.702	3898
269.763	3573
269.824	2051
269.885	3804
269.945	6346
270.006	3351
270.067	2448
270.128	2434
270.188	2668
270.249	2441
270.310	2092
270.370	2198
270.431	2750
270.492	1495
270.553	2607
270.613	6209
270.674	14123
270.734	6632
270.795	3431
270.856	5039
270.916	4794
270.977	3197
271.038	4140
271.098	3744
271.159	5439
271.219	5916
271.280	3596
271.340	2798
271.401	4421
271.462	12090
271.522	6728
271.583	4141
271.643	4373
271.704	4214
271.764	5246
271.825	11217
271.885	41554
271.946	71001
272.006	18297
272.066	25635
272.127	57551
272.187	16556
272.248	7959
272.308	9148
272.369	36936
272.429	22962
272.489	11941
272.550	14350
272.610	11031
272.671	9367
272.731	8582
272.791	17944
272.852	8839
272.912	7772
272.972	4626
273.033	4208
273.093	7616
273.153	9386
273.214	6603
273.274	7749
273.334	25491
273.394	53307
273.455	18821
273.515	16727
273.575	42395
273.635	18829
273.696	21615
273.756	54911
273.816	21934
273.876	11740
273.936	22980
273.997	49128
274.057	14503
274.117	9523
274.177	13489
274.237	58582
274.297	61401
274.358	35499
274.418	39231
274.478	29770
274.538	12620
274.598	10695
274.658	33856
274.718	47380
274.778	20067
274.838	10236
274.898	18829
274.958	66986
275.018	59643
275.078	38986
275.138	14006
275.198	8511
275.258	6922
275.318	7872
275.378	12170
275.438	12901
275.498	10832
275.558	26493
275.618	64447
275.678	39488
275.738	19136
275.798	19119
275.858	14924
275.918	6666
275.978	6459
276.038	6714
276.098	5347
276.157	9550
276.217	26668
276.277	13575
276.337	9664
276.397	5615
276.457	7319
276.517	6208
276.576	4583
276.636	3766
276.696	6692
276.756	14753
276.815	14157
276.875	6265
276.935	6921
276.995	6732
277.055	4324
277.114	5384
277.174	6865
277.234	23792
277.293	12379
277.353	6392
277.413	5556
277.472	6077
277.532	5881
277.592	6834
277.651	17061
277.711	36425
277.771	13529
277.830	38220
277.890	37137
277.950	25369
278.009	86007
278.069	34004
278.128	24040
278.188	36861
278.248	16307
278.307	34873
278.367	26644
278.426	9991
278.486	7344
278.545	6260
278.605	5692
278.664	5097
278.724	7353
278.783	18124
278.843	59196
278.902	19598
278.962	9189
279.021	10026
279.081	12326
279.140	12473
279.199	9255
279.259	8008
279.318	9598
279.378	12425
279.437	22868
279.496	86310
279.556	267860
279.615	242813
279.675	55748
279.734	31020
279.793	41134
279.853	73152
279.912	29704
279.971	14967
280.031	13020
280.090	23012
280.149	50180
280.208	40611
280.268	189240
280.327	232736
280.386	51185
280.445	31258
280.505	30044
280.564	18550
280.623	16270
280.682	17046
280.742	25925
280.801	11082
280.860	7980
280.919	7591
280.978	7907
281.037	8018
281.097	7040
281.156	5610
281.215	5423
281.274	9175
281.333	33187
281.392	32632
281.451	8216
281.510	6357
281.569	5967
281.628	5938
281.688	6143
281.747	5852
281.806	7965
281.865	6711
281.924	4749
281.983	5290
282.042	4748
282.101	3932
282.160	4547
282.219	4218
282.278	5320
282.337	14862
282.396	13618
282.454	5837
282.513	7296
282.572	23865
282.631	17446
282.690	6663
282.749	4464
282.808	6730
282.867	7726
282.926	6236
282.985	4371
283.043	3495
283.102	3568
283.161	6402
283.220	16072
283.279	38421
283.338	13258
283.396	6353
283.455	6978
283.514	6832
283.573	9055
283.631	8933
283.690	6263
283.749	5981
283.808	10293
283.866	14433
283.925	5902
283.984	5401
284.043	7130
284.101	9070
284.160	7346
284.219	16668
284.277	12312
284.336	11115
284.395	33125
284.453	34979
284.512	11652
284.570	12427
284.629	11715
284.688	9135
284.746	9858
284.805	10414
284.863	11893
284.922	15317
284.981	14476
285.039	21134
285.098	39597
285.156	106308
285.215	351076
285.273	369184
285.332	135512
285.390	61460
285.449	40022
285.507	27334
285.566	20483
285.624	15439
285.683	12502
285.741	10189
285.799	8346
285.858	9870
285.916	9161
285.975	7661
286.033	6848
286.091	5733
286.150	6245
286.208	6811
286.267	11253
286.325	9261
286.383	10983
286.442	9932
286.500	5813
286.558	4983
286.616	5761
286.675	7698
286.733	7593
286.791	6568
286.850	8154
286.908	12191
286.966	16761
287.024	8940
287.083	6818
287.141	4826
287.199	5119
287.257	8447
287.315	7611
287.374	7730
287.432	16183
287.490	13497
287.548	7789
287.606	7496
287.664	7165
287.723	11447
287.781	21131
287.839	11658
287.897	9122
287.955	10383
288.013	17343
288.071	40647
288.129	141211
288.187	464534
288.245	221146
288.303	65136
288.361	37430
288.419	35043
288.477	29652
288.535	18191
288.593	12904
288.651	11035
288.709	8197
288.767	8690
288.825	8094
288.883	8015
288.941	8523
288.999	6636
289.057	6834
289.115	8775
289.173	9720
289.231	8486
289.289	9276
289.346	8633
289.404	8149
289.462	9499
289.520	11550
289.578	7793
289.636	4893
289.694	5433
289.751	4721
289.809	4667
289.867	6042
289.925	6823
289.983	9665
290.040	6252
290.098	4478
290.156	5428
290.214	7468
290.271	6646
290.329	5416
290.387	4774
290.444	4373
290.502	4210
290.560	5970
290.617	8693
290.675	7858
290.733	6469
290.790	6848
290.848	5368
290.906	8233
290.963	7625
291.021	7537
291.078	8508
291.136	10040
291.194	26306
291.251	64985
291.309	26096
291.366	10206
291.424	7669
291.481	7327
291.539	7894
291.596	6853
291.654	5058
291.711	5250
291.769	6488
291.826	11891
291.884	10492
291.941	5611
291.999	6299
292.056	7188
292.114	7716
292.171	5421
292.228	6561
292.286	8730
292.343	13775
292.401	19556
292.458	16187
292.515	11246
292.573	9788
292.630	9817
292.687	10846
292.745	10150
292.802	15228
292.859	42917
292.917	53841
292.974	33141
293.031	13545
293.089	9388
293.146	8380
293.203	7348
293.260	8026
293.318	12315
293.375	24549
293.432	17799
293.489	9093
293.546	8427
293.604	13036
293.661	30220
293.718	83801
293.775	59836
293.832	25276
293.889	16899
293.947	15284
294.004	12663
294.061	13305
294.118	22984
294.175	52233
294.232	87652
294.289	44996
294.346	18446
294.403	13727
294.460	13478
294.517	12568
294.574	11240
294.631	10353
294.688	14188
294.745	29816
294.802	97427
294.859	137385
294.916	62454
294.973	28352
295.030	20405
295.087	17934
295.144	13225
295.201	12702
295.258	12376
295.315	14648
295.372	30623
295.429	70512
295.486	37450
295.542	27016
295.599	52854
295.656	111531
295.713	80723
295.770	75090
295.827	36706
295.883	18683
295.940	17169
295.997	22866
296.054	26783
296.111	16127
296.167	11653
296.224	10305
296.281	9863
296.338	9904
296.394	10854
296.451	14083
296.508	30141
296.564	66847
296.621	60812
296.678	77030
296.734	127379
296.791	62441
296.848	30285
296.904	25571
296.961	40948
297.018	71546
297.074	72388
297.131	32478
297.187	21338
297.244	27722
297.301	67689
297.357	142788
297.414	64470
297.470	25458
297.527	19449
297.583	16251
297.640	15420
297.696	13942
297.753	11860
297.809	10065
297.866	9752
297.922	9169
297.979	8895
298.035	10163
298.092	16144
298.148	38202
298.204	44762
298.261	27653
298.317	40002
298.374	103962
298.430	73307
298.486	30996
298.543	23030
298.599	18994
298.656	18091
298.712	25607
298.768	54586
298.824	50373
298.881	20903
298.937	13587
298.993	12866
299.050	15949
299.106	17127
299.162	13297
299.218	12763
299.275	11649
299.331	13672
299.387	24329
299.443	73532
299.500	94339
299.556	42197
299.612	22100
299.668	17485
299.724	18742
299.780	22847
299.837	15883
299.893	22576
299.949	55227
300.005	81057
300.061	69488
300.117	125791
300.173	78475
300.229	32680
300.285	28276
300.341	32615
300.397	21493
300.453	14617
300.510	13644
300.566	14130
300.622	16510
300.678	34248
300.734	64709
300.790	66771
300.845	86840
300.901	58639
300.957	60389
301.013	54848
301.069	27526
301.125	17669
301.181	17640
301.237	16089
301.293	12482
301.349	11861
301.405	9960
301.461	9307
301.516	11789
301.572	13827
301.628	20539
301.684	24336
301.740	32603
301.796	48246
301.851	35851
301.907	44223
301.963	58193
302.019	84488
302.074	220324
302.130	248141
302.186	122320
302.242	49433
302.297	32517
302.353	30453
302.409	45940
302.464	48414
302.520	41635
302.576	74588
302.631	99061
302.687	58882
302.743	29590
302.798	19046
302.854	15888
302.910	15380
302.965	21560
303.021	31492
303.076	31037
303.132	30599
303.187	36409
303.243	24642
303.299	14971
303.354	12743
303.410	12390
303.465	11680
303.521	12072
303.576	12428
303.632	17219
303.687	26252
303.743	71014
303.798	75267
303.853	34433
303.909	18970
303.964	16516
304.020	19656
304.075	28678
304.130	26451
304.186	39058
304.241	44597
304.297	39223
304.352	25392
304.358	24540
304.407	17644
304.449	16468
304.463	16086
304.518	16840
304.539	16681
304.573	16463
304.629	18969
304.630	19194
304.684	29866
304.720	47725
304.739	56743
304.794	95688
304.811	83823
304.850	55598
304.902	28912
304.905	27190
304.960	18238
304.992	17460
305.015	16894
305.071	16317
305.083	15851
305.126	14208
305.173	12285
305.181	11967
305.236	11011
305.264	11575
305.292	12176
305.347	14300
305.354	14488
305.402	15622
305.445	15148
305.457	14995
305.512	16624
305.535	17632
305.567	19119
305.622	21452
305.626	22217
305.678	36165
305.716	61125
305.733	70777
305.788	95001
305.807	86512
305.843	72147
305.897	76370
305.898	76339
305.953	86007
305.988	63131
306.008	50319
306.063	30511
306.078	28018
306.118	22001
306.168	16024
306.173	15482
306.228	13244
306.259	13018
306.283	12821
306.338	12577
306.349	12616
306.393	12755
306.440	14512
306.448	14863
306.503	18006
306.530	21903
306.558	26677
306.613	56870
306.620	62536
306.668	97330
306.711	91064
306.723	88270
306.778	66926
306.801	53544
306.833	36531
306.888	20238
306.892	19860
306.943	15718
306.982	14737
306.997	14353
307.052	14683
307.072	15788
307.107	18157
307.162	27068
307.163	27328
307.217	46560
307.253	55444
307.272	59236
307.327	68321
307.343	62230
307.381	48867
307.434	35034
307.436	34462
307.491	47326
307.524	70958
307.546	83625
307.600	80162
307.614	71412
307.655	45093
307.704	27447
307.710	25780
307.765	25136
307.795	31640
307.819	36837
307.874	70344
307.885	69904
307.929	64284
307.975	42161
307.984	38751
308.038	31754
308.065	36345
308.093	52534
308.148	103246
308.156	117802
308.202	196016
308.246	262480
308.257	265573
308.312	152425
308.336	108908
308.366	76617
308.421	50185
308.426	48190
308.475	32096
308.517	24625
308.530	22516
308.585	18994
308.607	18429
308.639	18395
308.694	22186
308.697	22788
308.748	35095
308.787	58845
308.803	65307
308.857	65125
308.877	55516
308.912	40567
308.967	29812
308.967	29878
309.021	29546
309.058	33032
309.076	37535
309.130	60960
309.148	73311
309.185	145222
309.238	275724
309.239	276418
309.293	347252
309.328	316555
309.348	276725
309.402	127591
309.418	94276
309.457	58885
309.508	35688
309.511	34616
309.566	29580
309.598	29242
309.620	32883
309.674	46182
309.688	50441
309.729	47353
309.778	35565
309.783	34602
309.837	24389
309.868	20432
309.892	22016
309.946	30110
309.959	34146
310.001	45392
310.049	55613
310.055	54949
310.109	40052
310.139	28306
310.163	22298
310.218	15831
310.229	15320
310.272	12544
310.319	10735
310.326	10468
310.381	10636
310.409	10851
310.435	10993
310.489	10289
310.499	10465
310.543	10851
310.589	11289
310.598	11164
310.652	12552
310.679	12227
310.706	11224
310.760	8451
310.769	8169
310.814	6368
310.859	5458
310.868	5328
310.923	5519
310.948	5880
310.977	6731
311.031	8835
311.038	9228
311.085	8798
311.128	7638
311.139	7347
311.193	6415
311.218	6046
311.247	5770
311.301	5666
311.308	5697
311.356	5214
311.398	5242
311.410	5009
311.464	4269
311.488	3849
311.518	3925
311.572	4282
311.578	4411
311.626	5083
311.668	5966
311.680	6043
311.734	6758
311.758	7323
311.788	7714
311.842	8260
311.847	8468
311.896	8125
311.937	8396
311.950	7904
312.004	6837
312.027	6339
312.058	5737
312.112	5263
312.117	5352
312.165	4693
312.207	4380
312.297	5283
312.386	4569
312.476	4757
312.566	7995
312.656	3938
312.745	3339
312.835	3635
312.925	3926
313.015	4476
313.104	3706
313.194	3918
313.284	3329
313.374	4290
313.463	3642
313.553	2932
313.643	3684
313.732	2880
313.822	3544
313.912	3766
314.001	3817
314.091	4788
314.180	5651
314.270	6001
314.360	5584
314.449	4456
314.539	3346
314.628	4072
314.718	4938
314.808	5759
314.897	3546
314.987	4306
315.076	5205
315.166	6297
315.255	5865
315.345	5977
315.434	5550
315.524	5988
315.613	7164
315.703	9941
315.792	23944
315.881	106669
315.971	30307
316.060	13335
316.150	16319
316.239	14711
316.328	5178
316.418	4098
316.507	3755
316.597	5507
316.686	4704
316.775	9550
316.865	15754
316.954	4037
317.043	3138
317.133	4060
317.222	3821
317.311	4501
317.400	3643
317.490	7004
317.579	7705
317.668	7866
317.757	15302
317.847	44686
317.936	181072
318.025	45632
318.114	32656
318.203	14167
318.293	11747
318.382	22434
318.471	15594
318.560	22850
318.649	24892
318.738	6398
318.828	6415
318.917	6078
319.006	8678
319.095	19195
319.184	33156
319.273	16482
319.362	8739
319.451	4624
319.540	4150
319.629	8844
319.718	12534
319.807	8182
319.896	16194
319.985	39857
320.074	14690
320.163	7106
320.252	11205
320.341	9291
320.430	6591
320.519	7486
320.608	5164
320.697	4937
320.786	4887
320.875	5801
320.964	6920
321.053	9383
321.142	12522
321.230	13855
321.319	12596
321.408	23521
321.497	12328
321.586	11466
321.675	16820
321.764	13747
321.852	9580
321.941	12560
322.030	9044
322.119	10365
322.207	25406
322.296	21322
322.385	11507
322.474	12704
322.562	29171
322.651	15911
322.740	13317
322.829	19594
322.917	19855
323.006	9545
323.095	8999
323.183	8512
323.272	11133
323.361	22712
323.449	54845
323.538	20785
323.626	39103
323.715	21058
323.804	13922
323.892	35399
323.981	17295
324.069	8980
324.158	22980
324.246	17281
324.335	7248
324.424	8465
324.512	3547
324.601	4899
324.689	4593
324.778	9506
324.866	12880
324.954	4913
325.043	5397
325.131	11812
325.220	19608
325.308	17686
325.397	14159
325.485	7579
325.574	3325
325.662	3114
325.750	3067
325.839	3875
325.927	2647
326.015	4945
326.104	8675
326.192	9373
326.280	3476
326.369	3116
326.457	4164
326.545	6536
326.634	3196
326.722	3200
326.810	3603
326.898	3445
326.987	4687
327.075	7643
327.163	10029
327.251	4370
327.340	3471
327.428	4106
327.516	3521
327.604	5432
327.692	4492
327.781	6245
327.869	8261
327.957	4603
328.045	3734
328.133	3427
328.221	4361
328.309	3024
328.397	2307
328.485	3709
328.574	6604
328.662	14795
328.750	10191
328.838	4840
328.926	3311
329.014	3175
329.102	5090
329.190	9808
329.278	4720
329.366	2176
329.454	2035
329.542	2388
329.630	1682
329.718	3265
329.806	3035
329.893	4136
329.981	2555
330.069	3463
330.157	11292
330.245	32139
330.333	15828
330.421	3851
330.509	5324
330.597	16573
330.684	10618
330.772	7017
330.860	9946
330.948	10221
331.036	3302
331.123	1770
331.211	2309
331.299	4269
331.387	10883
331.475	12295
331.562	4584
331.650	2815
331.738	4117
331.825	5897
331.913	2342
332.001	2787
332.089	5528
332.176	10457
332.264	22033
332.352	13064
332.439	5069
332.527	4018
332.614	3839
332.702	5284
332.790	4825
332.877	11986
332.965	17965
333.052	6049
333.140	6700
333.228	13280
333.315	3837
333.403	5703
333.490	14597
333.578	9453
333.665	15346
333.753	6796
333.840	4019
333.928	6433
334.015	15813
334.103	22328
334.190	47266
334.278	12159
334.365	8554
334.452	7122
334.540	4559
334.627	6354
334.715	8933
334.802	20900
334.889	76235
334.977	65003
335.064	12954
335.151	5278
335.239	5238
335.326	7840
335.413	27471
335.501	23629
335.588	4917
335.675	3858
335.762	7342
335.850	8886
335.937	8131
336.024	25462
336.111	74567
336.199	35639
336.286	8494
336.373	4007
336.460	3652
336.547	2953
336.635	4659
336.722	3800
336.809	3993
336.896	6137
336.983	18544
337.070	35716
337.157	46545
337.245	46547
337.332	26717
337.419	5104
337.506	4247
337.593	5508
337.680	17361
337.767	27124
337.854	11223
337.941	13133
338.028	16511
338.115	5327
338.202	8772
338.289	16869
338.376	41155
338.463	13790
338.550	22466
338.637	15841
338.724	12492
338.811	13477
338.898	4296
338.984	3524
339.071	4134
339.158	3592
339.245	8655
339.332	5846
339.419	13348
339.506	8522
339.593	1183
339.679	2862
339.766	2507
339.853	3533
339.940	6075
340.027	2947
340.113	3133
340.200	4305
340.287	3684
340.374	3689
340.460	5921
340.547	2573
340.634	5516
340.720	16616
340.807	8079
340.894	2535
340.980	2359
341.067	3201
341.154	3693
341.240	4133
341.327	7928
341.414	3466
341.500	1623
341.587	2949
341.674	2937
341.760	5099
341.847	6071
341.933	2291
342.020	682
342.106	1581
342.193	2967
342.279	4337
342.366	3476
342.452	4978
342.539	3659
342.625	7076
342.712	16672
342.798	7104
342.885	3077
342.971	975
343.058	2094
343.144	2667
343.230	2125
343.317	1806
343.403	1374
343.490	2296
343.576	2219
343.662	3699
343.749	2546
343.835	4955
343.921	11973
344.008	68455
344.094	140158
344.180	27172
344.267	9207
344.353	29400
344.439	26696
344.525	8031
344.612	4202
344.698	2518
344.784	1367
344.870	2150
344.957	2168
345.043	3843
345.129	2980
345.215	5301
345.301	3185
345.387	2254
345.474	1311
345.560	2798
345.646	3102
345.732	2175
345.818	1476
345.904	2048
345.990	3241
346.076	5108
346.162	6878
346.249	2659
346.335	2040
346.421	3429
346.507	13438
346.593	41177
346.679	8508
346.765	3249
346.851	3534
346.937	2441
347.023	3232
347.108	2978
347.194	1704
347.280	1447
347.366	3644
347.452	15506
347.538	56284
347.624	35837
347.710	24848
347.796	4781
347.882	2954
347.967	2999
348.053	3586
348.139	2245
348.225	1660
348.311	2020
348.397	1643
348.482	3546
348.568	3157
348.654	1816
348.740	4629
348.825	3446
348.911	7141
348.997	28419
349.083	50329
349.168	7568
349.254	2792
349.340	2463
349.425	1443
349.511	3238
349.597	3358
349.682	6644
349.768	22015
349.854	9712
349.939	3501
350.025	2178
350.110	2195
350.196	2053
350.282	1496
350.367	2383
350.453	5999
350.538	3978
350.624	2913
350.709	3214
350.795	1647
350.880	1581
350.966	3383
351.051	5090
351.137	3847
351.222	2907
351.308	7277
351.393	16539
351.479	3897
351.564	1524
351.649	2393
351.735	1807
351.820	1467
351.906	1508
351.991	3807
352.076	12357
352.162	14884
352.247	3267
352.332	2552
352.418	3753
352.503	6340
352.588	23868
352.673	16535
352.759	4407
352.844	1725
352.929	2186
353.014	3840
353.100	3267
353.185	4795
353.270	6051
353.355	5990
353.441	2066
353.526	3792
353.611	6225
353.696	4939
353.781	4296
353.866	1924
353.952	3491
354.037	5836
354.122	12435
354.207	9591
354.292	3708
354.377	2405
354.462	2009
354.547	2824
354.632	2906
354.717	4367
354.802	4366
354.887	2639
354.972	2357
355.057	2143
355.142	1344
355.227	2937
355.312	4078
355.397	8659
355.482	19166
355.567	8661
355.652	8959
355.737	8797
355.822	27461
355.907	18974
355.991	4876
356.076	2572
356.161	2379
356.246	2026
356.331	3465
356.416	8970
356.501	63416
356.585	57050
356.670	6483
356.755	6167
356.840	7981
356.924	44637
357.009	157422
357.094	49828
357.179	9196
357.263	5935
357.348	6596
357.433	4743
357.517	4713
357.602	4449
357.687	3643
357.771	4447
357.856	6776
357.941	8179
358.025	39568
358.110	177996
358.195	69882
358.279	7297
358.364	5727
358.448	18955
358.533	44350
358.617	29597
358.702	31798
358.787	10620
358.871	6522
358.956	4983
359.040	2358
359.125	2705
359.209	2641
359.294	3661
359.378	4459
359.462	4773
359.547	4049
359.631	3026
359.716	1402
359.800	3068
359.885	4568
359.969	2602
360.053	3722
360.138	3473
360.222	3826
360.306	5263
360.391	4506
360.475	6330
360.559	12128
360.644	16940
360.728	12084
360.812	35103
360.896	91989
360.981	30819
361.065	11147
361.149	5479
361.233	3827
361.318	3542
361.402	6319
361.486	3913
361.570	2574
361.654	4643
361.739	11471
361.823	62322
361.907	92987
361.991	12875
362.075	7393
362.159	10959
362.243	8876
362.327	10072
362.411	18924
362.495	8034
362.580	4655
362.664	3115
362.748	2472
362.832	3451
362.916	6713
363.000	28384
363.084	92931
363.168	115877
363.252	22525
363.336	7976
363.420	12273
363.503	39008
363.587	30401
363.671	5902
363.755	4941
363.839	7242
363.923	3682
364.007	7880
364.091	9906
364.175	18671
364.258	54182
364.342	34766
364.426	66662
364.510	35033
364.594	14831
364.677	19478
364.761	83279
364.845	51128
364.929	12033
365.013	7840
365.096	8100
365.180	9437
365.264	21627
365.347	52187
365.431	20204
365.515	5077
365.598	2108
365.682	4865
365.766	7637
365.849	6731
365.933	4811
366.017	7623
366.100	4011
366.184	2130
366.267	3896
366.351	2813
366.435	1948
366.518	1882
366.602	2361
366.685	2361
366.769	3362
366.852	7415
366.936	8371
367.019	4530
367.103	5214
367.186	8589
367.270	2224
367.353	1542
367.436	2834
367.520	1399
367.603	3157
367.687	4051
367.770	7155
367.853	6106
367.937	20219
368.020	28933
368.104	5790
368.187	5798
368.270	7269
368.353	6814
368.437	16901
368.520	32215
368.603	14791
368.687	21072
368.770	34855
368.853	8492
368.936	10172
369.020	8138
369.103	3413
369.186	3216
369.269	2940
369.352	5883
369.436	6942
369.519	5229
369.602	1719
369.685	4213
369.768	1909
369.851	2940
369.934	1843
370.018	2787
370.101	5775
370.184	7530
370.267	5760
370.350	10282
370.433	14654
370.516	45565
370.599	73099
370.682	23069
370.765	19783
370.848	25503
370.931	49122
371.014	18820
371.097	3545
371.180	4212
371.263	2535
371.346	1763
371.429	3013
371.511	2361
371.594	5089
371.677	10315
371.760	10451
371.843	10222
371.926	63150
372.009	143209
372.091	37028
372.174	23857
372.257	54685
372.340	19291
372.423	15616
372.505	14291
372.588	6471
372.671	17762
372.754	45836
372.836	22429
372.919	20633
373.002	26218
373.085	7234
373.167	8388
373.250	21726
373.332	49812
373.415	89327
373.498	196126
373.580	64673
373.663	135779
373.746	157970
373.828	24488
373.911	9867
373.993	11923
374.076	34627
374.159	24307
374.241	14360
374.324	36202
374.406	26035
374.489	56374
374.571	143100
374.654	45956
374.736	27444
374.819	87952
374.901	131144
374.983	133701
375.066	20455
375.148	10228
375.231	33856
375.313	44108
375.395	14182
375.478	4946
375.560	4185
375.643	6385
375.725	27861
375.807	117411
375.890	83176
375.972	27006
376.054	18692
376.136	27493
376.219	11015
376.301	29770
376.383	82203
376.465	26693
376.548	13411
376.630	20830
376.712	62805
376.794	24717
376.877	3934
376.959	2070
377.041	4816
377.123	8843
377.205	7513
377.287	1522
377.369	3190
377.452	3477
377.534	2502
377.616	1974
377.698	2684
377.780	1477
377.862	2412
377.944	3101
378.026	1800
378.108	2470
378.190	2289
378.272	2466
378.354	1336
378.436	2201
378.518	5949
378.600	14506
378.682	9675
378.764	24183
378.846	17268
378.928	6525
379.010	6142
379.091	3626
379.173	2622
379.255	1894
379.337	3613
379.419	14330
379.501	36044
379.583	12973
379.664	4385
379.746	9265
379.828	23798
379.910	30992
379.991	27183
380.073	4620
380.155	3223
380.237	2298
380.318	2726
380.400	2928
380.482	5731
380.564	8450
380.645	7487
380.727	7558
380.809	5374
380.890	3528
380.972	2684
381.053	3014
381.135	4998
381.217	10520
381.298	25613
381.380	11094
381.461	16014
381.543	67177
381.624	73752
381.706	12801
381.787	8157
381.869	8612
381.951	38902
382.032	152711
382.113	80157
382.195	11707
382.276	10284
382.358	22268
382.439	60772
382.521	77193
382.602	127497
382.684	48163
382.765	75087
382.846	72520
382.928	114229
383.009	56560
383.090	34818
383.172	164440
383.253	273449
383.334	86334
383.416	93495
383.497	40865
383.578	16365
383.659	28832
383.741	133342
383.822	425104
383.903	197410
383.984	60101
384.066	97268
384.147	49869
384.228	11982
384.309	8527
384.390	5850
384.471	5577
384.553	6309
384.634	8573
384.715	8267
384.796	4171
384.877	6171
384.958	24131
385.039	24048
385.120	9146
385.201	6388
385.282	7494
385.363	8362
385.444	6109
385.525	15772
385.606	50813
385.687	39133
385.768	10581
385.849	13695
385.930	67205
386.011	118522
386.092	25977
386.173	6406
386.254	4845
386.335	5177
386.416	6175
386.496	17597
386.577	25586
386.658	11679
386.739	6766
386.820	9038
386.901	5415
386.981	5558
387.062	3872
387.143	7487
387.224	26801
387.304	23589
387.385	9471
387.466	8887
387.547	10193
387.627	6173
387.708	13930
387.789	49452
387.869	57208
387.950	15320
388.031	4819
388.111	5787
388.192	17511
388.273	19969
388.353	7837
388.434	5105
388.514	13493
388.595	66003
388.676	69090
388.756	23985
388.837	21204
388.917	11901
388.998	3013
389.078	4766
389.159	3684
389.239	2485
389.320	6832
389.400	4551
389.480	13315
389.561	28328
389.641	11907
389.722	5369
389.802	7857
389.883	15166
389.963	39901
390.043	24713
390.124	8278
390.204	11231
390.284	27702
390.365	19365
390.445	32159
390.525	86189
390.605	71629
390.686	15220
390.766	7478
390.846	5453
390.927	3715
391.007	3669
391.087	6268
391.167	5812
391.247	3938
391.328	10823
391.408	12274
391.488	6921
391.568	3405
391.648	4994
391.728	6160
391.808	7715
391.888	7470
391.969	18119
392.049	25023
392.129	14674
392.209	15822
392.289	37086
392.369	22080
392.449	20002
392.529	11849
392.609	12505
392.689	16861
392.769	39450
392.849	33991
392.929	34102
393.009	61667
393.089	53926
393.169	74178
393.248	250474
393.328	990618
393.408	1036111
393.488	265153
393.568	68715
393.648	33390
393.728	20580
393.807	14576
393.887	13913
393.967	10985
394.047	10860
394.127	10602
394.206	15651
394.286	57545
394.366	307044
394.446	303311
394.525	48414
394.605	13380
394.685	14464
394.764	28191
394.844	36766
394.924	20628
395.003	8870
395.083	7778
395.163	6518
395.242	6325
395.322	6240
395.402	3753
395.481	9238
395.561	20869
395.640	41040
395.720	36171
395.799	46653
395.879	27393
395.958	19249
396.038	75429
396.117	385799
396.197	393466
396.276	80158
396.356	27266
396.435	22504
396.515	19555
396.594	26101
396.673	61046
396.753	269134
396.832	886886
396.912	590679
396.991	111463
397.070	32965
397.150	17151
397.229	13530
397.308	15367
397.388	22282
397.467	11003
397.546	7503
397.625	3673
397.705	7237
397.784	5062
397.863	5053
397.942	4547
398.022	6194
398.101	18875
398.180	38613
398.259	17065
398.338	6328
398.417	4054
398.497	3868
398.576	4439
398.655	2246
398.734	2691
398.813	4856
398.892	18322
398.971	39670
399.050	13722
399.129	3492
399.208	2359
399.287	3009
399.366	2109
399.445	2523
399.524	2595
399.603	1381
399.682	5156
399.761	17213
399.840	45246
399.919	24701
399.998	4133
400.077	1242
400.156	1053
400.235	4826
400.313	2447
400.392	2681
400.471	13097
400.550	17988
400.629	4906
400.708	3504
400.786	5478
400.865	12751
400.944	9223
401.023	5614
401.102	1569
401.180	1573
401.259	2708
401.338	2259
401.416	4591
401.495	3579
401.574	3893
401.652	2124
401.731	4036
401.810	2183
401.888	1020
401.967	1030
402.046	2769
402.124	4321
402.203	3215
402.281	3050
402.360	6845
402.438	14804
402.517	6520
402.596	3822
402.674	2651
402.753	2415
402.831	2492
402.910	3229
402.988	10912
403.066	29857
403.145	15138
403.223	10606
403.302	21988
403.380	15716
403.459	14861
403.537	5611
403.615	2842
403.694	-133
403.772	1690
403.850	1456
403.929	1339
404.007	1146
404.085	4480
404.164	2800
404.242	870
404.320	2516
404.398	4231
404.477	17796
404.555	89894
404.633	67617
404.711	8321
404.789	2006
404.868	1571
404.946	167
405.024	869
405.102	459
405.180	565
405.258	190
405.336	1976
405.415	2079
405.493	4927
405.571	3241
405.649	836
405.727	1263
405.805	3830
405.883	2842
405.961	4032
406.039	3107
406.117	1417
406.195	3921
406.273	18194
406.351	65785
406.429	35011
406.507	5207
406.585	1502
406.663	1441
406.740	2379
406.818	2259
406.896	1024
406.974	2948
407.052	5477
407.130	36223
407.208	44821
407.285	8254
407.363	663
407.441	1293
407.519	1047
407.596	1875
407.674	4389
407.752	14046
407.830	15457
407.907	6368
407.985	1213
408.063	1373
408.141	1572
408.218	5182
408.296	2581
408.373	1073
408.451	2316
408.529	1384
408.606	383
408.684	552
408.762	144
408.839	576
408.917	551
408.994	174
409.072	866
409.149	1149
409.227	4059
409.304	4805
409.382	3284
409.459	3926
409.537	6410
409.614	3548
409.692	1699
409.769	2779
409.846	6792
409.924	9726
410.001	3194
410.079	2612
410.156	2544
410.233	2154
410.311	1268
410.388	1053
410.465	2446
410.543	2574
410.620	2341
410.697	1889
410.775	1970
410.852	471
410.929	2981
411.006	3044
411.083	2131
411.161	6718
411.238	7837
411.315	2047
411.392	1117
411.469	3608
411.547	3852
411.624	992
411.701	1309
411.778	1617
411.855	3516
411.932	1377
412.009	686
412.086	1594
412.163	2186
412.240	3343
412.317	4706
412.394	2412
412.471	1006
412.548	447
412.625	912
412.702	3099
412.779	4706
412.856	3096
412.933	441
413.010	883
413.087	2761
413.164	11910
413.241	15001
413.318	2434
413.395	3243
413.471	2730
413.548	1984
413.625	1587
413.702	2279
413.779	923
413.855	347
413.932	-20
414.009	-74
414.086	1285
414.162	1193
414.239	3146
414.316	12818
414.393	23938
414.469	6025
414.546	659
414.623	1374
414.699	660
414.776	305
414.853	452
414.929	872
415.006	1788
415.082	2245
415.159	1460
415.236	422
415.312	1183
415.389	2435
415.465	2252
415.542	720
415.618	472
415.695	2311
415.771	939
415.848	1241
415.924	2095
416.000	911
416.077	1514
416.153	-285
416.230	-678
416.306	258
416.383	1102
416.459	986
416.535	149
416.612	154
416.688	854
416.764	351
416.841	327
416.917	890
416.993	1557
417.069	1887
417.146	1159
417.222	1919
417.298	1090
417.374	565
417.451	1028
417.527	1035
417.603	1015
417.679	1182
417.755	714
417.831	-444
417.908	530
417.984	522
418.060	-168
418.136	3272
418.212	3278
418.288	1500
418.364	609
418.440	1162
418.516	2876
418.592	4500
418.668	5643
418.744	6474
418.820	4618
418.896	1514
418.972	-54
419.048	500
419.124	3710
419.200	1095
419.276	439
419.352	-266
419.428	1198
419.504	289
419.579	689
419.655	704
419.731	1281
419.807	4526
419.883	7383
419.959	5228
420.034	1656
420.110	4502
420.186	15761
420.262	11009
420.337	2178
420.413	1490
420.489	1113
420.565	1545
420.640	93
420.716	996
420.792	-315
420.867	1521
420.943	148
421.019	2194
421.094	680
421.170	992
421.245	610
421.321	1262
421.397	1247
421.472	3197
421.548	5340
421.623	4223
421.699	2333
421.774	2597
421.850	1828
421.925	3955
422.001	4257
422.076	3439
422.152	4347
422.227	6447
422.302	8170
422.378	11171
422.453	21589
422.529	61926
422.604	228059
422.679	408641
422.755	225680
422.830	62960
422.905	23179
422.981	12050
423.056	7650
423.131	5877
423.207	4101
423.282	4428
423.357	7037
423.432	3935
423.508	4792
423.583	8750
423.658	5397
423.733	3663
423.808	3121
423.883	2774
423.959	2348
424.034	3016
424.109	2227
424.184	1318
424.259	1061
424.334	488
424.409	581
424.484	1077
424.559	419
424.634	864
424.709	3497
424.784	2530
424.859	1808
424.934	2832
425.009	10857
425.084	16722
425.159	5571
425.234	1765
425.309	-333
425.384	507
425.459	268
425.534	1935
425.609	1598
425.683	1277
425.758	1086
425.833	1542
425.908	2252
425.983	7107
426.058	18200
426.132	7566
426.207	3068
426.282	5695
426.357	3295
426.431	829
426.506	2173
426.581	1481
426.655	1418
426.730	1026
426.805	1218
426.879	1822
426.954	1780
427.029	4388
427.103	22840
427.178	53626
427.253	21754
427.327	4375
427.402	4966
427.476	7854
427.551	2564
427.625	3217
427.700	3181
427.774	1756
427.849	2454
427.923	451
427.998	1618
428.072	1669
428.147	6459
428.221	25666
428.296	80588
428.370	43027
428.444	6312
428.519	8412
428.593	13831
428.667	11206
428.742	14345
428.816	15280
428.890	52143
428.965	76375
429.039	27149
429.113	15648
429.188	5094
429.262	1533
429.336	3708
429.410	10090
429.485	8226
429.559	13060
429.633	8095
429.707	3711
429.781	11769
429.855	55810
429.930	79880
430.004	46936
430.078	56169
430.152	47694
430.226	118165
430.300	120254
430.374	18220
430.448	6793
430.522	21906
430.596	45728
430.670	30174
430.744	81373
430.818	107516
430.892	20768
430.966	3755
431.040	2022
431.114	414
431.188	1156
431.262	1354
431.336	1871
431.410	8618
431.484	16637
431.557	8492
431.631	1607
431.705	2272
431.779	15040
431.853	73746
431.927	51815
432.000	6823
432.074	2028
432.148	2981
432.222	1758
432.295	1062
432.369	871
432.443	4539
432.516	26606
432.590	60643
432.664	21992
432.737	2453
432.811	-247
432.885	-593
432.958	607
433.032	725
433.106	397
433.179	-356
433.253	-545
433.326	418
433.400	-408
433.473	250
433.547	689
433.620	628
433.694	1666
433.767	2203
433.841	787
433.914	543
433.988	50
434.061	378
434.134	1508
434.208	-177
434.281	-221
434.355	-450
434.428	706
434.501	-356
434.575	126
434.648	1427
434.721	470
434.795	20
434.868	22
434.941	54
435.014	-198
435.088	10
435.161	1025
435.234	2647
435.307	2894
435.381	1607
435.454	1933
435.527	3632
435.600	2815
435.673	2512
435.746	483
435.819	968
435.892	523
435.966	69
436.039	751
436.112	1236
436.185	-96
436.258	-484
436.331	56
436.404	-215
436.477	-475
436.550	-283
436.623	1050
436.696	491
436.769	253
436.842	1440
436.915	1726
436.987	1767
437.060	1030
437.133	579
437.206	292
437.279	880
437.352	-33
437.425	338
437.498	1091
437.570	2431
437.643	1705
437.716	-166
437.789	261
437.861	3156
437.934	11396
438.007	5270
438.080	1231
438.152	1440
438.225	4567
438.298	38763
438.370	105290
438.443	46821
438.516	10989
438.588	1723
438.661	366
438.734	684
438.806	1719
438.879	583
438.951	3156
439.024	5523
439.096	2005
439.169	-183
439.241	-403
439.314	564
439.386	3366
439.459	6550
439.531	9284
439.604	3212
439.676	437
439.749	233
439.821	849
439.893	1141
439.966	900
440.038	1573
440.110	1786
440.183	432
440.255	331
440.327	2370
440.400	15634
440.472	58072
440.544	40324
440.617	6535
440.689	4792
440.761	6004
440.833	9764
440.905	5306
440.978	589
441.050	-96
441.122	754
441.194	423
441.266	553
441.338	-230
441.411	2663
441.483	14217
441.555	22351
441.627	6785
441.699	6149
441.771	5871
441.843	1840
441.915	117
441.987	240
442.059	736
442.131	2140
442.203	5664
442.275	5528
442.347	4471
442.419	5823
442.491	32223
442.563	91013
442.635	48355
442.706	24042
442.778	16739
442.850	3723
442.922	1299
442.994	3240
443.066	4295
443.137	3749
443.209	3059
443.281	4450
443.353	11543
443.425	45115
443.496	167047
443.568	173249
443.640	67425
443.711	14671
443.783	4811
443.855	3092
443.926	2186
443.998	3255
444.070	4916
444.141	3428
444.213	4023
444.285	4629
444.356	6249
444.428	6860
444.499	2428
444.571	889
444.642	767
444.714	814
444.785	2904
444.857	7677
444.928	17635
445.000	13134
445.071	14008
445.143	14662
445.214	8535
445.285	15580
445.357	39951
445.428	118485
445.500	288082
445.571	189838
445.642	95437
445.714	41598
445.785	32147
445.856	12507
445.928	5324
445.999	5733
446.070	4000
446.141	3124
446.213	4370
446.284	4038
446.355	4604
446.426	3118
446.497	2126
446.569	5494
446.640	7684
446.711	5351
446.782	2246
446.853	5204
446.924	5306
446.995	2616
447.066	3569
447.138	6999
447.209	4659
447.280	426
447.351	-32
447.422	938
447.493	2949
447.564	3258
447.635	2662
447.706	1684
447.777	146
447.847	418
447.918	989
447.989	3286
448.060	5523
448.131	12572
448.202	12173
448.273	5787
448.344	3327
448.414	804
448.485	588
448.556	874
448.627	-360
448.698	485
448.768	100
448.839	1001
448.910	6306
448.981	7333
449.051	1872
449.122	102
449.193	-101
449.263	813
449.334	781
449.405	1704
449.475	3532
449.546	4766
449.616	6946
449.687	7397
449.758	1888
449.828	1318
449.899	590
449.969	41
450.040	880
450.110	3705
450.181	4305
450.251	1621
450.322	251
450.392	1087
450.463	1666
450.533	577
450.604	506
450.674	976
450.744	1993
450.815	1013
450.885	976
450.955	855
451.026	882
451.096	1935
451.166	2877
451.237	10169
451.307	22439
451.377	12868
451.447	2156
451.518	983
451.588	863
451.658	891
451.728	5579
451.799	21887
451.869	30785
451.939	9180
452.009	2098
452.079	1496
452.149	1390
452.219	7110
452.289	25531
452.360	25521
452.430	4815
452.500	2110
452.570	3094
452.640	7447
452.710	21527
452.780	32313
452.850	18839
452.920	11283
452.990	6038
453.060	3564
453.129	3530
453.199	6307
453.269	28189
453.339	68110
453.409	108087
453.479	91165
453.549	140286
453.619	148789
453.688	80519
453.758	12788
453.828	3442
453.898	2757
453.968	1386
454.037	2133
454.087	2129
454.107	1882
454.168	1662
454.177	1410
454.247	1394
454.249	1701
454.316	5579
454.330	8096
454.386	14902
454.411	24746
454.456	26428
454.492	29226
454.525	30305
454.574	17088
454.595	13001
454.655	8858
454.665	9222
454.734	23600
454.736	25521
454.804	54463
454.817	66320
454.873	73105
454.898	77932
454.943	68226
454.979	46788
455.013	34433
455.060	23972
455.082	30053
455.141	58476
455.152	59049
455.221	92383
455.222	95584
455.291	70946
455.303	63300
455.360	48929
455.384	45471
455.430	64401
455.465	86908
455.499	89716
455.546	103547
455.569	88423
455.627	44553
455.638	41987
455.707	16906
455.708	17185
455.777	15173
455.789	15538
455.846	15098
455.869	15261
455.916	16781
455.950	18725
455.985	17215
456.031	15626
456.054	14308
456.112	11889
456.124	12935
456.193	19706
456.193	19402
456.262	40114
456.274	44160
456.332	51116
456.355	55060
456.401	41030
456.436	29937
456.470	23039
456.516	13261
456.540	11919
456.597	10074
456.609	9696
456.678	10538
456.678	10413
456.747	9638
456.759	9716
456.817	9851
456.840	10166
456.886	11034
456.920	12265
456.955	16490
457.001	22039
457.024	31703
457.082	58634
457.093	62991
457.162	94953
457.163	95890
457.232	78248
457.243	75110
457.301	37240
457.324	21793
457.370	17648
457.405	15768
457.439	16246
457.485	17560
457.508	18005
457.566	20681
457.577	20763
457.646	21205
457.647	21364
457.715	26451
457.727	27810
457.784	33809
457.808	37703
457.853	43403
457.889	48884
457.922	47906
457.969	39741
457.991	41790
458.050	50292
458.060	51197
458.129	66848
458.130	67525
458.198	62507
458.211	58901
458.267	42615
458.292	34383
458.336	29228
458.372	28903
458.405	34919
458.453	46055
458.474	55558
458.533	87296
458.543	89541
458.611	119784
458.614	120838
458.680	79408
458.694	67027
458.749	43261
458.775	35055
458.818	30808
458.855	30039
458.887	31781
458.936	35928
458.955	36540
459.016	39097
459.024	38487
459.093	35311
459.097	35245
459.162	38545
459.177	39502
459.230	40463
459.257	41231
459.299	41209
459.338	41236
459.368	42968
459.418	46677
459.437	43849
459.499	34592
459.505	34331
459.574	31383
459.579	31323
459.643	30339
459.659	30115
459.711	33195
459.740	35065
459.780	44571
459.820	54765
459.849	61705
459.900	74845
459.917	69914
459.981	51817
459.986	50608
460.054	33975
460.061	32434
460.123	33319
460.141	33738
460.191	39309
460.222	42778
460.260	43894
460.302	45518
460.328	41733
460.382	33955
460.397	34203
460.462	35325
460.465	35319
460.534	36691
460.543	36936
460.602	46118
460.623	49606
460.671	59521
460.703	66909
460.739	63196
460.783	58207
460.808	56771
460.864	50837
460.876	51518
460.944	57039
460.945	56836
461.013	45080
461.024	43186
461.081	43500
461.104	43670
461.150	41950
461.184	40778
461.218	41240
461.264	41708
461.286	44220
461.345	51094
461.355	52183
461.423	60375
461.425	60606
461.491	72378
461.505	74876
461.559	175073
461.585	222321
461.628	399299
461.665	556268
461.696	594505
461.745	659859
461.764	531304
461.825	110367
461.832	107795
461.901	76686
461.905	75155
461.969	72402
461.985	72103
462.037	66355
462.065	62903
462.105	90689
462.145	119098
462.173	198076
462.225	345603
462.241	388717
462.305	561836
462.310	539805
462.378	193629
462.385	154525
462.446	80349
462.465	56894
462.514	56350
462.545	57211
462.582	58864
462.625	60807
462.650	61392
462.705	62692
462.718	70321
462.785	109441
462.786	111354
462.854	224567
462.865	242566
462.922	298819
462.945	321032
462.990	188504
463.025	85251
463.058	74325
463.104	58679
463.126	58714
463.184	59540
463.194	60293
463.262	65254
463.264	65398
463.330	75813
463.344	77978
463.398	101062
463.424	112242
463.466	124166
463.504	135161
463.533	128720
463.583	117216
463.601	124865
463.663	150726
463.669	156919
463.737	228187
463.743	234369
463.805	406591
463.823	456826
463.873	771340
463.903	961833
463.940	1004093
463.982	1050244
464.008	786398
464.062	224293
464.076	199544
464.142	75929
464.144	75807
464.211	72016
464.221	71525
464.279	76263
464.301	78098
464.347	102524
464.381	120458
464.414	160673
464.461	216038
464.482	222251
464.540	237771
464.550	219267
464.617	85743
464.620	80997
464.685	82263
464.699	82543
464.753	84438
464.779	85230
464.820	97836
464.859	109346
464.888	137280
464.938	185121
464.956	191583
465.018	214148
465.023	205848
465.091	92219
465.098	80430
465.158	79530
465.177	79092
465.226	84969
465.257	88544
465.293	94670
465.336	101688
465.361	112458
465.416	135884
465.428	160109
465.495	289720
465.496	292392
465.563	632745
465.575	690533
465.631	802253
465.654	848054
465.698	466689
465.734	150528
465.765	120461
465.813	73669
465.833	74018
465.893	76324
465.900	76421
465.968	76150
465.972	75977
466.035	70394
466.052	68746
466.102	71368
466.131	72587
466.170	74023
466.210	75365
466.237	77046
466.290	79822
466.304	81918
466.369	90419
466.372	90987
466.439	102161
466.449	103583
466.506	122435
466.528	129269
466.573	217042
466.607	282410
466.641	488243
466.687	773180
466.708	859961
466.766	1094476
466.775	998828
466.842	262496
466.845	226981
466.909	135960
466.925	113889
466.977	105168
467.004	100374
467.044	100291
467.083	99745
467.111	103065
467.163	108644
467.178	110158
467.242	115187
467.245	115735
467.312	121515
467.321	121999
467.379	160680
467.400	174226
467.446	228487
467.480	266906
467.559	198900
467.638	131379
467.717	144338
467.796	144389
467.875	159937
467.955	175145
468.034	309571
468.113	877168
468.192	1310803
468.271	255978
468.350	113787
468.429	127658
468.508	118179
468.588	125197
468.667	150966
468.746	149811
468.825	154088
468.904	129957
468.983	204073
469.062	464415
469.141	587090
469.220	149310
469.299	132099
469.378	143026
469.456	98362
469.535	105696
469.614	138804
469.693	184594
469.772	310028
469.851	553720
469.930	290588
470.009	99356
470.088	86509
470.166	83954
470.245	94235
470.324	96253
470.403	88878
470.482	88655
470.560	89785
470.639	106432
470.718	124982
470.797	122418
470.875	190045
470.954	373308
471.033	440108
471.111	102627
471.190	83456
471.269	82602
471.347	89332
471.426	117769
471.505	151028
471.583	111723
471.662	87582
471.740	89769
471.819	88919
471.898	88573
471.976	92293
472.055	99755
472.133	148896
472.212	296543
472.290	354844
472.369	151527
472.447	95049
472.526	84114
472.604	82995
472.683	90771
472.761	100148
472.839	93665
472.918	94542
472.996	134299
473.075	213343
473.153	180116
473.231	124944
473.310	183530
473.388	166759
473.466	137850
473.545	101662
473.623	119458
473.701	122372
473.780	88619
473.858	87829
473.936	95395
474.014	103093
474.093	147144
474.171	361790
474.249	641793
474.327	322728
474.405	85063
474.484	80828
474.562	85159
474.640	99821
474.718	132810
474.796	118396
474.874	75423
474.952	71963
475.030	74862
475.108	78735
475.187	81159
475.265	87388
475.343	115058
475.421	130756
475.499	112954
475.577	139955
475.655	245556
475.733	715188
475.811	1382262
475.889	1203697
475.966	682151
476.044	123546
476.122	137246
476.200	153477
476.278	142970
476.356	129420
476.434	138081
476.512	154799
476.590	198257
476.667	170161
476.745	116711
476.823	122618
476.901	150651
476.979	180086
477.056	142304
477.134	139313
477.212	116439
477.290	116225
477.367	115209
477.445	120508
477.523	126436
477.601	123235
477.678	138882
477.756	243154
477.834	301040
477.911	134480
477.989	132541
478.066	143532
478.144	191205
478.222	146305
478.299	151546
478.377	141260
478.454	104721
478.532	105961
478.609	109815
478.687	117125
478.764	105039
478.842	110458
478.919	127940
478.997	130605
479.074	133443
479.152	230401
479.229	360262
479.307	178408
479.384	100671
479.461	107006
479.539	168288
479.616	235682
479.694	167606
479.771	211158
479.848	225180
479.926	403906
480.003	391363
480.080	123445
480.157	123085
480.235	125621
480.312	131164
480.389	201980
480.467	470123
480.544	619467
480.621	205778
480.698	165730
480.775	221476
480.853	257651
480.930	157642
481.007	166653
481.084	228259
481.161	229626
481.238	220385
481.315	136607
481.392	127927
481.470	133444
481.547	137695
481.624	145240
481.701	143148
481.778	165383
481.855	209338
481.932	380350
482.009	745106
482.086	431371
482.163	136807
482.240	139031
482.317	178699
482.393	160701
482.470	151530
482.547	178753
482.624	138813
482.701	153841
482.778	146245
482.855	108086
482.932	106685
483.009	109766
483.085	123178
483.162	151023
483.239	142699
483.316	112627
483.393	111993
483.469	125838
483.546	200367
483.623	236332
483.699	142772
483.776	150611
483.853	171398
483.930	264981
484.006	799103
484.083	1374478
484.160	316156
484.236	172180
484.313	170597
484.389	182043
484.466	144535
484.543	137779
484.619	164897
484.696	186007
484.772	289143
484.849	357486
484.925	164612
485.002	143663
485.078	170401
485.155	182997
485.231	152783
485.308	160531
485.384	194979
485.461	317758
485.537	859517
485.614	1056399
485.690	206835
485.766	150494
485.843	147428
485.919	194081
485.995	196474
486.072	130081
486.148	129918
486.224	134848
486.301	181011
486.377	273870
486.453	235627
486.530	169421
486.606	179590
486.682	249478
486.758	635406
486.835	853527
486.911	515677
486.987	1079050
487.063	630307
487.139	430457
487.215	289175
487.292	145992
487.368	139210
487.444	179557
487.520	214606
487.596	155150
487.672	164671
487.748	317489
487.824	449386
487.900	219838
487.976	175015
488.052	247360
488.128	278552
488.204	236998
488.280	204281
488.356	280489
488.432	954480
488.508	1579605
488.584	319052
488.660	137246
488.736	128661
488.812	140864
488.888	168314
488.964	204135
489.039	426602
489.115	650588
489.191	396767
489.267	196800
489.343	199107
489.418	127143
489.494	110553
489.570	120471
489.646	130401
489.722	148348
489.797	177429
489.873	418165
489.949	1267128
490.024	939941
490.100	169971
490.176	137530
490.251	168646
490.327	187986
490.403	132107
490.478	103272
490.554	93647
490.629	95944
490.705	104447
490.781	126604
490.856	161795
490.932	154868
491.007	142588
491.083	161422
491.158	178024
491.234	300106
491.309	985519
491.385	962711
491.460	212811
491.536	208196
491.611	125857
491.686	137856
491.762	173243
491.837	332796
491.913	650724
491.988	964385
492.063	874276
492.139	647448
492.214	395852
492.289	108737
492.365	105068
492.440	146545
492.515	234062
492.590	208935
492.666	139959
492.741	287421
492.816	621965
492.891	227172
492.967	90584
493.042	84771
493.117	79422
493.192	80721
493.267	91313
493.342	124877
493.418	128206
493.493	85971
493.568	89971
493.643	105260
493.718	219403
493.793	447690
493.868	290488
493.943	112273
494.018	101599
494.093	143619
494.168	138886
494.243	83401
494.318	85663
494.393	87905
494.468	81005
494.543	80155
494.618	98414
494.693	103262
494.768	137393
494.842	123295
494.917	77299
494.992	78005
495.067	70992
495.142	71580
495.217	78587
495.292	88002
495.366	113897
495.441	165491
495.516	205987
495.591	232352
495.665	596280
495.740	1313599
495.815	561686
495.890	210356
495.964	174975
496.039	155535
496.114	146997
496.188	149288
496.263	153066
496.338	170395
496.412	240115
496.487	275445
496.561	210548
496.636	196000
496.710	172932
496.785	241547
496.860	331419
496.934	181746
497.009	156078
497.083	150728
497.158	164014
497.232	255583
497.307	359666
497.381	214128
497.455	357283
497.530	590422
497.604	251311
497.679	267479
497.753	576532
497.827	703149
497.902	379674
497.976	417370
498.050	948346
498.125	3428303
498.199	3135490
498.273	517237
498.348	299704
498.422	230889
498.496	232198
498.570	221182
498.645	210230
498.719	246297
498.793	359487
498.867	754953
498.941	898249
499.016	1561720
499.090	3827019
499.164	1275100
499.238	233766
499.312	186994
499.386	207417
499.460	240292
499.534	242416
499.609	308140
499.683	609570
499.757	498221
499.831	797553
499.905	2867413
499.979	2517828
500.053	860157
500.127	768230
500.201	301488
500.275	218824
500.349	216487
500.422	253396
500.496	331565
500.570	570821
500.644	1626117
500.718	3060115
500.792	673607
500.866	277633
500.940	449053
501.013	317652
501.087	282744
501.161	396639
501.235	660743
501.309	1709515
501.382	3402647
501.456	2472894
501.530	793669
501.603	1603588
501.677	511460
501.751	238956
501.825	266284
501.898	564478
501.972	1787131
502.046	978567
502.119	313013
502.193	718369
502.266	1933095
502.340	838927
502.413	934062
502.487	1995967
502.561	1381716
502.634	322918
502.708	174509
502.781	158015
502.855	136127
502.928	137266
503.002	143806
503.075	154766
503.149	180018
503.222	182548
503.295	227456
503.369	293892
503.442	416446
503.516	1384017
503.589	3592935
503.662	2194110
503.736	706471
503.809	1793567
503.882	1207806
503.956	1529927
504.029	1230859
504.102	372919
504.175	312671
504.249	188655
504.322	286890
504.395	257982
504.468	167381
504.542	206502
504.615	115547
504.688	98046
504.761	123792
504.834	151449
504.907	130670
504.980	184297
505.053	135428
505.127	142414
505.200	217973
505.273	417921
505.346	197892
505.419	155941
505.492	108630
505.565	89817
505.638	86830
505.711	102692
505.784	112002
505.857	103925
505.930	110195
506.003	116254
506.076	131288
506.149	258989
506.221	357503
506.294	210346
506.367	586822
506.440	1882027
506.513	839760
506.586	369332
506.659	164997
506.731	115063
506.804	168482
506.877	220710
506.950	189876
507.022	113629
507.095	260485
507.168	283538
507.241	105391
507.313	80881
507.386	94131
507.459	107022
507.531	78869
507.604	81069
507.677	82531
507.749	67015
507.822	82981
507.894	120447
507.967	107849
508.040	72315
508.112	73928
508.185	81817
508.257	75908
508.330	102420
508.402	98416
508.475	126772
508.547	144057
508.620	153882
508.692	375497
508.765	134721
508.837	72514
508.909	65705
508.982	71981
509.054	78536
509.127	68336
509.199	67947
509.271	69683
509.344	60691
509.416	67600
509.488	74663
509.560	72456
509.633	68073
509.705	81183
509.777	89749
509.849	114811
509.922	80351
509.994	68529
510.066	70217
510.138	68669
510.210	77395
510.283	95945
510.355	81539
510.427	63222
510.499	62985
510.571	65308
510.643	71627
510.715	97861
510.787	90429
510.859	90155
510.931	152528
511.003	114855
511.076	108475
511.148	88103
511.219	102894
511.291	314906
511.363	385444
511.435	82794
511.507	67047
511.579	68820
511.651	70833
511.723	77592
511.795	78611
511.867	93428
511.939	174261
512.010	649695
512.082	367741
512.154	100917
512.226	84790
512.298	72930
512.369	102668
512.441	90890
512.513	91578
512.585	77874
512.656	93157
512.728	128659
512.800	71388
512.871	82231
512.943	81690
513.015	55356
513.086	61824
513.158	71400
513.230	86834
513.301	131507
513.373	112834
513.444	67067
513.516	58936
513.588	61596
513.659	66480
513.731	85222
513.802	80590
513.874	142525
513.945	248928
514.016	91428
514.088	70515
514.159	76866
514.231	97334
514.302	103027
514.374	88547
514.445	154810
514.516	564840
514.588	334446
514.659	165100
514.730	481786
514.802	195585
514.873	79677
514.944	74705
515.016	77859
515.087	101322
515.158	259274
515.229	413760
515.301	85582
515.372	79449
515.443	68441
515.514	54679
515.585	51368
515.656	52023
515.728	51594
515.799	53773
515.870	58100
515.941	70408
516.012	68310
516.083	62750
516.154	73367
516.225	98933
516.296	87764
516.367	73440
516.438	81555
516.509	97286
516.580	120836
516.651	262136
516.722	857425
516.793	439948
516.864	188628
516.935	209140
517.006	215299
517.077	252034
517.148	388731
517.219	657365
517.289	1157885
517.360	1775894
517.431	537871
517.502	150893
517.573	134493
517.643	126935
517.714	127933
517.785	126902
517.856	135352
517.926	139196
517.997	143564
518.068	151695
518.138	165648
518.209	186488
518.280	417095
518.350	1314753
518.421	537792
518.492	164132
518.562	190083
518.633	245491
518.703	168383
518.774	212547
518.845	398081
518.915	363716
518.986	226108
519.056	214985
519.127	305453
519.197	531623
519.268	1714544
519.338	1020630
519.408	339013
519.479	207370
519.549	155926
519.620	119750
519.690	100860
519.760	111255
519.831	107642
519.901	115560
519.971	102346
520.042	146004
520.112	233060
520.182	142604
520.253	137227
520.323	122445
520.393	123650
520.463	122696
520.534	159295
520.604	291165
520.674	171039
520.744	216468
520.814	263877
520.885	233398
520.955	530004
521.025	2009939
521.095	638228
521.165	177280
521.235	189372
521.305	141292
521.375	99252
521.445	101947
521.515	120005
521.585	128075
521.655	126790
521.725	123183
521.795	135271
521.865	127504
521.935	281562
522.005	244450
522.075	129362
522.145	147748
522.215	232737
522.285	371994
522.355	561052
522.424	1233464
522.494	938062
522.564	246379
522.634	282444
522.704	544867
522.774	207541
522.843	125495
522.913	111436
522.983	120250
523.053	114537
523.122	113762
523.192	120581
523.262	326315
523.331	300898
523.401	103023
523.471	78969
523.540	88820
523.610	74814
523.680	81447
523.749	99155
523.819	192201
523.888	192172
523.958	89500
524.027	101000
524.097	115984
524.166	93860
524.236	98372
524.305	103206
524.375	97182
524.444	95533
524.514	108284
524.583	144176
524.653	225631
524.722	243895
524.791	130815
524.861	107112
524.930	93381
524.999	96898
525.069	141993
525.138	165105
525.207	252593
525.277	111857
525.346	112940
525.415	103721
525.484	103702
525.554	195895
525.623	163453
525.692	97666
525.761	117525
525.830	96792
525.900	110375
525.969	193377
526.038	193163
526.107	200950
526.176	442861
526.245	380425
526.314	266990
526.383	352295
526.452	348367
526.522	586453
526.591	872434
526.660	389902
526.729	184200
526.797	185672
526.867	314286
526.935	1129298
527.004	1360364
527.073	681417
527.142	158493
527.211	109996
527.280	100101
527.349	104375
527.418	74488
527.487	77968
527.555	78674
527.624	70621
527.693	70979
527.762	74426
527.831	73509
527.899	82490
527.968	85091
528.037	89195
528.106	97204
528.174	167905
528.243	208968
528.312	337800
528.380	335635
528.449	127444
528.518	77903
528.586	67669
528.655	69126
528.723	69864
528.792	73767
528.861	112342
528.929	96921
528.998	72295
529.066	63850
529.135	64215
529.203	64670
529.272	69518
529.340	68359
529.409	79507
529.477	86994
529.545	173426
529.614	164453
529.682	219844
529.751	261512
529.819	212962
529.887	133241
529.956	83124
530.024	85072
530.092	62880
530.161	67005
530.229	101201
530.297	67781
530.365	58436
530.434	55246
530.502	58254
530.570	57363
530.638	58410
530.707	61330
530.775	74046
530.843	64591
530.911	64571
530.979	57253
531.047	61551
531.115	65947
531.183	65352
531.252	68649
531.320	84973
531.388	67722
531.456	64804
531.524	59775
531.592	61517
531.660	67536
531.728	64771
531.796	63128
531.864	61351
531.932	66836
532.000	64163
532.067	67042
532.135	65028
532.203	73533
532.271	80957
532.339	110094
532.407	261489
532.475	145958
532.542	91974
532.610	94263
532.678	113139
532.746	335929
532.814	764778
532.881	193801
532.949	80769
533.017	74885
533.084	73369
533.152	70465
533.220	67944
533.287	70256
533.355	61853
533.423	64918
533.490	62839
533.558	66232
533.625	73782
533.693	86953
533.761	74063
533.828	81661
533.896	69438
533.963	103988
534.031	117748
534.098	161973
534.166	102789
534.233	66662
534.300	64773
534.368	72987
534.435	77018
534.503	64708
534.570	61338
534.637	63839
534.705	67417
534.772	71748
534.840	86354
534.907	215107
534.974	257699
535.041	112622
535.109	194952
535.176	84023
535.243	60519
535.310	62786
535.378	60657
535.445	56524
535.512	53243
535.579	62050
535.646	61541
535.714	60621
535.781	63038
535.848	65495
535.915	75690
535.982	69160
536.049	68997
536.116	71616
536.183	71875
536.250	69061
536.317	71639
536.384	82233
536.451	108041
536.518	105137
536.585	91261
536.652	122405
536.719	135341
536.786	112851
536.853	98112
536.920	172096
536.987	237611
537.053	147042
537.120	419139
537.187	310065
537.254	81876
537.321	77757
537.388	72285
537.454	69461
537.521	65562
537.588	61707
537.654	70723
537.721	67011
537.788	67879
537.855	61119
537.921	65076
537.988	68297
538.055	72082
538.121	77751
538.188	74240
538.254	102311
538.321	175189
538.388	106672
538.454	79684
538.521	68165
538.587	59791
538.654	63697
538.720	64244
538.787	66707
538.853	85860
538.920	134402
538.986	155665
539.053	104427
539.119	89836
539.185	75504
539.252	80892
539.318	108165
539.385	86725
539.451	78785
539.517	76701
539.583	91486
539.650	208663
539.716	409588
539.782	107174
539.849	71261
539.915	72261
539.981	71613
540.047	83641
540.114	83498
540.180	84899
540.246	78055
540.312	103475
540.378	198033
540.444	165614
540.510	153998
540.576	361420
540.643	132042
540.709	75713
540.775	73952
540.841	82607
540.907	153882
540.973	230658
541.039	108520
541.105	106278
541.171	73700
541.237	74070
541.303	73951
541.369	78119
541.435	95328
541.500	145854
541.566	96786
541.632	67764
541.698	63107
541.764	66339
541.830	70549
541.896	79171
541.961	71760
542.027	69075
542.093	66011
542.159	71127
542.224	88397
542.290	103711
542.356	153934
542.421	153844
542.487	85952
542.553	84514
542.618	117333
542.684	80616
542.750	80082
542.815	94987
542.881	183361
542.947	372627
543.012	202798
543.078	71098
543.143	69356
543.209	74931
543.274	74044
543.340	78514
543.405	139450
543.471	182210
543.536	72767
543.602	80437
543.667	86385
543.732	66338
543.798	72498
543.863	74437
543.928	64720
543.994	60816
544.059	65150
544.124	56646
544.190	60107
544.255	62444
544.320	61244
544.386	69265
544.451	89184
544.516	96697
544.581	99162
544.646	244275
544.712	288615
544.777	103106
544.842	126478
544.907	158964
544.972	106658
545.037	99649
545.102	112020
545.168	116487
545.233	117100
545.298	122072
545.363	165445
545.428	131780
545.493	169626
545.558	291302
545.623	148970
545.688	119472
545.753	106193
545.818	104812
545.883	106133
545.947	107487
546.012	142554
546.077	149733
546.142	109337
546.207	106336
546.272	123038
546.337	123447
546.401	104589
546.466	107109
546.531	107523
546.596	122177
546.661	108524
546.725	100796
546.790	98161
546.855	103506
546.919	103233
546.984	110471
547.049	133053
547.113	192988
547.178	131826
547.243	158838
547.307	165074
547.372	212804
547.436	267989
547.501	133212
547.565	132471
547.630	147032
547.695	171088
547.759	313958
547.823	212140
547.888	128913
547.952	123127
548.017	135142
548.081	182456
548.146	348351
548.210	238297
548.274	124560
548.339	111786
548.403	110644
548.468	106108
548.532	112515
548.596	119952
548.660	124655
548.725	137429
548.789	210606
548.853	216746
548.917	158022
548.982	320462
549.046	291497
549.110	132635
549.174	125079
549.238	111871
549.303	103535
549.367	111422
549.431	113766
549.495	111108
549.559	111658
549.623	110460
549.687	131368
549.751	160078
549.815	143391
549.879	133837
549.943	124831
550.007	139115
550.071	139511
550.135	149047
550.199	138192
550.263	136144
550.327	189305
550.391	334249
550.455	154131
550.519	133408
550.582	135779
550.646	159555
550.710	162444
550.774	142640
550.838	148759
550.901	160538
550.965	170810
551.029	186957
551.093	221728
551.156	331599
551.220	767829
551.284	696260
551.347	338961
551.411	1016841
551.475	919796
551.538	176777
551.602	144557
551.666	130672
551.729	123604
551.793	127548
551.856	124277
551.920	114502
551.983	117250
552.047	118121
552.110	111358
552.174	113270
552.237	116844
552.301	109991
552.364	110912
552.428	113229
552.491	114188
552.554	109090
552.618	116524
552.681	119747
552.745	123186
552.808	133385
552.871	141052
552.934	120937
552.998	133286
553.061	161631
553.124	122709
553.187	109450
553.251	121925
553.314	123199
553.377	109828
553.440	118525
553.503	124180
553.567	124767
553.630	111879
553.693	115894
553.756	123922
553.819	106856
553.882	117311
553.945	107923
554.008	102325
554.071	105664
554.134	104264
554.197	103756
554.260	94927
554.323	108132
554.386	112073
554.449	112246
554.512	106742
554.575	106671
554.638	122178
554.701	108725
554.764	100160
554.827	104579
554.889	96913
554.952	90954
555.015	95250
555.078	95793
555.141	94417
555.203	90178
555.266	94343
555.329	102282
555.391	90779
555.454	96864
555.517	99237
555.580	91714
555.642	84917
555.705	88311
555.768	91041
555.830	91964
555.893	85882
555.955	89789
556.018	94196
556.080	93586
556.143	89539
556.206	96252
556.268	111422
556.330	107201
556.393	103563
556.455	122269
556.518	270577
556.580	226591
556.643	91436
556.705	89046
556.767	88267
556.830	93194
556.892	95929
556.955	127770
557.017	102569
557.079	91877
557.142	88459
557.204	98454
557.266	160021
557.328	133941
557.391	90050
557.453	86299
557.515	87840
557.577	105067
557.639	100348
557.701	83813
557.764	85011
557.826	96194
557.888	110760
557.950	97477
558.012	93565
558.074	104044
558.136	162134
558.198	295649
558.260	159721
558.322	118596
558.384	107701
558.446	115613
558.508	135167
558.570	164776
558.632	207078
558.694	260009
558.756	221390
558.818	550531
558.880	1250441
558.942	389188
559.003	313133
559.065	170816
559.127	113686
559.189	114871
559.251	120699
559.312	141603
559.374	273165
559.436	803775
559.498	386503
559.559	124783
559.621	117783
559.683	137533
559.744	227390
559.806	499453
559.868	601183
559.929	187464
559.991	153907
560.052	179657
560.114	320458
560.176	217560
560.237	211724
560.299	293875
560.360	129700
560.422	115696
560.483	111928
560.545	109527
560.606	107895
560.667	107484
560.729	106156
560.790	102225
560.852	104694
560.913	105421
560.974	100978
561.036	101823
561.097	101219
561.158	101075
561.220	103164
561.281	103863
561.342	105618
561.403	112771
561.465	127750
561.526	220486
561.587	241163
561.648	114662
561.709	104644
561.771	104325
561.832	103113
561.893	98998
561.954	96437
562.015	94561
562.076	94695
562.137	99583
562.198	100184
562.259	95664
562.320	98967
562.381	101586
562.442	126958
562.503	108872
562.564	96953
562.625	92943
562.686	97145
562.747	107686
562.808	101499
562.869	111043
562.930	149040
562.991	134519
563.051	122352
563.112	111119
563.173	106055
563.234	103331
563.294	99850
563.355	100625
563.416	101469
563.477	102831
563.537	115031
563.598	126468
563.659	112912
563.720	111159
563.780	109910
563.841	111630
563.901	107865
563.962	108212
564.023	112451
564.083	114322
564.144	118278
564.204	121123
564.265	131884
564.325	177243
564.386	444869
564.446	317844
564.507	111872
564.567	104556
564.628	104395
564.688	102897
564.749	113242
564.809	156196
564.869	203654
564.930	112718
564.990	92909
565.050	91589
565.111	92508
565.171	90341
565.231	90298
565.292	86707
565.352	88987
565.412	95404
565.472	101696
565.532	96385
565.593	92788
565.653	88872
565.713	95498
565.773	99001
565.833	107549
565.893	123228
565.953	103767
566.013	101940
566.074	120500
566.134	185510
566.194	380847
566.254	319317
566.314	179115
566.374	107238
566.434	102614
566.494	98865
566.554	94103
566.614	91176
566.673	93258
566.733	101833
566.793	105679
566.853	104281
566.913	98698
566.973	103949
567.033	107465
567.092	108158
567.152	105385
567.212	109501
567.272	122628
567.331	136572
567.391	120052
567.451	136906
567.511	248775
567.570	226634
567.630	102721
567.690	96706
567.749	93697
567.809	92613
567.868	99459
567.928	114225
567.988	142843
568.047	113565
568.107	102011
568.166	103036
568.226	121083
568.285	142213
568.345	123518
568.404	113785
568.464	108690
568.523	106883
568.582	109938
568.642	116160
568.701	125491
568.761	151279
568.820	200719
568.879	215057
568.939	261839
568.998	161638
569.057	113639
569.116	104825
569.176	92853
569.235	89845
569.294	89398
569.353	87941
569.413	94378
569.472	96614
569.531	85520
569.590	86017
569.649	83148
569.708	79561
569.767	88369
569.827	105566
569.886	91035
569.945	81383
570.004	84744
570.063	85864
570.122	93517
570.181	109789
570.240	151318
570.299	132318
570.358	104782
570.417	86545
570.475	80147
570.534	82793
570.593	82597
570.652	91127
570.711	94299
570.770	97319
570.829	115905
570.887	85828
570.946	87956
571.005	80810
571.064	81528
571.122	98355
571.181	135142
571.240	96523
571.299	89698
571.357	114074
571.416	121204
571.475	157210
571.533	151542
571.592	105056
571.650	123539
571.709	84308
571.768	78613
571.826	76298
571.885	75416
571.943	77719
572.002	94490
572.060	99849
572.119	73530
572.177	71380
572.236	67617
572.294	67006
572.352	67924
572.411	67998
572.469	68500
572.528	67088
572.586	70409
572.644	79027
572.703	94121
572.761	79325
572.819	75364
572.877	70527
572.936	66733
572.994	66887
573.052	68153
573.110	71484
573.169	67664
573.227	64787
573.285	64766
573.343	66578
573.401	72345
573.459	68877
573.517	67676
573.576	68763
573.634	68576
573.692	74222
573.750	71214
573.808	76309
573.866	96277
573.924	156518
573.982	135257
574.040	80545
574.098	76289
574.155	67639
574.213	61430
574.271	63138
574.329	62980
574.387	62564
574.445	63019
574.503	59859
574.560	57290
574.618	56107
574.676	55830
574.734	55676
574.792	57896
574.849	56183
574.907	54111
574.965	55219
575.022	54525
575.080	55308
575.138	59407
575.195	62857
575.253	66914
575.311	65645
575.368	56297
575.426	56609
575.483	58187
575.541	57796
575.598	62571
575.656	72427
575.713	67357
575.771	59214
575.828	61454
575.886	65241
575.943	69573
576.001	74695
576.058	77753
576.115	86660
576.173	111591
576.230	121332
576.287	106484
576.345	88284
576.402	80304
576.459	82379
576.517	92562
576.574	108921
576.631	114124
576.688	88860
576.746	76992
576.803	76154
576.860	71206
576.917	71117
576.974	70901
577.031	70158
577.089	75001
577.146	78363
577.203	79141
577.260	86452
577.317	104130
577.374	125680
577.431	107252
577.488	81250
577.545	69872
577.602	67038
577.659	67352
577.716	63176
577.773	62084
577.830	62044
577.886	63789
577.943	63351
578.000	67177
578.057	78847
578.114	70272
578.171	62934
578.227	65559
578.284	67053
578.341	73048
578.398	77765
578.454	90253
578.511	113444
578.568	131495
578.625	100958
578.681	74782
578.738	64537
578.794	65506
578.851	60685
578.908	61978
578.964	65239
579.021	63756
579.077	61429
579.134	59087
579.190	57274
579.247	58039
579.303	59181
579.360	54749
579.416	56040
579.473	55476
579.529	56076
579.586	56242
579.642	60151
579.698	66012
579.755	65169
579.811	59504
579.867	59692
579.924	57968
579.980	58843
580.036	63748
580.093	62464
580.149	65245
580.205	66620
580.261	68315
580.317	76236
580.374	90382
580.430	111947
580.486	102870
580.542	82793
580.598	72579
580.619	71399
580.654	69461
580.692	69378
580.710	69505
580.765	65782
580.767	65772
580.823	66724
580.838	65910
580.879	64108
580.911	61940
580.935	60494
580.984	60505
580.991	60615
581.047	60560
581.057	60924
581.103	62975
581.130	64326
581.159	65940
581.203	67139
581.215	67565
581.270	69029
581.276	68620
581.326	65639
581.349	65853
581.382	66388
581.422	64493
581.438	63797
581.494	67579
581.494	67464
581.550	63572
581.567	63524
581.606	63624
581.640	63293
581.661	63239
581.713	61407
581.717	61328
581.773	57837
581.786	58440
581.829	60685
581.859	60116
581.885	59697
581.932	58829
581.940	58766
581.996	60638
582.004	60187
582.052	57803
582.077	57246
582.107	56808
582.150	58010
582.163	58420
582.219	58841
582.223	58959
582.274	61016
582.296	64869
582.330	71150
582.368	68664
582.386	67635
582.441	56050
582.441	56072
582.497	54351
582.514	54138
582.552	53886
582.587	53800
582.608	53786
582.659	53653
582.663	53671
582.719	55206
582.732	54989
582.774	54403
582.805	55528
582.830	56541
582.877	54926
582.885	54641
582.941	52137
582.950	52111
582.996	52358
583.023	52941
583.052	53514
583.095	52913
583.107	52763
583.162	56842
583.168	56931
583.218	57757
583.240	55906
583.273	53292
583.313	51049
583.328	50202
583.384	51400
583.385	51477
583.439	53644
583.458	52623
583.494	50632
583.531	48905
583.549	48112
583.603	50080
583.605	50123
583.660	47486
583.676	48189
583.715	50035
583.748	51876
583.770	53085
583.820	55562
583.825	55783
583.881	50332
583.893	50125
583.936	49315
583.965	48497
583.991	47775
584.038	48107
584.046	48120
584.101	51922
584.110	51445
584.156	48933
584.183	47800
584.211	46576
584.255	44564
584.266	44013
584.321	42837
584.328	43111
584.376	44765
584.400	44746
584.431	44741
584.472	43730
584.486	43303
584.541	41058
584.545	41101
584.596	41335
584.617	42669
584.651	44833
584.689	46240
584.706	46750
584.761	45372
584.762	45403
584.816	43130
584.834	43188
584.871	43377
584.906	44053
584.926	44230
584.978	43492
584.980	43425
585.035	46051
585.051	46356
585.090	46468
585.123	46933
585.145	47496
585.195	50089
585.200	50244
585.254	50577
585.267	50849
585.309	51418
585.340	53943
585.364	55635
585.412	57179
585.419	57408
585.473	60479
585.484	62232
585.528	70498
585.556	78967
585.583	94304
585.628	129999
585.637	141878
585.692	260492
585.700	282445
585.747	361257
585.772	297746
585.801	189629
585.845	83291
585.856	68955
585.910	52683
585.917	51749
585.965	48891
585.989	47330
586.019	45871
586.061	45736
586.074	45577
586.128	45544
586.133	46083
586.183	50956
586.205	52300
586.237	53695
586.277	54885
586.292	55233
586.346	53702
586.349	53904
586.401	54475
586.421	56511
586.455	59695
586.493	69094
586.509	73381
586.564	105645
586.565	108325
586.618	209813
586.637	184949
586.672	132189
586.709	79252
586.727	54028
586.781	49662
586.781	49495
586.835	44145
586.853	43000
586.889	41353
586.925	40804
586.944	40099
586.996	41027
586.998	40934
587.052	42559
587.068	42358
587.106	41164
587.140	41117
587.161	41076
587.212	42877
587.215	42793
587.269	43698
587.284	43801
587.323	43429
587.356	43296
587.377	42957
587.427	43146
587.431	43020
587.485	43398
587.499	43921
587.539	44321
587.571	44323
587.593	44538
587.643	46726
587.648	46640
587.702	47427
587.715	48356
587.755	51338
587.786	51630
587.810	51087
587.858	48998
587.864	48691
587.917	52328
587.930	53897
587.971	58011
588.001	61329
588.025	63656
588.073	59242
588.079	58515
588.133	59890
588.145	60996
588.187	65046
588.217	68795
588.241	71657
588.288	79676
588.295	80599
588.348	89462
588.360	92275
588.402	102516
588.431	110684
588.456	117827
588.503	135035
588.510	137219
588.564	159539
588.575	165820
588.617	192303
588.646	212346
588.671	233628
588.718	287645
588.725	300519
588.778	426038
588.789	461368
588.832	708419
588.861	912077
588.886	1172591
588.932	1707983
588.939	1736994
588.993	1770007
589.004	1753047
589.047	1293282
589.075	923496
589.100	695368
589.147	385328
589.154	364711
589.207	274350
589.218	260774
589.261	243911
589.290	240512
589.314	249741
589.361	283341
589.368	296407
589.421	432906
589.433	471743
589.475	779515
589.504	1037021
589.528	1243062
589.576	1583851
589.582	1545741
589.635	1008312
589.647	879579
589.689	483078
589.718	269055
589.742	214119
589.790	143568
589.795	139199
589.849	116268
589.861	117178
589.902	124199
589.932	107124
589.955	92486
590.004	65035
590.009	62291
590.062	55166
590.075	53891
590.115	49729
590.146	47518
590.168	46037
590.218	44883
590.222	44418
590.275	42686
590.289	42886
590.328	42965
590.360	40968
590.381	38825
590.431	36723
590.435	36310
590.488	35412
590.503	35554
590.541	34376
590.574	33554
590.594	33166
590.645	33519
590.647	33166
590.700	31417
590.716	31166
590.753	30227
590.787	30267
590.806	29659
590.859	29346
590.859	29049
590.912	28206
590.930	28287
590.965	27601
591.001	27729
591.018	27426
591.071	26899
591.072	27184
591.124	25714
591.143	25661
591.177	25717
591.214	26132
591.230	25891
591.283	26403
591.285	26744
591.336	26692
591.356	27059
591.389	26395
591.427	25776
591.442	25141
591.495	24356
591.498	24639
591.547	23425
591.569	23245
591.600	22631
591.640	22705
591.653	22413
591.706	22863
591.711	23284
591.759	24137
591.782	25998
591.811	27091
591.853	28112
591.864	27243
591.917	23146
591.924	23243
591.969	21740
591.995	21683
592.022	21402
592.066	21958
592.075	21830
592.127	23923
592.137	25155
592.180	26890
592.208	27136
592.233	24607
592.279	21129
592.285	20542
592.338	20489
592.350	20839
592.390	19022
592.421	18318
592.443	18467
592.491	19899
592.495	19500
592.548	18685
592.562	18811
592.600	18224
592.633	18374
592.653	17769
592.704	17048
592.705	17169
592.775	18866
592.846	18229
592.916	18859
592.987	19546
593.058	19140
593.128	18094
593.199	18636
593.270	18284
593.341	17503
593.411	18756
593.482	18844
593.553	19872
593.623	19258
593.694	20859
593.764	21818
593.835	20482
593.906	20819
593.976	20273
594.047	21069
594.117	23462
594.188	23598
594.258	22087
594.329	21245
594.399	21141
594.470	22623
594.540	23255
594.611	23465
594.681	23094
594.751	23736
594.822	25883
594.892	25953
594.963	25867
595.033	26908
595.103	26074
595.174	28690
595.244	33490
595.314	37050
595.384	28977
595.455	28572
595.525	29148
595.595	31475
595.665	31256
595.736	30843
595.806	29693
595.876	31189
595.946	31122
596.016	31576
596.087	32975
596.157	32760
596.227	31858
596.297	34733
596.367	37631
596.437	40001
596.507	43478
596.577	46437
596.647	41372
596.717	41857
596.787	42053
596.857	41980
596.927	41402
596.997	42196
597.067	41655
597.137	43588
597.207	44549
597.277	44687
597.347	42263
597.417	40891
597.487	41598
597.557	42739
597.626	42549
597.696	46060
597.766	46745
597.836	47958
597.906	39566
597.975	38481
598.045	37304
598.115	39476
598.185	42396
598.254	48853
598.324	52687
598.394	52048
598.464	51394
598.533	49415
598.603	46502
598.672	45446
598.742	46688
598.812	46368
598.881	47274
598.951	46366
599.020	48186
599.090	50056
599.159	49343
599.229	47824
599.299	45957
599.368	47889
599.437	47555
599.507	42696
599.576	42069
599.646	41408
599.715	41106
599.785	40685
599.854	40296
599.924	40760
599.993	39918
600.062	39638
600.132	40367
600.201	42822
600.270	51720
600.340	52488
600.409	50655
600.478	50394
600.547	51893
600.617	47112
600.686	36930
600.755	34190
600.824	32062
600.894	31044
600.963	30202
601.032	30439
601.101	28511
601.170	28149
601.239	27339
601.308	28156
601.378	27459
601.447	27288
601.516	25758
601.585	27626
601.654	28782
601.723	28808
601.792	27771
601.861	30233
601.930	31128
601.999	32062
602.068	30160
602.137	32503
602.206	32107
602.275	32929
602.343	34491
602.412	34524
602.481	32081
602.550	32975
602.619	33934
602.688	34545
602.756	34397
602.825	33571
602.894	35201
602.963	36529
603.032	36249
603.100	35151
603.169	36301
603.238	36998
603.307	37456
603.375	38059
603.444	38635
603.513	39957
603.581	39466
603.650	40171
603.719	40148
603.787	42207
603.856	43081
603.924	44175
603.993	45973
604.061	47060
604.130	49489
604.198	50224
604.267	51203
604.335	51485
604.404	51501
604.472	52694
604.541	52963
604.609	53810
604.678	53269
604.746	52157
604.815	56120
604.883	57386
604.951	56520
605.020	57991
605.088	59604
605.156	60780
605.225	62128
605.293	62323
605.361	61827
605.429	63021
605.498	64635
605.566	65687
605.634	69519
605.702	72107
605.771	74840
605.839	74762
605.907	73486
605.975	69717
606.043	68561
606.111	68735
606.180	67706
606.248	66752
606.316	67357
606.384	66923
606.452	69592
606.520	74129
606.588	72627
606.656	73606
606.724	70438
606.792	66499
606.860	58810
606.928	54597
606.996	52921
607.064	51806
607.132	52095
607.200	55988
607.267	58120
607.335	59861
607.403	60504
607.471	57661
607.539	56896
607.607	58197
607.674	49900
607.742	50919
607.810	50763
607.878	50081
607.946	50035
608.013	54010
608.081	55909
608.149	56118
608.216	56722
608.284	60078
608.352	57943
608.419	57723
608.487	61225
608.555	56054
608.622	59471
608.690	62613
608.757	67279
608.825	70250
608.893	68211
608.960	68145
609.028	66342
609.095	66711
609.163	61138
609.230	55057
609.298	50043
609.365	52527
609.432	55585
609.500	61655
609.567	71335
609.635	82937
609.702	85787
609.769	83191
609.837	63976
609.904	54447
609.971	55846
610.039	65599
610.106	90219
610.173	188388
610.241	441556
610.308	196553
610.375	69751
610.442	58486
610.509	55405
610.577	56582
610.644	56704
610.711	58605
610.778	59603
610.845	63097
610.912	66603
610.980	69250
611.047	70117
611.114	69340
611.181	65265
611.248	65446
611.315	70572
611.382	69672
611.449	73806
611.516	75917
611.583	74821
611.650	74870
611.717	76104
611.784	79384
611.851	82642
611.918	93096
611.984	110135
612.051	176129
612.118	393815
612.185	1021168
612.252	508848
612.319	119187
612.386	99937
612.452	90939
612.519	86313
612.586	87533
612.653	87574
612.719	88707
612.786	85641
612.853	77255
612.919	76967
612.986	78729
613.053	72640
613.120	68614
613.186	65364
613.253	67549
613.319	65769
613.386	66888
613.453	68494
613.519	69895
613.586	71110
613.652	73639
613.719	70710
613.785	70004
613.852	68606
613.918	68089
613.985	69853
614.051	72744
614.118	76700
614.184	72116
614.250	67731
614.317	69633
614.383	66145
614.449	69544
614.516	68622
614.582	69661
614.648	68026
614.715	68125
614.781	66508
614.847	68134
614.914	65712
614.980	63774
615.046	64249
615.112	67385
615.179	66292
615.245	67886
615.311	68206
615.377	75443
615.443	75158
615.509	71198
615.575	73204
615.642	71711
615.708	74316
615.774	79221
615.840	85372
615.906	97179
615.972	129544
616.038	222186
616.104	510269
616.170	1298717
616.236	909258
616.302	175396
616.368	129718
616.434	91502
616.500	87586
616.565	99657
616.631	123415
616.697	94163
616.763	104164
616.829	168901
616.895	305307
616.961	256230
617.026	96348
617.092	72671
617.158	70037
617.224	68273
617.289	62866
617.355	59195
617.421	58998
617.487	60006
617.552	55037
617.618	53493
617.684	53049
617.749	56613
617.815	51628
617.880	51180
617.946	50827
618.012	53191
618.077	53276
618.143	52069
618.208	53264
618.274	56132
618.339	57043
618.405	45794
618.470	46866
618.536	46470
618.601	46652
618.667	42445
618.732	39192
618.798	39284
618.863	38228
618.928	38140
618.994	39885
619.059	40919
619.124	44566
619.190	40450
619.255	38420
619.320	39019
619.386	38235
619.451	37543
619.516	37131
619.581	37228
619.647	38662
619.712	38936
619.777	36573
619.842	36470
619.907	38661
619.972	38515
620.038	38271
620.103	36003
620.168	35655
620.233	37746
620.298	37636
620.363	38152
620.428	39332
620.493	40057
620.558	40035
620.623	40975
620.688	40200
620.753	40671
620.818	39948
620.883	41507
620.948	40701
621.013	41691
621.078	39874
621.143	40299
621.207	43636
621.272	42212
621.337	40178
621.402	40662
621.467	42494
621.532	43270
621.596	40675
621.661	38733
621.726	36962
621.791	38017
621.855	38739
621.920	39287
621.985	39074
622.049	42533
622.114	40676
622.179	42190
622.243	41074
622.308	41667
622.373	46645
622.437	43167
622.502	40864
622.566	40680
622.631	39410
622.695	41656
622.760	40988
622.824	41268
622.889	40703
622.953	42280
623.018	50726
623.082	49309
623.147	44101
623.211	43498
623.276	42187
623.340	40091
623.404	37824
623.469	38584
623.533	38900
623.597	37432
623.662	38064
623.726	34165
623.790	32258
623.854	31719
623.919	32794
623.983	32441
624.047	33738
624.111	33566
624.176	35165
624.240	37804
624.304	40160
624.368	34856
624.432	36215
624.496	36790
624.560	39154
624.625	40608
624.689	37573
624.753	39402
624.817	38063
624.881	36579
624.945	32474
625.009	30866
625.073	33381
625.137	35137
625.201	39163
625.265	38267
625.329	34160
625.393	34949
625.456	34546
625.520	36350
625.584	37691
625.648	41984
625.712	49051
625.776	70555
625.839	70498
625.903	39622
625.967	29817
626.031	40931
626.095	54072
626.158	35946
626.222	25222
626.286	25120
626.349	22207
626.413	20221
626.477	23121
626.540	22127
626.604	21528
626.668	22522
626.731	21254
626.795	21378
626.858	22286
626.922	20904
626.986	20929
627.049	19330
627.113	22742
627.176	20628
627.240	21141
627.303	20979
627.366	19879
627.430	20827
627.493	21021
627.557	20147
627.620	21592
627.684	22094
627.747	22106
627.810	17703
627.874	18106
627.937	16442
628.000	20278
628.064	18389
628.127	14520
628.190	16466
628.253	15711
628.317	14722
628.380	14522
628.443	14134
628.506	13981
628.569	13427
628.632	11862
628.696	12531
628.759	10944
628.822	11222
628.885	11585
628.948	12168
629.011	11436
629.074	11309
629.137	9470
629.200	10769
629.263	13237
629.326	10098
629.389	9728
629.452	11407
629.515	10545
629.578	11674
629.641	11037
629.704	11018
629.767	10407
629.830	10483
629.892	8976
629.955	8947
630.018	12653
630.081	10450
630.144	13252
630.207	10206
630.269	12409
630.332	9592
630.395	9881
630.458	9688
630.520	8481
630.583	11359
630.646	9457
630.708	9836
630.771	9276
630.834	10962
630.896	8988
630.959	9470
631.021	8321
631.084	10209
631.146	10056
631.209	11624
631.272	9443
631.334	10186
631.397	9675
631.459	9694
631.522	11270
631.584	12203
631.646	12456
631.709	13556
631.771	14230
631.834	13651
631.896	11948
631.958	9890
632.021	10480
632.083	9043
632.145	10550
632.208	9157
632.270	10369
632.332	8508
632.395	8220
632.457	10167
632.519	8521
632.581	10383
632.643	7995
632.706	9960
632.768	7948
632.830	9453
632.892	8811
632.954	8578
633.016	10001
633.078	9092
633.141	8486
633.203	9439
633.265	8909
633.327	9820
633.389	8542
633.451	10451
633.513	9853
633.575	11037
633.637	10867
633.698	9642
633.760	9642
633.822	11006
633.884	9948
633.946	11757
634.008	10051
634.070	12519
634.132	12580
634.193	13830
634.255	15674
634.317	17038
634.379	17085
634.441	14249
634.502	11965
634.564	11956
634.626	10742
634.687	10884
634.749	9136
634.811	9230
634.873	7610
634.934	9041
634.996	8819
635.057	7537
635.119	7794
635.181	9099
635.242	9085
635.304	7289
635.365	10932
635.427	8021
635.488	8380
635.550	8031
635.611	9964
635.673	7716
635.734	11842
635.796	10077
635.857	12808
635.918	12631
635.980	16418
636.041	15467
636.102	18131
636.164	18108
636.225	17909
636.286	12901
636.348	12350
636.409	10745
636.470	9150
636.531	9514
636.593	9049
636.654	9571
636.715	7576
636.776	7552
636.838	6904
636.899	8303
636.960	6680
637.021	7488
637.082	6822
637.143	7887
637.204	6689
637.265	6899
637.326	7010
637.387	7589
637.448	5963
637.509	7962
637.570	6661
637.631	7642
637.692	5087
637.753	5048
637.814	6404
637.875	6230
637.936	6443
637.997	5669
638.058	5147
638.119	7935
638.179	6198
638.240	5753
638.301	5813
638.362	4266
638.423	5378
638.483	7013
638.544	3516
638.605	6535
638.666	4564
638.726	5760
638.787	5623
638.848	5754
638.908	5429
638.969	5071
639.030	4624
639.090	4059
639.151	5157
639.211	6629
639.272	6046
639.332	9347
639.393	6582
639.453	6456
639.514	7166
639.574	5476
639.635	4461
639.695	4936
639.756	4728
639.816	4946
639.877	5445
639.937	10111
639.997	10700
640.058	4988
640.118	4169
640.178	5988
640.239	4330
640.299	4926
640.359	4331
640.420	5290
640.480	7287
640.540	8281
640.600	6896
640.661	6340
640.721	5336
640.781	8208
640.841	3088
640.901	5860
640.961	5292
641.021	6890
641.082	6099
641.142	7631
641.202	5800
641.262	2843
641.322	4787
641.382	2839
641.442	4603
641.502	4438
641.562	6005
641.622	4325
641.682	6226
641.742	6694
641.802	5490
641.861	5782
641.921	4185
641.981	5819
642.041	5544
642.101	6636
642.161	3017
642.221	4306
642.280	4203
642.340	3558
642.400	3388
642.460	5305
642.519	3067
642.579	3946
642.639	5649
642.698	2063
642.758	6763
642.818	4237
642.877	3553
642.937	5092
642.997	5497
643.056	6963
643.116	3270
643.175	5698
643.235	4086
643.294	5369
643.354	5819
643.414	6889
643.473	10037
643.532	13040
643.592	20296
643.651	38317
643.711	72899
643.770	160372
643.830	416874
643.889	827554
643.948	140079
644.008	22356
644.067	12678
644.126	9372
644.186	7855
644.245	7243
644.304	4339
644.363	6750
644.423	4073
644.482	5755
644.541	5712
644.600	4677
644.659	8318
644.719	10235
644.778	18945
644.837	33843
644.896	77848
644.955	175166
645.014	44052
645.073	9302
645.132	5484
645.191	6189
645.250	5124
645.309	6166
645.368	5641
645.427	9781
645.486	16832
645.545	29701
645.604	7310
645.663	5141
645.722	4857
645.781	6312
645.840	8641
645.898	11082
645.957	18398
646.016	33257
646.075	66651
646.134	139243
646.192	417412
646.251	534645
646.310	56644
646.369	16036
646.427	12089
646.486	7713
646.545	5831
646.603	6200
646.662	4671
646.721	5775
646.779	3217
646.838	4418
646.896	6584
646.955	9955
647.014	18611
647.072	38042
647.131	109347
647.189	41587
647.248	4877
647.306	5350
647.365	4076
647.423	2069
647.481	3924
647.540	1422
647.598	2952
647.657	2446
647.715	3875
647.773	1511
647.832	3248
647.890	1771
647.948	1899
648.007	3516
648.065	1876
648.123	2443
648.181	3298
648.240	2640
648.298	950
648.356	2262
648.414	2673
648.472	2604
648.531	1914
648.589	2145
648.647	2174
648.705	1752
648.763	1615
648.821	1518
648.879	2350
648.937	3876
648.995	5368
649.053	7707
649.111	13391
649.169	25798
649.227	49093
649.285	114498
649.343	330868
649.401	121508
649.459	19121
649.516	11286
649.574	4774
649.632	8672
649.690	8686
649.748	9320
649.806	11407
649.863	25658
649.921	75355
649.979	39464
650.037	4577
650.094	1888
650.152	2699
650.210	2045
650.268	1665
650.325	1655
650.383	1428
650.440	1180
650.498	1813
650.556	1531
650.613	653
650.671	1617
650.728	1458
650.786	2418
650.843	3493
650.901	647
650.958	1723
651.016	1258
651.073	680
651.131	630
651.188	186
651.246	925
651.303	664
651.360	975
651.418	868
651.475	1982
651.532	-64
651.590	1884
651.647	476
651.704	827
651.762	119
651.819	1585
651.876	828
651.933	602
651.990	1434
652.048	-233
652.105	733
652.162	2151
652.219	286
652.276	1451
652.333	638
652.390	353
652.448	851
652.505	1415
652.562	1197
652.619	1369
652.676	1160
652.733	1646
652.790	1222
652.847	186
652.904	759
652.961	-241
653.017	30
653.074	1689
653.131	1186
653.188	499
653.245	236
653.302	731
653.359	530
653.415	1391
653.472	1186
653.529	1318
653.586	-322
653.642	1111
653.699	1331
653.756	-695
653.813	353
653.869	1598
653.926	502
653.983	1039
654.039	1110
654.096	1354
654.152	1690
654.209	-269
654.266	1041
654.322	548
654.379	1488
654.435	2131
654.492	1110
654.548	1591
654.605	3776
654.661	2307
654.717	1056
654.774	1540
654.830	1391
654.887	1265
654.943	988
655.000	539
655.056	709
655.112	1579
655.168	254
655.225	504
655.281	1561
655.337	2672
655.394	3514
655.450	3817
655.506	2350
655.562	5420
655.618	4260
655.675	424
655.731	559
655.787	1079
655.843	1994
655.899	409
655.955	1206
656.011	1012
656.067	-2
656.123	2371
656.179	1723
656.235	1571
656.291	273
656.347	2107
656.403	458
656.459	779
656.515	2355
656.571	2090
656.627	1119
656.683	1400
656.739	911
656.795	1258
656.850	744
656.906	2616
656.962	1612
657.018	721
657.074	1335
657.129	1684
657.185	3606
657.241	7838
657.297	3318
657.352	531
657.408	1172
657.464	2223
657.519	755
657.575	400
657.630	2
657.686	1202
657.742	41
657.797	1050
657.853	249
657.908	1637
657.964	-8
658.019	1197
658.075	1653
658.130	1327
658.186	-171
658.241	921
658.297	-126
658.352	902
658.407	116
658.463	151
658.518	883
658.573	439
658.629	-121
658.684	669
658.739	1209
658.795	780
658.850	382
658.905	239
658.960	520
659.016	286
659.071	602
659.126	82
659.181	865
659.236	2726
659.291	2969
659.346	231
659.401	845
659.457	1556
659.512	312
659.567	2155
659.622	1288
659.677	1021
659.732	692
659.787	1495
659.842	875
659.897	2358
659.952	713
660.007	1221
660.061	876
660.116	1208
660.171	1029
660.226	916
660.281	1328
660.336	282
660.391	1586
660.445	364
660.500	512
660.555	1332
660.610	60
660.664	1641
660.719	200
660.774	1700
660.828	351
660.883	651
660.938	1300
660.992	-159
661.047	1493
661.101	1218
661.156	817
661.211	680
661.265	1215
661.320	353
661.374	1357
661.429	902
661.483	1569
661.538	769
661.592	1377
661.647	950
661.701	1527
661.755	1256
661.810	2169
661.864	1421
661.919	1179
661.973	2128
662.027	1171
662.081	1201
662.136	1043
662.190	1288
662.244	1655
662.299	1546
662.353	1939
662.407	777
662.461	1246
662.515	1724
662.569	1862
662.624	3073
662.678	1941
662.732	2006
662.786	1376
662.840	1679
662.894	1717
662.948	1989
663.002	682
663.056	1556
663.110	540
663.164	1677
663.218	1787
663.272	2142
663.326	1618
663.380	2093
663.434	2437
663.488	2197
663.542	2150
663.595	2178
663.649	1679
663.703	2809
663.757	974
663.811	1105
663.864	1476
663.918	1888
663.972	1416
664.026	1880
664.079	1846
664.133	2923
664.187	1476
664.240	2211
664.294	2014
664.348	1719
664.401	1826
664.455	1514
664.508	1974
664.562	1832
664.615	2328
664.669	1555
664.722	2618
664.776	1939
664.829	1859
664.883	1935
664.936	1161
664.990	3070
665.043	2750
665.097	3104
665.150	3856
665.203	3214
665.257	2307
665.310	3639
665.363	3105
665.417	3025
665.470	3010
665.523	2311
665.576	3238
665.630	2952
665.683	2960
665.736	3922
665.789	2545
665.842	3319
665.895	3695
665.949	3411
666.002	3085
666.055	3453
666.108	4229
666.161	3603
666.214	4086
666.267	4047
666.320	3593
666.373	4084
666.426	3820
666.479	3431
666.532	3822
666.585	5340
666.638	5920
666.691	4840
666.744	5008
666.796	6388
666.849	5022
666.902	4230
666.955	3782
667.008	3617
667.060	3258
667.113	3278
667.166	2889
667.219	3712
667.271	3547
667.324	3396
667.377	4334
667.430	3726
667.482	2491
667.535	3676
667.587	4450
667.640	4360
667.693	4981
667.745	7078
667.798	6488
667.850	5324
667.903	4291
667.955	5064
668.008	4525
668.060	5358
668.113	5553
668.165	5969
668.218	5871
668.270	5626
668.322	4537
668.375	4990
668.427	5330
668.479	4839
668.532	4987
668.584	6303
668.636	5036
668.689	5138
668.741	5029
668.793	5691
668.845	5628
668.898	5190
668.950	5469
669.002	5317
669.054	5346
669.106	5904
669.158	5526
669.211	6197
669.263	5568
669.315	6558
669.367	6248
669.419	5369
669.471	6353
669.523	6239
669.575	7747
669.627	6598
669.679	5458
669.731	6509
669.783	5446
669.835	6737
669.886	5677
669.938	5871
669.990	5559
670.042	5513
670.094	5975
670.146	5371
670.197	5237
670.249	6595
670.301	6300
670.353	6829
670.404	5759
670.456	6936
670.508	8590
670.560	10779
670.611	14466
670.663	21703
670.715	48685
670.766	67335
670.818	19556
670.869	7466
670.921	6173
670.972	6709
671.024	6351
671.075	6443
671.127	6945
671.178	7074
671.230	6421
671.281	7856
671.333	6285
671.384	8240
671.436	8882
671.487	10484
671.538	11553
671.590	15662
671.641	22242
671.692	35228
671.744	58191
671.795	31479
671.846	13743
671.897	10737
671.949	10582
672.000	9031
672.051	8483
672.102	9807
672.153	8342
672.204	9244
672.256	8351
672.307	8909
672.358	8983
672.409	9173
672.460	7836
672.511	7917
672.562	7485
672.613	7797
672.664	7452
672.715	8970
672.766	8157
672.817	8117
672.868	7828
672.919	8381
672.970	8012
673.021	7510
673.071	7630
673.122	8522
673.173	7549
673.224	8221
673.275	7544
673.326	7781
673.376	7397
673.427	7285
673.478	7826
673.528	8232
673.579	6556
673.630	7710
673.680	8473
673.731	9331
673.782	6422
673.832	8765
673.883	9209
673.934	8565
673.984	7369
674.035	8356
674.085	7898
674.136	8150
674.186	8972
674.237	10566
674.287	19740
674.338	13975
674.388	9127
674.438	8296
674.489	8793
674.539	10657
674.589	9022
674.640	10177
674.690	9216
674.740	10194
674.791	10928
674.841	10667
674.891	10235
674.942	10356
674.992	9465
675.042	9561
675.092	8981
675.142	9807
675.193	9424
675.243	9083
675.293	10471
675.343	9866
675.393	9277
675.443	9857
675.493	8412
675.543	7756
675.593	10401
675.643	8688
675.693	8837
675.743	9352
675.793	8656
675.843	8092
675.893	9314
675.943	8891
675.993	7526
676.043	9514
676.093	8693
676.142	8934
676.192	8382
676.242	9586
676.292	8562
676.341	8988
676.391	11087
676.441	8054
676.491	7417
676.540	8550
676.590	8101
676.640	8643
676.689	8865
676.739	7280
676.789	8432
676.838	8655
676.888	9369
676.937	8453
676.987	8621
677.037	7541
677.086	7783
677.136	9426
677.185	9117
677.235	7346
677.284	7761
677.333	7733
677.383	8363
677.432	6992
677.482	7868
677.531	8802
677.580	8598
677.630	8479
677.679	6972
677.728	9268
677.778	8934
677.827	7947
677.876	7600
677.925	8022
677.975	6374
678.024	9139
678.073	7961
678.122	10378
678.171	9987
678.220	9549
678.269	11307
678.319	12097
678.368	10200
678.417	10378
678.466	9620
678.515	10825
678.564	10926
678.613	9651
678.662	9197
678.711	10731
678.760	8953
678.809	8874
678.857	9204
678.906	10565
678.955	10433
679.004	9792
679.053	9172
679.102	9611
679.151	9640
679.199	9780
679.248	8601
679.297	9912
679.346	11182
679.394	10806
679.443	9518
679.492	9499
679.540	8964
679.589	10967
679.638	10991
679.686	8961
679.735	8151
679.784	10497
679.832	11139
679.881	9045
679.929	8184
679.978	8068
680.026	7842
680.075	9894
680.123	8358
680.172	9286
680.220	7577
680.268	9450
680.317	8523
680.365	8490
680.414	7311
680.462	8841
680.510	9123
680.559	8341
680.607	8595
680.655	8151
680.703	8883
680.752	9675
680.800	8149
680.848	8440
680.896	7929
680.945	7820
680.993	8990
681.041	9143
681.089	8192
681.137	7260
681.185	7405
681.233	8232
681.258	8592
681.281	8922
681.329	8195
681.377	8658
681.380	8651
681.425	8369
681.473	9675
681.502	10088
681.521	10345
681.569	9697
681.617	8916
681.624	8977
681.665	9320
681.713	9645
681.745	8726
681.761	8264
681.809	8931
681.857	8653
681.867	8748
681.904	9062
681.952	8809
681.989	9035
682.000	9092
682.048	9038
682.096	8524
682.111	8683
682.143	8972
682.191	9091
682.233	9579
682.239	9642
682.286	9353
682.334	7850
682.354	8085
682.382	8382
682.430	8116
682.476	9335
682.477	9353
682.525	8172
682.572	8143
682.598	8352
682.620	8512
682.667	8038
682.715	8687
682.720	8792
682.763	9719
682.810	8350
682.841	8316
682.857	8277
682.905	8603
682.952	8472
682.963	8664
683.000	9257
683.047	9550
683.085	9036
683.095	8884
683.142	8400
683.190	7294
683.206	7657
683.237	8307
683.284	8106
683.328	8171
683.332	8171
683.379	8517
683.426	8449
683.449	8148
683.473	7822
683.521	8434
683.568	8353
683.571	8391
683.615	8764
683.662	8132
683.693	8500
683.709	8667
683.757	8070
683.804	7518
683.814	7772
683.851	8695
683.898	8444
683.936	7752
683.945	7570
683.992	8645
684.039	8407
684.057	8449
684.086	8540
684.133	7789
684.179	8443
684.180	8451
684.227	8936
684.274	8485
684.300	8504
684.321	8536
684.368	8036
684.415	8572
684.422	8483
684.462	7903
684.509	7516
684.543	7907
684.556	8058
684.603	7635
684.649	7952
684.665	8201
684.696	8672
684.743	8697
684.786	8448
684.790	8432
684.837	8386
684.883	9445
684.908	10161
684.930	10721
684.977	10754
685.023	9913
685.029	9756
685.070	8504
685.117	8377
685.150	8375
685.164	8425
685.210	10708
685.257	11163
685.272	10843
685.303	10027
685.350	9209
685.393	9645
685.396	9680
685.443	8725
685.490	10271
685.514	10171
685.536	10060
685.583	9844
685.629	10056
685.636	9934
685.675	9147
685.722	9045
685.757	9637
685.768	9850
685.815	10204
685.861	10106
685.878	9947
685.908	9703
685.954	9624
686.000	10590
686.000	10605
686.047	11443
686.093	14413
686.121	14293
686.139	13916
686.185	10498
686.232	9882
686.242	9736
686.278	9504
686.324	10609
686.363	9094
686.370	8809
686.416	8954
686.463	9821
686.484	9359
686.509	8999
686.555	8725
686.601	9505
686.606	9521
686.647	9444
686.693	9052
686.727	8477
686.739	8320
686.785	9346
686.831	9165
686.848	9210
686.877	9068
686.923	8344
686.969	8555
686.969	8557
687.015	8724
687.061	9206
687.090	9241
687.107	9124
687.153	8829
687.199	8300
687.211	8052
687.245	7717
687.291	8513
687.332	9948
687.336	10069
687.382	10550
687.428	9661
687.453	8877
687.474	8125
687.520	8775
687.565	8117
687.574	8082
687.611	8205
687.657	7701
687.695	8457
687.702	8620
687.748	9002
687.794	9274
687.816	9242
687.839	8958
687.885	8332
687.931	7190
687.937	7357
687.976	8633
688.022	8103
688.058	8766
688.067	8900
688.113	9011
688.158	8149
688.179	8044
688.204	7998
688.249	8560
688.295	9152
688.300	9166
688.340	9261
688.386	9829
688.421	9131
688.431	8917
688.477	9093
688.522	8844
688.542	8739
688.567	8581
688.613	8658
688.658	8121
688.663	8183
688.703	8947
688.749	8883
688.784	9257
688.794	9274
688.839	8951
688.884	8471
688.905	7976
688.930	7571
688.975	8084
689.020	8381
689.026	8473
689.065	9064
689.110	8099
689.146	8365
689.155	8447
689.201	7938
689.246	8033
689.267	8358
689.291	8645
689.336	8226
689.381	8230
689.388	8233
689.426	8394
689.471	8506
689.509	8543
689.516	8534
689.561	8291
689.606	8027
689.630	8101
689.651	8256
689.696	8007
689.741	7891
689.750	8044
689.785	8466
689.830	7931
689.871	7527
689.875	7513
689.920	7442
689.965	8384
689.992	8081
690.010	7768
690.054	7746
690.099	7910
690.112	7839
690.144	8064
690.189	7662
690.233	8091
690.233	8098
690.278	8075
690.323	8113
690.354	7494
690.367	7473
690.412	8252
690.457	8783
690.474	8947
690.501	8747
690.546	7929
690.590	7631
690.595	7590
690.635	7863
690.680	7635
690.716	8177
690.724	8215
690.769	8224
690.813	7909
690.836	7602
690.857	7568
690.902	7792
690.946	8121
690.957	8202
690.991	8348
691.035	8371
691.077	8237
691.080	8247
691.124	8459
691.168	9136
691.198	9328
691.213	9367
691.257	10015
691.301	8996
691.318	8928
691.346	8685
691.390	8199
691.434	7359
691.439	7388
691.478	8147
691.522	8475
691.559	8586
691.567	8604
691.611	9029
691.655	8585
691.680	8713
691.699	8718
691.743	8755
691.787	8189
691.800	8220
691.831	8659
691.875	8862
691.919	9802
691.921	9791
691.964	9430
692.008	9373
692.041	9432
692.052	9491
692.096	9345
692.139	9415
692.162	9339
692.183	9146
692.227	9219
692.271	9161
692.282	8988
692.315	8587
692.359	8924
692.402	8976
692.403	8988
692.447	8567
692.490	8402
692.523	8712
692.534	8906
692.578	9318
692.622	9500
692.643	9438
692.666	9052
692.709	8748
692.753	8238
692.763	8133
692.797	8313
692.840	8237
692.884	8804
692.884	8818
692.928	8552
692.971	8558
693.004	8479
693.015	8532
693.059	8863
693.102	8562
693.124	8681
693.146	8830
693.189	8939
693.233	9123
693.245	9183
693.276	9294
693.320	9105
693.363	8767
693.365	8759
693.407	8914
693.450	9125
693.485	8870
693.493	8878
693.537	9014
693.580	9146
693.605	9382
693.624	9400
693.667	9168
693.710	8655
693.725	8598
693.753	9140
693.797	10050
693.840	10580
693.845	10668
693.883	10371
693.926	9687
693.966	9079
693.970	9046
694.013	8621
694.056	8167
694.086	7952
694.099	8044
694.142	8567
694.185	8677
694.206	8555
694.229	8586
694.272	9151
694.315	9679
694.326	9781
694.358	9846
694.401	9604
694.444	9834
694.446	9806
694.487	9547
694.530	9701
694.566	9622
694.573	9567
694.616	8999
694.659	8469
694.686	8198
694.702	8197
694.745	7891
694.787	8235
694.806	8069
694.830	7859
694.873	8037
694.916	7753
694.926	7692
694.959	8000
695.002	8415
695.044	8808
695.046	8807
695.087	8823
695.130	9021
695.166	9059
695.172	9071
695.215	8986
695.258	8814
695.286	8861
695.301	8897
695.343	8650
695.386	8632
695.406	8553
695.428	8582
695.471	8590
695.514	8636
695.526	8644
695.556	8817
695.599	8997
695.641	9106
695.646	9111
695.684	9084
695.726	8854
695.766	8907
695.769	8949
695.811	9204
695.854	9361
695.886	9448
695.896	9391
695.938	8831
695.981	8631
696.005	8538
696.023	8688
696.065	8821
696.108	9076
696.125	9142
696.150	9192
696.192	9298
696.235	9098
696.245	9093
696.277	9231
696.319	9341
696.361	9419
696.365	9412
696.404	9331
696.446	9153
696.485	8970
696.488	8993
696.530	8978
696.572	9156
696.604	9068
696.614	9030
696.656	8961
696.698	8621
696.724	8629
696.740	8693
696.783	8505
696.825	8545
696.844	8475
696.867	8742
696.909	9406
696.951	9781
696.964	9911
696.992	9664
697.034	9204
697.076	8905
697.083	8808
697.118	8995
697.160	9355
697.202	9484
697.203	9470
697.244	9211
697.286	8801
697.323	8447
697.327	8515
697.369	8887
697.411	9367
697.442	9693
697.453	9776
697.494	10016
697.536	10228
697.562	10296
697.578	10376
697.620	10570
697.661	10807
697.682	10863
697.703	10687
697.744	10372
697.786	10048
697.801	9880
697.828	9982
697.869	10084
697.911	10279
697.921	10279
697.952	10001
697.994	9708
698.035	9361
698.040	9295
698.077	9336
698.118	9358
698.160	9340
698.160	9314
698.201	9392
698.243	9429
698.279	9469
698.284	9519
698.325	9741
698.367	9949
698.399	10106
698.408	10131
698.449	10101
698.491	10074
698.518	10063
698.532	10161
698.573	10396
698.614	10562
698.638	10647
698.656	10634
698.697	10528
698.738	10429
698.757	10359
698.779	10320
698.820	10215
698.862	10067
698.877	9996
698.903	10369
698.944	10921
698.985	11474
698.996	11600
699.026	11306
699.067	10865
699.116	10315
699.235	9876
699.354	10360
699.474	9385
699.593	11857
699.713	11527
699.832	10957
699.951	9840
700.070	11051
700.190	10408
700.309	10402
700.428	11391
700.547	10226
700.667	9966
700.786	11086
700.905	9900
701.024	10332
701.143	9151
701.262	8789
701.381	9425
701.500	8787
701.619	9372
701.738	9323
701.857	8431
701.976	8628
702.095	8940
702.214	10064
702.333	9011
702.452	8979
702.571	9547
702.690	9221
702.809	8433
702.928	8819
703.047	8738
703.165	8363
703.284	8882
703.403	9036
703.522	9450
703.640	9937
703.759	11715
703.878	14310
703.997	8911
704.115	9585
704.234	7939
704.353	8361
704.471	7086
704.590	6181
704.708	7547
704.827	7754
704.946	8101
705.064	8318
705.183	7519
705.301	9895
705.420	13714
705.538	11633
705.656	8903
705.775	10019
705.893	11195
706.012	11249
706.130	10307
706.249	10152
706.367	10561
706.485	11783
706.604	10072
706.722	11169
706.840	12675
706.958	11309
707.077	9729
707.195	10497
707.313	9644
707.431	10269
707.549	9284
707.668	9678
707.786	9661
707.904	8979
708.022	8996
708.140	8869
708.258	9162
708.376	9802
708.494	9040
708.612	10967
708.730	13972
708.848	12570
708.966	12296
709.084	11185
709.202	10642
709.320	12081
709.438	11248
709.556	12320
709.674	10346
709.791	11349
709.909	9481
710.027	11367
710.145	9299
710.263	11775
710.380	10954
710.498	10482
710.616	10386
710.733	10495
710.851	11295
710.969	11187
711.086	9643
711.204	9768
711.322	9986
711.439	10999
711.557	9809
711.674	10124
711.792	10440
711.909	9354
712.027	8519
712.144	10117
712.262	9477
712.379	11702
712.497	15113
712.614	15424
712.732	13238
712.849	12283
712.966	13235
713.084	16364
713.201	12937
713.318	13064
713.436	12621
713.553	13320
713.670	13950
713.787	15432
713.905	13871
714.022	13539
714.139	12697
714.256	16333
714.373	22981
714.490	40910
714.608	118177
714.725	522490
714.842	416385
714.959	28818
715.076	16002
715.193	13394
715.310	12772
715.427	10845
715.544	10501
715.661	11121
715.778	10768
715.895	12466
716.011	11995
716.128	11496
716.245	10574
716.362	12530
716.479	12123
716.596	11452
716.713	10313
716.829	9935
716.946	10194
717.063	10820
717.180	9122
717.296	9384
717.413	9581
717.530	9372
717.646	8888
717.763	8556
717.880	8198
717.996	9086
718.113	8875
718.229	9374
718.346	8703
718.462	9144
718.579	11756
718.695	17083
718.812	13108
718.928	12586
719.045	10307
719.161	7905
719.277	7845
719.394	8547
719.510	9312
719.626	10040
719.743	13077
719.859	17339
719.975	33311
720.092	139677
720.208	274414
720.324	27300
720.440	10216
720.557	11541
720.673	15077
720.789	21085
720.905	39503
721.021	13188
721.137	7970
721.253	8887
721.369	9010
721.486	10055
721.602	12812
721.718	7956
721.834	6959
721.950	7207
722.066	6787
722.181	7336
722.297	8040
722.413	7262
722.529	7545
722.645	7177
722.761	7095
722.877	6878
722.993	7415
723.108	8360
723.224	7233
723.340	7030
723.456	7012
723.571	7732
723.687	6147
723.803	7311
723.918	6736
724.034	6358
724.150	6305
724.265	7679
724.381	16012
724.497	17492
724.612	6309
724.728	5754
724.843	6101
724.959	8120
725.074	15957
725.190	15568
725.305	6341
725.421	6190
725.536	4770
725.651	5784
725.767	5379
725.882	5964
725.997	5982
726.113	5550
726.228	5625
726.343	5960
726.459	4046
726.574	6460
726.689	4906
726.804	4752
726.920	5984
727.035	5280
727.150	4696
727.265	5817
727.380	6005
727.495	6462
727.610	5387
727.725	5252
727.841	4663
727.956	5672
728.071	5778
728.186	5158
728.301	3911
728.416	5357
728.531	4792
728.645	4896
728.760	4937
728.875	6817
728.990	6984
729.105	5986
729.220	5312
729.335	5237
729.449	4894
729.564	4403
729.679	4514
729.794	4886
729.908	5021
730.023	4851
730.138	3556
730.253	4346
730.367	4159
730.482	4528
730.596	3646
730.711	4128
730.826	5389
730.940	4004
731.055	5288
731.169	3990
731.284	3752
731.398	4274
731.513	5758
731.627	5098
731.742	5495
731.856	6972
731.970	5382
732.085	8152
732.199	10735
732.313	17441
732.428	48738
732.542	155430
732.656	72626
732.771	12174
732.885	7310
732.999	6517
733.113	7092
733.227	6644
733.342	5853
733.456	4955
733.570	4382
733.684	4918
733.798	4806
733.912	4985
734.026	4206
734.140	5219
734.254	4857
734.368	9591
734.482	9994
734.596	4058
734.710	4313
734.824	4420
734.938	3748
735.052	4038
735.166	5417
735.280	4577
735.393	4056
735.507	4954
735.621	6086
735.735	10469
735.849	4460
735.962	3978
736.076	5210
736.190	5420
736.303	6639
736.417	8346
736.531	4338
736.644	4676
736.758	3272
736.872	3534
736.985	3547
737.099	3712
737.212	3870
737.326	4511
737.439	3024
737.553	4492
737.666	3935
737.780	3480
737.893	3680
738.007	3492
738.120	2699
738.233	3276
738.347	3770
738.460	4899
738.573	3779
738.687	3557
738.800	4209
738.913	5011
739.026	3626
739.140	4488
739.253	3404
739.366	4195
739.479	3235
739.592	3413
739.705	3626
739.818	3881
739.932	2672
740.045	3289
740.158	3768
740.271	3711
740.384	3502
740.497	4582
740.610	5217
740.723	4565
740.836	4508
740.949	5135
741.062	4809
741.174	4434
741.287	4174
741.400	4005
741.513	4463
741.626	5622
741.739	3423
741.851	3862
741.964	3891
742.077	4222
742.189	3635
742.302	6313
742.415	5309
742.527	3918
742.640	3603
742.753	3850
742.865	2915
742.978	2987
743.090	3192
743.203	3408
743.316	2492
743.428	3039
743.541	2626
743.653	2037
743.766	2593
743.878	3129
743.990	3297
744.103	4843
744.215	3492
744.327	2640
744.440	3745
744.552	5556
744.664	1889
744.777	3181
744.889	2565
745.001	3964
745.113	2566
745.226	2604
745.338	3429
745.450	2745
745.562	2818
745.674	2338
745.786	2773
745.898	2486
746.010	2250
746.122	2242
746.234	1718
746.347	2722
746.459	2028
746.570	2639
746.682	3019
746.794	3588
746.906	1586
747.018	2427
747.130	2939
747.242	2307
747.354	1711
747.466	3012
747.577	1627
747.689	2262
747.801	1785
747.913	2446
748.024	1850
748.136	1860
748.248	1874
748.359	2253
748.471	2122
748.583	1526
748.694	2422
748.806	3153
748.918	2892
749.029	2980
749.141	2107
749.252	2867
749.364	2611
749.475	5251
749.587	3149
749.698	2760
749.809	1950
749.921	1902
750.032	1488
750.144	2314
750.255	1293
750.366	1152
750.478	2192
750.589	2058
750.700	1824
750.811	2468
750.923	2956
751.034	5977
751.145	4955
751.256	1732
751.367	1456
751.479	2095
751.590	1392
751.701	1582
751.812	1313
751.923	1559
752.034	1520
752.145	1484
752.256	1467
752.367	1406
752.478	1454
752.589	2385
752.700	1791
752.811	1857
752.922	1488
753.032	1632
753.143	2648
753.254	1281
753.365	1806
753.476	1630
753.586	1247
753.697	1841
753.808	2071
753.919	1737
754.029	1524
754.140	1617
754.251	1640
754.361	1982
754.472	1550
754.582	1680
754.693	1610
754.804	2049
754.914	1516
755.025	1701
755.135	1315
755.246	2082
755.356	831
755.466	1800
755.577	1253
755.687	2156
755.798	798
755.908	1367
756.018	2098
756.129	940
756.239	667
756.349	2081
756.460	1469
756.570	1765
756.680	2103
756.790	1783
756.900	1497
757.011	1243
757.121	1836
757.231	1242
757.341	1196
757.451	1502
757.561	988
757.671	885
757.781	928
757.891	2056
758.001	1019
758.111	1332
758.221	1548
758.331	3275
758.441	1626
758.551	2553
758.661	2608
758.771	2024
758.880	1477
758.990	2069
759.100	2064
759.210	2749
759.320	2646
759.429	1645
759.539	2431
759.649	2356
759.758	2153
759.868	3639
759.978	3728
760.087	4084
760.197	2948
760.307	2685
760.416	2724
760.526	1695
760.635	3280
760.745	3149
760.854	3608
760.964	3892
761.073	3315
761.182	3123
761.292	2184
761.401	2362
761.511	1798
761.620	2603
761.729	2131
761.839	1912
761.948	1896
762.057	1979
762.166	1572
762.276	1095
762.385	2180
762.494	1348
762.603	1379
762.712	1922
762.822	1080
762.931	2362
763.040	1271
763.149	1364
763.258	1679
763.367	1833
763.476	1988
763.585	1782
763.694	1956
763.803	1860
763.912	2255
764.021	1310
764.130	1915
764.238	2077
764.347	1873
764.456	2429
764.565	1768
764.674	2016
764.783	1421
764.891	857
765.000	1980
765.109	2467
765.217	796
765.326	3148
765.435	2973
765.543	3487
765.652	2503
765.761	2473
765.869	4332
765.978	5050
766.086	11715
766.195	23829
766.303	79755
766.412	302929
766.520	186605
766.629	20539
766.737	7829
766.846	5143
766.954	3655
767.062	4614
767.171	3064
767.279	3300
767.387	2268
767.496	2919
767.604	1877
767.712	2519
767.820	2046
767.928	2790
768.037	2209
768.145	2879
768.253	2541
768.361	1874
768.469	2212
768.577	1986
768.685	2695
768.793	2301
768.901	2048
769.009	2225
769.117	2258
769.225	2773
769.333	3848
769.441	5318
769.549	9963
769.657	26690
769.765	112042
769.873	236428
769.981	37269
770.088	6678
770.196	3481
770.304	4384
770.412	3306
770.519	3480
770.627	2551
770.735	2280
770.842	1873
770.950	2474
771.058	2087
771.165	2992
771.273	2352
771.380	2747
771.488	2547
771.595	2292
771.703	2643
771.810	3337
771.918	2700
772.025	3691
772.133	2492
772.240	3082
772.348	3489
772.455	3027
772.562	2973
772.670	3040
772.777	2824
772.884	2858
772.991	1947
773.099	2479
773.206	2077
773.313	3186
773.420	2577
773.528	1854
773.635	1908
773.742	2879
773.849	2377
773.956	2843
774.063	2524
774.170	2203
774.277	2640
774.384	2465
774.491	1627
774.598	3329
774.705	2734
774.812	2640
774.919	3827
775.026	2906
775.133	2915
775.239	2584
775.346	2291
775.453	2678
775.560	2447
775.667	2346
775.773	1332
775.880	3336
775.987	1032
776.093	3399
776.200	2309
776.307	1856
776.413	2621
776.520	3319
776.627	2021
776.733	2776
776.840	674
776.946	3804
777.053	3629
777.159	5538
777.266	2514
777.372	5249
777.478	4293
777.585	3810
777.691	1983
777.798	3198
777.904	3021
778.010	3568
778.117	2150
778.223	2284
778.329	2404
778.435	1954
778.542	2139
778.648	1337
778.754	1982
778.860	2661
778.966	1367
779.072	1922
779.178	1821
779.284	2358
779.391	1315
779.497	597
779.603	3716
779.708	1175
779.815	2307
779.920	2401
780.026	1606
780.132	1698
780.238	1259
780.344	2426
780.450	2652
780.556	1752
780.661	2306
780.767	1665
780.873	1367
780.979	2456
781.085	1810
781.190	1219
781.296	888
781.402	1745
781.507	1082
781.613	2140
781.719	505
781.824	2159
781.930	1798
782.035	2223
782.141	2230
782.246	1488
782.352	951
782.457	1844
782.563	1374
782.668	1841
782.773	1722
782.879	1364
782.984	1878
783.090	2714
783.195	2859
783.300	2451
783.405	1803
783.511	1871
783.616	1912
783.721	2032
783.826	1241
783.932	2889
784.037	2358
784.142	2474
784.247	1148
784.352	1931
784.457	2355
784.562	2385
784.667	1724
784.772	1227
784.877	1398
784.982	1497
785.087	1772
785.192	1849
785.297	1591
785.402	1667
785.507	1143
785.611	1896
785.716	923
785.821	1965
785.926	1065
786.031	1790
786.135	1460
786.240	1658
786.345	360
786.450	1662
786.554	913
786.659	1578
786.763	623
786.868	1484
786.973	1627
787.077	653
787.182	411
787.286	900
787.391	1451
787.495	368
787.600	704
787.704	1240
787.809	1254
787.913	338
788.017	1554
788.122	1163
788.226	579
788.330	926
788.435	953
788.539	1148
788.643	56
788.747	629
788.852	1659
788.956	493
789.060	1769
789.164	916
789.268	-213
789.372	1539
789.476	1063
789.580	636
789.684	400
789.788	1594
789.892	252
789.996	1944
790.100	222
790.204	1343
790.308	1118
790.412	630
790.516	1191
790.620	763
790.724	1404
790.828	1340
790.931	110
791.035	2015
791.139	725
791.242	972
791.346	862
791.450	1174
791.554	846
791.657	491
791.761	2303
791.864	1296
791.968	1263
792.072	1218
792.175	668
792.279	833
792.382	1590
792.486	1108
792.589	470
792.693	1923
792.796	44
792.899	2892
793.003	2084
793.106	-756
793.209	675
793.313	2318
793.416	-1165
793.519	1601
793.623	2047
793.726	2176
793.829	788
793.932	1236
794.035	407
794.138	2705
794.242	1402
794.345	1084
794.448	1960
794.551	851
794.654	2254
794.757	2333
794.860	2033
794.963	1500
795.066	-322
795.169	1779
795.272	-169
795.375	1265
795.477	-307
795.580	685
795.683	-121
795.786	901
795.889	-717
795.991	2070
796.094	1175
796.197	260
796.300	1383
796.402	742
796.505	68
796.608	-452
796.710	1963
796.813	324
796.915	66
797.018	1746
797.120	402
797.223	-839
797.326	1629
797.428	-69
797.530	351
797.633	610
797.735	1078
797.838	2655
797.940	1648
798.042	459
798.145	586
798.247	962
798.349	-1250
798.452	1556
798.554	291
798.656	610
798.758	1560
798.860	852
798.962	-663
799.065	269
799.167	230
799.269	1702
799.371	738
799.473	1360
799.575	-129
799.677	636
799.779	2580
799.881	776
799.983	1137
800.085	1531
800.187	658
800.289	-918
800.390	-79
800.492	1015
800.594	1175
800.696	399
800.798	589
800.899	277
801.001	160
801.103	568
801.205	-153
801.306	1166
801.408	-110
801.509	124
801.611	49
801.713	519
801.814	-1195
801.916	1027
802.017	-88
802.119	38
802.220	219
802.322	-694
802.423	2554
802.525	302
802.626	674
802.727	482
802.829	71
802.930	-677
803.031	1410
803.133	-281
803.234	531
803.335	540
803.436	-644
803.538	1555
803.639	-992
803.740	256
803.841	-293
803.942	240
804.043	971
804.144	-785
804.245	253
804.346	-638
804.447	304
804.548	1263
804.649	1340
804.750	-96
804.851	-396
804.952	189
805.053	97
805.154	-658
805.255	1022
805.355	409
805.456	20
805.557	135
805.658	-1005
805.758	1013
805.859	448
805.960	199
806.061	-276
806.161	-587
806.262	223
806.362	129
806.463	-111
806.564	1006
806.664	421
806.765	1853
806.865	586
806.966	-101
807.066	-493
807.166	1222
807.267	591
807.367	-539
807.468	-97
807.568	-683
807.668	1316
807.769	578
807.869	-700
807.969	750
808.069	-301
808.170	559
808.270	-719
808.370	308
808.470	328
808.570	-604
808.670	-84
808.770	646
808.870	-1144
808.970	79
809.070	-278
809.170	-635
809.271	1036
809.370	27
809.470	-74
809.570	-167
809.670	-731
809.770	265
809.870	115
809.970	728
810.070	-403
810.169	425
810.269	-1213
810.369	1058
810.469	-671
810.568	-236
810.668	-571
810.768	-196
810.867	134
810.967	-347
811.066	-342
811.166	-654
811.265	328
811.365	-714
811.464	-681
811.564	208
811.663	67
811.763	-1446
811.862	78
811.962	662
812.061	-682
812.160	-614
812.260	-208
812.359	891
812.458	-1073
812.557	1066
812.657	-410
812.756	-50
812.855	-319
812.954	126
813.053	238
813.153	189
813.252	-940
813.351	-45
813.450	-499
813.549	137
813.648	-231
813.747	537
813.846	603
813.945	-172
814.044	-314
814.143	934
814.242	6
814.341	-59
814.439	-106
814.538	724
814.637	435
814.736	99
814.835	1049
814.933	-330
815.032	693
815.131	-419
815.229	450
815.328	1025
815.427	354
815.525	1484
815.624	240
815.722	744
815.821	1868
815.919	1203
816.018	88
816.116	1396
816.215	1215
816.313	1770
816.412	1474
816.510	1608
816.609	2588
816.707	1935
816.805	1182
816.904	854
817.002	1821
817.100	2798
817.198	2350
817.296	1873
817.395	2154
817.493	3469
817.591	2683
817.689	3701
817.787	3637
817.885	8667
817.983	15032
818.081	35706
818.179	91226
818.277	244969
818.375	175788
818.473	37883
818.571	14358
818.669	10366
818.767	8844
818.865	9232
818.963	11046
819.061	17559
819.158	32182
819.256	76743
819.354	192532
819.452	432899
819.549	230026
819.647	52220
819.745	20728
819.842	11918
819.940	8260
820.038	6163
820.135	4975
820.233	5142
820.330	2821
820.428	2608
820.525	2602
820.623	2580
820.720	1275
820.818	1107
820.915	2101
821.012	1635
821.110	-192
821.207	1998
821.304	296
821.402	1358
821.499	1611
821.596	1870
821.693	1201
821.791	1325
821.888	1159
821.985	4425
822.082	1432
822.179	1908
822.276	571
822.373	1339
822.470	632
822.567	2258
822.664	332
822.761	2384
822.858	-241
822.955	830
823.052	369
823.149	391
823.246	815
823.343	428
823.440	969
823.536	-157
823.633	-105
823.730	421
823.827	405
823.923	1027
824.020	1387
824.117	955
824.213	-57
824.310	1040
824.407	530
824.503	960
824.600	560
824.696	984
824.793	1367
824.889	561
824.986	359
825.082	133
825.179	165
825.275	1313
825.371	451
825.468	486
825.564	-798
825.660	543
825.757	-137
825.853	1267
825.949	-136
826.045	1569
826.142	-500
826.238	413
826.334	228
826.430	-470
826.526	-453
826.622	502
826.718	222
826.814	127
826.910	579
827.006	-142
827.102	-213
827.198	1249
827.294	-918
827.390	961
827.486	558
827.582	24
827.678	-711
827.774	1199
827.869	-783
827.965	1182
828.061	-599
828.157	383
828.252	-125
828.348	-426
828.444	419
828.539	-171
828.635	-246
828.731	629
828.826	-604
828.922	131
829.017	311
829.113	839
829.208	-246
829.304	275
829.399	1082
829.495	-215
829.590	1177
829.685	-617
829.781	212
829.876	72
829.971	-379
830.066	-216
830.162	304
830.257	471
830.352	-191
830.447	1532
830.543	1158
830.638	33
830.733	1122
830.828	15
830.923	49
831.018	-274
831.113	272
831.208	566
831.303	11
831.398	-471
831.493	-715
831.588	910
831.683	-1212
831.778	208
831.873	83
831.967	968
832.062	-884
832.157	-477
832.252	72
832.346	623
832.441	601
832.536	813
832.631	2975
832.725	1535
832.820	-168
832.914	268
833.009	-252
833.104	341
833.198	931
833.293	504
833.387	45
833.482	18
833.576	-431
833.670	538
833.765	-47
833.859	-240
833.954	-641
834.048	203
834.142	592
834.237	-165
834.331	-344
834.425	358
834.519	-846
834.613	-314
834.708	-922
834.802	849
834.896	-729
834.990	-336
835.084	-551
835.178	-486
835.272	-1263
835.366	-689
835.460	450
835.554	422
835.648	69
835.742	8
835.836	-51
835.930	-1114
836.024	559
836.117	673
836.211	84
836.305	2127
836.399	1577
836.493	-951
836.586	575
836.680	-917
836.774	-602
836.867	318
836.961	-963
837.055	-473
837.148	-278
837.242	-264
837.335	379
837.429	241
837.522	426
837.616	1748
837.709	2622
837.803	885
837.896	457
837.989	490
838.083	1603
838.176	4893
838.269	2190
838.363	877
838.456	458
838.549	1382
838.642	1266
838.735	3079
838.829	911
838.922	-498
839.015	-404
839.108	-634
839.201	-292
839.294	632
839.387	304
839.480	154
839.573	2212
839.666	1106
839.759	89
839.852	-884
839.945	93
840.038	171
840.131	-320
840.223	11
840.316	-598
840.409	-333
840.502	-1815
840.594	269
840.687	-899
840.780	568
840.873	-403
840.965	997
841.058	1929
841.150	4390
841.243	880
841.336	473
841.428	-990
841.521	-45
841.613	-984
841.706	-55
841.798	-449
841.890	-103
841.983	-1077
842.075	571
842.167	-564
842.260	1123
842.352	1707
842.444	2736
842.537	6122
842.629	6202
842.721	632
842.813	118
842.905	-914
842.997	621
843.090	551
843.182	2942
843.274	4539
843.366	15351
843.458	22106
843.550	9526
843.642	645
843.734	828
843.826	684
843.918	352
844.009	224
844.101	-567
844.193	-1013
844.285	199
844.377	652
844.469	833
844.560	-181
844.652	1826
844.744	-464
844.835	25
844.927	1260
845.019	930
845.110	-589
845.202	-59
845.293	452
845.385	-293
845.476	-568
845.568	952
845.659	-166
845.751	555
845.842	-832
845.934	406
846.025	-722
846.116	660
846.208	-747
846.299	-1132
846.390	53
846.482	327
846.573	1268
846.664	1587
846.755	1477
846.846	1957
846.937	-1284
847.029	37
847.120	-1082
847.211	-10
847.302	806
847.393	-743
847.484	477
847.575	159
847.666	-579
847.757	-28
847.847	-252
847.938	657
848.029	-701
848.120	49
848.211	-107
848.302	-81
848.392	-539
848.483	697
848.574	-756
848.664	-841
848.755	658
848.846	78
848.936	-769
849.027	171
849.118	499
849.208	301
849.299	1969
849.389	4934
849.480	11727
849.570	26720
849.661	50990
849.751	86976
849.841	26479
849.932	3019
850.022	1195
850.112	2072
850.203	686
850.293	-45
850.383	-134
850.474	-197
850.564	-293
850.654	127
850.744	29
850.834	391
850.924	1118
851.014	656
851.104	67
851.194	691
851.284	-98
851.374	410
851.464	196
851.554	746
851.644	584
851.734	2684
851.824	-193
851.914	466
852.004	365
852.094	-868
852.183	803
852.273	979
852.363	272
852.452	-312
852.542	238
852.632	-476
852.721	620
852.811	853
852.901	597
852.990	698
853.080	990
853.169	752
853.259	1418
853.348	1570
853.438	2677
853.527	5395
853.617	7402
853.706	14557
853.795	28553
853.885	68825
853.974	131263
854.063	246098
854.152	359167
854.242	123659
854.331	22062
854.420	9160
854.509	5125
854.598	5011
854.687	4406
854.777	3946
854.866	1635
854.955	2129
855.044	569
855.133	1648
855.222	640
855.311	683
855.400	1279
855.488	1062
855.577	-194
855.666	411
855.755	384
855.844	284
855.933	258
856.021	194
856.110	-284
856.199	-95
856.288	-124
856.376	50
856.465	-848
856.554	378
856.642	-42
856.731	438
856.819	-448
856.908	-36
856.996	-1111
857.085	-452
857.173	-595
857.262	-347
857.350	187
857.438	419
857.527	-219
857.615	-269
857.703	392
857.792	21
857.880	-759
857.968	279
858.056	-1156
858.145	586
858.233	-1076
858.321	-1181
858.409	287
858.497	-289
858.585	-680
858.673	367
858.761	-408
858.849	-231
858.937	-341
859.025	-3
859.113	43
859.201	-663
859.289	157
859.377	235
859.465	-282
859.552	241
859.640	-191
859.728	-255
859.816	-370
859.903	674
859.991	-365
860.079	-70
860.166	-455
860.254	-68
860.342	159
860.429	-958
860.517	-785
860.604	-485
860.692	-1049
860.779	-1150
860.867	-28
860.954	-98
861.042	-310
861.129	-605
861.216	-168
861.304	-311
861.391	-581
861.478	105
861.565	-170
861.653	168
861.740	-1091
861.827	-470
861.914	-518
862.001	-341
862.089	-159
862.176	-322
862.263	67
862.350	-88
862.437	-1217
862.524	-311
862.611	95
862.698	-356
862.785	11
862.871	130
862.958	-1128
863.045	374
863.132	118
863.219	-562
863.306	-1544
863.392	666
863.479	95
863.566	-88
863.652	88
863.739	-157
863.826	-264
863.912	33
863.999	-1145
864.086	41
864.172	-612
864.259	62
864.345	355
864.432	-661
864.518	-125
864.604	-174
864.691	-410
864.777	488
864.863	732
864.950	1552
865.036	-158
865.122	891
865.209	1514
865.295	2175
865.381	2133
865.467	3177
865.553	4598
865.639	8453
865.726	14402
865.812	33348
865.898	67940
865.984	102558
866.070	193517
866.156	195386
866.242	46686
866.328	10376
866.414	4277
866.499	4130
866.585	2883
866.671	2230
866.757	2578
866.843	1937
866.928	538
867.014	1232
867.100	2384
867.186	1492
867.271	1852
867.357	2826
867.442	2529
867.528	1857
867.614	467
867.699	373
867.785	1133
867.870	473
867.956	2025
868.041	1011
868.127	2230
868.212	2054
868.297	587
868.383	1395
868.468	1341
868.553	2270
868.639	2204
868.724	4215
868.809	2328
868.894	1715
868.979	271
869.065	571
869.150	-6
869.235	-1
869.320	535
869.405	770
869.490	-283
869.575	-3
869.660	-142
869.745	791
869.830	-368
869.915	357
870.000	363
870.085	406
870.169	352
870.254	1136
870.339	-997
870.424	514
870.509	-199
870.593	441
870.678	-52
870.763	-138
870.847	704
870.932	130
871.016	-415
871.101	153
871.186	568
871.270	597
871.355	-236
871.439	855
871.523	-688
871.608	-419
871.692	197
871.777	968
871.861	238
871.945	35
872.030	715
872.114	-302
872.198	-365
872.282	-269
872.367	-893
872.451	-117
872.535	588
872.619	184
872.703	-259
872.787	-235
872.871	-237
872.955	-500
873.039	-68
873.123	-567
873.207	693
873.291	62
873.375	85
873.459	384
873.543	-406
873.627	-55
873.711	-841
873.794	255
873.878	-519
873.962	-659
874.045	-60
874.129	-287
874.137	-293
874.213	-349
874.245	-144
874.296	182
874.352	360
874.380	448
874.460	94
874.464	79
874.547	-644
874.568	-526
874.631	-149
874.676	-436
874.714	-682
874.784	376
874.798	585
874.881	16
874.892	-52
874.965	-523
874.999	-239
875.048	139
875.107	-375
875.131	-578
875.215	990
875.215	989
875.298	-521
875.323	-587
875.381	-777
875.430	-211
875.465	232
875.538	295
875.548	288
875.631	-262
875.646	-341
875.714	-719
875.753	-1043
875.798	-1327
875.861	-841
875.881	-705
875.964	-60
875.968	-79
876.047	-488
876.076	-103
876.130	658
876.183	410
876.213	265
876.291	1001
876.296	1053
876.379	222
876.398	297
876.462	548
876.506	264
876.545	-52
876.613	83
876.628	117
876.711	13
876.721	79
876.794	671
876.828	325
876.877	-182
876.935	-63
876.960	-4
877.043	-194
877.043	-190
877.125	903
877.150	827
877.208	701
877.258	589
877.291	534
877.365	672
877.374	670
877.456	801
877.472	773
877.539	793
877.579	894
877.622	916
877.687	156
877.704	2
877.787	526
877.794	485
877.869	39
877.901	155
877.952	124
878.008	-7
878.034	44
878.115	229
878.117	230
878.199	-308
878.222	-257
878.282	-7
878.329	167
878.364	264
878.437	307
878.447	320
878.529	-905
878.544	-685
878.611	332
878.651	209
878.694	137
878.758	315
878.776	326
878.858	292
878.865	286
878.941	234
878.972	108
879.023	35
879.078	381
879.105	513
879.185	519
879.187	517
879.269	519
879.292	384
879.351	131
879.399	-73
879.433	-106
879.506	572
879.516	626
879.598	385
879.613	284
879.680	-187
879.720	-294
879.762	-191
879.827	27
879.844	24
879.926	569
879.933	552
880.007	530
880.040	476
880.089	411
880.147	714
880.171	860
880.253	2010
880.254	2014
880.335	2531
880.360	2774
880.417	3923
880.467	6067
880.499	7190
880.574	7505
880.580	7448
880.662	2476
880.680	1987
880.744	474
880.787	40
880.825	-1
880.893	548
880.907	561
880.989	-78
881.000	-58
881.070	614
881.106	522
881.152	322
881.213	569
881.233	579
881.315	-76
881.319	-85
881.396	138
881.426	121
881.478	26
881.532	462
881.559	645
881.639	-301
881.641	-320
881.722	93
881.745	-84
881.803	-124
881.852	361
881.885	473
881.958	455
881.966	454
882.047	450
882.064	345
882.129	406
882.171	1012
882.210	1603
882.277	1840
882.291	1809
882.372	1528
882.383	1508
882.454	1143
882.489	1151
882.535	1011
882.596	-10
882.616	-113
882.697	118
882.702	143
882.778	434
882.808	528
882.859	346
882.914	-310
882.940	-392
883.020	475
883.021	485
883.102	299
883.127	430
883.183	424
883.233	191
883.264	3
883.339	-311
883.345	-270
883.426	79
883.445	211
883.507	213
883.551	170
883.587	191
883.657	333
883.668	436
883.749	891
883.763	1031
883.830	921
883.869	609
883.910	242
883.975	-322
883.991	-264
884.072	767
884.081	783
884.152	444
884.187	334
884.233	351
884.292	674
884.314	659
884.394	0
884.398	-17
884.475	245
884.504	323
884.555	555
884.610	905
884.636	883
884.716	414
884.716	418
884.797	657
884.821	711
884.877	703
884.927	722
884.958	628
885.033	316
885.038	350
885.118	968
885.139	1097
885.199	398
885.244	-136
885.279	-45
885.350	-12
885.359	9
885.439	470
885.456	465
885.520	-174
885.561	-250
885.600	62
885.667	87
885.680	119
885.760	849
885.773	873
885.840	987
885.878	1258
885.920	1438
885.984	1532
886.000	1484
886.080	1254
886.089	1184
886.160	728
886.195	616
886.240	582
886.300	674
886.320	744
886.400	967
886.406	964
886.480	1190
886.511	1376
886.560	1899
886.616	2154
886.640	1855
886.720	1231
886.722	1205
886.800	970
886.827	977
886.879	1236
886.932	1290
886.959	1255
887.038	1202
887.039	1204
887.119	968
887.143	849
887.198	1110
887.248	1329
887.278	1072
887.354	411
887.358	445
887.437	1128
887.459	1260
887.517	1041
887.564	977
887.596	1119
887.669	1286
887.676	1257
887.755	847
887.774	769
887.835	1110
887.880	1269
887.914	1343
887.985	1561
887.994	1541
888.073	1194
888.090	1154
888.153	1407
888.195	1447
888.232	1297
888.300	1106
888.311	1089
888.391	839
888.405	817
888.470	918
888.510	880
888.549	972
888.615	1235
888.628	1366
888.708	2038
888.720	2134
888.787	1506
888.825	1128
888.866	1393
888.930	1820
888.945	1734
889.024	1227
889.035	1160
889.103	2092
889.140	2530
889.182	2067
889.245	1429
889.261	1452
889.340	1477
889.349	1482
889.419	1593
889.454	1619
889.498	1081
889.559	344
889.577	432
889.656	809
889.664	847
889.735	1644
889.768	2014
889.814	1923
889.873	1790
889.978	1482
890.083	1504
890.187	1323
890.292	1183
890.397	1261
890.501	1388
890.606	1218
890.710	2131
890.815	1385
890.919	1126
891.024	741
891.128	1963
891.233	2481
891.337	1064
891.442	1651
891.546	710
891.650	2063
891.755	1221
891.859	3180
891.963	781
892.068	753
892.172	963
892.276	1274
892.380	805
892.484	819
892.589	1149
892.693	1315
892.797	1425
892.901	1235
893.005	1098
893.109	1749
893.213	1058
893.317	1492
893.421	2016
893.525	1297
893.629	1515
893.733	1654
893.837	1117
893.941	881
894.045	2348
894.148	1442
894.252	1406
894.356	2640
894.460	1001
894.564	1089
894.667	1206
894.771	1178
894.875	417
894.978	1866
895.082	1560
895.186	1854
895.289	1347
895.393	1832
895.496	1465
895.600	1318
895.703	453
895.807	1917
895.910	1461
896.014	1674
896.117	1262
896.221	1926
896.324	1302
896.427	1107
896.531	673
896.634	1480
896.737	627
896.840	773
896.944	1440
897.047	1571
897.150	1128
897.253	1048
897.356	1600
897.460	1221
897.563	1585
897.666	1548
897.769	705
897.872	927
897.975	1055
898.078	1424
898.181	1567
898.284	531
898.387	937
898.490	1535
898.593	1276
898.695	413
898.798	2035
898.901	3504
899.004	1602
899.107	1454
899.209	1784
899.312	1654
899.415	1079
899.518	812
899.620	571
899.723	1533
899.826	2529
899.928	3058
900.031	1238
900.133	554
900.236	59
900.338	753
900.441	868
900.543	1012
900.646	1689
900.748	1322
900.851	923
900.953	214
901.055	958
901.158	1682
901.260	1113
901.362	1271
901.465	1294
901.567	824
901.669	1543
901.771	110
901.873	765
901.976	572
902.078	1403
902.180	897
902.282	1145
902.384	1429
902.486	1319
902.588	2569
902.690	5128
902.792	2143
902.894	560
902.996	1146
903.098	863
903.200	1529
903.302	770
903.404	1341
903.505	409
903.607	1677
903.709	1410
903.811	1075
903.913	606
904.014	-34
904.116	415
904.218	601
904.319	803
904.421	1260
904.523	1053
904.624	1508
904.726	756
904.827	1466
904.929	491
905.030	326
905.132	837
905.233	438
905.335	260
905.436	1357
905.537	576
905.639	1950
905.740	372
905.841	1107
905.943	577
906.044	560
906.145	1387
906.247	616
906.348	370
906.449	899
906.550	773
906.651	1211
906.752	1464
906.854	743
906.955	704
907.056	955
907.157	795
907.258	972
907.359	197
907.460	1281
907.561	-280
907.662	544
907.762	620
907.863	488
907.964	859
908.065	1191
908.166	717
908.267	836
908.367	446
908.468	1323
908.569	1280
908.670	2350
908.770	2835
908.871	1647
908.971	4409
909.072	6098
909.173	589
909.273	753
909.374	1184
909.474	708
909.575	792
909.675	298
909.776	1340
909.876	713
909.977	1043
910.077	894
910.177	769
910.278	-39
910.378	-89
910.478	1163
910.579	399
910.679	580
910.779	40
910.879	1472
910.980	54
911.080	541
911.180	183
911.280	805
911.380	532
911.480	362
911.580	230
911.680	1387
911.780	355
911.880	626
911.980	478
912.080	843
912.180	711
912.280	1976
912.380	1250
912.480	874
912.580	895
912.679	316
912.779	416
912.879	641
912.979	345
913.078	309
913.178	-442
913.278	341
913.377	33
913.477	719
913.577	1109
913.676	1061
913.776	137
913.875	611
913.975	883
914.074	364
914.174	231
914.273	-936
914.373	679
914.472	388
914.572	-265
914.671	649
914.770	261
914.870	82
914.969	-398
915.068	840
915.167	399
915.267	61
915.366	-111
915.465	460
915.564	420
915.663	313
915.763	-192
915.862	1058
915.961	-186
916.060	482
916.159	418
916.258	287
916.357	-414
916.456	829
916.555	101
916.654	1079
916.752	2465
916.851	-170
916.950	1333
917.049	705
917.148	39
917.247	1235
917.345	-13
917.444	797
917.543	15
917.642	-241
917.740	-283
917.839	56
917.937	854
918.036	474
918.135	361
918.233	660
918.332	104
918.430	351
918.529	272
918.627	-185
918.726	246
918.824	329
918.923	-216
919.021	857
919.119	-186
919.218	842
919.316	-69
919.414	132
919.512	670
919.611	714
919.709	286
919.807	394
919.905	822
920.003	-631
920.102	-57
920.200	541
920.298	91
920.396	478
920.494	534
920.592	0
920.690	126
920.788	43
920.886	-261
920.984	439
921.082	117
921.180	1071
921.277	-35
921.375	878
921.473	180
921.571	158
921.669	610
921.766	665
921.864	1154
921.962	536
922.060	826
922.157	607
922.255	983
922.352	925
922.450	1120
922.548	1299
922.645	593
922.743	1485
922.840	1278
922.938	1993
923.035	1951
923.133	2137
923.230	2354
923.327	2682
923.425	2022
923.522	1773
923.619	1829
923.717	1559
923.814	2610
923.911	1191
924.008	2320
924.106	1284
924.203	1857
924.300	1887
924.397	1127
924.494	3277
924.591	3817
924.688	2980
924.786	1728
924.883	1615
924.979	1869
925.077	1866
925.173	920
925.270	799
925.367	1137
925.464	2213
925.561	2151
925.658	2571
925.755	3693
925.852	2891
925.948	1753
926.045	1682
926.142	1729
926.239	2100
926.335	1122
926.432	1567
926.529	1755
926.625	1332
926.722	1330
926.818	493
926.915	1537
927.011	1240
927.108	1329
927.204	1760
927.301	1609
927.397	1884
927.494	1449
927.590	1259
927.687	52
927.783	1260
927.879	1450
927.976	1562
928.072	1156
928.168	1675
928.264	1448
928.361	597
928.457	1644
928.553	2076
928.649	517
928.745	1234
928.841	743
928.937	964
929.033	1987
929.129	1220
929.225	1386
929.321	1425
929.417	965
929.513	1025
929.609	1649
929.705	1046
929.801	846
929.897	817
929.993	1355
930.089	1024
930.184	760
930.280	1267
930.376	1450
930.471	769
930.567	1451
930.663	1876
930.758	618
930.854	1242
930.950	553
931.045	1971
931.141	1513
931.236	2147
931.332	1376
931.427	1412
931.523	1153
931.618	909
931.714	142
931.809	1459
931.905	1445
932.000	120
932.095	-67
932.191	1786
932.286	1175
932.381	930
932.476	508
932.572	1035
932.667	1006
932.762	498
932.857	1069
932.952	1769
933.047	1315
933.142	379
933.237	1109
933.332	278
933.427	1487
933.522	1787
933.617	890
933.712	929
933.807	650
933.902	884
933.997	1312
934.092	206
934.187	264
934.282	701
934.376	1241
934.471	613
934.566	462
934.661	1092
934.755	898
934.850	776
934.945	858
935.039	1225
935.134	1157
935.228	1740
935.323	1294
935.417	623
935.512	1120
935.606	476
935.701	630
935.795	872
935.890	-305
935.984	536
936.079	407
936.173	662
936.267	512
936.362	243
936.456	763
936.550	1469
936.644	883
936.738	-167
936.833	175
936.927	1298
937.021	318
937.115	351
937.209	-211
937.303	1690
937.397	347
937.491	258
937.585	972
937.679	1184
937.773	861
937.867	248
937.961	607
938.055	1608
938.149	707
938.243	701
938.337	736
938.430	-94
938.524	1005
938.618	1153
938.712	914
938.805	1028
938.899	476
938.993	311
939.086	679
939.180	284
939.274	691
939.367	1648
939.461	482
939.554	1123
939.648	618
939.741	1073
939.835	1091
939.928	1110
940.022	1569
940.115	365
940.208	1123
940.302	2118
940.395	1098
940.488	-237
940.582	1130
940.675	327
940.768	490
940.861	1473
940.954	1125
941.048	437
941.141	45
941.234	1336
941.327	2024
941.420	2593
941.513	1346
941.606	834
941.699	978
941.792	1517
941.885	800
941.978	1446
942.071	460
942.164	144
942.257	179
942.349	637
942.442	429
942.535	438
942.628	382
942.721	821
942.813	-551
942.906	1129
942.999	724
943.091	-367
943.184	1214
943.277	863
943.369	399
943.462	62
943.554	656
943.647	336
943.739	1737
943.832	667
943.924	226
944.017	782
944.109	-201
944.201	318
944.294	1137
944.386	473
944.478	199
944.571	433
944.663	327
944.755	368
944.847	779
944.940	989
945.032	461
945.124	-478
945.216	995
945.308	715
945.400	1334
945.492	1268
945.584	1215
945.676	485
945.768	695
945.860	895
945.952	322
946.044	625
946.136	538
946.228	462
946.320	371
946.412	234
946.503	285
946.595	1002
946.687	-76
946.779	-17
946.870	344
946.962	74
947.054	887
947.145	1043
947.237	130
947.329	510
947.420	232
947.512	-31
947.603	380
947.695	413
947.786	-375
947.878	238
947.969	-89
948.061	48
948.152	37
948.243	968
948.335	1614
948.426	1066
948.517	357
948.609	521
948.700	244
948.791	8
948.882	172
948.973	146
949.065	452
949.156	587
949.247	-272
949.338	571
949.429	495
949.520	581
949.611	-268
949.702	1683
949.793	964
949.884	1338
949.975	638
950.066	263
950.157	813
950.247	613
950.338	-42
950.429	1155
950.520	1495
950.611	3429
950.701	2094
950.792	1763
950.883	2071
950.973	1404
951.064	1558
951.155	1595
951.245	1712
951.336	863
951.427	-1024
951.517	707
951.608	183
951.698	200
951.788	87
951.879	-322
951.969	-23
952.060	351
952.150	533
952.240	703
952.331	-977
952.421	1096
952.511	-574
952.602	697
952.692	-557
952.782	-84
952.872	0
952.962	428
953.052	249
953.143	-118
953.233	1410
953.323	-35
953.413	571
953.503	283
953.593	270
953.683	206
953.773	-56
953.863	1029
953.953	423
954.042	926
954.132	271
954.222	1942
954.312	1496
954.402	2045
954.492	3761
954.581	12922
954.671	4389
954.761	520
954.850	1053
954.940	249
955.030	741
955.119	630
955.209	-6
955.298	-202
955.388	437
955.477	1151
955.567	435
955.656	873
955.746	641
955.835	517
955.925	-113
956.014	490
956.103	-386
956.193	393
956.282	-342
956.371	570
956.461	81
956.550	-126
956.639	-232
956.728	-233
956.817	303
956.906	-166
956.995	719
957.085	731
957.174	-57
957.263	-631
957.352	841
957.441	-93
957.530	581
957.619	544
957.708	836
957.796	484
957.885	472
957.974	211
958.063	221
958.152	-1002
958.241	452
958.329	40
958.418	-138
958.507	-224
958.596	364
958.684	-500
958.773	511
958.861	880
958.950	632
959.039	420
959.127	625
959.216	654
959.304	228
959.393	518
959.481	674
959.570	999
959.658	99
959.746	1393
959.835	5004
959.923	15751
960.011	6593
960.100	1012
960.188	-67
960.276	171
960.365	-874
960.453	-374
960.541	-1162
960.629	590
960.717	-261
960.805	-452
960.893	262
960.981	-743
961.069	797
961.158	492
961.245	-286
961.333	431
961.421	-398
961.509	-9
961.597	-1089
961.685	117
961.773	-419
961.861	-1006
961.949	610
962.036	-468
962.124	316
962.212	318
962.299	-302
962.387	-571
962.475	-31
962.562	-858
962.650	495
962.738	480
962.825	-418
962.913	-214
963.000	-89
963.088	436
963.175	29
963.263	1250
963.350	1312
963.438	2995
963.525	4174
963.612	9611
963.700	22272
963.787	70113
963.874	31179
963.962	3083
964.049	782
964.136	-48
964.223	86
964.310	-117
964.398	159
964.485	1204
964.572	3020
964.659	10687
964.746	12600
964.833	999
964.920	-623
965.007	-388
965.094	27
965.181	-595
965.268	-716
965.355	-598
965.441	-214
965.528	-759
965.615	321
965.702	-1081
965.789	-270
965.875	-425
965.962	765
966.049	-595
966.136	887
966.222	85
966.309	547
966.395	-16
966.482	-409
966.569	-678
966.655	-720
966.742	-115
966.828	-704
966.915	-178
967.001	540
967.087	266
967.174	2130
967.260	2537
967.347	7033
967.433	19269
967.519	49409
967.605	16643
967.692	-79
967.778	-420
967.864	-664
967.950	-111
968.036	-1242
968.123	-120
968.209	42
968.295	-999
968.381	652
968.467	-91
968.553	-1492
968.639	622
968.725	1424
968.811	7750
968.897	6341
968.983	274
969.069	-1532
969.154	-629
969.240	-87
969.326	-1055
969.412	-1066
969.497	-736
969.583	-1590
969.669	-45
969.755	-203
969.840	-346
969.926	258
970.012	2
970.097	1557
970.183	1585
970.268	1662
970.354	5391
970.439	11607
970.525	34392
970.610	10113
970.696	1176
970.781	-907
970.866	-1498
970.952	-366
971.037	-996
971.122	-617
971.208	-279
971.293	-1283
971.378	-1789
971.463	-251
971.549	209
971.634	283
971.719	1306
971.804	3469
971.889	4973
971.974	31
972.059	-757
972.144	-496
972.229	-690
972.314	-1788
972.399	280
972.484	302
972.569	583
972.654	2781
972.739	13255
972.824	18960
972.908	3337
972.993	241
973.078	-655
973.163	-749
973.247	-804
973.332	-1836
973.417	322
973.501	-1564
973.586	-207
973.671	-198
973.755	-352
973.840	411
973.924	658
974.009	595
974.093	617
974.178	3941
974.262	10824
974.346	14300
974.431	2059
974.515	-217
974.600	-27
974.684	-203
974.768	-906
974.852	814
974.937	-1077
975.021	-518
975.105	-643
975.189	-1091
975.273	-361
975.358	-1732
975.442	-1555
975.526	-116
975.610	-1934
975.694	-1154
975.778	-648
975.862	-787
975.946	-2096
976.030	309
976.114	-1509
976.198	-1653
976.281	-1446
976.365	-673
976.449	-891
976.533	-494
976.617	-1075
976.700	-415
976.784	300
976.868	1486
976.951	7141
977.035	5162
977.119	283
977.202	-849
977.286	-754
977.369	-1493
977.453	162
977.536	-1263
977.620	-1472
977.703	-387
977.787	-1518
977.870	-155
977.953	88
978.037	421
978.120	3215
978.203	6848
978.287	19298
978.370	8034
978.453	528
978.536	1706
978.620	3656
978.703	10847
978.786	5064
978.869	-774
978.952	-1135
979.035	-282
979.118	-1222
979.201	-1038
979.284	21
979.367	-1423
979.450	-829
979.533	-1735
979.616	-1379
979.699	-901
979.782	-543
979.865	-977
979.948	-470
980.030	-1594
980.113	-1099
980.196	-2059
980.279	-878
980.361	-1512
980.444	-1122
980.526	-749
980.609	-1186
980.692	-1378
980.774	-644
980.857	-2186
980.939	-340
981.022	-1149
981.104	-1707
981.187	-2055
981.269	-481
981.352	-850
981.434	-1304
981.516	-2236
981.599	-198
981.681	-636
981.763	-1659
981.846	-1027
981.928	-1798
982.010	-1603
982.092	-1482
982.174	-523
982.256	-1025
982.339	-885
982.421	-1348
982.503	-762
982.585	-2367
982.667	-1036
982.749	-644
982.831	-593
982.913	-1841
982.995	-1235
983.077	426
983.158	3019
983.240	-617
983.322	-865
983.404	-356
983.486	-2060
983.568	-1311
983.649	-1385
983.731	-1044
983.813	-1710
983.894	-1343
983.976	-1531
984.058	-1164
984.139	-487
984.221	-1441
984.302	-1123
984.384	-1730
984.465	-1664
984.547	-472
984.628	-1704
984.710	-1203
984.791	-1103
984.872	-1441
984.954	-1252
985.035	-508
985.116	-2105
985.198	-1593
985.279	-743
985.360	-462
985.441	-1231
985.522	-126
985.604	-2175
985.685	-3192
985.766	-507
985.847	-486
985.928	-1792
986.009	-1714
986.090	-1321
986.171	-1009
986.252	-1383
986.333	-411
986.414	-1732
986.495	-1047
986.576	-1857
986.656	-453
986.737	-995
986.818	-1251
986.899	-1662
986.980	-1833
987.060	-1251
987.141	-2093
987.222	-942
987.302	-553
987.383	-973
987.464	-1691
987.544	-555
987.625	-639
987.705	-1220
987.786	-649
987.866	-1315
987.947	-1073
988.027	-679
988.108	-786
988.188	-1059
988.268	-1478
988.349	-1494
988.429	-1297
988.509	-190
988.589	-1756
988.670	-2325
988.750	-172
988.830	-1614
988.910	-1477
988.990	-357
989.070	-1506
989.151	-624
989.231	-1545
989.311	-896
989.391	-1694
989.471	-2175
989.551	-1476
989.631	-1648
989.711	-95
989.791	-2126
989.870	-1609
989.950	-552
990.030	-1247
990.110	-1062
990.190	-1804
990.269	-1820
990.349	-1120
990.429	-996
990.509	-46
990.588	-1678
990.668	-1212
990.747	-1163
990.827	-1134
990.907	-1733
990.986	-1360
991.066	-894
991.145	-1212
991.225	-1040
991.304	-840
991.383	-858
991.463	-1588
991.542	-818
991.622	-1415
991.701	-1623
991.780	-1307
991.859	-813
991.939	-1856
992.018	-1221
992.097	-1112
992.176	-1210
992.256	-1150
992.335	-2200
992.414	-392
992.493	-2167
992.572	-796
992.651	1265
992.730	-593
992.809	-1230
992.888	-1275
992.967	-1392
993.046	-722
993.125	-1942
993.203	-1810
993.282	-1616
993.361	-1153
993.440	-1545
993.519	-1981
993.597	-1164
993.676	-1533
993.755	-632
993.834	-1215
993.912	-1996
993.991	-203
994.069	-1986
994.148	-1368
994.226	-2163
994.305	-588
994.384	-1489
994.462	-58
994.540	-2388
994.619	-1234
994.697	-1481
994.776	-1614
994.854	-1307
994.932	-1216
995.011	-1678
995.089	-2427
995.167	-1317
995.245	-1185
995.324	-1505
995.402	-1148
995.480	-1983
995.558	-1677
995.636	-2155
995.714	-2101
995.792	-1197
995.870	-2046
995.948	-1834
996.026	-1164
996.104	-3375
996.182	-1147
996.260	-1472
996.338	-255
996.416	-2583
996.494	-2140
996.572	-939
996.649	-1189
996.727	-2376
996.805	-1506
996.883	-1789
996.960	-2501
997.038	-1060
997.116	-1381
997.193	-3130
997.271	-1178
997.348	-2397
997.426	-1010
997.504	-2112
997.581	-1021
997.658	-1475
997.736	-1907
997.813	-2801
997.891	-9
997.968	-2482
998.046	-1368
998.123	-1326
998.200	-826
998.277	-2620
998.355	-914
998.432	-2174
998.509	-2781
998.586	-974
998.663	-1901
998.741	-1794
998.818	-1258
998.895	-2017
998.972	-1356
999.049	-1658
999.126	-2052
999.203	-1744
999.280	-1256
999.357	-2091
999.434	-2039
999.511	-1204
999.587	-1270
999.664	-2077
999.741	143
999.818	27
999.895	-1876
999.971	-1674
1000.048	-1112
1000.125	-212
1000.202	-1091
1000.278	-912
1000.355	-1693
1000.431	-2513
1000.508	-2480
1000.584	-1872
1000.661	-1252
1000.738	-2272
1000.814	-1503
1000.890	-596
1000.967	-1520
1001.043	-1343
1001.120	-1735
1001.196	-1428
1001.272	-2057
1001.349	-1340
1001.425	-1475
1001.501	-2473
1001.577	-2313
1001.654	-1305
1001.730	-1941
1001.806	-1812
1001.882	-2667
1001.958	-1778
1002.034	-1415
1002.110	-1544
1002.186	-1318
1002.262	-2027
1002.338	-1975
1002.414	-1128
1002.490	-1191
1002.566	-1688
1002.642	-2394
1002.718	-1028
1002.794	-1763
1002.870	-2134
1002.945	-1918
1003.021	-1605
1003.097	-1325
1003.173	-904
1003.248	-1215
1003.324	-1506
1003.400	-468
1003.475	-1493
1003.551	-1890
1003.626	-2275
1003.702	-1837
1003.777	-1983
1003.853	-1282
1003.928	-2002
1004.004	-1433
1004.079	-2126
1004.155	-1622
1004.230	-3019
1004.305	-1162
1004.381	-2359
1004.456	-1159
1004.531	-1442
1004.607	-1480
1004.682	-1054
1004.757	-1261
1004.832	-1006
1004.907	-1596
1004.982	-1177
1005.057	-1346
1005.133	-1724
1005.208	-2344
1005.283	-2103
1005.358	-1708
1005.433	-1927
1005.508	-1631
1005.583	-1859
1005.657	-744
1005.732	-460
1005.807	-1500
1005.882	-1504
1005.957	-1602
1006.032	-1473
1006.106	-2206
1006.181	-2200
1006.256	-1749
1006.331	-2021
1006.405	-2249
1006.480	-1446
1006.554	-1720
1006.629	-2124
1006.704	-1916
1006.778	-2228
1006.853	-1161
1006.927	-2001
1007.002	-1372
1007.076	-1587
1007.150	-1714
1007.225	-1463
1007.299	-965
1007.373	-2711
1007.448	-1629
1007.522	-1424
1007.596	-1478
1007.671	-1983
1007.745	-1774
1007.819	-2892
1007.893	-1596
1007.967	-1211
1008.041	-2733
1008.115	-1741
1008.190	-2275
1008.264	-1417
1008.338	-2890
1008.412	-2050
1008.486	-2213
1008.560	-1801
1008.633	-2110
1008.707	-1598
1008.781	-2069
1008.855	-2393
1008.929	-2002
1009.003	-2645
1009.076	-1900
1009.150	-1483
1009.224	-2059
1009.298	-1922
1009.371	-3098
1009.445	-1728
1009.519	-2271
1009.592	-2629
1009.666	-1629
1009.739	-2005
1009.813	-2510
1009.886	-1140
1009.960	-1801
1010.033	-1679
1010.107	-1870
1010.180	-3609
1010.253	-1534
1010.327	-2543
1010.400	-2270
1010.473	-1835
1010.547	-790
1010.620	-2518
1010.693	-1643
1010.766	-2949
1010.840	-1924
1010.913	-2088
1010.986	-2553
1011.059	-1993
1011.132	-2033
1011.205	-2485
1011.278	-2555
1011.351	-3150
1011.424	-1861
1011.497	-3017
1011.570	-2602
1011.643	-1567
1011.716	-1894
1011.789	-1942
1011.862	-2187
1011.934	-1933
1012.007	-3279
1012.080	-2345
1012.153	-2363
1012.225	-1668
1012.298	-2642
1012.371	-1913
1012.443	-1798
1012.516	-2449
1012.588	-944
1012.661	-2119
1012.733	-2777
1012.806	-532
1012.879	-2242
1012.951	-2359
1013.023	-2326
1013.096	-2494
1013.168	-2968
1013.241	-1494
1013.313	-2719
1013.385	-2714
1013.458	-3336
1013.530	-1855
1013.602	-2279
1013.674	-2368
1013.746	-2596
1013.819	-2451
1013.891	-1735
1013.963	-3322
1014.035	-2302
1014.107	-1775
1014.179	-2265
1014.251	-2455
1014.323	-2262
1014.395	-2880
1014.467	-2575
1014.539	-2276
1014.611	-2816
1014.683	-2020
1014.754	-2477
1014.826	-3352
1014.898	-2445
1014.970	-3252
1015.042	-1810
1015.113	-2170
1015.185	-1853
1015.257	-2986
1015.328	-1857
1015.400	-3038
1015.471	-2693
1015.543	-2934
1015.615	-2021
1015.686	-2144
1015.757	-2307
1015.829	-1441
1015.901	-2577
1015.972	-2111
1016.043	-2826
1016.115	-2412
1016.186	-2070
1016.257	-3071
1016.328	-2363
1016.400	-1554
1016.471	-2451
1016.542	-2099
1016.613	-2136
1016.685	-2305
1016.756	-2483
1016.827	-3366
1016.898	-3327
1016.969	-2097
1017.040	-2911
1017.111	-2967
1017.182	-2209
1017.253	-2559
1017.324	-2107
1017.395	-2810
1017.466	-2013
1017.537	-1986
1017.608	-2097
1017.678	-2771
1017.749	-2951
1017.820	-2503
1017.891	-2665
1017.961	-2286
1018.032	-2614
1018.103	-2256
1018.173	-2292
1018.244	-2542
1018.315	-2444
1018.385	-2224
1018.456	-2054
1018.526	-2574
1018.597	-3029
1018.667	-2488
1018.738	-3144
1018.808	-1860
1018.878	-2898
1018.949	-2233
1019.019	-2536
1019.089	-2249
1019.160	-2447
1019.230	-2686
1019.300	-907
1019.371	-3266
1019.441	-2592
1019.511	-2269
1019.581	-2345
1019.651	-2239
1019.721	-2190
1019.791	-2274
1019.861	-2642
1019.931	-2684
1020.001	-2378
1020.071	-3260
1020.141	-3107
1020.211	-3330
1020.281	-3494
1020.351	-2751
1020.421	-2210
1020.491	-1935
1020.560	-2794
1020.630	-1987
1020.700	-2864
1020.770	-2862
1020.839	-3006
1020.909	-2637
1020.979	-2762
1021.048	-3172
1021.118	-2549
1021.187	-2255
1021.257	-2387
1021.326	-2379
1021.396	-2563
1021.465	-2084
1021.535	-2474
1021.604	-3336
1021.674	-2179
1021.743	-2840
1021.812	-2974
1021.882	-2966
1021.951	-2592
1022.020	-2251
1022.089	-3081
1022.159	-2543
1022.228	-2643
1022.297	-3380
1022.366	-2653
1022.435	-2569
1022.504	-2312
1022.573	-2598
1022.642	-3138
1022.711	-3145
1022.781	-2473
1022.849	-2592
1022.918	-2994
1022.987	-2493
1023.056	-3145
1023.125	-2679
1023.194	-2305
1023.263	-2142
1023.331	-2210
1023.400	-3715
1023.469	-2956
1023.538	-2145
1023.606	-2295
1023.675	-1665
1023.744	-2792
1023.812	-3177
1023.881	-2970
1023.949	-2862
1024.018	-2454
1024.086	-3187
1024.155	-2357
1024.223	-2755
1024.292	-2961
1024.360	-2408
1024.429	-2535
1024.497	-3008
1024.565	-2927
1024.634	-2807
1024.702	-1834
1024.770	-3075
1024.838	-2769
1024.907	-2530
1024.975	-2930
1025.043	-3025
1025.111	-2560
1025.179	-2191
1025.247	-2243
1025.315	-2714
1025.383	-1789
1025.451	-2764
1025.519	-2605
1025.587	-2261
1025.655	-3231
1025.723	-3995
1025.791	-2612
1025.859	-2617
1025.927	-1786
1025.995	-2669
1026.062	-2183
1026.130	-2864
1026.198	-2514
1026.266	-3206
1026.333	-2550
1026.401	-2008
1026.469	-3183
1026.536	-2046
1026.604	-3514
1026.671	-2075
1026.739	-3140
1026.806	-2456
1026.874	-3030
1026.941	-2683
1027.009	-2725
1027.076	-2660
1027.144	-2257
1027.211	-2444
1027.278	-2459
1027.345	-3066
1027.413	-2629
1027.480	-3137
1027.547	-2962
1027.614	-3356
1027.682	-2833
1027.749	-2489
1027.816	-2590
1027.883	-2756
1027.950	-3111
1028.017	-3344
1028.084	-2384
1028.151	-2988
1028.218	-2450
1028.285	-2334
1028.352	-3631
1028.419	-3753
1028.486	-2723
1028.553	-2528
1028.619	-3050
1028.686	-2427
1028.753	-2349
1028.820	-2843
1028.886	-3275
1028.953	-3276
1029.020	-2896
1029.086	-2675
1029.153	-2446
1029.220	-3317
1029.286	-2526
1029.353	-2345
1029.419	-2616
1029.486	-2824
1029.552	-3402
1029.619	-3175
1029.685	-3556
1029.751	-2834
1029.818	-2251
1029.884	-3277
1029.951	-1901
1030.017	-3045
1030.083	-3049
1030.149	-2716
1030.216	-3319
1030.282	-2797
1030.348	-2504
1030.414	-2815
1030.480	-3169
1030.546	-3002
1030.612	-3198
1030.678	-2893
1030.744	-3169
1030.810	-2993
1030.876	-3401
1030.942	-2988
1031.008	-2931
1031.074	-3491
1031.140	-3128
1031.206	-3018
1031.272	-3378
1031.337	-3207
1031.403	-2311
1031.469	-3772
1031.534	-3294
1031.600	-2355
1031.666	-2936
1031.731	-2918
1031.797	-2716
1031.863	-3230
1031.928	-2350
1031.994	-3550
1032.059	-2719
1032.125	-3448
1032.190	-3669
1032.256	-3257
1032.321	-3266
1032.386	-3673
1032.452	-1990
1032.517	-3440
1032.582	-2802
1032.647	-3239
1032.713	-2915
1032.778	-2447
1032.843	-3275
1032.908	-3472
1032.974	-2263
1033.039	-3370
1033.104	-3278
1033.169	-3256
1033.234	-3079
1033.299	-2244
1033.364	-2772
1033.429	-3128
1033.494	-2993
1033.559	-2380
1033.624	-2681
1033.688	-2484
1033.753	-3114
1033.818	-2548
1033.883	-3085
1033.948	-3566
1034.013	-3167
1034.077	-3381
1034.142	-1921
1034.207	-2923
1034.271	-1416
1034.336	-1403
1034.400	-2538
1034.465	-2341
1034.530	-2000
1034.594	-2847
1034.658	-2223
1034.723	-2294
1034.787	-2382
1034.852	-3337
1034.916	-2565
1034.981	-2850
1035.045	-2773
1035.109	-2813
1035.173	-3176
1035.238	-3635
1035.302	-2261
1035.366	-3264
1035.430	-2761
1035.495	-3320
1035.559	-2777
1035.623	-3078
1035.687	-2969
1035.751	-3400
1035.815	-3453
1035.879	-3567
1035.943	-3737
1036.007	-3249
1036.071	-3138
1036.135	-3018
1036.198	-2393
1036.262	-3764
1036.326	-2139
1036.390	-2476
1036.454	-2682
1036.517	-3064
1036.581	-2532
1036.645	-2288
1036.709	-2208
1036.772	-3946
1036.836	-2660
1036.900	-3637
1036.963	-2995
1037.026	-2705
1037.090	-3885
1037.154	-2805
1037.217	-3171
1037.280	-2776
1037.344	-2491
1037.407	-3640
1037.471	-2045
1037.534	-3103
1037.597	-2750
1037.661	-3010
1037.724	-2645
1037.787	-3483
1037.850	-2840
1037.913	-2879
1037.977	-2294
1038.040	-2672
1038.103	-4780
1038.166	-2696
1038.229	-2872
1038.292	-2827
1038.355	-3413
1038.418	-2785
1038.481	-1148
1038.544	-1890
1038.607	-3232
1038.670	-2613
1038.732	-2066
1038.795	-3813
1038.858	-2905
1038.921	-2982
1038.984	-2846
1039.046	-3209
1039.109	-3554
1039.172	-3113
1039.234	-2736
1039.297	-2824
1039.360	-2439
1039.422	-3052
1039.485	-2727
1039.547	-3180
1039.610	-2144
1039.672	-3073
1039.734	-2109
1039.797	-3027
1039.859	-3275
1039.922	-3167
1039.984	-2459
1040.046	-2925
1040.109	-2608
1040.171	-3019
1040.233	-2778
1040.295	-3636
1040.358	-3051
1040.420	-3776
1040.482	-2712
1040.544	-3345
1040.606	-1997
1040.668	-2798
1040.730	-3244
1040.792	-2728
1040.854	-3889
1040.916	-2691
1040.978	-2984
1041.040	-2656
1041.102	-2581
1041.164	-3321
1041.225	-3372
1041.287	-2608
1041.349	-2856
1041.411	-3146
1041.472	-3021
1041.534	-2224
1041.596	-3301
1041.657	-2616
1041.719	-2790
1041.781	-3216
1041.842	-2106
1041.904	-1776
1041.965	-2405
1042.027	-1904
1042.088	-2211
1042.150	-2783
1042.211	-3119
1042.272	-3249
1042.334	-2206
1042.395	-2679
1042.456	-3196
1042.518	-3085
1042.579	-2176
1042.640	-3405
1042.701	-2567
1042.763	-3586
1042.824	-3013
1042.885	-3304
1042.946	-3303
1043.007	-3537
1043.068	-2652
1043.129	-4243
1043.190	-3112
1043.251	-2804
1043.312	-3261
1043.373	-2286
1043.434	-3305
1043.495	-3192
1043.556	-2385
1043.616	-2740
1043.677	-2415
1043.738	-3038
1043.799	-3465
1043.859	-2993
1043.920	-2575
1043.981	-2805
1044.041	-2202
1044.102	-2704
1044.162	-3206
1044.223	-3307
1044.284	-2765
1044.344	-2268
1044.405	-2870
1044.465	-3856
1044.525	-3171
1044.586	-2584
1044.646	-3358
1044.707	-2666
1044.767	-2481
1044.827	-2535
1044.887	-2329
1044.948	-2397
1045.008	-2471
1045.068	-3217
1045.128	-2539
1045.188	-2794
1045.249	-1971
1045.309	-3172
1045.369	-3153
1045.429	-1887
1045.489	-2511
1045.549	-2435
1045.609	-2375
1045.669	-2152
1045.729	-2867
1045.789	-2095
1045.848	-2877
1045.908	-2570
1045.968	-2534
1046.028	-2489
1046.088	-2229
1046.147	-2017
1046.207	-2383
1046.267	-2938
1046.326	-2676
1046.386	-2950
1046.446	-1624
1046.505	-1183
1046.565	-2220
1046.624	-1787
1046.684	-1325
1046.743	-1526
1046.803	-1785
1046.862	-2218
1046.922	0
