'Start Wavelength	183.907
'End Wavelength	1046.922
'Gate Delay	5.000
'Gate Width (ms)	1.050
'Laser Output Level	0.000
'X Position	0.000
'Y Position	0.000
'Z Position	0.000
'Grid Point Number	1.000
'Shot Number	100.000
183.907	-310.000
183.977	-882.000
184.047	-201
184.116	263
184.186	313
184.256	539
184.325	-158
184.395	-279
184.465	1311
184.534	-205
184.604	-49
184.674	-344
184.743	154
184.813	688
184.883	713
184.952	590
185.022	743
185.092	295
185.161	-318
185.231	-126
185.301	195
185.370	588
185.440	142
185.509	520
185.579	362
185.649	285
185.718	629
185.788	-56
185.857	83
185.927	-138
185.996	356
186.066	-503
186.136	430
186.205	-117
186.275	515
186.344	-281
186.414	541
186.483	-224
186.553	1101
186.622	1298
186.692	498
186.761	375
186.831	956
186.900	166
186.970	852
187.039	225
187.109	612
187.178	247
187.248	-27
187.317	934
187.387	-512
187.456	137
187.526	162
187.595	316
187.664	508
187.734	-91
187.803	410
187.873	699
187.942	1270
188.012	943
188.081	-228
188.150	-87
188.220	946
188.289	328
188.358	342
188.428	474
188.497	35
188.567	-129
188.636	-118
188.705	369
188.775	-372
188.844	-370
188.913	649
188.983	198
189.052	462
189.121	252
189.191	283
189.260	859
189.329	-102
189.399	-297
189.468	637
189.537	-247
189.606	837
189.676	-241
189.745	323
189.814	692
189.883	669
189.953	302
190.022	673
190.091	589
190.161	734
190.230	388
190.299	167
190.368	454
190.437	360
190.507	100
190.576	26
190.645	93
190.714	151
190.783	273
190.853	860
190.922	740
190.991	206
191.060	651
191.129	156
191.198	1032
191.268	310
191.337	15
191.406	1224
191.475	501
191.544	85
191.613	522
191.682	-634
191.752	-31
191.821	768
191.890	248
191.959	-310
192.028	157
192.097	738
192.166	385
192.235	151
192.304	451
192.373	55
192.442	-381
192.511	517
192.580	59
192.650	1004
192.719	66
192.788	617
192.857	-173
192.926	104
192.995	445
193.064	424
193.133	1018
193.202	981
193.271	858
193.340	1446
193.409	928
193.478	903
193.547	889
193.615	754
193.684	1749
193.753	1566
193.822	713
193.891	162
193.960	1234
194.029	614
194.098	732
194.167	439
194.236	369
194.305	324
194.374	139
194.443	250
194.512	1218
194.580	1069
194.649	684
194.718	1112
194.787	120
194.856	-58
194.925	1105
194.994	-69
195.062	955
195.131	654
195.200	746
195.269	1373
195.338	853
195.407	533
195.475	-176
195.544	861
195.613	694
195.682	-17
195.751	763
195.819	944
195.888	736
195.957	1393
196.026	1422
196.094	356
196.163	1262
196.232	1018
196.301	-133
196.369	1582
196.438	1043
196.507	747
196.576	877
196.644	843
196.713	313
196.782	660
196.850	1653
196.919	1059
196.988	447
197.056	-70
197.125	1065
197.194	935
197.262	-696
197.331	670
197.400	23
197.468	564
197.537	564
197.606	330
197.674	1237
197.743	1178
197.812	35
197.880	654
197.949	1303
198.017	232
198.086	781
198.155	1056
198.223	230
198.292	789
198.360	582
198.429	436
198.497	715
198.566	425
198.635	1136
198.703	356
198.772	866
198.840	1741
198.909	1502
198.977	178
199.046	-98
199.114	525
199.183	919
199.251	628
199.320	1
199.388	795
199.457	-25
199.525	365
199.594	385
199.662	679
199.731	-28
199.799	850
199.867	206
199.936	-24
200.004	506
200.073	899
200.141	454
200.210	749
200.278	365
200.346	1565
200.415	1368
200.483	1502
200.552	1249
200.620	433
200.688	487
200.757	906
200.825	368
200.893	734
200.962	515
201.030	682
201.098	-78
201.167	578
201.235	905
201.303	325
201.372	1331
201.440	802
201.508	1038
201.577	1009
201.645	840
201.713	459
201.781	676
201.850	1147
201.918	-347
201.986	271
202.055	1512
202.123	787
202.191	177
202.259	547
202.327	547
202.396	1179
202.464	545
202.532	862
202.600	1966
202.669	1571
202.737	1259
202.805	905
202.873	303
202.941	499
203.009	475
203.078	274
203.146	876
203.214	259
203.282	475
203.350	1111
203.418	1142
203.487	1215
203.555	327
203.623	606
203.691	732
203.759	-195
203.827	-72
203.895	810
203.963	1106
204.031	1087
204.099	917
204.168	838
204.236	1167
204.304	1569
204.372	846
204.440	678
204.508	274
204.576	141
204.644	1209
204.712	802
204.780	361
204.848	1181
204.916	-197
204.984	532
205.052	432
205.120	844
205.188	719
205.256	820
205.324	680
205.392	728
205.460	1161
205.528	1475
205.596	919
205.664	1046
205.732	560
205.799	1934
205.867	2386
205.935	1147
206.003	1513
206.071	739
206.139	965
206.207	994
206.275	770
206.343	1472
206.411	441
206.478	1077
206.546	661
206.614	1003
206.682	755
206.750	238
206.818	1372
206.885	1659
206.953	323
207.021	1589
207.089	-1
207.157	-111
207.225	1451
207.292	329
207.360	734
207.428	711
207.496	329
207.563	885
207.631	966
207.699	453
207.767	97
207.834	1017
207.902	825
207.970	831
208.038	1663
208.105	486
208.173	806
208.241	1183
208.309	1313
208.376	1620
208.444	1875
208.512	743
208.579	334
208.647	1710
208.715	2424
208.782	714
208.850	1289
208.918	1112
208.985	1048
209.053	1323
209.120	1345
209.188	730
209.256	1510
209.323	1359
209.391	1558
209.459	2150
209.526	978
209.594	865
209.661	1197
209.729	1228
209.796	673
209.864	1234
209.932	672
209.999	2612
210.067	964
210.134	1393
210.202	911
210.269	2388
210.337	2411
210.404	1008
210.472	1174
210.539	1644
210.607	967
210.674	1392
210.742	1315
210.809	980
210.877	1756
210.944	2488
211.012	919
211.079	3313
211.146	1625
211.214	2140
211.281	1050
211.349	2491
211.416	2400
211.484	2235
211.551	850
211.618	1215
211.686	1453
211.753	1020
211.821	2064
211.888	1795
211.955	1618
212.023	1931
212.090	1479
212.157	1404
212.225	1337
212.292	2335
212.359	3628
212.427	7493
212.494	3743
212.561	1929
212.629	1753
212.696	1777
212.763	2769
212.831	1282
212.898	2412
212.965	1739
213.032	1577
213.100	2629
213.167	1716
213.234	2000
213.301	2481
213.369	1562
213.436	1308
213.503	1957
213.570	2660
213.638	1826
213.705	1594
213.772	1120
213.839	1802
213.906	2086
213.973	1484
214.041	1621
214.108	1754
214.175	2254
214.242	1984
214.309	2303
214.376	2203
214.444	1992
214.511	2753
214.578	1577
214.645	2999
214.712	2855
214.779	2330
214.846	1214
214.913	2860
214.980	2814
215.048	1940
215.115	3708
215.182	2859
215.249	2262
215.316	1722
215.383	2922
215.450	1936
215.517	1867
215.584	2462
215.651	1702
215.718	1681
215.785	2461
215.852	2193
215.919	2486
215.986	2406
216.053	2160
216.120	1981
216.187	2654
216.254	2031
216.321	2113
216.388	2599
216.455	2444
216.522	2434
216.589	2970
216.656	3519
216.722	4594
216.789	3468
216.856	3251
216.923	2516
216.990	2367
217.057	3066
217.124	3190
217.191	2720
217.258	3451
217.324	3901
217.391	4141
217.458	3115
217.525	3205
217.592	2475
217.659	1122
217.725	3231
217.792	3650
217.859	3911
217.926	2555
217.993	2547
218.059	2551
218.126	2473
218.193	2312
218.260	1598
218.327	1662
218.393	1694
218.460	2403
218.527	2111
218.594	1658
218.660	2947
218.727	3661
218.794	1439
218.860	1689
218.927	1582
218.994	1412
219.061	1626
219.127	2179
219.194	3154
219.261	3303
219.327	1953
219.394	1564
219.461	1161
219.527	1462
219.594	2368
219.661	1835
219.727	385
219.794	2143
219.860	1616
219.927	2921
219.994	3921
220.060	5408
220.127	4608
220.193	3328
220.260	1657
220.326	3846
220.393	4563
220.460	6035
220.526	4159
220.593	3491
220.659	4156
220.726	3267
220.792	6178
220.859	6418
220.925	8244
220.992	10355
221.058	8454
221.125	7680
221.191	4839
221.258	2899
221.324	3015
221.391	2878
221.457	1518
221.524	3168
221.590	3195
221.657	5921
221.723	4393
221.789	4468
221.856	4639
221.922	2690
221.989	2567
222.055	2390
222.121	1545
222.188	3242
222.254	3101
222.321	2508
222.387	1473
222.453	1639
222.520	1514
222.586	2312
222.652	2430
222.719	1371
222.785	3325
222.851	2467
222.918	2761
222.984	2289
223.050	2067
223.116	1533
223.183	2507
223.249	1327
223.315	678
223.382	1731
223.448	1881
223.514	1401
223.580	1329
223.647	1167
223.713	1307
223.779	2025
223.845	1539
223.911	2538
223.978	966
224.044	2309
224.110	1607
224.176	1657
224.242	2163
224.309	1721
224.375	2046
224.441	2020
224.507	1342
224.573	1182
224.639	1520
224.705	1356
224.772	1475
224.838	1012
224.904	2420
224.970	1497
225.036	1704
225.102	566
225.168	1700
225.234	1920
225.300	1456
225.366	1383
225.432	1065
225.499	1522
225.565	2375
225.631	2335
225.697	2264
225.763	3244
225.829	2525
225.895	2439
225.961	4645
226.027	3586
226.093	3490
226.159	4296
226.225	5963
226.291	10438
226.357	15770
226.423	10120
226.489	5966
226.554	5086
226.620	3919
226.686	5564
226.752	6980
226.818	10437
226.884	19021
226.950	17036
227.016	8412
227.082	6016
227.148	4380
227.214	4433
227.279	3914
227.345	3437
227.411	3087
227.477	3683
227.543	6873
227.609	7223
227.674	4979
227.740	3152
227.806	3342
227.872	2217
227.938	2554
228.003	4472
228.069	2473
228.135	1982
228.201	2540
228.267	1996
228.332	3101
228.398	2732
228.464	2745
228.530	1637
228.595	2304
228.661	713
228.727	3466
228.792	4069
228.858	2502
228.924	1143
228.990	3502
229.055	1562
229.121	4026
229.187	2387
229.252	2663
229.318	1284
229.384	2568
229.449	3462
229.515	626
229.581	646
229.646	3284
229.712	2223
229.777	5167
229.843	4630
229.909	4835
229.974	4118
230.040	4466
230.105	3764
230.171	2881
230.236	4747
230.302	4865
230.368	5005
230.433	2581
230.499	3318
230.564	4667
230.630	2413
230.695	2451
230.761	2726
230.826	1905
230.892	4619
230.957	2666
231.023	2598
231.088	2532
231.154	2685
231.219	2641
231.284	3022
231.350	3862
231.415	2239
231.481	2256
231.546	1933
231.612	2227
231.677	2477
231.742	353
231.808	2796
231.873	1312
231.939	681
232.004	3350
232.069	4494
232.135	2075
232.200	1873
232.265	3342
232.331	1912
232.396	1818
232.461	1481
232.527	2365
232.592	1465
232.657	1379
232.723	2800
232.788	2535
232.853	2238
232.918	1914
232.984	1069
233.049	910
233.114	1595
233.179	2864
233.245	3127
233.310	3077
233.375	230
233.440	2244
233.506	1992
233.571	1636
233.636	2011
233.701	1744
233.766	2269
233.832	3277
233.897	1565
233.962	1457
234.027	3987
234.092	2006
234.157	2065
234.222	1772
234.288	2543
234.353	5206
234.418	5314
234.483	4688
234.548	4503
234.613	3857
234.678	3809
234.743	3254
234.808	6882
234.873	4083
234.938	4111
235.004	2694
235.069	3339
235.134	3228
235.199	3141
235.264	2496
235.329	1679
235.394	2786
235.459	3244
235.524	1969
235.589	3464
235.654	2711
235.719	2235
235.784	2959
235.849	2800
235.913	3473
235.978	3631
236.043	3125
236.108	3423
236.173	2255
236.238	3615
236.303	2322
236.368	2821
236.433	4232
236.498	3922
236.563	4539
236.627	8365
236.692	24963
236.757	23457
236.822	10311
236.887	6362
236.952	7098
237.017	4172
237.081	5843
237.146	7104
237.211	13349
237.276	24031
237.341	37566
237.405	20576
237.470	9943
237.535	7390
237.600	5708
237.664	5288
237.729	3235
237.794	4622
237.859	9309
237.923	4738
237.988	2874
238.053	4271
238.118	4121
238.182	8248
238.247	7664
238.312	3057
238.376	4225
238.441	1933
238.506	4513
238.570	1224
238.635	3135
238.700	2484
238.764	1914
238.829	4015
238.893	3728
238.958	4256
239.023	4342
239.087	3147
239.152	3939
239.216	2664
239.281	3031
239.346	2411
239.410	2608
239.475	1808
239.539	7431
239.604	4962
239.668	3509
239.733	2570
239.797	3875
239.862	12501
239.926	8100
239.991	5205
240.055	2612
240.120	3051
240.184	3624
240.249	2100
240.313	2884
240.378	2386
240.442	4319
240.507	6265
240.571	3179
240.635	3098
240.700	4226
240.764	2780
240.829	2984
240.893	65
240.957	1998
241.022	4140
241.086	6611
241.151	3049
241.215	2601
241.279	3502
241.344	3250
241.408	4886
241.472	2717
241.537	5177
241.601	4311
241.665	2476
241.730	3501
241.794	4474
241.858	3579
241.922	4133
241.987	3575
242.051	3941
242.115	2383
242.179	3871
242.244	2898
242.308	4433
242.372	3720
242.436	3958
242.501	3548
242.565	2445
242.629	2163
242.693	3947
242.757	2523
242.822	2501
242.886	3663
242.950	3249
243.014	2483
243.078	4151
243.142	3912
243.206	2971
243.271	4729
243.335	2762
243.399	4501
243.463	10640
243.527	27370
243.591	10466
243.655	4709
243.719	3306
243.783	4857
243.847	5710
243.911	6677
243.975	8339
244.040	5631
244.104	5723
244.168	3310
244.232	4956
244.296	7032
244.360	6322
244.424	3240
244.488	3494
244.552	3671
244.615	1622
244.679	2850
244.743	3872
244.807	3820
244.871	3013
244.935	3336
244.999	1381
245.063	2347
245.127	3932
245.191	4407
245.255	4493
245.319	4253
245.383	3418
245.446	4989
245.510	1836
245.574	3237
245.638	3617
245.702	2391
245.766	8920
245.829	6050
245.893	3010
245.957	2483
246.021	4988
246.085	3750
246.149	4439
246.212	10876
246.276	16367
246.340	7768
246.404	5737
246.467	5382
246.531	6972
246.595	5894
246.659	4822
246.722	4353
246.786	5765
246.850	6232
246.913	7057
246.977	3455
247.041	3552
247.104	4087
247.168	4299
247.232	11075
247.295	21891
247.359	11811
247.423	5548
247.486	8384
247.550	5996
247.614	3670
247.677	6725
247.741	3833
247.804	3351
247.868	4799
247.932	7480
247.995	20209
248.059	8348
248.122	3259
248.186	6477
248.249	10240
248.313	31686
248.376	37496
248.440	23268
248.503	9126
248.567	8898
248.630	9909
248.694	14378
248.757	18842
248.821	35977
248.884	25011
248.948	19075
249.011	28318
249.075	40377
249.138	36609
249.202	16007
249.265	10168
249.328	9361
249.392	7486
249.455	8029
249.519	5375
249.582	7028
249.645	11072
249.709	8131
249.772	5091
249.835	6242
249.899	5430
249.962	6478
250.025	5755
250.089	13392
250.152	19032
250.215	9322
250.279	6947
250.342	6311
250.405	5873
250.468	5462
250.532	7274
250.595	9487
250.658	26477
250.721	44498
250.785	19981
250.848	14341
250.911	6892
250.974	8158
251.038	9951
251.101	20930
251.164	10633
251.227	11548
251.290	9599
251.354	12535
251.417	37121
251.480	40838
251.543	27288
251.606	64419
251.669	54539
251.732	24179
251.795	27081
251.859	26537
251.922	43155
251.985	28966
252.048	13033
252.111	10112
252.174	9820
252.237	18166
252.300	41238
252.363	37245
252.426	60428
252.489	29514
252.552	14557
252.615	9693
252.678	12417
252.741	29336
252.804	31483
252.867	58805
252.930	44091
252.993	26258
253.056	15099
253.119	10863
253.182	7276
253.245	11264
253.308	9316
253.371	8209
253.434	7920
253.497	8545
253.559	18274
253.622	13301
253.685	13710
253.748	15411
253.811	7202
253.874	8600
253.937	7360
254.000	7135
254.062	12785
254.125	20573
254.188	17294
254.251	15028
254.314	7469
254.376	10785
254.439	13638
254.502	11704
254.565	12242
254.628	24503
254.690	13175
254.753	6767
254.816	6362
254.878	7123
254.941	13929
255.004	15511
255.067	6611
255.129	6655
255.192	4151
255.255	3626
255.317	5005
255.380	3389
255.443	2399
255.505	2349
255.568	2599
255.631	3057
255.693	3154
255.756	2641
255.819	3762
255.881	2437
255.944	2989
256.006	2319
256.069	2501
256.132	1891
256.194	3195
256.257	5320
256.319	4290
256.382	4901
256.444	4830
256.507	3912
256.569	3840
256.632	3619
256.694	4912
256.757	15268
256.819	43893
256.882	18594
256.944	8736
257.007	7116
257.069	6815
257.132	4676
257.194	4607
257.257	3531
257.319	3580
257.381	4371
257.444	12374
257.506	46672
257.569	54278
257.631	21087
257.693	15387
257.756	7078
257.818	5266
257.880	4504
257.943	4441
258.005	3451
258.067	3518
258.130	4448
258.192	4560
258.254	7390
258.317	5284
258.379	4943
258.441	9825
258.503	10844
258.566	7057
258.628	9272
258.690	3338
258.753	5474
258.815	9429
258.877	6000
258.939	4599
259.001	4681
259.064	4047
259.126	3654
259.188	4133
259.250	4095
259.312	4997
259.375	6393
259.437	5898
259.499	3643
259.561	3551
259.623	4076
259.685	4166
259.747	4039
259.809	6597
259.872	11778
259.934	18866
259.996	22827
260.058	8626
260.120	4025
260.182	3821
260.244	3866
260.306	2721
260.368	3972
260.430	2215
260.492	7193
260.554	10588
260.616	5260
260.678	13205
260.740	14142
260.802	4671
260.864	5104
260.926	3670
260.988	4690
261.050	4495
261.112	10396
261.174	20219
261.236	11000
261.298	5563
261.359	5874
261.421	8196
261.483	3397
261.545	5060
261.607	2542
261.669	4180
261.731	4321
261.793	10843
261.854	7358
261.916	5312
261.978	4095
262.040	4564
262.102	3946
262.164	3009
262.225	3555
262.287	3896
262.349	9191
262.411	8067
262.472	3990
262.534	3427
262.596	6997
262.658	3591
262.719	1653
262.781	3414
262.843	5520
262.904	3586
262.966	3480
263.028	4249
263.090	12883
263.151	36321
263.213	17234
263.275	12735
263.336	4796
263.398	3656
263.459	2106
263.521	2714
263.583	8997
263.644	6322
263.706	3106
263.767	1690
263.829	2428
263.891	1800
263.952	1368
264.014	1143
264.075	4772
264.137	14033
264.198	7217
264.260	1809
264.321	3350
264.383	7499
264.444	21803
264.506	6347
264.567	4459
264.629	8784
264.690	17583
264.752	6538
264.813	4975
264.875	2690
264.936	3937
264.998	2982
265.059	2140
265.120	2929
265.182	5308
265.243	22254
265.305	25582
265.366	6949
265.427	4162
265.489	3967
265.550	1626
265.611	3497
265.673	3103
265.734	2862
265.795	2678
265.857	2221
265.918	2464
265.979	7383
266.040	36646
266.102	32511
266.163	10317
266.224	8445
266.286	6093
266.347	2673
266.408	2898
266.469	2578
266.530	3026
266.592	2668
266.653	5381
266.714	10541
266.775	4140
266.836	2721
266.898	2851
266.959	4813
267.020	3428
267.081	3518
267.142	2899
267.203	1534
267.264	1302
267.326	3501
267.387	1831
267.448	2179
267.509	2650
267.570	2269
267.631	1982
267.692	2002
267.753	2813
267.814	1543
267.875	6235
267.936	13708
267.997	8499
268.058	6969
268.119	3768
268.180	3336
268.241	2306
268.302	2937
268.363	1571
268.424	2517
268.485	3618
268.546	2068
268.607	1514
268.668	1578
268.729	1883
268.790	2165
268.851	2063
268.912	7752
268.972	10313
269.033	5540
269.094	3150
269.155	3097
269.216	1641
269.277	2119
269.338	2252
269.398	2382
269.459	2864
269.520	4151
269.581	5703
269.642	7037
269.702	5297
269.763	4365
269.824	2741
269.885	3805
269.945	7993
270.006	3384
270.067	2055
270.128	2275
270.188	2009
270.249	2559
270.310	1680
270.370	1949
270.431	2074
270.492	2130
270.553	2941
270.613	5319
270.674	13135
270.734	5757
270.795	3115
270.856	4823
270.916	3753
270.977	3051
271.038	3726
271.098	3802
271.159	5710
271.219	6594
271.280	1786
271.340	2385
271.401	2548
271.462	3958
271.522	4595
271.583	2798
271.643	3059
271.704	2828
271.764	4281
271.825	9410
271.885	33142
271.946	46055
272.006	15455
272.066	19970
272.127	35816
272.187	12144
272.248	6802
272.308	6944
272.369	22565
272.429	13423
272.489	9509
272.550	9954
272.610	10888
272.671	7243
272.731	5480
272.791	7228
272.852	5778
272.912	4866
272.972	2547
273.033	3053
273.093	3473
273.153	5563
273.214	3756
273.274	3996
273.334	15191
273.394	31506
273.455	13461
273.515	11815
273.575	27922
273.635	11098
273.696	11641
273.756	29147
273.816	13155
273.876	7543
273.936	7363
273.997	11522
274.057	4532
274.117	3988
274.177	7727
274.237	37006
274.297	31859
274.358	15455
274.418	25011
274.478	20412
274.538	6923
274.598	3641
274.658	8824
274.718	11040
274.778	5509
274.838	3194
274.898	5788
274.958	12813
275.018	25786
275.078	20179
275.138	8299
275.198	4104
275.258	3330
275.318	3581
275.378	7921
275.438	9823
275.498	7091
275.558	8032
275.618	20537
275.678	22208
275.738	14137
275.798	10205
275.858	6156
275.918	3206
275.978	4310
276.038	4271
276.098	3160
276.157	7458
276.217	22750
276.277	10792
276.337	7732
276.397	3881
276.457	4364
276.517	3306
276.576	2421
276.636	3196
276.696	5881
276.756	12823
276.815	9668
276.875	4409
276.935	4704
276.995	4107
277.055	3355
277.114	3056
277.174	5472
277.234	18061
277.293	8349
277.353	4695
277.413	3436
277.472	3108
277.532	3967
277.592	4340
277.651	9088
277.711	18645
277.771	6888
277.830	24450
277.890	21064
277.950	13126
278.009	35219
278.069	13964
278.128	12964
278.188	19602
278.248	8713
278.307	19187
278.367	12922
278.426	4636
278.486	3189
278.545	3224
278.605	2805
278.664	2179
278.724	3671
278.783	10389
278.843	28790
278.902	8556
278.962	5330
279.021	3890
279.081	4186
279.140	4454
279.199	5165
279.259	4946
279.318	5757
279.378	6516
279.437	9598
279.496	31503
279.556	61151
279.615	47797
279.675	14448
279.734	9973
279.793	16558
279.853	27098
279.912	10133
279.971	5898
280.031	5101
280.090	10086
280.149	21127
280.208	10513
280.268	41257
280.327	44220
280.386	12332
280.445	12386
280.505	13163
280.564	5626
280.623	5413
280.682	8771
280.742	16040
280.801	5002
280.860	3465
280.919	2781
280.978	2915
281.037	2172
281.097	1699
281.156	3712
281.215	2166
281.274	4024
281.333	18289
281.392	14437
281.451	3359
281.510	2454
281.569	2639
281.628	1493
281.688	1237
281.747	3259
281.806	3467
281.865	2384
281.924	1899
281.983	2764
282.042	1554
282.101	1031
282.160	2040
282.219	1697
282.278	2515
282.337	10629
282.396	8648
282.454	3947
282.513	4648
282.572	18111
282.631	10509
282.690	3247
282.749	1801
282.808	3823
282.867	3330
282.926	4108
282.985	2087
283.043	1594
283.102	2028
283.161	1329
283.220	7894
283.279	18999
283.338	6196
283.396	2372
283.455	2934
283.514	3979
283.573	7426
283.631	4415
283.690	3889
283.749	2486
283.808	7407
283.866	9073
283.925	3108
283.984	3027
284.043	5174
284.101	4572
284.160	1989
284.219	3939
284.277	4124
284.336	6122
284.395	23430
284.453	19148
284.512	6958
284.570	9311
284.629	8125
284.688	5824
284.746	6521
284.805	6649
284.863	9036
284.922	10481
284.981	13360
285.039	19812
285.098	35752
285.156	85482
285.215	157820
285.273	159890
285.332	98927
285.390	49770
285.449	31616
285.507	21711
285.566	14934
285.624	11273
285.683	8933
285.741	7734
285.799	5594
285.858	5685
285.916	5743
285.975	3864
286.033	2840
286.091	3080
286.150	2840
286.208	3558
286.267	3435
286.325	3740
286.383	7323
286.442	5952
286.500	2448
286.558	2016
286.616	2477
286.675	4134
286.733	4022
286.791	2734
286.850	4028
286.908	4777
286.966	10496
287.024	3398
287.083	2713
287.141	1914
287.199	2689
287.257	4890
287.315	3367
287.374	3825
287.432	11892
287.490	7670
287.548	3049
287.606	2480
287.664	2837
287.723	4559
287.781	5512
287.839	2427
287.897	2593
287.955	3958
288.013	5848
288.071	14467
288.129	49850
288.187	128501
288.245	64432
288.303	20678
288.361	12398
288.419	10134
288.477	6351
288.535	4877
288.593	3279
288.651	3072
288.709	1728
288.767	2821
288.825	1772
288.883	1954
288.941	1417
288.999	1186
289.057	1960
289.115	1936
289.173	1270
289.231	2052
289.289	761
289.346	1740
289.404	2272
289.462	3985
289.520	5559
289.578	2450
289.636	1197
289.694	1928
289.751	2171
289.809	1417
289.867	1791
289.925	3041
289.983	4117
290.040	2294
290.098	1732
290.156	2934
290.214	2674
290.271	1460
290.329	1568
290.387	931
290.444	1248
290.502	426
290.560	1095
290.617	1408
290.675	1064
290.733	1448
290.790	3097
290.848	1400
290.906	1928
290.963	1859
291.021	1187
291.078	1402
291.136	3453
291.194	9028
291.251	22506
291.309	6785
291.366	2513
291.424	2359
291.481	1372
291.539	1184
291.596	1860
291.654	1371
291.711	1226
291.769	1536
291.826	4742
291.884	2904
291.941	890
291.999	1329
292.056	1689
292.114	2852
292.171	1896
292.228	2374
292.286	2091
292.343	5130
292.401	5630
292.458	2807
292.515	1948
292.573	3178
292.630	3365
292.687	2385
292.745	2457
292.802	3649
292.859	11059
292.917	20199
292.974	12482
293.031	3836
293.089	3127
293.146	1758
293.203	1978
293.260	1639
293.318	2359
293.375	4532
293.432	2413
293.489	1939
293.546	1851
293.604	3628
293.661	12280
293.718	33446
293.775	16974
293.832	6950
293.889	4986
293.947	4297
294.004	3201
294.061	3664
294.118	9862
294.175	21586
294.232	25013
294.289	9655
294.346	5244
294.403	4992
294.460	3256
294.517	3068
294.574	3053
294.631	2562
294.688	4928
294.745	10210
294.802	36531
294.859	41969
294.916	14211
294.973	6577
295.030	5714
295.087	5822
295.144	3080
295.201	3909
295.258	2543
295.315	4468
295.372	13447
295.429	27731
295.486	12079
295.542	8137
295.599	17142
295.656	30305
295.713	20849
295.770	27122
295.827	10183
295.883	5620
295.940	5076
295.997	7287
296.054	6869
296.111	3905
296.167	3689
296.224	2784
296.281	2455
296.338	2393
296.394	2271
296.451	4115
296.508	11927
296.564	24108
296.621	16156
296.678	29700
296.734	45475
296.791	17078
296.848	8819
296.904	9952
296.961	21144
297.018	30772
297.074	22670
297.131	8521
297.187	7024
297.244	10548
297.301	28709
297.357	53353
297.414	18638
297.470	7747
297.527	5756
297.583	4776
297.640	4867
297.696	2732
297.753	2302
297.809	1435
297.866	1657
297.922	2261
297.979	1371
298.035	2764
298.092	5917
298.148	17107
298.204	16802
298.261	8417
298.317	14042
298.374	37605
298.430	22196
298.486	8526
298.543	5786
298.599	5357
298.656	6120
298.712	9416
298.768	23061
298.824	15204
298.881	5254
298.937	3480
298.993	3824
299.050	4382
299.106	4355
299.162	2989
299.218	3958
299.275	3303
299.331	4122
299.387	8876
299.443	32748
299.500	36066
299.556	13743
299.612	7217
299.668	6055
299.724	8410
299.780	8787
299.837	5677
299.893	8014
299.949	25806
300.005	32558
300.061	26262
300.117	45368
300.173	22071
300.229	9312
300.285	10390
300.341	13805
300.397	6261
300.453	3578
300.510	3842
300.566	3237
300.622	6370
300.678	15971
300.734	31184
300.790	27541
300.845	32547
300.901	20125
300.957	27617
301.013	22088
301.069	8360
301.125	6342
301.181	5935
301.237	3785
301.293	3322
301.349	3046
301.405	2571
301.461	1744
301.516	2652
301.572	3240
301.628	7209
301.684	7306
301.740	10821
301.796	18730
301.851	12216
301.907	21311
301.963	21161
302.019	33473
302.074	88388
302.130	88059
302.186	38878
302.242	17309
302.297	11991
302.353	11535
302.409	19793
302.464	17555
302.520	12930
302.576	30171
302.631	36514
302.687	20800
302.743	8210
302.798	6105
302.854	5117
302.910	4618
302.965	5811
303.021	9981
303.076	9598
303.132	11654
303.187	14971
303.243	7823
303.299	4709
303.354	4314
303.410	3413
303.465	3087
303.521	2830
303.576	3153
303.632	4946
303.687	10208
303.743	27385
303.798	23852
303.853	9809
303.909	5338
303.964	5335
304.020	7343
304.075	11559
304.130	10430
304.186	18554
304.241	19696
304.297	15374
304.352	7431
304.358	7201
304.407	5323
304.449	4819
304.463	4654
304.518	4382
304.539	4384
304.573	4375
304.629	4150
304.630	4224
304.684	8119
304.720	17078
304.739	21423
304.794	34136
304.811	29491
304.850	17601
304.902	7801
304.905	7226
304.960	5108
304.992	4896
305.015	4703
305.071	3813
305.083	3729
305.126	3444
305.173	2601
305.181	2490
305.236	2703
305.264	2966
305.292	3233
305.347	4021
305.354	4055
305.402	4346
305.445	4471
305.457	4527
305.512	6276
305.535	6750
305.567	7154
305.622	7063
305.626	7226
305.678	15038
305.716	29050
305.733	32933
305.788	37675
305.807	32893
305.843	26101
305.897	34622
305.898	34668
305.953	32974
305.988	21793
306.008	16258
306.063	9421
306.078	8482
306.118	7185
306.168	4772
306.173	4583
306.228	3261
306.259	3243
306.283	3462
306.338	3881
306.349	4012
306.393	4522
306.440	4933
306.448	4954
306.503	4807
306.530	5484
306.558	8156
306.613	14392
306.620	15467
306.668	25958
306.711	39133
306.723	39355
306.778	30111
306.801	22661
306.833	15147
306.888	7494
306.892	7123
306.943	5864
306.982	5062
306.997	4879
307.052	4570
307.072	4549
307.107	5375
307.162	6626
307.163	6637
307.217	9742
307.253	11611
307.272	11583
307.327	11789
307.343	11186
307.381	10184
307.434	10195
307.436	10749
307.491	24037
307.524	34275
307.546	35493
307.600	36665
307.614	34020
307.655	21854
307.704	10396
307.710	10309
307.765	13014
307.795	15164
307.819	18002
307.874	25715
307.885	26383
307.929	22359
307.975	18563
307.984	19804
308.038	30114
308.065	36542
308.093	66989
308.148	137165
308.156	149718
308.202	215079
308.246	263777
308.257	251278
308.312	144563
308.336	100686
308.366	80029
308.421	50372
308.426	47209
308.475	30398
308.517	19780
308.530	18842
308.585	15559
308.607	14430
308.639	14552
308.694	15551
308.697	15633
308.748	27028
308.787	36841
308.803	35650
308.857	28208
308.877	24896
308.912	24122
308.967	24326
308.967	24282
309.021	34529
309.058	42106
309.076	56190
309.130	103085
309.148	119824
309.185	205186
309.238	335699
309.239	336997
309.293	347713
309.328	335540
309.348	290204
309.402	149554
309.418	111259
309.457	81395
309.508	47042
309.511	46544
309.566	39451
309.598	35599
309.620	38940
309.674	48455
309.688	50978
309.729	48516
309.778	43249
309.783	42612
309.837	33771
309.868	29143
309.892	39859
309.946	66922
309.959	73726
310.001	95197
310.049	116801
310.055	112114
310.109	61910
310.139	34163
310.163	27136
310.218	14504
310.229	12113
310.272	10641
310.319	9283
310.326	9162
310.381	8286
310.409	7847
310.435	7641
310.489	7348
310.499	7256
310.543	7295
310.589	7498
310.598	7790
310.652	9418
310.679	10095
310.706	9089
310.760	7095
310.769	6739
310.814	6282
310.859	5913
310.868	5991
310.923	6336
310.948	6469
310.977	7170
311.031	8579
311.038	8733
311.085	8083
311.128	7394
311.139	7424
311.193	7496
311.218	7481
311.247	7262
311.301	6790
311.308	6713
311.356	7281
311.398	7729
311.410	7603
311.464	6912
311.488	6568
311.518	6742
311.572	7049
311.578	7057
311.626	11096
311.668	14706
311.680	14443
311.734	12853
311.758	12099
311.788	11605
311.842	10689
311.847	10555
311.896	15464
311.937	19650
311.950	19483
312.004	18424
312.027	17868
312.058	15019
312.112	9826
312.117	9276
312.165	8639
312.207	8044
312.297	14265
312.386	11514
312.476	9714
312.566	25586
312.656	11240
312.745	7339
312.835	8686
312.925	10539
313.015	8681
313.104	8942
313.194	8778
313.284	8643
313.374	11988
313.463	10699
313.553	7657
313.643	7131
313.732	6439
313.822	6631
313.912	8737
314.001	10259
314.091	12135
314.180	15965
314.270	13297
314.360	14009
314.449	12627
314.539	8537
314.628	7233
314.718	9753
314.808	11179
314.897	6897
314.987	8071
315.076	10742
315.166	14622
315.255	12048
315.345	14037
315.434	12453
315.524	11263
315.613	13647
315.703	17257
315.792	20488
315.881	36323
315.971	17854
316.060	24621
316.150	29496
316.239	29053
316.328	11244
316.418	8841
316.507	10096
316.597	13311
316.686	12582
316.775	14757
316.865	29114
316.954	9027
317.043	7121
317.133	7870
317.222	7659
317.311	7782
317.400	7559
317.490	12868
317.579	15436
317.668	9337
317.757	14751
317.847	26103
317.936	65327
318.025	43610
318.114	23327
318.203	15694
318.293	17939
318.382	25180
318.471	29449
318.560	38306
318.649	106895
318.738	23578
318.828	16739
318.917	18896
319.006	19772
319.095	42423
319.184	133318
319.273	75928
319.362	41841
319.451	15072
319.540	13824
319.629	30995
319.718	54355
319.807	24904
319.896	43504
319.985	160948
320.074	60586
320.163	15638
320.252	19639
320.341	20924
320.430	19679
320.519	27844
320.608	15593
320.697	12050
320.786	11997
320.875	17474
320.964	24056
321.053	37897
321.142	50748
321.230	56279
321.319	37690
321.408	94147
321.497	37848
321.586	36169
321.675	34863
321.764	35717
321.852	25167
321.941	54994
322.030	37570
322.119	38177
322.207	93883
322.296	53125
322.385	31417
322.474	36268
322.562	115807
322.651	58450
322.740	37677
322.829	48834
322.917	43180
323.006	30885
323.095	27760
323.183	18656
323.272	28167
323.361	46602
323.449	119517
323.538	41396
323.626	82102
323.715	50720
323.804	23542
323.892	75670
323.981	48835
324.069	16305
324.158	38841
324.246	39590
324.335	20216
324.424	36324
324.512	20540
324.601	40996
324.689	126079
324.778	251724
324.866	56346
324.954	16155
325.043	13410
325.131	21301
325.220	31684
325.308	36069
325.397	28975
325.485	19388
325.574	7584
325.662	7920
325.750	10464
325.839	8335
325.927	7245
326.015	11830
326.104	13525
326.192	17596
326.280	7469
326.369	8724
326.457	14792
326.545	29467
326.634	13145
326.722	6987
326.810	7546
326.898	8847
326.987	10686
327.075	25696
327.163	26773
327.251	29482
327.340	116106
327.428	191669
327.516	23567
327.604	10298
327.692	9282
327.781	9208
327.869	14989
327.957	13009
328.045	13270
328.133	7668
328.221	8357
328.309	9348
328.397	9170
328.485	12579
328.574	18277
328.662	61294
328.750	29687
328.838	11093
328.926	8361
329.014	7907
329.102	14908
329.190	35801
329.278	24478
329.366	8383
329.454	6871
329.542	7143
329.630	6907
329.718	9222
329.806	13011
329.893	13504
329.981	19250
330.069	39380
330.157	138704
330.245	364397
330.333	199560
330.421	39247
330.509	27543
330.597	77517
330.684	50094
330.772	18239
330.860	21105
330.948	29797
331.036	14069
331.123	6423
331.211	7647
331.299	11558
331.387	24044
331.475	45004
331.562	12576
331.650	6684
331.738	8068
331.825	9754
331.913	6738
332.001	6116
332.089	8920
332.176	17936
332.264	37884
332.352	31814
332.439	13278
332.527	9814
332.614	7919
332.702	10087
332.790	8268
332.877	19222
332.965	34556
333.052	10943
333.140	10848
333.228	23732
333.315	9339
333.403	7928
333.490	22194
333.578	20107
333.665	28128
333.753	17137
333.840	8788
333.928	11059
334.015	27020
334.103	44779
334.190	144870
334.278	39829
334.365	16988
334.452	13375
334.540	9499
334.627	10946
334.715	16476
334.802	31450
334.889	126467
334.977	129502
335.064	22724
335.151	12937
335.239	12166
335.326	20209
335.413	76934
335.501	108221
335.588	17826
335.675	12492
335.762	15803
335.850	27894
335.937	20453
336.024	42640
336.111	154709
336.199	68262
336.286	18101
336.373	10392
336.460	7602
336.547	7295
336.635	10631
336.722	10958
336.809	9117
336.896	16255
336.983	49342
337.070	119803
337.157	162506
337.245	90998
337.332	60439
337.419	11518
337.506	7833
337.593	12165
337.680	37318
337.767	119405
337.854	33473
337.941	35972
338.028	34625
338.115	13566
338.202	18063
338.289	28370
338.376	90806
338.463	34325
338.550	67791
338.637	74415
338.724	20368
338.811	27727
338.898	8480
338.984	7329
339.071	10199
339.158	14945
339.245	37622
339.332	21037
339.419	21107
339.506	19493
339.593	4852
339.679	7823
339.766	7348
339.853	11817
339.940	27656
340.027	9866
340.113	9067
340.200	14238
340.287	9240
340.374	12649
340.460	23285
340.547	12020
340.634	18717
340.720	69725
340.807	41155
340.894	7386
340.980	7248
341.067	7484
341.154	10183
341.240	15179
341.327	35794
341.414	10354
341.500	8613
341.587	8583
341.674	7737
341.760	23944
341.847	28637
341.933	9365
342.020	3500
342.106	4349
342.193	8556
342.279	18579
342.366	12645
342.452	25519
342.539	13688
342.625	32233
342.712	78369
342.798	32682
342.885	13239
342.971	4266
343.058	5331
343.144	5392
343.230	5950
343.317	6698
343.403	5586
343.490	4632
343.576	4469
343.662	7064
343.749	8564
343.835	14693
343.921	24098
344.008	123535
344.094	281997
344.180	63106
344.267	26306
344.353	82350
344.439	85293
344.525	37337
344.612	13848
344.698	14231
344.784	10164
344.870	6496
344.957	7875
345.043	14012
345.129	10542
345.215	23324
345.301	13580
345.387	8359
345.474	4617
345.560	5313
345.646	7746
345.732	7263
345.818	8170
345.904	7198
345.990	9480
346.076	7639
346.162	12723
346.249	8658
346.335	6603
346.421	9282
346.507	32550
346.593	116763
346.679	28939
346.765	8745
346.851	8290
346.937	8067
347.023	6906
347.108	10482
347.194	7690
347.280	5810
347.366	10869
347.452	33372
347.538	138163
347.624	103429
347.710	82731
347.796	13063
347.882	8791
347.967	7508
348.053	11269
348.139	8197
348.225	5732
348.311	7072
348.397	5408
348.482	9107
348.568	11913
348.654	5456
348.740	8817
348.825	9721
348.911	16653
348.997	61959
349.083	122763
349.168	20363
349.254	7451
349.340	6529
349.425	5733
349.511	11447
349.597	15607
349.682	27819
349.768	87658
349.854	41370
349.939	8306
350.025	5175
350.110	6478
350.196	5226
350.282	3893
350.367	5078
350.453	9271
350.538	11377
350.624	11948
350.709	11033
350.795	5805
350.880	7731
350.966	9820
351.051	9869
351.137	7392
351.222	8201
351.308	27104
351.393	77791
351.479	17238
351.564	6267
351.649	6969
351.735	5688
351.820	4657
351.906	8798
351.991	14052
352.076	48995
352.162	73474
352.247	14751
352.332	9943
352.418	18509
352.503	23390
352.588	112965
352.673	92284
352.759	19622
352.844	10173
352.929	10513
353.014	15167
353.100	9196
353.185	12667
353.270	25704
353.355	27527
353.441	8226
353.526	9380
353.611	24007
353.696	28918
353.781	16760
353.866	7380
353.952	8985
354.037	25088
354.122	56586
354.207	50834
354.292	18332
354.377	8313
354.462	6813
354.547	10979
354.632	10531
354.717	14186
354.802	15406
354.887	6319
354.972	5906
355.057	6556
355.142	4838
355.227	9479
355.312	16970
355.397	38608
355.482	89103
355.567	42756
355.652	30361
355.737	32571
355.822	95676
355.907	77534
355.991	13471
356.076	6191
356.161	7297
356.246	5467
356.331	8864
356.416	21337
356.501	141077
356.585	147881
356.670	23950
356.755	15554
356.840	22573
356.924	94538
357.009	339078
357.094	131799
357.179	32159
357.263	21384
357.348	19897
357.433	18872
357.517	19900
357.602	16990
357.687	10975
357.771	10547
357.856	12525
357.941	18697
358.025	78356
358.110	332340
358.195	158324
358.279	28838
358.364	20245
358.448	67449
358.533	188000
358.617	136845
358.702	130191
358.787	48018
358.871	27587
358.956	24254
359.040	8142
359.125	5828
359.209	5851
359.294	7449
359.378	10565
359.462	19961
359.547	11522
359.631	7443
359.716	6058
359.800	7318
359.885	13404
359.969	9545
360.053	9980
360.138	13784
360.222	15152
360.306	27929
360.391	19199
360.475	21694
360.559	51659
360.644	67004
360.728	51039
360.812	76875
360.896	212461
360.981	94749
361.065	51750
361.149	14513
361.233	14128
361.318	10836
361.402	11606
361.486	11042
361.570	8958
361.654	13316
361.739	33926
361.823	140695
361.907	209113
361.991	38776
362.075	25840
362.159	55917
362.243	38882
362.327	36386
362.411	39665
362.495	21941
362.580	13210
362.664	9302
362.748	10482
362.832	13684
362.916	24258
363.000	66838
363.084	175200
363.168	251012
363.252	64904
363.336	25146
363.420	31097
363.503	110604
363.587	128739
363.671	25351
363.755	18358
363.839	26718
363.923	13104
364.007	29230
364.091	33729
364.175	43266
364.258	179509
364.342	129751
364.426	122191
364.510	67353
364.594	38724
364.677	44746
364.761	187665
364.845	132106
364.929	49721
365.013	38854
365.096	32691
365.180	38516
365.264	45140
365.347	172450
365.431	73648
365.515	21754
365.598	11009
365.682	10129
365.766	20122
365.849	24574
365.933	13486
366.017	16662
366.100	13562
366.184	5694
366.267	7422
366.351	9696
366.435	7630
366.518	4959
366.602	4997
366.685	6924
366.769	9026
366.852	17911
366.936	32942
367.019	18391
367.103	13595
367.186	27363
367.270	8181
367.353	4504
367.436	7608
367.520	6239
367.603	11245
367.687	16737
367.770	33090
367.853	17530
367.937	59911
368.020	100838
368.104	24571
368.187	23468
368.270	34155
368.353	30121
368.437	33062
368.520	60236
368.603	45494
368.687	68586
368.770	132005
368.853	30605
368.936	32079
369.020	29611
369.103	11095
369.186	6321
369.269	8260
369.352	20918
369.436	30348
369.519	18205
369.602	5654
369.685	10541
369.768	12809
369.851	10090
369.934	6470
370.018	11025
370.101	26726
370.184	21226
370.267	13227
370.350	20673
370.433	34870
370.516	97578
370.599	116238
370.682	36127
370.765	75306
370.848	85634
370.931	157851
371.014	60412
371.097	13608
371.180	9565
371.263	5686
371.346	4425
371.429	6471
371.511	7413
371.594	16635
371.677	27430
371.760	31298
371.843	25454
371.926	125219
372.009	284950
372.091	89637
372.174	59693
372.257	144123
372.340	54383
372.423	42682
372.505	48085
372.588	22345
372.671	47394
372.754	156897
372.836	75698
372.919	54957
373.002	106162
373.085	34307
373.167	26225
373.250	69013
373.332	150995
373.415	184175
373.498	373561
373.580	139876
373.663	172021
373.746	232220
373.828	58042
373.911	25688
373.993	27574
374.076	103596
374.159	93026
374.241	42654
374.324	137406
374.406	85901
374.489	107686
374.571	311357
374.654	128347
374.736	61566
374.819	187995
374.901	261838
374.983	266574
375.066	50142
375.148	21002
375.231	80493
375.313	156866
375.395	59194
375.478	15156
375.560	11534
375.643	15716
375.725	54232
375.807	228506
375.890	167051
375.972	62116
376.054	36813
376.136	48506
376.219	22768
376.301	64480
376.383	202672
376.465	75474
376.548	51861
376.630	59654
376.712	174990
376.794	77606
376.877	11102
376.959	7414
377.041	10090
377.123	22542
377.205	26603
377.287	6681
377.369	6253
377.452	7814
377.534	6877
377.616	6810
377.698	6570
377.780	5636
377.862	8024
377.944	7901
378.026	5531
378.108	6549
378.190	5577
378.272	5850
378.354	4562
378.436	4366
378.518	13265
378.600	50439
378.682	42609
378.764	96606
378.846	73501
378.928	21908
379.010	31738
379.091	16283
379.173	9038
379.255	6859
379.337	12545
379.419	44585
379.501	133383
379.583	51805
379.664	14613
379.746	34533
379.828	96632
379.910	129007
379.991	107565
380.073	17531
380.155	12504
380.237	8783
380.318	5636
380.400	6671
380.482	20704
380.564	31243
380.645	26549
380.727	26559
380.809	15717
380.890	10660
380.972	7831
381.053	7235
381.135	11389
381.217	30465
381.298	101165
381.380	46754
381.461	36765
381.543	169546
381.624	206080
381.706	38166
381.787	19321
381.869	20225
381.951	70976
382.032	275596
382.113	172204
382.195	38829
382.276	24660
382.358	51207
382.439	159039
382.521	167173
382.602	254881
382.684	112995
382.765	216029
382.846	201762
382.928	218188
383.009	120062
383.090	93851
383.172	323699
383.253	455751
383.334	180391
383.416	227157
383.497	113961
383.578	52544
383.659	90555
383.741	294671
383.822	689599
383.903	350266
383.984	158207
384.066	289377
384.147	179443
384.228	37269
384.309	28217
384.390	20147
384.471	14228
384.553	16891
384.634	24815
384.715	25254
384.796	12013
384.877	16544
384.958	86111
385.039	105726
385.120	37536
385.201	16473
385.282	20296
385.363	19916
385.444	16398
385.525	28185
385.606	116737
385.687	103988
385.768	26580
385.849	31735
385.930	136543
386.011	231043
386.092	63156
386.173	16101
386.254	12755
386.335	15649
386.416	18612
386.496	57295
386.577	96382
386.658	33652
386.739	20981
386.820	17818
386.901	16094
386.981	13917
387.062	9632
387.143	21455
387.224	92087
387.304	83208
387.385	30055
387.466	16887
387.547	19615
387.627	14653
387.708	34467
387.789	159694
387.869	194113
387.950	50703
388.031	11740
388.111	10778
388.192	29591
388.273	40975
388.353	23889
388.434	15587
388.514	31908
388.595	143513
388.676	188354
388.756	92561
388.837	92488
388.917	55320
388.998	13506
389.078	13841
389.159	12124
389.239	8645
389.320	17045
389.400	14705
389.480	33864
389.561	100114
389.641	48198
389.722	17405
389.802	29672
389.883	40062
389.963	115134
390.043	67750
390.124	21227
390.204	30855
390.284	107625
390.365	69201
390.445	79789
390.525	215284
390.605	186371
390.686	59835
390.766	17815
390.846	10706
390.927	7048
391.007	8500
391.087	10314
391.167	8858
391.247	6673
391.328	14222
391.408	24321
391.488	19234
391.568	7946
391.648	14149
391.728	21023
391.808	18467
391.888	20767
391.969	53158
392.049	90277
392.129	37995
392.209	42940
392.289	111158
392.369	58672
392.449	49261
392.529	30893
392.609	24900
392.689	31725
392.769	106908
392.849	89802
392.929	60913
393.009	151955
393.089	111323
393.169	82033
393.248	241938
393.328	833278
393.408	870281
393.488	255067
393.568	78038
393.648	40734
393.728	28302
393.807	21292
393.887	20253
393.967	18362
394.047	22028
394.127	28995
394.206	47218
394.286	152893
394.366	593881
394.446	641546
394.525	177342
394.605	50068
394.685	36723
394.764	69455
394.844	117798
394.924	81802
395.003	27020
395.083	19771
395.163	16733
395.242	16771
395.322	16675
395.402	12751
395.481	17980
395.561	47990
395.640	132954
395.720	101222
395.799	141149
395.879	111622
395.958	74947
396.038	232547
396.117	766401
396.197	834484
396.276	301946
396.356	106383
396.435	71394
396.515	46111
396.594	50201
396.673	83997
396.753	261960
396.832	776751
396.912	602192
396.991	162621
397.070	48201
397.150	26846
397.229	20136
397.308	25855
397.388	45000
397.467	24980
397.546	12910
397.625	8748
397.705	15430
397.784	16988
397.863	9824
397.942	7057
398.022	8636
398.101	38656
398.180	116483
398.259	59481
398.338	16585
398.417	11905
398.497	8042
398.576	9364
398.655	5798
398.734	6227
398.813	7781
398.892	33778
398.971	123030
399.050	57694
399.129	7827
399.208	5178
399.287	4874
399.366	4386
399.445	5675
399.524	5952
399.603	6433
399.682	14609
399.761	40619
399.840	130694
399.919	96943
399.998	13389
400.077	4602
400.156	4284
400.235	8332
400.313	5727
400.392	9692
400.471	50223
400.550	82376
400.629	21244
400.708	9476
400.786	9971
400.865	27866
400.944	31310
401.023	14691
401.102	2755
401.180	3568
401.259	3900
401.338	6740
401.416	11238
401.495	9754
401.574	6845
401.652	5663
401.731	9036
401.810	7459
401.888	4001
401.967	1880
402.046	3095
402.124	8209
402.203	12461
402.281	7718
402.360	9196
402.438	34512
402.517	25923
402.596	8947
402.674	7532
402.753	6161
402.831	4807
402.910	6657
402.988	21181
403.066	68186
403.145	36724
403.223	20747
403.302	51671
403.380	35948
403.459	34074
403.537	14581
403.615	7034
403.694	2059
403.772	3092
403.850	2801
403.929	2975
404.007	4166
404.085	8925
404.164	8394
404.242	6053
404.320	11392
404.398	35838
404.477	59049
404.555	213230
404.633	180880
404.711	38186
404.789	15554
404.868	6279
404.946	4001
405.024	4025
405.102	3223
405.180	3177
405.258	2527
405.336	4420
405.415	4136
405.493	13293
405.571	9782
405.649	3268
405.727	3961
405.805	7838
405.883	8306
405.961	8711
406.039	11468
406.117	5884
406.195	11933
406.273	49270
406.351	188019
406.429	107577
406.507	18609
406.585	7923
406.663	8068
406.740	11453
406.818	9305
406.896	4938
406.974	6629
407.052	15913
407.130	109912
407.208	155188
407.285	31881
407.363	6618
407.441	6107
407.519	5818
407.596	7231
407.674	18346
407.752	49531
407.830	50054
407.907	20941
407.985	7206
408.063	7418
408.141	5492
408.218	8904
408.296	8838
408.373	5052
408.451	8278
408.529	7641
408.606	3780
408.684	2955
408.762	2656
408.839	2153
408.917	2225
408.994	2831
409.072	2130
409.149	3408
409.227	4745
409.304	6074
409.382	6715
409.459	6594
409.537	9983
409.614	10912
409.692	8069
409.769	8015
409.846	10945
409.924	13827
410.001	8980
410.079	9173
410.156	8028
410.233	8482
410.311	6622
410.388	4314
410.465	4447
410.543	4072
410.620	3296
410.697	6272
410.775	8219
410.852	2714
410.929	5606
411.006	8093
411.083	3279
411.161	6258
411.238	9889
411.315	7946
411.392	3913
411.469	5377
411.547	4183
411.624	1413
411.701	2805
411.778	6157
411.855	16781
411.932	8667
412.009	3265
412.086	4261
412.163	6965
412.240	6359
412.317	6638
412.394	5966
412.471	2859
412.548	2709
412.625	4052
412.702	5735
412.779	12027
412.856	7127
412.933	3222
413.010	2868
413.087	7435
413.164	46281
413.241	65775
413.318	15625
413.395	8064
413.471	12887
413.548	5746
413.625	3935
413.702	5726
413.779	4805
413.855	1690
413.932	1433
414.009	1589
414.086	1736
414.162	2846
414.239	8748
414.316	46274
414.393	103991
414.469	35578
414.546	4336
414.623	2485
414.699	3468
414.776	6418
414.853	3332
414.929	4205
415.006	3767
415.082	5363
415.159	4309
415.236	3305
415.312	4510
415.389	10457
415.465	15232
415.542	6709
415.618	4362
415.695	8636
415.771	6093
415.848	5351
415.924	5136
416.000	3838
416.077	3214
416.153	830
416.230	967
416.306	616
416.383	2109
416.459	2314
416.535	1780
416.612	1979
416.688	2142
416.764	1969
416.841	2093
416.917	2562
416.993	2964
417.069	4482
417.146	7522
417.222	12413
417.298	6660
417.374	3188
417.451	4027
417.527	6343
417.603	7921
417.679	5245
417.755	4816
417.831	1798
417.908	1644
417.984	1658
418.060	1628
418.136	12785
418.212	16565
418.288	5370
418.364	2947
418.440	3761
418.516	7431
418.592	10978
418.668	22308
418.744	33355
418.820	23393
418.896	4947
418.972	2115
419.048	3986
419.124	14061
419.200	10901
419.276	2754
419.352	868
419.428	2290
419.504	4267
419.579	7188
419.655	4598
419.731	4903
419.807	20961
419.883	39276
419.959	26248
420.034	7581
420.110	15526
420.186	65562
420.262	47159
420.337	8910
420.413	7818
420.489	3306
420.565	2899
420.640	2841
420.716	4191
420.792	2427
420.867	4510
420.943	3403
421.019	10145
421.094	7372
421.170	3179
421.245	2731
421.321	4370
421.397	4723
421.472	9419
421.548	25231
421.623	19019
421.699	8143
421.774	8544
421.850	6431
421.925	13946
422.001	12667
422.076	10242
422.152	12790
422.227	21017
422.302	24310
422.378	35017
422.453	63839
422.529	149297
422.604	408899
422.679	606782
422.755	432873
422.830	163768
422.905	62561
422.981	34498
423.056	22545
423.131	16028
423.207	12844
423.282	13110
423.357	23641
423.432	15791
423.508	13695
423.583	34785
423.658	25118
423.733	8795
423.808	10005
423.883	12340
423.959	10985
424.034	8381
424.109	8429
424.184	5105
424.259	4055
424.334	2889
424.409	2357
424.484	3077
424.559	4468
424.634	3651
424.709	6392
424.784	8023
424.859	5063
424.934	10197
425.009	45500
425.084	75243
425.159	25368
425.234	3964
425.309	1710
425.384	2214
425.459	1667
425.534	2250
425.609	3581
425.683	2550
425.758	2432
425.833	2706
425.908	6283
425.983	26766
426.058	77989
426.132	31476
426.207	6220
426.282	10706
426.357	8656
426.431	2275
426.506	2909
426.581	4335
426.655	3288
426.730	2910
426.805	3484
426.879	3030
426.954	4076
427.029	11640
427.103	67856
427.178	161580
427.253	66100
427.327	8389
427.402	7071
427.476	12257
427.551	5066
427.625	3852
427.700	4852
427.774	3265
427.849	4535
427.923	1835
427.998	3245
428.072	3589
428.147	12284
428.221	54351
428.296	146942
428.370	68007
428.444	10810
428.519	13264
428.593	27029
428.667	21758
428.742	27679
428.816	25840
428.890	93629
428.965	128957
429.039	38014
429.113	30273
429.188	10298
429.262	4497
429.336	10436
429.410	35773
429.485	22062
429.559	22261
429.633	16423
429.707	5900
429.781	19608
429.855	107936
429.930	150794
430.004	79043
430.078	120484
430.152	104446
430.226	187689
430.300	175762
430.374	27086
430.448	11501
430.522	39502
430.596	114782
430.670	67521
430.744	161114
430.818	221458
430.892	43403
430.966	8032
431.040	3379
431.114	1342
431.188	2191
431.262	2201
431.336	2836
431.410	11698
431.484	34515
431.557	20529
431.631	3969
431.705	4333
431.779	26812
431.853	122921
431.927	78718
432.000	8991
432.074	3328
432.148	6013
432.222	4366
432.295	1921
432.369	2984
432.443	8777
432.516	60850
432.590	152401
432.664	51961
432.737	5974
432.811	911
432.885	1269
432.958	260
433.032	558
433.106	306
433.179	1176
433.253	195
433.326	125
433.400	71
433.473	1219
433.547	-223
433.620	1810
433.694	8287
433.767	6512
433.841	1607
433.914	894
433.988	297
434.061	1360
434.134	1171
434.208	220
434.281	292
434.355	859
434.428	1070
434.501	803
434.575	656
434.648	1418
434.721	683
434.795	1031
434.868	731
434.941	178
435.014	-323
435.088	1105
435.161	1960
435.234	5510
435.307	6844
435.381	3352
435.454	2331
435.527	3522
435.600	4221
435.673	3376
435.746	1931
435.819	2636
435.892	2084
435.966	1097
436.039	1784
436.112	2500
436.185	279
436.258	485
436.331	-198
436.404	458
436.477	-169
436.550	324
436.623	1066
436.696	813
436.769	2250
436.842	1096
436.915	2483
436.987	3533
437.060	1207
437.133	1159
437.206	361
437.279	1160
437.352	945
437.425	372
437.498	2692
437.570	8507
437.643	7580
437.716	1137
437.789	820
437.861	2008
437.934	5948
438.007	3082
438.080	1138
438.152	2557
438.225	10006
438.298	76601
438.370	198540
438.443	67099
438.516	9270
438.588	3072
438.661	1285
438.734	1855
438.806	3092
438.879	3014
438.951	2226
439.024	3632
439.096	974
439.169	1909
439.241	780
439.314	906
439.386	3353
439.459	4667
439.531	5827
439.604	1877
439.676	408
439.749	350
439.821	-112
439.893	628
439.966	535
440.038	1224
440.110	1959
440.183	951
440.255	1880
440.327	4408
440.400	32246
440.472	133722
440.544	74085
440.617	7777
440.689	4302
440.761	4964
440.833	6572
440.905	3921
440.978	572
441.050	1012
441.122	871
441.194	1013
441.266	457
441.338	1580
441.411	5561
441.483	45065
441.555	59533
441.627	10251
441.699	6989
441.771	5327
441.843	1654
441.915	632
441.987	937
442.059	1277
442.131	2553
442.203	5178
442.275	6918
442.347	6230
442.419	10065
442.491	54064
442.563	122624
442.635	48207
442.706	33262
442.778	22204
442.850	3089
442.922	2034
442.994	4232
443.066	6725
443.137	5349
443.209	4717
443.281	7736
443.353	19289
443.425	74297
443.496	239608
443.568	205380
443.640	65482
443.711	13257
443.783	5392
443.855	3839
443.926	2464
443.998	2387
444.070	4499
444.141	3892
444.213	7047
444.285	8470
444.356	6253
444.428	4302
444.499	1431
444.571	816
444.642	1045
444.714	2709
444.785	7436
444.857	8051
444.928	20627
445.000	10030
445.071	13507
445.143	14791
445.214	8548
445.285	18199
445.357	55713
445.428	171461
445.500	349288
445.571	196259
445.642	94823
445.714	39162
445.785	33981
445.856	10145
445.928	10050
445.999	5479
446.070	2992
446.141	5793
446.213	6964
446.284	2852
446.355	4861
446.426	3110
446.497	1731
446.569	5838
446.640	11017
446.711	7048
446.782	1189
446.853	3028
446.924	4149
446.995	1965
447.066	3094
447.138	6312
447.209	3155
447.280	100
447.351	449
447.422	716
447.493	2935
447.564	4008
447.635	6654
447.706	1279
447.777	-102
447.847	104
447.918	501
447.989	2838
448.060	5178
448.131	12965
448.202	10578
448.273	7469
448.344	2812
448.414	1755
448.485	1358
448.556	628
448.627	535
448.698	771
448.768	1017
448.839	1484
448.910	5740
448.981	4535
449.051	1690
449.122	255
449.193	-167
449.263	120
449.334	531
449.405	3210
449.475	10293
449.546	5584
449.616	7029
449.687	4972
449.758	2389
449.828	1273
449.899	812
449.969	-141
450.040	1132
450.110	1586
450.181	1909
450.251	213
450.322	648
450.392	1177
450.463	1120
450.533	390
450.604	1251
450.674	627
450.744	2027
450.815	848
450.885	827
450.955	539
451.026	552
451.096	1003
451.166	1808
451.237	8651
451.307	19832
451.377	5500
451.447	703
451.518	-84
451.588	954
451.658	1314
451.728	3605
451.799	23277
451.869	19941
451.939	3352
452.009	714
452.079	480
452.149	1839
452.219	5137
452.289	26950
452.360	14141
452.430	1191
452.500	1612
452.570	3209
452.640	5388
452.710	19784
452.780	26675
452.850	18982
452.920	15950
452.990	4217
453.060	1792
453.129	5093
453.199	6767
453.269	29176
453.339	51691
453.409	74256
453.479	90361
453.549	123088
453.619	128563
453.688	35688
453.758	5207
453.828	1995
453.898	1520
453.968	1591
454.037	1420
454.087	1005
454.107	824
454.168	638
454.177	597
454.247	1264
454.249	1243
454.316	347
454.330	515
454.386	1065
454.411	5145
454.456	11793
454.492	13492
454.525	15049
454.574	6836
454.595	3264
454.655	705
454.665	308
454.734	2041
454.736	2190
454.804	6800
454.817	9809
454.873	21547
454.898	21027
454.943	19852
454.979	11804
455.013	4693
455.060	3045
455.082	2570
455.141	3696
455.152	3743
455.221	15089
455.222	15281
455.291	26599
455.303	24623
455.360	15013
455.384	20363
455.430	30621
455.465	23358
455.499	16057
455.546	18478
455.569	19349
455.627	10772
455.638	9252
455.707	1109
455.708	1123
455.777	624
455.789	594
455.846	471
455.869	511
455.916	542
455.950	639
455.985	725
456.031	1077
456.054	1151
456.112	-37
456.124	-200
456.193	856
456.193	840
456.262	1528
456.274	1663
456.332	2247
456.355	2564
456.401	3033
456.436	1897
456.470	722
456.516	483
456.540	454
456.597	162
456.609	98
456.678	321
456.678	308
456.747	-0
456.759	-22
456.817	69
456.840	155
456.886	90
456.920	255
456.955	622
457.001	670
457.024	633
457.082	900
457.093	930
457.162	1847
457.163	1863
457.232	2865
457.243	2588
457.301	1179
457.324	810
457.370	278
457.405	540
457.439	804
457.485	867
457.508	840
457.566	1749
457.577	1961
457.646	1859
457.647	1877
457.715	3304
457.727	3796
457.784	7247
457.808	9836
457.853	13312
457.889	15839
457.922	16349
457.969	11005
457.991	10435
458.050	11702
458.060	11848
458.129	20935
458.130	21196
458.198	25712
458.211	23380
458.267	11356
458.292	7607
458.336	4444
458.372	4381
458.405	6060
458.453	9052
458.474	11230
458.533	20311
458.543	21306
458.611	38097
458.614	38258
458.680	25772
458.694	21137
458.749	9080
458.775	6168
458.818	3382
458.855	2867
458.887	2609
458.936	2293
458.955	2203
459.016	1737
459.024	1660
459.093	2107
459.097	2075
459.162	1875
459.177	2113
459.230	2943
459.257	3463
459.299	3680
459.338	3079
459.368	2737
459.418	2612
459.437	2476
459.499	2197
459.505	2205
459.574	2050
459.579	2067
459.643	1702
459.659	1594
459.711	2150
459.740	2274
459.780	2081
459.820	2627
459.849	2935
459.900	2708
459.917	2558
459.981	2750
459.986	2782
460.054	2318
460.061	2318
460.123	2194
460.141	2182
460.191	3311
460.222	4421
460.260	5069
460.302	5886
460.328	5901
460.382	4375
460.397	4082
460.462	3191
460.465	3210
460.534	4576
460.543	4753
460.602	15759
460.623	20078
460.671	28860
460.703	39658
460.739	42094
460.783	36644
460.808	30005
460.864	6153
460.876	4022
460.944	2692
460.945	2678
461.013	3442
461.024	3398
461.081	2807
461.104	3019
461.150	3513
461.184	3446
461.218	3277
461.264	2832
461.286	2687
461.345	2755
461.355	2730
461.423	2569
461.425	2563
461.491	2941
461.505	3088
461.559	6204
461.585	7750
461.628	13408
461.665	19362
461.696	22143
461.745	29551
461.764	27201
461.825	8664
461.832	7900
461.901	4322
461.905	4245
461.969	3898
461.985	3744
462.037	3813
462.065	3819
462.105	3668
462.145	3963
462.173	6469
462.225	11067
462.241	11912
462.305	17319
462.310	17043
462.378	10859
462.385	9756
462.446	4561
462.465	3816
462.514	3818
462.545	3620
462.582	3310
462.625	3151
462.650	3129
462.705	3097
462.718	3264
462.785	4464
462.786	4507
462.854	6430
462.865	6841
462.922	9243
462.945	10394
462.990	8047
463.025	5053
463.058	3983
463.104	3058
463.126	2858
463.184	2561
463.194	2747
463.262	4137
463.264	4186
463.330	4627
463.344	4748
463.398	5426
463.424	5701
463.466	5512
463.504	5212
463.533	4957
463.583	4393
463.601	4462
463.663	4911
463.669	5100
463.737	7286
463.743	7502
463.805	11882
463.823	13130
463.873	19351
463.903	23553
463.940	26016
463.982	29496
464.008	24676
464.062	10512
464.076	9252
464.142	4361
464.144	4340
464.211	4352
464.221	4379
464.279	3986
464.301	3952
464.347	5031
464.381	5779
464.414	6383
464.461	7174
464.482	7472
464.540	8517
464.550	8228
464.617	5321
464.620	5226
464.685	6894
464.699	7269
464.753	8213
464.779	8730
464.820	8494
464.859	8087
464.888	8001
464.938	7823
464.956	8222
465.018	10009
465.023	9855
465.091	7245
465.098	6953
465.158	6754
465.177	6800
465.226	6412
465.257	6005
465.293	6708
465.336	7622
465.361	8283
465.416	9774
465.428	10590
465.495	14951
465.496	15041
465.563	25421
465.575	27282
465.631	33525
465.654	36412
465.698	24289
465.734	12691
465.765	10356
465.813	7545
465.833	7467
465.893	7740
465.900	7706
465.968	7216
465.972	7168
466.035	7115
466.052	7082
466.102	7354
466.131	7547
466.170	8146
466.210	8638
466.237	8829
466.290	9251
466.304	9285
466.369	9331
466.372	9377
466.439	10300
466.449	10405
466.506	10563
466.528	10635
466.573	15165
466.607	18467
466.641	27183
466.687	39355
466.708	43751
466.766	56094
466.775	52378
466.842	23247
466.845	21824
466.909	14375
466.925	12675
466.977	12075
467.004	11769
467.044	12403
467.083	13024
467.111	13360
467.163	13914
467.178	14241
467.242	15501
467.245	15479
467.312	14491
467.321	14339
467.379	14495
467.400	14510
467.446	15133
467.480	15537
467.559	14495
467.638	11760
467.717	11774
467.796	12573
467.875	15037
467.955	12452
468.034	18212
468.113	44937
468.192	65016
468.271	23383
468.350	12158
468.429	12609
468.508	13593
468.588	11722
468.667	11843
468.746	12621
468.825	12685
468.904	9914
468.983	11088
469.062	17555
469.141	23047
469.220	10837
469.299	9235
469.378	9623
469.456	11104
469.535	10449
469.614	9950
469.693	10179
469.772	14114
469.851	17609
469.930	15501
470.009	9908
470.088	8766
470.166	9274
470.245	11459
470.324	12589
470.403	12621
470.482	9631
470.560	9232
470.639	10476
470.718	12108
470.797	10225
470.875	11296
470.954	16448
471.033	19693
471.111	9521
471.190	7278
471.269	7591
471.347	7474
471.426	8402
471.505	9474
471.583	9740
471.662	9575
471.740	7573
471.819	8840
471.898	7314
471.976	8550
472.055	7974
472.133	9970
472.212	12999
472.290	13168
472.369	9508
472.447	7382
472.526	6846
472.604	8001
472.683	8893
472.761	9537
472.839	8384
472.918	8587
472.996	7295
473.075	10212
473.153	9913
473.231	8492
473.310	9773
473.388	10950
473.466	8492
473.545	9843
473.623	13120
473.701	13924
473.780	8971
473.858	8843
473.936	10974
474.014	9735
474.093	9487
474.171	15104
474.249	20593
474.327	16566
474.405	6840
474.484	7618
474.562	7600
474.640	8787
474.718	8073
474.796	9199
474.874	9855
474.952	8212
475.030	7878
475.108	8246
475.187	9879
475.265	10061
475.343	12083
475.421	13115
475.499	8309
475.577	9318
475.655	11905
475.733	24751
475.811	41543
475.889	40105
475.966	31435
476.044	9500
476.122	9005
476.200	10418
476.278	9587
476.356	7662
476.434	7944
476.512	9146
476.590	10981
476.667	11568
476.745	6830
476.823	9420
476.901	9334
476.979	8754
477.056	8548
477.134	9467
477.212	10131
477.290	9672
477.367	7695
477.445	8465
477.523	6662
477.601	7239
477.678	7879
477.756	10046
477.834	12035
477.911	8192
477.989	6830
478.066	7542
478.144	8377
478.222	8800
478.299	10550
478.377	11641
478.454	7731
478.532	7436
478.609	8553
478.687	10335
478.764	6727
478.842	8208
478.919	9536
478.997	8855
479.074	7165
479.152	9443
479.229	11149
479.307	9031
479.384	6063
479.461	6667
479.539	7405
479.616	9982
479.694	8029
479.771	8708
479.848	9626
479.926	11485
480.003	14951
480.080	7519
480.157	7308
480.235	6791
480.312	6969
480.389	8551
480.467	14102
480.544	18562
480.621	10754
480.698	7971
480.775	10006
480.853	10650
480.930	8951
481.007	8851
481.084	10035
481.161	12579
481.238	11413
481.315	7632
481.392	7529
481.470	8740
481.547	9275
481.624	8313
481.701	8192
481.778	8364
481.855	8784
481.932	14021
482.009	23833
482.086	21160
482.163	7616
482.240	10342
482.317	12544
482.393	14372
482.470	8343
482.547	8163
482.624	7873
482.701	8550
482.778	8012
482.855	7355
482.932	6197
483.009	7772
483.085	7613
483.162	10564
483.239	10142
483.316	7745
483.393	7663
483.469	8114
483.546	8794
483.623	10504
483.699	7756
483.776	8317
483.853	9388
483.930	14012
484.006	38847
484.083	67395
484.160	36374
484.236	31562
484.313	26406
484.389	20474
484.466	19646
484.543	17779
484.619	17806
484.696	20095
484.772	20615
484.849	22292
484.925	16911
485.002	16019
485.078	18708
485.155	17607
485.231	15366
485.308	15760
485.384	16601
485.461	20800
485.537	36797
485.614	51943
485.690	20487
485.766	15128
485.843	17469
485.919	25464
485.995	30522
486.072	16763
486.148	14083
486.224	13476
486.301	14773
486.377	18736
486.453	17025
486.530	17707
486.606	20773
486.682	24493
486.758	32593
486.835	40393
486.911	30924
486.987	48461
487.063	61337
487.139	71899
487.215	53312
487.292	26679
487.368	17580
487.444	19458
487.520	23209
487.596	24898
487.672	36877
487.748	89509
487.824	149712
487.900	78663
487.976	26671
488.052	22012
488.128	23966
488.204	20715
488.280	18376
488.356	20011
488.432	45383
488.508	75135
488.584	32534
488.660	16553
488.736	15421
488.812	16868
488.888	20272
488.964	28171
489.039	62226
489.115	110579
489.191	82333
489.267	20961
489.343	16548
489.418	14383
489.494	12375
489.570	11715
489.646	14447
489.722	13495
489.797	13972
489.873	21627
489.949	52609
490.024	56692
490.100	15773
490.176	14536
490.251	17916
490.327	24571
490.403	16477
490.478	12259
490.554	11468
490.629	11893
490.705	11857
490.781	12952
490.856	13615
490.932	15028
491.007	14856
491.083	13941
491.158	13423
491.234	17806
491.309	40527
491.385	52307
491.460	16114
491.536	15873
491.611	14819
491.686	14937
491.762	19685
491.837	42334
491.913	77341
491.988	106809
492.063	151836
492.139	52470
492.214	25590
492.289	11531
492.365	10103
492.440	13763
492.515	14955
492.590	14604
492.666	11609
492.741	15295
492.816	25006
492.891	17869
492.967	11363
493.042	10035
493.117	9957
493.192	10307
493.267	14991
493.342	36212
493.418	55319
493.493	18074
493.568	10377
493.643	10335
493.718	12921
493.793	21972
493.868	26558
493.943	18584
494.018	12264
494.093	11016
494.168	11389
494.243	8670
494.318	8965
494.393	9401
494.468	8247
494.543	9425
494.618	11235
494.693	11528
494.768	9949
494.842	11343
494.917	8999
494.992	10322
495.067	9233
495.142	9040
495.217	9984
495.292	10443
495.366	12396
495.441	15368
495.516	19772
495.591	26806
495.665	87315
495.740	233045
495.815	149706
495.890	22005
495.964	14282
496.039	16013
496.114	13848
496.188	15565
496.263	16615
496.338	14604
496.412	15297
496.487	20105
496.561	19074
496.636	23116
496.710	17639
496.785	18710
496.860	22131
496.934	18607
497.009	17883
497.083	17597
497.158	18878
497.232	21723
497.307	27752
497.381	24476
497.455	28327
497.530	36365
497.604	30464
497.679	30758
497.753	43016
497.827	57054
497.902	52827
497.976	57143
498.050	93595
498.125	329611
498.199	461321
498.273	100554
498.348	62889
498.422	54479
498.496	50278
498.570	48765
498.645	37252
498.719	35497
498.793	38370
498.867	48731
498.941	60644
499.016	134493
499.090	384781
499.164	238820
499.238	28935
499.312	21474
499.386	25212
499.460	24555
499.534	20790
499.609	24356
499.683	33524
499.757	38429
499.831	55345
499.905	238698
499.979	326745
500.053	56025
500.127	45135
500.201	33099
500.275	21148
500.349	19264
500.422	20430
500.496	28998
500.570	56718
500.644	144328
500.718	299695
500.792	117375
500.866	21601
500.940	24606
501.013	22791
501.087	19627
501.161	34977
501.235	48195
501.309	80022
501.382	241246
501.456	298858
501.530	61341
501.603	86213
501.677	52923
501.751	15032
501.825	17855
501.898	29978
501.972	98162
502.046	96642
502.119	20463
502.193	41071
502.266	112537
502.340	83744
502.413	45384
502.487	105172
502.561	70978
502.634	25647
502.708	14455
502.781	14126
502.855	12729
502.928	8796
503.002	10526
503.075	9708
503.149	11764
503.222	12730
503.295	14374
503.369	16474
503.442	20219
503.516	65346
503.589	197923
503.662	174354
503.736	48926
503.809	85322
503.882	96390
503.956	102400
504.029	134966
504.102	71022
504.175	95409
504.249	49814
504.322	24828
504.395	20063
504.468	14203
504.542	12214
504.615	10129
504.688	10206
504.761	8545
504.834	13449
504.907	16421
504.980	27089
505.053	17320
505.127	16067
505.200	24598
505.273	17238
505.346	13429
505.419	8920
505.492	9229
505.565	7589
505.638	7889
505.711	7669
505.784	8132
505.857	7331
505.930	10029
506.003	8015
506.076	11112
506.149	12095
506.221	17673
506.294	16276
506.367	33440
506.440	134971
506.513	120566
506.586	20247
506.659	14310
506.731	8893
506.804	11286
506.877	17993
506.950	14579
507.022	10193
507.095	10380
507.168	17379
507.241	10474
507.313	7891
507.386	8786
507.459	14017
507.531	11197
507.604	7172
507.677	8632
507.749	6795
507.822	11467
507.894	17769
507.967	26196
508.040	13875
508.112	10527
508.185	9896
508.257	9982
508.330	18762
508.402	11588
508.475	10000
508.547	12221
508.620	10036
508.692	18632
508.765	14329
508.837	8334
508.909	9148
508.982	8736
509.054	10640
509.127	9989
509.199	8635
509.271	7992
509.344	7101
509.416	8430
509.488	8458
509.560	9022
509.633	8889
509.705	11005
509.777	10009
509.849	16460
509.922	12090
509.994	8009
510.066	8925
510.138	8122
510.210	15517
510.283	16485
510.355	14181
510.427	13017
510.499	20467
510.571	34996
510.643	14115
510.715	19906
510.787	20638
510.859	12637
510.931	14109
511.003	19528
511.076	20705
511.148	10920
511.219	9292
511.291	16310
511.363	26392
511.435	11528
511.507	8016
511.579	9955
511.651	9662
511.723	8759
511.795	8997
511.867	9049
511.939	12116
512.010	25325
512.082	27669
512.154	10684
512.226	11169
512.298	14298
512.369	21725
512.441	17315
512.513	17022
512.585	13855
512.656	13687
512.728	16096
512.800	12347
512.871	11048
512.943	10329
513.015	9489
513.086	9973
513.158	12754
513.230	11331
513.301	18386
513.373	22779
513.444	13586
513.516	10666
513.588	10939
513.659	11947
513.731	15445
513.802	13331
513.874	26444
513.945	58208
514.016	27567
514.088	10331
514.159	11459
514.231	16077
514.302	22371
514.374	15067
514.445	14068
514.516	29844
514.588	30603
514.659	14846
514.730	30578
514.802	29781
514.873	18880
514.944	24244
515.016	19774
515.087	20021
515.158	24099
515.229	39444
515.301	26774
515.372	34051
515.443	26056
515.514	18914
515.585	12755
515.656	12686
515.728	11732
515.799	10553
515.870	11815
515.941	11953
516.012	11544
516.083	14230
516.154	16141
516.225	21633
516.296	22749
516.367	18111
516.438	19321
516.509	23565
516.580	31238
516.651	79502
516.722	313362
516.793	259565
516.864	42910
516.935	35847
517.006	35669
517.077	45413
517.148	95225
517.219	267191
517.289	592077
517.360	253171
517.431	110644
517.502	21770
517.573	18622
517.643	16288
517.714	17683
517.785	18264
517.856	19828
517.926	24079
517.997	27557
518.068	30905
518.138	42136
518.209	51988
518.280	165446
518.350	697360
518.421	490951
518.492	60660
518.562	31081
518.633	29722
518.703	29425
518.774	47061
518.845	101847
518.915	126251
518.986	52768
519.056	34514
519.127	48194
519.197	72955
519.268	169934
519.338	159885
519.408	31721
519.479	35547
519.549	29816
519.620	17004
519.690	13370
519.760	12672
519.831	13774
519.901	15725
519.971	12220
520.042	12271
520.112	14896
520.182	17520
520.253	22276
520.323	13349
520.393	11982
520.463	16881
520.534	11168
520.604	19406
520.674	17358
520.744	14864
520.814	21479
520.885	27608
520.955	44821
521.025	191006
521.095	130824
521.165	18308
521.235	14896
521.305	12657
521.375	11627
521.445	12678
521.515	18093
521.585	22416
521.655	25696
521.725	18971
521.795	25042
521.865	17202
521.935	20727
522.005	21888
522.075	12638
522.145	13389
522.215	13342
522.285	21433
522.355	27730
522.424	53947
522.494	57136
522.564	27756
522.634	38387
522.704	137834
522.774	87563
522.843	15996
522.913	14524
522.983	18017
523.053	15267
523.122	14844
523.192	17239
523.262	61477
523.331	94629
523.401	20483
523.471	11445
523.540	11923
523.610	8665
523.680	9239
523.749	9853
523.819	12228
523.888	16152
523.958	9340
524.027	10710
524.097	11605
524.166	10373
524.236	11803
524.305	13976
524.375	9562
524.444	8937
524.514	11521
524.583	10394
524.653	14065
524.722	16991
524.791	11293
524.861	11942
524.930	9323
524.999	10659
525.069	17033
525.138	14903
525.207	16405
525.277	14307
525.346	11976
525.415	12260
525.484	11556
525.554	14245
525.623	16392
525.692	14654
525.761	15754
525.830	17180
525.900	18430
525.969	27997
526.038	42918
526.107	69063
526.176	225061
526.245	250597
526.314	82570
526.383	114706
526.452	190423
526.522	242679
526.591	370118
526.660	119397
526.729	60807
526.797	49709
526.867	84836
526.935	362176
527.004	691864
527.073	520956
527.142	64077
527.211	23777
527.280	19028
527.349	21411
527.418	11349
527.487	11828
527.555	8661
527.624	9148
527.693	7007
527.762	10650
527.831	7832
527.899	8864
527.968	9233
528.037	9030
528.106	12287
528.174	23951
528.243	22559
528.312	24132
528.380	43502
528.449	16252
528.518	10594
528.586	6837
528.655	8538
528.723	7546
528.792	7129
528.861	8505
528.929	7367
528.998	8823
529.066	7781
529.135	8810
529.203	7518
529.272	7202
529.340	8963
529.409	10516
529.477	8390
529.545	10911
529.614	16168
529.682	11719
529.751	18280
529.819	16470
529.887	12936
529.956	8750
530.024	10441
530.092	7364
530.161	10561
530.229	19659
530.297	12773
530.365	9560
530.434	7720
530.502	7593
530.570	8261
530.638	7358
530.707	8482
530.775	11704
530.843	8398
530.911	8189
530.979	8165
531.047	8501
531.115	9231
531.183	8942
531.252	8002
531.320	9911
531.388	8316
531.456	8455
531.524	7144
531.592	9405
531.660	11298
531.728	8143
531.796	8334
531.864	9008
531.932	9602
532.000	9183
532.067	9438
532.135	11153
532.203	13568
532.271	13914
532.339	21581
532.407	57838
532.475	50886
532.542	19634
532.610	20035
532.678	23790
532.746	81124
532.814	308401
532.881	118923
532.949	19156
533.017	11992
533.084	10238
533.152	9344
533.220	9906
533.287	11010
533.355	11055
533.423	9500
533.490	8196
533.558	8789
533.625	9682
533.693	10330
533.761	10427
533.828	11365
533.896	9757
533.963	19489
534.031	29010
534.098	39406
534.166	25589
534.233	10789
534.300	12095
534.368	10500
534.435	11869
534.503	11424
534.570	12378
534.637	12137
534.705	14189
534.772	16619
534.840	22880
534.907	92215
534.974	187097
535.041	34417
535.109	18325
535.176	11657
535.243	10283
535.310	9710
535.378	10378
535.445	9279
535.512	8792
535.579	8792
535.646	8835
535.714	9174
535.781	11180
535.848	11350
535.915	11733
535.982	11018
536.049	10531
536.116	11667
536.183	10630
536.250	10280
536.317	10758
536.384	13287
536.451	19147
536.518	22364
536.585	15423
536.652	17889
536.719	25593
536.786	23242
536.853	18584
536.920	23551
536.987	38373
537.053	36675
537.120	129405
537.187	178241
537.254	20433
537.321	13018
537.388	13172
537.454	8897
537.521	10476
537.588	9051
537.654	10749
537.721	11576
537.788	12348
537.855	10284
537.921	10860
537.988	10371
538.055	11757
538.121	10565
538.188	12484
538.254	16882
538.321	37632
538.388	27535
538.454	13892
538.521	11934
538.587	10479
538.654	10481
538.720	9951
538.787	9850
538.853	11044
538.920	13655
538.986	15465
539.053	12472
539.119	12967
539.185	12933
539.252	14956
539.318	24804
539.385	20739
539.451	14840
539.517	16408
539.583	17312
539.650	35374
539.716	125934
539.782	52946
539.849	12666
539.915	14195
539.981	12495
540.047	14973
540.114	15902
540.180	16134
540.246	14692
540.312	18530
540.378	36449
540.444	43410
540.510	39849
540.576	138067
540.643	67553
540.709	14069
540.775	12628
540.841	12241
540.907	15637
540.973	24453
541.039	20578
541.105	25351
541.171	15699
541.237	12473
541.303	14355
541.369	15606
541.435	19250
541.500	32006
541.566	24972
541.632	12792
541.698	10972
541.764	12163
541.830	11070
541.896	10427
541.961	13274
542.027	10869
542.093	12482
542.159	14533
542.224	13916
542.290	20653
542.356	32111
542.421	41800
542.487	22244
542.553	15111
542.618	15795
542.684	15454
542.750	14903
542.815	17202
542.881	26460
542.947	104162
543.012	119099
543.078	18359
543.143	13557
543.209	14366
543.274	14695
543.340	15942
543.405	34918
543.471	87630
543.536	24148
543.602	13830
543.667	12502
543.732	11928
543.798	11351
543.863	12265
543.928	10394
543.994	10805
544.059	11966
544.124	12205
544.190	10949
544.255	13368
544.320	12003
544.386	13810
544.451	18812
544.516	22720
544.581	21444
544.646	57864
544.712	141989
544.777	34330
544.842	17721
544.907	17512
544.972	14653
545.037	14829
545.102	16621
545.168	16541
545.233	17554
545.298	18690
545.363	22227
545.428	23609
545.493	35230
545.558	99194
545.623	57145
545.688	19211
545.753	15993
545.818	16202
545.883	16927
545.947	15814
546.012	17615
546.077	19875
546.142	17672
546.207	17633
546.272	21912
546.337	24786
546.401	19056
546.466	17673
546.531	15992
546.596	19247
546.661	19130
546.725	19416
546.790	16151
546.855	18278
546.919	16995
546.984	19256
547.049	21817
547.113	25300
547.178	23654
547.243	25472
547.307	27607
547.372	32690
547.436	37514
547.501	30591
547.565	28683
547.630	32521
547.695	34556
547.759	35649
547.823	35572
547.888	28352
547.952	27683
548.017	29080
548.081	33640
548.146	40929
548.210	39617
548.274	30973
548.339	30338
548.403	28590
548.468	26662
548.532	26820
548.596	27701
548.660	27652
548.725	29896
548.789	33225
548.853	39245
548.917	31425
548.982	37220
549.046	41706
549.110	26932
549.174	26273
549.238	26776
549.303	29079
549.367	30853
549.431	29797
549.495	28395
549.559	27387
549.623	30416
549.687	36256
549.751	48486
549.815	43740
549.879	38982
549.943	35961
550.007	39292
550.071	40795
550.135	44791
550.199	40355
550.263	35086
550.327	34454
550.391	43792
550.455	41144
550.519	36192
550.582	40276
550.646	51541
550.710	60092
550.774	44309
550.838	43676
550.901	45367
550.965	49203
551.029	52806
551.093	59642
551.156	70580
551.220	107779
551.284	142735
551.347	82972
551.411	98399
551.475	133808
551.538	55959
551.602	45114
551.666	39614
551.729	37258
551.793	36918
551.856	38285
551.920	36723
551.983	35735
552.047	34652
552.110	36267
552.174	36254
552.237	35874
552.301	35458
552.364	33409
552.428	33133
552.491	33876
552.554	35138
552.618	34470
552.681	36120
552.745	36613
552.808	43297
552.871	54208
552.934	44618
552.998	37304
553.061	37535
553.124	35486
553.187	34593
553.251	36678
553.314	37304
553.377	37414
553.440	41494
553.503	68179
553.567	123564
553.630	52959
553.693	36282
553.756	34904
553.819	33164
553.882	32543
553.945	33706
554.008	32856
554.071	32051
554.134	31974
554.197	31182
554.260	31201
554.323	32868
554.386	32050
554.449	32894
554.512	33689
554.575	30996
554.638	32474
554.701	30961
554.764	31468
554.827	29477
554.889	30216
554.952	26157
555.015	26510
555.078	27320
555.141	28245
555.203	27572
555.266	26436
555.329	27539
555.391	26967
555.454	27425
555.517	27859
555.580	27409
555.642	26109
555.705	25167
555.768	25215
555.830	25654
555.893	24234
555.955	23771
556.018	24275
556.080	23953
556.143	24277
556.206	23868
556.268	25700
556.330	25244
556.393	26172
556.455	24577
556.518	32167
556.580	37193
556.643	24841
556.705	22519
556.767	21708
556.830	22878
556.892	24157
556.955	36471
557.017	33145
557.079	22737
557.142	22633
557.204	25152
557.266	44752
557.328	47133
557.391	23312
557.453	19938
557.515	20595
557.577	25722
557.639	28740
557.701	22176
557.764	20731
557.826	22232
557.888	25284
557.950	26630
558.012	27353
558.074	33705
558.136	67714
558.198	214928
558.260	113151
558.322	34774
558.384	33454
558.446	36995
558.508	43453
558.570	53718
558.632	76724
558.694	120493
558.756	116941
558.818	293667
558.880	971055
558.942	440117
559.003	237279
559.065	155186
559.127	51816
559.189	47723
559.251	50587
559.312	64180
559.374	142876
559.436	575590
559.498	432387
559.559	68702
559.621	49135
559.683	52731
559.744	75273
559.806	235781
559.868	506748
559.929	129145
559.991	52092
560.052	66457
560.114	192526
560.176	171138
560.237	100449
560.299	223727
560.360	70157
560.422	25226
560.483	22226
560.545	19799
560.606	19134
560.667	17803
560.729	18126
560.790	17798
560.852	17594
560.913	16785
560.974	17642
561.036	16795
561.097	18262
561.158	17611
561.220	18334
561.281	17677
561.342	18330
561.403	20606
561.465	24802
561.526	52685
561.587	93259
561.648	31792
561.709	19314
561.771	17444
561.832	16620
561.893	16521
561.954	16629
562.015	15916
562.076	16684
562.137	16945
562.198	16486
562.259	16426
562.320	16673
562.381	17486
562.442	24124
562.503	23018
562.564	17104
562.625	14754
562.686	15256
562.747	16839
562.808	16126
562.869	16052
562.930	20618
562.991	19625
563.051	17712
563.112	17342
563.173	16833
563.234	16426
563.294	16416
563.355	16117
563.416	17908
563.477	16653
563.537	17243
563.598	18057
563.659	17255
563.720	17663
563.780	17935
563.841	18858
563.901	17569
563.962	16877
564.023	17765
564.083	17276
564.144	18437
564.204	17541
564.265	17534
564.325	19364
564.386	36499
564.446	42301
564.507	18375
564.567	17175
564.628	16159
564.688	16483
564.749	17181
564.809	19260
564.869	24031
564.930	19190
564.990	17569
565.050	15915
565.111	16765
565.171	16892
565.231	16381
565.292	17829
565.352	16482
565.412	17774
565.472	17717
565.532	19039
565.593	18057
565.653	17186
565.713	17973
565.773	19116
565.833	22584
565.893	30521
565.953	22325
566.013	18689
566.074	20393
566.134	24990
566.194	36875
566.254	43302
566.314	30330
566.374	23213
566.434	23928
566.494	23268
566.554	22729
566.614	24443
566.673	25467
566.733	26700
566.793	28849
566.853	29602
566.913	30970
566.973	31250
567.033	32089
567.092	30266
567.152	30157
567.212	31073
567.272	32604
567.331	34190
567.391	36237
567.451	37972
567.511	44929
567.570	46988
567.630	35809
567.690	32045
567.749	33025
567.809	35081
567.868	40595
567.928	44140
567.988	51420
568.047	59486
568.107	70281
568.166	92228
568.226	129749
568.285	183034
568.345	188780
568.404	166211
568.464	145936
568.523	133367
568.582	130967
568.642	137200
568.701	158169
568.761	207013
568.820	297824
568.879	337208
568.939	296860
568.998	236559
569.057	185088
569.116	145159
569.176	116845
569.235	95924
569.294	80710
569.353	68630
569.413	60414
569.472	54145
569.531	47000
569.590	42272
569.649	39099
569.708	36035
569.767	34635
569.827	33312
569.886	30993
569.945	26779
570.004	28211
570.063	27091
570.122	26201
570.181	26926
570.240	26322
570.299	26370
570.358	23223
570.417	20210
570.475	20193
570.534	20907
570.593	20658
570.652	20526
570.711	19553
570.770	19092
570.829	21807
570.887	19877
570.946	22881
571.005	18030
571.064	17540
571.122	17856
571.181	21791
571.240	18251
571.299	16460
571.357	17621
571.416	18203
571.475	19626
571.533	21892
571.592	16496
571.650	19668
571.709	15469
571.768	15926
571.826	15411
571.885	15655
571.943	13868
572.002	15071
572.060	15073
572.119	13670
572.177	12737
572.236	14164
572.294	13226
572.352	13468
572.411	13746
572.469	13834
572.528	13012
572.586	12921
572.644	14057
572.703	16167
572.761	13905
572.819	13336
572.877	12846
572.936	12889
572.994	11294
573.052	12873
573.110	12842
573.169	14113
573.227	12271
573.285	12121
573.343	11347
573.401	13383
573.459	12831
573.517	12074
573.576	13429
573.634	12826
573.692	12909
573.750	13277
573.808	12953
573.866	13466
573.924	16840
573.982	17994
574.040	14375
574.098	13520
574.155	11744
574.213	12405
574.271	11685
574.329	12358
574.387	12036
574.445	11208
574.503	10613
574.560	10458
574.618	10575
574.676	11417
574.734	11417
574.792	12250
574.849	11105
574.907	10456
574.965	10996
575.022	10843
575.080	10098
575.138	11290
575.195	11694
575.253	12720
575.311	12392
575.368	12161
575.426	10431
575.483	11695
575.541	10490
575.598	11183
575.656	10950
575.713	12088
575.771	10010
575.828	11207
575.886	11508
575.943	12199
576.001	12394
576.058	12640
576.115	12397
576.173	14434
576.230	15893
576.287	18851
576.345	15411
576.402	12913
576.459	12092
576.517	13313
576.574	13445
576.631	14550
576.688	12968
576.746	12410
576.803	11980
576.860	11831
576.917	11830
576.974	11637
577.031	11546
577.089	12310
577.146	12219
577.203	12302
577.260	12776
577.317	13339
577.374	14633
577.431	14287
577.488	12918
577.545	12457
577.602	11992
577.659	11603
577.716	11960
577.773	11941
577.830	11531
577.886	11595
577.943	12152
578.000	12224
578.057	12999
578.114	13948
578.171	15627
578.227	20428
578.284	13950
578.341	13615
578.398	13213
578.454	13995
578.511	13895
578.568	16207
578.625	13108
578.681	13216
578.738	11640
578.794	11279
578.851	12060
578.908	12468
578.964	12270
579.021	11658
579.077	11825
579.134	11894
579.190	10586
579.247	12620
579.303	10241
579.360	11639
579.416	10488
579.473	11306
579.529	11211
579.586	11271
579.642	11916
579.698	11142
579.755	12811
579.811	12243
579.867	11632
579.924	11202
579.980	11956
580.036	13144
580.093	12451
580.149	14277
580.205	14780
580.261	15591
580.317	14038
580.374	13739
580.430	14855
580.486	15072
580.542	13746
580.598	13626
580.619	13132
580.654	12283
580.692	13212
580.710	13690
580.765	12531
580.767	12504
580.823	12267
580.838	12333
580.879	12534
580.911	12860
580.935	13118
580.984	11726
580.991	11545
581.047	13119
581.057	13074
581.103	12933
581.130	13161
581.159	13395
581.203	13693
581.215	13788
581.270	13477
581.276	13549
581.326	14251
581.349	13957
581.382	13518
581.422	13667
581.438	13742
581.494	14020
581.494	14010
581.550	13644
581.567	13963
581.606	14587
581.640	14026
581.661	13685
581.713	13933
581.717	13960
581.773	12697
581.786	12669
581.829	12635
581.859	12702
581.885	12702
581.932	13280
581.940	13418
581.996	14222
582.004	14201
582.052	13893
582.077	13628
582.107	13453
582.150	13907
582.163	13990
582.219	13902
582.223	13906
582.274	14181
582.296	14376
582.330	14615
582.368	14633
582.386	14687
582.441	14462
582.441	14461
582.497	14304
582.514	14529
582.552	15239
582.587	15264
582.608	15169
582.659	14463
582.663	14424
582.719	15228
582.732	15139
582.774	14642
582.805	14867
582.830	15177
582.877	15065
582.885	15022
582.941	15290
582.950	15180
582.996	14721
583.023	15558
583.052	16581
583.095	16475
583.107	16457
583.162	17209
583.168	17321
583.218	17689
583.240	17377
583.273	17090
583.313	16290
583.328	16069
583.384	16486
583.385	16489
583.439	16413
583.458	16632
583.494	16827
583.531	16239
583.549	16119
583.603	16776
583.605	16790
583.660	17197
583.676	17041
583.715	16662
583.748	17224
583.770	17614
583.820	17752
583.825	17779
583.881	17755
583.893	17751
583.936	17556
583.965	17821
583.991	18084
584.038	17878
584.046	17841
584.101	17622
584.110	17617
584.156	17792
584.183	18037
584.211	18155
584.255	18562
584.266	18722
584.321	18402
584.328	18480
584.376	19047
584.400	19061
584.431	19161
584.472	19542
584.486	19567
584.541	20005
584.545	19967
584.596	19939
584.617	20292
584.651	21226
584.689	22355
584.706	22578
584.761	21819
584.762	21815
584.816	22367
584.834	22597
584.871	23422
584.906	23963
584.926	24046
584.978	23469
584.980	23486
585.035	25342
585.051	25700
585.090	26465
585.123	27430
585.145	28393
585.195	29673
585.200	29789
585.254	31960
585.267	32530
585.309	35155
585.340	37148
585.364	38213
585.412	40113
585.419	40554
585.473	45277
585.484	46069
585.528	52147
585.556	58906
585.583	74542
585.628	109263
585.637	123924
585.692	243169
585.700	267765
585.747	350726
585.772	315076
585.801	218382
585.845	86993
585.856	71111
585.910	47879
585.917	45720
585.965	41191
585.989	39983
586.019	39459
586.061	38341
586.074	37954
586.128	38035
586.133	38011
586.183	39241
586.205	39638
586.237	39997
586.277	40152
586.292	40238
586.346	41113
586.349	41117
586.401	42234
586.421	42629
586.455	43675
586.493	45006
586.509	46759
586.564	54216
586.565	54504
586.618	72016
586.637	74008
586.672	68094
586.709	56922
586.727	53890
586.781	54455
586.781	54512
586.835	53003
586.853	52728
586.889	53006
586.925	53108
586.944	53433
586.996	54946
586.998	55087
587.052	57689
587.068	58526
587.106	60317
587.140	61585
587.161	62652
587.212	65505
587.215	65739
587.269	67901
587.284	68750
587.323	71990
587.356	74315
587.377	75535
587.427	78971
587.431	79426
587.485	83053
587.499	84186
587.539	88478
587.571	91388
587.593	93842
587.643	100152
587.648	100949
587.702	107978
587.715	109569
587.755	116409
587.786	121615
587.810	125938
587.858	134883
587.864	136375
587.917	149727
587.930	152586
587.971	165023
588.001	174438
588.025	182730
588.073	198086
588.079	200847
588.133	224603
588.145	229918
588.187	253801
588.217	270804
588.241	288875
588.288	323447
588.295	329528
588.348	380126
588.360	390780
588.402	443234
588.431	480015
588.456	519886
588.503	598075
588.510	613702
588.564	739019
588.575	765445
588.617	917074
588.646	1025472
588.671	1168323
588.718	1448132
588.725	1513295
588.778	2018128
588.789	2118840
588.832	2545392
588.861	2808724
588.886	2756627
588.932	2523604
588.939	2488734
588.993	2146208
589.004	2118861
589.047	2640558
589.075	2945742
589.100	2764999
589.147	2282264
589.154	2224551
589.207	1736555
589.218	1638614
589.261	1502531
589.290	1421302
589.314	1465217
589.361	1563633
589.368	1612655
589.421	2019170
589.433	2104578
589.475	2466272
589.504	2686496
589.528	2597860
589.576	2303622
589.582	2318744
589.635	2541257
589.647	2570910
589.689	2166125
589.718	1816529
589.742	1557228
589.790	1046469
589.795	1018390
589.849	760736
589.861	702720
589.902	598156
589.932	521176
589.955	480803
590.004	396482
590.009	391743
590.062	337112
590.075	323346
590.115	293531
590.146	270459
590.168	259266
590.218	232875
590.222	231607
590.275	210394
590.289	204560
590.328	193540
590.360	183720
590.381	177805
590.431	163055
590.435	162809
590.488	152908
590.503	149965
590.541	143420
590.574	136999
590.594	134340
590.645	126881
590.647	126935
590.700	120660
590.716	118527
590.753	114665
590.787	110679
590.806	109128
590.859	104089
590.859	104275
590.912	100390
590.930	98924
590.965	97079
591.001	94919
591.018	94046
591.071	90459
591.072	90196
591.124	88486
591.143	87487
591.177	85604
591.214	83209
591.230	83308
591.283	83264
591.285	83029
591.336	81730
591.356	81079
591.389	80255
591.427	78585
591.442	78100
591.495	75642
591.498	75246
591.547	72931
591.569	71710
591.600	71318
591.640	70332
591.653	70188
591.706	68704
591.711	68361
591.759	69604
591.782	70022
591.811	70167
591.853	69861
591.864	69403
591.917	65874
591.924	65204
591.969	64891
591.995	64444
592.022	64230
592.066	63382
592.075	63792
592.127	65246
592.137	65363
592.180	67544
592.208	68566
592.233	66394
592.279	61594
592.285	61603
592.338	60359
592.350	59913
592.390	58986
592.421	57962
592.443	58387
592.491	58792
592.495	58902
592.548	57988
592.562	57564
592.600	57174
592.633	56518
592.653	56351
592.704	55186
592.705	55512
592.775	55923
592.846	55512
592.916	55774
592.987	56204
593.058	54810
593.128	53486
593.199	52428
593.270	51695
593.341	50945
593.411	52103
593.482	51956
593.553	52122
593.623	50420
593.694	51373
593.764	52819
593.835	49753
593.906	50018
593.976	49624
594.047	49901
594.117	54791
594.188	54890
594.258	49792
594.329	48721
594.399	48849
594.470	49408
594.540	48591
594.611	49446
594.681	47466
594.751	50180
594.822	51419
594.892	52183
594.963	52391
595.033	52559
595.103	52741
595.174	54895
595.244	62355
595.314	71507
595.384	53777
595.455	53153
595.525	54609
595.595	55524
595.665	55117
595.736	53888
595.806	54365
595.876	54406
595.946	52967
596.016	54546
596.087	55080
596.157	54433
596.227	55302
596.297	57319
596.367	59049
596.437	63887
596.507	69945
596.577	75310
596.647	63398
596.717	63512
596.787	64322
596.857	62678
596.927	62766
596.997	62512
597.067	64720
597.137	67479
597.207	67706
597.277	66665
597.347	62957
597.417	62435
597.487	62811
597.557	64425
597.626	64698
597.696	65988
597.766	70624
597.836	74619
597.906	61236
597.975	58873
598.045	58988
598.115	62067
598.185	62837
598.254	68895
598.324	73406
598.394	73378
598.464	71770
598.533	71130
598.603	66844
598.672	67355
598.742	67562
598.812	66821
598.881	67484
598.951	67749
599.020	66464
599.090	68942
599.159	70309
599.229	67963
599.299	65499
599.368	68115
599.437	66508
599.507	63535
599.576	61737
599.646	63017
599.715	62490
599.785	61813
599.854	60893
599.924	63451
599.993	60719
600.062	59952
600.132	60692
600.201	62829
600.270	70740
600.340	72917
600.409	70597
600.478	71323
600.547	71885
600.617	68320
600.686	59228
600.755	55463
600.824	54061
600.894	54572
600.963	52255
601.032	51210
601.101	52008
601.170	50951
601.239	48657
601.308	49866
601.378	49300
601.447	48109
601.516	48664
601.585	50121
601.654	51207
601.723	51878
601.792	51914
601.861	53279
601.930	57838
601.999	57507
602.068	54034
602.137	55011
602.206	56123
602.275	56396
602.343	60011
602.412	59666
602.481	56606
602.550	55471
602.619	57128
602.688	58330
602.756	57523
602.825	59052
602.894	58851
602.963	59614
603.032	59950
603.100	60235
603.169	58382
603.238	60680
603.307	59173
603.375	60714
603.444	61354
603.513	61745
603.581	61283
603.650	62539
603.719	59970
603.787	61838
603.856	61290
603.924	64115
603.993	65692
604.061	67366
604.130	70616
604.198	70924
604.267	72226
604.335	72844
604.404	73065
604.472	74161
604.541	74616
604.609	76608
604.678	75604
604.746	76280
604.815	77682
604.883	78448
604.951	78058
605.020	78756
605.088	78243
605.156	80161
605.225	80649
605.293	80197
605.361	80333
605.429	80241
605.498	83478
605.566	85554
605.634	86569
605.702	89410
605.771	92950
605.839	93832
605.907	88857
605.975	87329
606.043	85460
606.111	85505
606.180	86505
606.248	85542
606.316	87286
606.384	85782
606.452	88896
606.520	90512
606.588	86245
606.656	84709
606.724	82315
606.792	77848
606.860	69482
606.928	65648
606.996	63117
607.064	63133
607.132	63604
607.200	68660
607.267	69484
607.335	68767
607.403	72035
607.471	69731
607.539	67876
607.607	67864
607.674	61830
607.742	62654
607.810	63233
607.878	60903
607.946	62412
608.013	64276
608.081	65107
608.149	65233
608.216	68221
608.284	70293
608.352	71125
608.419	70629
608.487	75583
608.555	68557
608.622	68232
608.690	72133
608.757	77921
608.825	79947
608.893	78217
608.960	74875
609.028	73305
609.095	79937
609.163	72529
609.230	65218
609.298	60231
609.365	62613
609.432	67806
609.500	73705
609.567	81984
609.635	92239
609.702	94411
609.769	93368
609.837	75862
609.904	69202
609.971	73398
610.039	88980
610.106	125821
610.173	259636
610.241	615702
610.308	326473
610.375	112136
610.442	75540
610.509	68902
610.577	67768
610.644	67282
610.711	69519
610.778	71358
610.845	74062
610.912	78248
610.980	82736
611.047	85151
611.114	80539
611.181	76132
611.248	75318
611.315	80693
611.382	81175
611.449	82848
611.516	86130
611.583	83935
611.650	86804
611.717	87066
611.784	92734
611.851	99424
611.918	115610
611.984	148557
612.051	236682
612.118	527216
612.185	1343227
612.252	731444
612.319	162600
612.386	120243
612.452	107216
612.519	101005
612.586	104663
612.653	98842
612.719	100967
612.786	94314
612.853	87617
612.919	84410
612.986	86239
613.053	80646
613.120	76544
613.186	74748
613.253	78301
613.319	75368
613.386	77346
613.453	77553
613.519	79640
613.586	85352
613.652	95688
613.719	86534
613.785	84676
613.852	79052
613.918	76992
613.985	80535
614.051	88884
614.118	108636
614.184	101986
614.250	79169
614.317	80155
614.383	76473
614.449	78781
614.516	79231
614.582	77108
614.648	76913
614.715	77513
614.781	74348
614.847	77150
614.914	75862
614.980	73214
615.046	75098
615.112	77875
615.179	79182
615.245	86986
615.311	100064
615.377	145304
615.443	155269
615.509	102872
615.575	91898
615.642	89041
615.708	92235
615.774	104395
615.840	118705
615.906	152400
615.972	233112
616.038	436307
616.104	794612
616.170	1710146
616.236	1280142
616.302	265433
616.368	178151
616.434	124570
616.500	112702
616.565	126859
616.631	159418
616.697	127264
616.763	132459
616.829	212630
616.895	384939
616.961	354408
617.026	139168
617.092	90066
617.158	83443
617.224	80193
617.289	74608
617.355	71875
617.421	71005
617.487	70502
617.552	65410
617.618	64930
617.684	64883
617.749	66101
617.815	62599
617.880	60668
617.946	61907
618.012	62976
618.077	64518
618.143	60544
618.208	61800
618.274	66380
618.339	66425
618.405	55489
618.470	56650
618.536	57903
618.601	59193
618.667	53909
618.732	51208
618.798	51222
618.863	50228
618.928	50332
618.994	52853
619.059	56305
619.124	64935
619.190	54183
619.255	49111
619.320	50493
619.386	49276
619.451	48397
619.516	47960
619.581	48917
619.647	48912
619.712	49428
619.777	48085
619.842	47703
619.907	47436
619.972	48886
620.038	49864
620.103	47929
620.168	46605
620.233	47851
620.298	47503
620.363	47994
620.428	49237
620.493	50367
620.558	50339
620.623	51060
620.688	49914
620.753	50334
620.818	50013
620.883	51394
620.948	50183
621.013	50317
621.078	50229
621.143	50428
621.207	53588
621.272	53561
621.337	51850
621.402	54129
621.467	57601
621.532	58077
621.596	53101
621.661	50665
621.726	49180
621.791	50385
621.855	50682
621.920	53424
621.985	53555
622.049	56975
622.114	54677
622.179	53917
622.243	55611
622.308	55834
622.373	57557
622.437	55988
622.502	52937
622.566	52679
622.631	51699
622.695	54164
622.760	52980
622.824	53023
622.889	54180
622.953	56715
623.018	69852
623.082	67102
623.147	55641
623.211	55328
623.276	54921
623.340	50388
623.404	50248
623.469	50165
623.533	51631
623.597	49772
623.662	49444
623.726	46387
623.790	44246
623.854	44651
623.919	44613
623.983	44754
624.047	46241
624.111	46647
624.176	46935
624.240	46188
624.304	49914
624.368	46573
624.432	47205
624.496	48684
624.560	52110
624.625	54380
624.689	48703
624.753	50277
624.817	48748
624.881	47748
624.945	44035
625.009	43816
625.073	44197
625.137	46392
625.201	53838
625.265	52733
625.329	46540
625.393	49032
625.456	46384
625.520	49482
625.584	51455
625.648	58301
625.712	71501
625.776	119132
625.839	121467
625.903	59356
625.967	45467
626.031	62559
626.095	80861
626.158	47959
626.222	35650
626.286	35537
626.349	33316
626.413	30932
626.477	34965
626.540	32851
626.604	32058
626.668	33450
626.731	31070
626.795	33230
626.858	31677
626.922	30892
626.986	31023
627.049	30015
627.113	33747
627.176	31151
627.240	29626
627.303	29925
627.366	30369
627.430	31624
627.493	31021
627.557	31346
627.620	32919
627.684	33118
627.747	32429
627.810	29494
627.874	28190
627.937	27053
628.000	30994
628.064	28425
628.127	23575
628.190	25618
628.253	26685
628.317	24638
628.380	22967
628.443	23938
628.506	23565
628.569	23220
628.632	21333
628.696	22804
628.759	20970
628.822	21068
628.885	20940
628.948	21763
629.011	21169
629.074	22069
629.137	19057
629.200	20369
629.263	21344
629.326	19776
629.389	19952
629.452	21103
629.515	21090
629.578	19182
629.641	20754
629.704	20525
629.767	21077
629.830	19767
629.892	19195
629.955	19457
630.018	21595
630.081	21611
630.144	23910
630.207	20177
630.269	22164
630.332	21771
630.395	19513
630.458	19287
630.520	16386
630.583	18334
630.646	18123
630.708	18163
630.771	16933
630.834	18961
630.896	16742
630.959	19008
631.021	17647
631.084	18973
631.146	20139
631.209	21911
631.272	19042
631.334	19036
631.397	18462
631.459	18788
631.522	19123
631.584	20406
631.646	22463
631.709	23739
631.771	26144
631.834	23079
631.896	21415
631.958	18197
632.021	19298
632.083	17739
632.145	18961
632.208	18168
632.270	18139
632.332	16963
632.395	17032
632.457	18309
632.519	15995
632.581	18028
632.643	15443
632.706	17435
632.768	15885
632.830	18126
632.892	16129
632.954	17108
633.016	18255
633.078	16492
633.141	15654
633.203	16906
633.265	17018
633.327	16799
633.389	15779
633.451	19876
633.513	20750
633.575	19888
633.637	20796
633.698	18640
633.760	17906
633.822	18222
633.884	18922
633.946	18960
634.008	18466
634.070	20290
634.132	22121
634.193	23565
634.255	24146
634.317	24003
634.379	24091
634.441	21069
634.502	20080
634.564	19283
634.626	17308
634.687	18053
634.749	16565
634.811	16776
634.873	15195
634.934	16061
634.996	16656
635.057	15802
635.119	14852
635.181	16224
635.242	17038
635.304	15792
635.365	17888
635.427	15702
635.488	16755
635.550	16291
635.611	16940
635.673	15488
635.734	18816
635.796	18669
635.857	21323
635.918	19924
635.980	23827
636.041	24337
636.102	26240
636.164	26308
636.225	25118
636.286	20738
636.348	20578
636.409	18115
636.470	16547
636.531	16488
636.593	17916
636.654	16534
636.715	15202
636.776	15126
636.838	12847
636.899	14959
636.960	13522
637.021	14265
637.082	13241
637.143	13301
637.204	12659
637.265	12362
637.326	13706
637.387	13760
637.448	12884
637.509	13063
637.570	13055
637.631	13660
637.692	10766
637.753	11207
637.814	12445
637.875	12868
637.936	12623
637.997	12165
638.058	12782
638.119	13026
638.179	11661
638.240	12277
638.301	12220
638.362	11680
638.423	11180
638.483	13025
638.544	9640
638.605	11883
638.666	10967
638.726	12735
638.787	12102
638.848	10519
638.908	10851
638.969	11770
639.030	11557
639.090	10248
639.151	11011
639.211	12048
639.272	15296
639.332	22672
639.393	14464
639.453	11169
639.514	12286
639.574	12703
639.635	9960
639.695	11553
639.756	9647
639.816	12119
639.877	12266
639.937	20317
639.997	22690
640.058	11393
640.118	9547
640.178	11716
640.239	10058
640.299	10168
640.359	10312
640.420	10675
640.480	11577
640.540	14153
640.600	14060
640.661	12899
640.721	11806
640.781	16561
640.841	12434
640.901	12289
640.961	10839
641.021	12907
641.082	13568
641.142	15795
641.202	12321
641.262	8122
641.322	10737
641.382	8615
641.442	10378
641.502	10308
641.562	9821
641.622	10573
641.682	11322
641.742	11713
641.802	11265
641.861	11285
641.921	11501
641.981	12210
642.041	12457
642.101	13297
642.161	9219
642.221	8815
642.280	9232
642.340	9269
642.400	7731
642.460	10668
642.519	9588
642.579	9898
642.639	9992
642.698	6906
642.758	11660
642.818	10631
642.877	8540
642.937	10519
642.997	12136
643.056	16174
643.116	10240
643.175	12023
643.235	9912
643.294	11907
643.354	13380
643.414	14828
643.473	19825
643.532	25734
643.592	36007
643.651	58744
643.711	102610
643.770	204072
643.830	500499
643.889	1008453
643.948	211402
644.008	37292
644.067	23326
644.126	17535
644.186	14058
644.245	14103
644.304	10803
644.363	13136
644.423	9221
644.482	11191
644.541	12392
644.600	10933
644.659	16119
644.719	20586
644.778	29534
644.837	49822
644.896	106515
644.955	242211
645.014	70648
645.073	17829
645.132	13209
645.191	12723
645.250	10654
645.309	12815
645.368	12575
645.427	16945
645.486	28122
645.545	46339
645.604	14456
645.663	11710
645.722	11252
645.781	14064
645.840	16250
645.898	23454
645.957	33922
646.016	52688
646.075	94951
646.134	186155
646.192	512917
646.251	701085
646.310	92418
646.369	26592
646.427	21100
646.486	14417
646.545	13051
646.603	11774
646.662	9934
646.721	11033
646.779	10847
646.838	10814
646.896	15315
646.955	19794
647.014	29805
647.072	56794
647.131	155474
647.189	68182
647.248	11816
647.306	10702
647.365	9401
647.423	7659
647.481	9617
647.540	6834
647.598	7463
647.657	7543
647.715	7329
647.773	6919
647.832	7749
647.890	6696
647.948	6567
648.007	7796
648.065	5225
648.123	6880
648.181	8782
648.240	8793
648.298	7553
648.356	6393
648.414	7362
648.472	7423
648.531	7238
648.589	7266
648.647	6435
648.705	7153
648.763	7081
648.821	8703
648.879	7892
648.937	10704
648.995	12401
649.053	17446
649.111	26136
649.169	42281
649.227	73602
649.285	156635
649.343	438655
649.401	191721
649.459	41536
649.516	25688
649.574	16035
649.632	26355
649.690	27993
649.748	20344
649.806	25757
649.863	46288
649.921	107718
649.979	67639
650.037	11355
650.094	7404
650.152	7781
650.210	7437
650.268	7676
650.325	7500
650.383	7136
650.440	5386
650.498	5814
650.556	6407
650.613	4912
650.671	6057
650.728	6023
650.786	7797
650.843	7578
650.901	6579
650.958	5979
651.016	5235
651.073	5234
651.131	5665
651.188	5398
651.246	5622
651.303	4763
651.360	5590
651.418	5010
651.475	6102
651.532	4452
651.590	5333
651.647	5225
651.704	5224
651.762	4960
651.819	5515
651.876	4510
651.933	4905
651.990	5784
652.048	3781
652.105	5179
652.162	5812
652.219	4470
652.276	5487
652.333	4931
652.390	4662
652.448	5003
652.505	5688
652.562	5148
652.619	5242
652.676	7566
652.733	7683
652.790	4634
652.847	3761
652.904	4541
652.961	4030
653.017	3195
653.074	5074
653.131	4476
653.188	3505
653.245	3793
653.302	4189
653.359	3710
653.415	4682
653.472	3981
653.529	5144
653.586	3341
653.642	4082
653.699	4580
653.756	3799
653.813	4240
653.869	5347
653.926	4274
653.983	4789
654.039	4526
654.096	4409
654.152	5232
654.209	3330
654.266	4656
654.322	4295
654.379	6326
654.435	6334
654.492	5047
654.548	8671
654.605	11981
654.661	7171
654.717	4934
654.774	5584
654.830	5549
654.887	5549
654.943	3780
655.000	5936
655.056	4908
655.112	5351
655.168	4199
655.225	5521
655.281	5549
655.337	7457
655.394	9539
655.450	7844
655.506	6107
655.562	11147
655.618	9078
655.675	4922
655.731	3720
655.787	3867
655.843	4957
655.899	3416
655.955	4535
656.011	5489
656.067	4482
656.123	4927
656.179	3110
656.235	5721
656.291	3093
656.347	5567
656.403	3339
656.459	4039
656.515	5212
656.571	5046
656.627	4816
656.683	4653
656.739	4882
656.795	4368
656.850	3730
656.906	6005
656.962	5335
657.018	4361
657.074	5469
657.129	6138
657.185	7818
657.241	15510
657.297	8602
657.352	5274
657.408	3575
657.464	6323
657.519	4792
657.575	4261
657.630	3406
657.686	4340
657.742	3953
657.797	4297
657.853	3823
657.908	5995
657.964	3580
658.019	3828
658.075	4519
658.130	4807
658.186	2927
658.241	5267
658.297	2222
658.352	4193
658.407	4483
658.463	3453
658.518	4570
658.573	4412
658.629	3523
658.684	4011
658.739	3860
658.795	2752
658.850	4207
658.905	4114
658.960	4050
659.016	3419
659.071	4177
659.126	5116
659.181	4397
659.236	7785
659.291	8316
659.346	5789
659.401	4717
659.457	6114
659.512	5299
659.567	5728
659.622	3770
659.677	4223
659.732	3179
659.787	4587
659.842	4114
659.897	6123
659.952	4032
660.007	4085
660.061	3578
660.116	3276
660.171	3084
660.226	4698
660.281	4379
660.336	2968
660.391	3436
660.445	3868
660.500	3632
660.555	4316
660.610	3458
660.664	4174
660.719	3406
660.774	4481
660.828	3986
660.883	4710
660.938	4285
660.992	2673
661.047	3479
661.101	3558
661.156	3223
661.211	3911
661.265	3743
661.320	4000
661.374	3875
661.429	4310
661.483	3943
661.538	3190
661.592	3786
661.647	4495
661.701	4998
661.755	4728
661.810	4342
661.864	4046
661.919	3416
661.973	3981
662.027	4124
662.081	3380
662.136	3272
662.190	3889
662.244	3415
662.299	3287
662.353	4172
662.407	3938
662.461	3639
662.515	4719
662.569	4270
662.624	3991
662.678	3369
662.732	4249
662.786	3434
662.840	4616
662.894	4046
662.948	4714
663.002	3315
663.056	4170
663.110	3870
663.164	3591
663.218	3684
663.272	3566
663.326	5061
663.380	4347
663.434	4337
663.488	3195
663.542	3749
663.595	4487
663.649	3150
663.703	4497
663.757	3726
663.811	3834
663.864	3660
663.918	4605
663.972	3603
664.026	4399
664.079	3817
664.133	4832
664.187	3527
664.240	3422
664.294	4106
664.348	3910
664.401	3798
664.455	3026
664.508	3064
664.562	4087
664.615	3563
664.669	3848
664.722	3916
664.776	4058
664.829	4117
664.883	3634
664.936	3791
664.990	4760
665.043	5179
665.097	4527
665.150	4761
665.203	3905
665.257	3722
665.310	4597
665.363	4112
665.417	4889
665.470	4734
665.523	5027
665.576	4204
665.630	4726
665.683	4508
665.736	4755
665.789	4667
665.842	3842
665.895	4757
665.949	4765
666.002	3761
666.055	4884
666.108	5001
666.161	4491
666.214	4841
666.267	5244
666.320	5273
666.373	5026
666.426	4511
666.479	3942
666.532	4779
666.585	5675
666.638	5687
666.691	5223
666.744	5097
666.796	5518
666.849	5293
666.902	4611
666.955	4095
667.008	3848
667.060	3310
667.113	3770
667.166	4167
667.219	4485
667.271	3908
667.324	4524
667.377	4315
667.430	4119
667.482	4868
667.535	4885
667.587	5183
667.640	5613
667.693	4861
667.745	9650
667.798	9537
667.850	5732
667.903	4860
667.955	4819
668.008	4354
668.060	6076
668.113	4869
668.165	4845
668.218	4749
668.270	5157
668.322	4037
668.375	4373
668.427	5106
668.479	4711
668.532	4462
668.584	4995
668.636	3370
668.689	5040
668.741	4138
668.793	4491
668.845	4010
668.898	5009
668.950	4742
669.002	4669
669.054	4294
669.106	5240
669.158	5400
669.211	4516
669.263	4528
669.315	6343
669.367	5219
669.419	5454
669.471	6372
669.523	6904
669.575	7975
669.627	7146
669.679	5903
669.731	5641
669.783	5569
669.835	6790
669.886	5321
669.938	6121
669.990	5208
670.042	5021
670.094	5621
670.146	6557
670.197	7491
670.249	8516
670.301	10421
670.353	14242
670.404	20484
670.456	28715
670.508	42901
670.560	64156
670.611	96369
670.663	159675
670.715	370993
670.766	591618
670.818	192931
670.869	31518
670.921	15865
670.972	12033
671.024	9290
671.075	8162
671.127	7472
671.178	6508
671.230	7000
671.281	6585
671.333	6494
671.384	7369
671.436	8352
671.487	10763
671.538	12042
671.590	16168
671.641	23217
671.692	38908
671.744	67968
671.795	48574
671.846	17995
671.897	10889
671.949	8054
672.000	6721
672.051	5981
672.102	6762
672.153	5068
672.204	5997
672.256	5401
672.307	5294
672.358	5468
672.409	5367
672.460	5296
672.511	5179
672.562	4693
672.613	5333
672.664	4463
672.715	5048
672.766	4126
672.817	4862
672.868	4694
672.919	4279
672.970	3953
673.021	4437
673.071	4602
673.122	4690
673.173	3972
673.224	5234
673.275	4163
673.326	4540
673.376	3389
673.427	3790
673.478	4943
673.528	4850
673.579	3208
673.630	3733
673.680	4618
673.731	4593
673.782	3698
673.832	4829
673.883	4385
673.934	3977
673.984	3526
674.035	4283
674.085	3721
674.136	4973
674.186	4087
674.237	5473
674.287	7351
674.338	5204
674.388	4487
674.438	4724
674.489	3739
674.539	5295
674.589	3757
674.640	4873
674.690	4428
674.740	5342
674.791	4660
674.841	5321
674.891	5433
674.942	5155
674.992	3466
675.042	3951
675.092	3165
675.142	3434
675.193	3630
675.243	3635
675.293	4224
675.343	4526
675.393	3600
675.443	4417
675.493	4132
675.543	3797
675.593	4339
675.643	4690
675.693	4427
675.743	3496
675.793	3491
675.843	3885
675.893	3509
675.943	3999
675.993	3409
676.043	3765
676.093	3215
676.142	3676
676.192	2936
676.242	3362
676.292	3573
676.341	3610
676.391	3698
676.441	3554
676.491	3081
676.540	2605
676.590	2604
676.640	3681
676.689	4060
676.739	3682
676.789	3276
676.838	3241
676.888	3455
676.937	3652
676.987	3065
677.037	3056
677.086	1904
677.136	3836
677.185	2286
677.235	2261
677.284	3139
677.333	2989
677.383	2147
677.432	2914
677.482	2986
677.531	3757
677.580	1925
677.630	3371
677.679	1954
677.728	2544
677.778	3579
677.827	2308
677.876	3577
677.925	2967
677.975	2995
678.024	2742
678.073	3166
678.122	3445
678.171	3434
678.220	3535
678.269	4032
678.319	4465
678.368	3797
678.417	3195
678.466	3866
678.515	3869
678.564	2973
678.613	3204
678.662	3357
678.711	3469
678.760	3241
678.809	3073
678.857	3166
678.906	3320
678.955	3109
679.004	4240
679.053	3773
679.102	3003
679.151	3415
679.199	2632
679.248	3386
679.297	2997
679.346	2665
679.394	2747
679.443	2730
679.492	2735
679.540	2815
679.589	3944
679.638	2430
679.686	3186
679.735	2296
679.784	3296
679.832	3843
679.881	3056
679.929	2689
679.978	2341
680.026	2908
680.075	3476
680.123	2771
680.172	2580
680.220	3089
680.268	2947
680.317	2199
680.365	2682
680.414	1699
680.462	2971
680.510	2963
680.559	2756
680.607	2336
680.655	2610
680.703	2309
680.752	3165
680.800	2582
680.848	2598
680.896	2101
680.945	1708
680.993	2953
681.041	3370
681.089	2320
681.137	2707
681.185	2854
681.233	2494
681.258	2628
681.281	2748
681.329	2739
681.377	2138
681.380	2194
681.425	3071
681.473	1666
681.502	2470
681.521	3010
681.569	2619
681.617	2602
681.624	2525
681.665	1983
681.713	2855
681.745	2852
681.761	2834
681.809	2281
681.857	3214
681.867	3042
681.904	2429
681.952	3016
681.989	2973
682.000	2956
682.048	2872
682.096	2748
682.111	2542
682.143	2051
682.191	3002
682.233	2730
682.239	2682
682.286	2938
682.334	2310
682.354	2255
682.382	2158
682.430	2581
682.476	2211
682.477	2198
682.525	2212
682.572	2667
682.598	2748
682.620	2804
682.667	2391
682.715	2972
682.720	2974
682.763	2901
682.810	2549
682.841	2668
682.857	2725
682.905	2068
682.952	2717
682.963	2698
683.000	2620
683.047	2114
683.085	3402
683.095	3735
683.142	2240
683.190	2571
683.206	2622
683.237	2704
683.284	2684
683.328	2727
683.332	2722
683.379	2794
683.426	1859
683.449	2330
683.473	2823
683.521	2247
683.568	2820
683.571	2802
683.615	2449
683.662	2533
683.693	2509
683.709	2492
683.757	2167
683.804	3026
683.814	2873
683.851	2308
683.898	3086
683.936	2760
683.945	2679
683.992	3424
684.039	3120
684.057	2984
684.086	2707
684.133	2482
684.179	2894
684.180	2904
684.227	2858
684.274	3220
684.300	3428
684.321	3561
684.368	2676
684.415	3387
684.422	3261
684.462	2517
684.509	2793
684.543	2660
684.556	2591
684.603	2634
684.649	2178
684.665	2303
684.696	2581
684.743	2989
684.786	2713
684.790	2690
684.837	2813
684.883	3071
684.908	3191
684.930	3336
684.977	2652
685.023	3539
685.029	3458
685.070	2596
685.117	3357
685.150	3195
685.164	3176
685.210	3933
685.257	4463
685.272	4280
685.303	3812
685.350	4053
685.393	3435
685.396	3388
685.443	3137
685.490	3601
685.514	3552
685.536	3457
685.583	3844
685.629	3680
685.636	3617
685.675	3348
685.722	3444
685.757	4187
685.768	4364
685.815	3388
685.861	3576
685.878	3459
685.908	3421
685.954	3485
686.000	4176
686.000	4186
686.047	4241
686.093	4771
686.121	4893
686.139	4817
686.185	4158
686.232	3978
686.242	3723
686.278	2976
686.324	4192
686.363	2976
686.370	2763
686.416	3580
686.463	3655
686.484	3696
686.509	3707
686.555	2989
686.601	3422
686.606	3465
686.647	3966
686.693	3626
686.727	3861
686.739	3918
686.785	3677
686.831	3521
686.848	3680
686.877	3938
686.923	3291
686.969	3650
686.969	3651
687.015	3469
687.061	3753
687.090	3990
687.107	4077
687.153	4202
687.199	3818
687.211	3769
687.245	3721
687.291	3320
687.332	3850
687.336	3909
687.382	3782
687.428	4561
687.453	4236
687.474	3898
687.520	3700
687.565	3541
687.574	3610
687.611	3935
687.657	3542
687.695	3711
687.702	3789
687.748	4229
687.794	5070
687.816	5187
687.839	4937
687.885	3773
687.931	2365
687.937	2437
687.976	3455
688.022	3706
688.058	4227
688.067	4287
688.113	3751
688.158	3650
688.179	3582
688.204	3652
688.249	3758
688.295	3976
688.300	4023
688.340	4048
688.386	3871
688.421	3655
688.431	3661
688.477	3013
688.522	4536
688.542	4514
688.567	4443
688.613	3703
688.658	3865
688.663	3911
688.703	4421
688.749	4079
688.784	4238
688.794	4218
688.839	4072
688.884	4148
688.905	3718
688.930	3330
688.975	3811
689.020	4278
689.026	4303
689.065	4584
689.110	4210
689.146	4311
689.155	4292
689.201	4100
689.246	4456
689.267	4128
689.291	3875
689.336	4617
689.381	4639
689.388	4581
689.426	4177
689.471	4328
689.509	4518
689.516	4559
689.561	4084
689.606	4194
689.630	4189
689.651	4221
689.696	4338
689.741	4175
689.750	4228
689.785	4554
689.830	4408
689.871	4450
689.875	4429
689.920	3674
689.965	4538
689.992	4056
690.010	3874
690.054	4357
690.099	4018
690.112	4208
690.144	4488
690.189	4116
690.233	3616
690.233	3620
690.278	4109
690.323	4382
690.354	4456
690.367	4424
690.412	4526
690.457	4215
690.474	4340
690.501	4549
690.546	4499
690.590	4851
690.595	4792
690.635	4369
690.680	4674
690.716	4277
690.724	4201
690.769	5143
690.813	4892
690.836	4866
690.857	5051
690.902	5716
690.946	6362
690.957	6482
690.991	7461
691.035	9627
691.077	10772
691.080	10737
691.124	9602
691.168	8006
691.198	7364
691.213	7156
691.257	6270
691.301	5180
691.318	5009
691.346	4961
691.390	4672
691.434	4184
691.439	4153
691.478	4353
691.522	4481
691.559	4897
691.567	4979
691.611	5090
691.655	5069
691.680	5119
691.699	5069
691.743	5310
691.787	4639
691.800	4595
691.831	4694
691.875	4835
691.919	4786
691.921	4785
691.964	5007
692.008	5343
692.041	5279
692.052	5243
692.096	5126
692.139	5071
692.162	5153
692.183	5287
692.227	4802
692.271	5495
692.282	5432
692.315	5207
692.359	5015
692.402	5051
692.403	5062
692.447	5222
692.490	5189
692.523	5632
692.534	5735
692.578	5397
692.622	5269
692.643	5089
692.666	4932
692.709	5133
692.753	4751
692.763	4782
692.797	4945
692.840	4760
692.884	4743
692.884	4756
692.928	5086
692.971	5562
693.004	5859
693.015	5879
693.059	5812
693.102	5895
693.124	5786
693.146	5623
693.189	5646
693.233	5661
693.245	5512
693.276	5400
693.320	5813
693.363	5495
693.365	5495
693.407	5805
693.450	5969
693.485	6181
693.493	6299
693.537	6542
693.580	7227
693.605	7441
693.624	7852
693.667	8617
693.710	9845
693.725	10218
693.753	11950
693.797	14966
693.840	18404
693.845	18647
693.883	16156
693.926	12511
693.966	9756
693.970	9609
694.013	8169
694.056	6836
694.086	5864
694.099	5818
694.142	5800
694.185	5822
694.206	5726
694.229	5782
694.272	6086
694.315	6137
694.326	6169
694.358	6295
694.401	6496
694.444	6675
694.446	6675
694.487	6818
694.530	6598
694.566	6612
694.573	6563
694.616	5984
694.659	5591
694.686	5453
694.702	5650
694.745	5753
694.787	6131
694.806	6195
694.830	6037
694.873	5917
694.916	5506
694.926	5504
694.959	5738
695.002	5581
695.044	5674
695.046	5663
695.087	5717
695.130	5479
695.166	5627
695.172	5708
695.215	6021
695.258	6184
695.286	6354
695.301	6386
695.343	6411
695.386	6546
695.406	6464
695.428	6325
695.471	6187
695.514	6012
695.526	5994
695.556	6242
695.599	6425
695.641	6624
695.646	6618
695.684	6319
695.726	6089
695.766	5951
695.769	5980
695.811	6057
695.854	6181
695.886	6233
695.896	6238
695.938	6014
695.981	6146
696.005	6044
696.023	6093
696.065	6424
696.108	6564
696.125	6662
696.150	6539
696.192	6174
696.235	5790
696.245	5691
696.277	5715
696.319	5918
696.361	5892
696.365	5873
696.404	6080
696.446	6344
696.485	6712
696.488	6756
696.530	6787
696.572	7231
696.604	7205
696.614	7066
696.656	6791
696.698	6241
696.724	5974
696.740	6022
696.783	5966
696.825	6113
696.844	6090
696.867	6147
696.909	6219
696.951	6340
696.964	6403
696.992	6497
697.034	6348
697.076	6462
697.083	6429
697.118	6452
697.160	6599
697.202	6657
697.203	6642
697.244	6802
697.286	6917
697.323	6995
697.327	7007
697.369	6892
697.411	6923
697.442	6887
697.453	6847
697.494	6575
697.536	6267
697.562	6116
697.578	6176
697.620	6180
697.661	6294
697.682	6271
697.703	6466
697.744	6963
697.786	7418
697.801	7563
697.828	7426
697.869	7073
697.911	6827
697.921	6738
697.952	6987
697.994	7302
698.035	7620
698.040	7641
698.077	7299
698.118	6816
698.160	6375
698.160	6355
698.201	6617
698.243	6806
698.279	6968
698.284	6992
698.325	7053
698.367	7073
698.399	7123
698.408	7153
698.449	7115
698.491	7169
698.518	7124
698.532	7135
698.573	7174
698.614	7176
698.638	7164
698.656	7265
698.697	7451
698.738	7640
698.757	7710
698.779	7678
698.820	7564
698.862	7460
698.877	7407
698.903	7561
698.944	7760
698.985	7970
698.996	8007
699.026	7954
699.067	7859
699.116	7725
699.235	7482
699.354	8608
699.474	6963
699.593	9071
699.713	7988
699.832	7515
699.951	7822
700.070	7879
700.190	7038
700.309	7468
700.428	7348
700.547	7671
700.667	7438
700.786	8264
700.905	6488
701.024	7961
701.143	6371
701.262	6298
701.381	7419
701.500	6674
701.619	7025
701.738	6720
701.857	6950
701.976	8019
702.095	7391
702.214	7801
702.333	6977
702.452	6996
702.571	6472
702.690	6203
702.809	6798
702.928	6854
703.047	6892
703.165	6691
703.284	6479
703.403	7358
703.522	7942
703.640	7389
703.759	9246
703.878	9382
703.997	6339
704.115	6939
704.234	7236
704.353	6073
704.471	6129
704.590	6500
704.708	6324
704.827	6991
704.946	6735
705.064	6439
705.183	6696
705.301	8220
705.420	10573
705.538	10262
705.656	9016
705.775	8951
705.893	14548
706.012	12792
706.130	9494
706.249	8786
706.367	9559
706.485	9602
706.604	9189
706.722	9169
706.840	11247
706.958	12074
707.077	9197
707.195	7810
707.313	8510
707.431	8374
707.549	8120
707.668	7703
707.786	8428
707.904	7919
708.022	7509
708.140	8284
708.258	7275
708.376	7678
708.494	7955
708.612	9380
708.730	13982
708.848	11546
708.966	9974
709.084	9282
709.202	10450
709.320	9912
709.438	10882
709.556	10071
709.674	11119
709.791	10787
709.909	10471
710.027	10875
710.145	10691
710.263	11115
710.380	10707
710.498	10039
710.616	9257
710.733	10300
710.851	10023
710.969	10209
711.086	9704
711.204	9527
711.322	9103
711.439	9905
711.557	9565
711.674	9008
711.792	8979
711.909	9654
712.027	10051
712.144	10115
712.262	9222
712.379	11361
712.497	16457
712.614	14130
712.732	12197
712.849	11842
712.966	12597
713.084	14540
713.201	12891
713.318	13017
713.436	12423
713.553	12012
713.670	13523
713.787	13718
713.905	12885
714.022	12265
714.139	12363
714.256	14609
714.373	18527
714.490	30053
714.608	83800
714.725	330498
714.842	157379
714.959	17340
715.076	12891
715.193	12756
715.310	10895
715.427	10897
715.544	10674
715.661	11001
715.778	11114
715.895	12094
716.011	11154
716.128	11171
716.245	10997
716.362	12623
716.479	11392
716.596	11188
716.713	9880
716.829	11402
716.946	9341
717.063	9582
717.180	9602
717.296	10069
717.413	9229
717.530	9826
717.646	9076
717.763	8769
717.880	9326
717.996	9434
718.113	8791
718.229	9412
718.346	8380
718.462	9680
718.579	12008
718.695	14481
718.812	11610
718.928	12447
719.045	8856
719.161	8749
719.277	8290
719.394	9480
719.510	9252
719.626	10136
719.743	12009
719.859	14532
719.975	27102
720.092	106032
720.208	123612
720.324	15618
720.440	10339
720.557	10682
720.673	14153
720.789	20212
720.905	31831
721.021	11111
721.137	8149
721.253	8941
721.369	8233
721.486	11081
721.602	11172
721.718	7925
721.834	6930
721.950	8718
722.066	7452
722.181	7664
722.297	8482
722.413	8028
722.529	8235
722.645	7833
722.761	7515
722.877	7042
722.993	6824
723.108	8764
723.224	7916
723.340	8009
723.456	6466
723.571	7944
723.687	6806
723.803	7658
723.918	6839
724.034	7476
724.150	7244
724.265	9338
724.381	17268
724.497	13036
724.612	6770
724.728	6098
724.843	6661
724.959	9068
725.074	16412
725.190	11531
725.305	8116
725.421	6675
725.536	6544
725.651	7125
725.767	6383
725.882	6125
725.997	6725
726.113	6574
726.228	6032
726.343	5806
726.459	5860
726.574	6652
726.689	5571
726.804	6165
726.920	6243
727.035	6842
727.150	7049
727.265	6352
727.380	6162
727.495	6364
727.610	5303
727.725	6060
727.841	6431
727.956	10355
728.071	7800
728.186	6023
728.301	4541
728.416	5753
728.531	5815
728.645	5693
728.760	6636
728.875	6073
728.990	6097
729.105	5596
729.220	5452
729.335	6145
729.449	5078
729.564	5431
729.679	5035
729.794	5799
729.908	6099
730.023	5889
730.138	4774
730.253	5554
730.367	5138
730.482	4672
730.596	5051
730.711	5702
730.826	6225
730.940	5215
731.055	5317
731.169	5232
731.284	5326
731.398	5402
731.513	6295
731.627	5632
731.742	7228
731.856	6722
731.970	5683
732.085	6911
732.199	9181
732.313	14365
732.428	39417
732.542	99620
732.656	31680
732.771	8245
732.885	6594
732.999	7430
733.113	6496
733.227	5944
733.342	5496
733.456	5648
733.570	5562
733.684	5233
733.798	5196
733.912	5045
734.026	5672
734.140	5224
734.254	6479
734.368	10831
734.482	8600
734.596	5821
734.710	5470
734.824	4722
734.938	5413
735.052	5523
735.166	5938
735.280	5790
735.393	5101
735.507	5958
735.621	7582
735.735	9980
735.849	5709
735.962	5780
736.076	5539
736.190	5747
736.303	8123
736.417	7235
736.531	4996
736.644	5030
736.758	4757
736.872	4913
736.985	4847
737.099	4296
737.212	3722
737.326	4882
737.439	3969
737.553	5135
737.666	5177
737.780	4855
737.893	3909
738.007	4500
738.120	4061
738.233	4707
738.347	4144
738.460	4684
738.573	4170
738.687	4430
738.800	4880
738.913	5860
739.026	5348
739.140	4875
739.253	4143
739.366	4655
739.479	3862
739.592	3387
739.705	4224
739.818	4085
739.932	3562
740.045	4515
740.158	4272
740.271	4850
740.384	4281
740.497	3869
740.610	4177
740.723	3762
740.836	3557
740.949	4819
741.062	6074
741.174	5116
741.287	4565
741.400	4066
741.513	4041
741.626	4371
741.739	4546
741.851	4975
741.964	4270
742.077	3996
742.189	3512
742.302	4511
742.415	4602
742.527	4369
742.640	3860
742.753	4220
742.865	3203
742.978	3719
743.090	3812
743.203	3583
743.316	4139
743.428	4406
743.541	3777
743.653	3399
743.766	3343
743.878	3724
743.990	5352
744.103	4788
744.215	3975
744.327	4640
744.440	4522
744.552	5538
744.664	3292
744.777	3439
744.889	2823
745.001	4041
745.113	3152
745.226	3328
745.338	3729
745.450	3807
745.562	3863
745.674	3162
745.786	4051
745.898	3200
746.010	3645
746.122	2532
746.234	3510
746.347	4013
746.459	3234
746.570	3667
746.682	3432
746.794	2820
746.906	3059
747.018	3237
747.130	3555
747.242	3155
747.354	3522
747.466	4519
747.577	3522
747.689	3813
747.801	3465
747.913	3357
748.024	3322
748.136	2915
748.248	3431
748.359	3325
748.471	3932
748.583	3467
748.694	4053
748.806	4028
748.918	3565
749.029	3437
749.141	3434
749.252	3236
749.364	4359
749.475	7079
749.587	3986
749.698	2608
749.809	3172
749.921	2582
750.032	2698
750.144	2435
750.255	2311
750.366	2647
750.478	2616
750.589	4118
750.700	2931
750.811	3347
750.923	5234
751.034	8896
751.145	5381
751.256	2746
751.367	3249
751.479	2234
751.590	2817
751.701	3875
751.812	2175
751.923	3333
752.034	2961
752.145	2789
752.256	2872
752.367	2602
752.478	2185
752.589	3103
752.700	3198
752.811	2961
752.922	2770
753.032	3445
753.143	2999
753.254	2293
753.365	3263
753.476	2573
753.586	2619
753.697	2270
753.808	2512
753.919	2749
754.029	2680
754.140	3512
754.251	2644
754.361	2808
754.472	2287
754.582	3088
754.693	2976
754.804	3577
754.914	3021
755.025	2681
755.135	2145
755.246	2426
755.356	2356
755.466	2339
755.577	2625
755.687	2133
755.798	2607
755.908	2910
756.018	2133
756.129	1995
756.239	2566
756.349	2770
756.460	2259
756.570	1574
756.680	2702
756.790	2674
756.900	3410
757.011	1944
757.121	2177
757.231	2866
757.341	2678
757.451	2571
757.561	2521
757.671	2083
757.781	1948
757.891	3692
758.001	2400
758.111	3073
758.221	2873
758.331	3211
758.441	3351
758.551	3936
758.661	3341
758.771	3145
758.880	3717
758.990	2630
759.100	2939
759.210	2535
759.320	3125
759.429	2920
759.539	3012
759.649	3152
759.758	2921
759.868	4492
759.978	2872
760.087	3375
760.197	3838
760.307	3543
760.416	2346
760.526	2293
760.635	3466
760.745	3543
760.854	4263
760.964	3755
761.073	4349
761.182	4288
761.292	3494
761.401	4279
761.511	3737
761.620	2758
761.729	3728
761.839	3751
761.948	4118
762.057	3915
762.166	3538
762.276	3118
762.385	3973
762.494	2922
762.603	3095
762.712	4129
762.822	3954
762.931	4557
763.040	3072
763.149	3781
763.258	3711
763.367	3705
763.476	4587
763.585	4049
763.694	4456
763.803	4216
763.912	4374
764.021	5130
764.130	3886
764.238	5074
764.347	4843
764.456	4255
764.565	4480
764.674	6428
764.783	6315
764.891	5994
765.000	7674
765.109	8210
765.217	8665
765.326	11272
765.435	12094
765.543	14819
765.652	16897
765.761	23413
765.869	35007
765.978	56632
766.086	105414
766.195	225271
766.303	556842
766.412	907966
766.520	640503
766.629	195946
766.737	85226
766.846	51377
766.954	36147
767.062	27119
767.171	20973
767.279	16668
767.387	13671
767.496	11481
767.604	10816
767.712	9912
767.820	9695
767.928	9286
768.037	8220
768.145	8231
768.253	7801
768.361	7267
768.469	6358
768.577	7832
768.685	8399
768.793	8790
768.901	8025
769.009	10710
769.117	11901
769.225	16856
769.333	24604
769.441	41377
769.549	83751
769.657	206887
769.765	573903
769.873	678302
769.981	205717
770.088	62539
770.196	32477
770.304	23764
770.412	17615
770.519	13770
770.627	9998
770.735	9273
770.842	8616
770.950	7865
771.058	6031
771.165	6548
771.273	6804
771.380	6377
771.488	5318
771.595	5825
771.703	5527
771.810	6116
771.918	4720
772.025	5605
772.133	5113
772.240	4511
772.348	5237
772.455	4956
772.562	4454
772.670	4207
772.777	4147
772.884	4389
772.991	4411
773.099	4740
773.206	4341
773.313	4437
773.420	4333
773.528	3980
773.635	3714
773.742	4594
773.849	4575
773.956	3491
774.063	2951
774.170	3460
774.277	4842
774.384	4302
774.491	3522
774.598	4411
774.705	3307
774.812	4471
774.919	4846
775.026	3994
775.133	3758
775.239	4113
775.346	2867
775.453	2583
775.560	2941
775.667	4344
775.773	3380
775.880	4823
775.987	3354
776.093	4111
776.200	3470
776.307	3725
776.413	2962
776.520	3645
776.627	3372
776.733	3583
776.840	2135
776.946	4683
777.053	3176
777.159	3289
777.266	1548
777.372	4085
777.478	3672
777.585	3625
777.691	2898
777.798	2863
777.904	4069
778.010	4955
778.117	3902
778.223	3422
778.329	1781
778.435	3507
778.542	2416
778.648	3029
778.754	3022
778.860	2825
778.966	3158
779.072	3123
779.178	2577
779.284	3081
779.391	3016
779.497	2114
779.603	5358
779.708	3417
779.815	9330
779.920	28803
780.026	21606
780.132	4571
780.238	2225
780.344	2937
780.450	3388
780.556	2345
780.661	2437
780.767	2801
780.873	2275
780.979	2708
781.085	1948
781.190	1991
781.296	2194
781.402	3095
781.507	2435
781.613	2199
781.719	1290
781.824	2649
781.930	3696
782.035	2439
782.141	2995
782.246	2169
782.352	2306
782.457	2757
782.563	3129
782.668	1841
782.773	2010
782.879	2282
782.984	3257
783.090	3721
783.195	4043
783.300	3027
783.405	3004
783.511	2012
783.616	3029
783.721	2615
783.826	2111
783.932	2857
784.037	2826
784.142	2184
784.247	2164
784.352	3557
784.457	2695
784.562	2801
784.667	2270
784.772	2710
784.877	1861
784.982	2803
785.087	2186
785.192	2241
785.297	1987
785.402	1843
785.507	2372
785.611	2430
785.716	2412
785.821	2441
785.926	793
786.031	2377
786.135	2470
786.240	2604
786.345	1282
786.450	1739
786.554	1938
786.659	1471
786.763	988
786.868	1969
786.973	2198
787.077	1147
787.182	2155
787.286	2213
787.391	2111
787.495	1892
787.600	1951
787.704	365
787.809	1538
787.913	1849
788.017	1438
788.122	1379
788.226	874
788.330	921
788.435	1398
788.539	1999
788.643	1698
788.747	2057
788.852	1655
788.956	1847
789.060	2682
789.164	2715
789.268	630
789.372	2077
789.476	2157
789.580	1165
789.684	907
789.788	2197
789.892	987
789.996	1768
790.100	1257
790.204	1622
790.308	1296
790.412	1615
790.516	2714
790.620	1387
790.724	1626
790.828	2353
790.931	1000
791.035	2943
791.139	2101
791.242	877
791.346	2308
791.450	1296
791.554	1492
791.657	961
791.761	2785
791.864	1955
791.968	1865
792.072	1802
792.175	1765
792.279	2305
792.382	1349
792.486	1671
792.589	2043
792.693	2266
792.796	1165
792.899	2729
793.003	1604
793.106	607
793.209	1258
793.313	2533
793.416	763
793.519	3251
793.623	3136
793.726	2267
793.829	1458
793.932	1479
794.035	980
794.138	2225
794.242	2385
794.345	2533
794.448	3073
794.551	4190
794.654	13142
794.757	10528
794.860	2785
794.963	1121
795.066	275
795.169	1990
795.272	1179
795.375	1630
795.477	-44
795.580	1761
795.683	129
795.786	1089
795.889	-244
795.991	2188
796.094	2044
796.197	969
796.300	1826
796.402	1375
796.505	1343
796.608	879
796.710	1137
796.813	1065
796.915	1278
797.018	1527
797.120	1644
797.223	225
797.326	2242
797.428	291
797.530	-203
797.633	1669
797.735	2767
797.838	2568
797.940	2052
798.042	213
798.145	586
798.247	2007
798.349	-428
798.452	1871
798.554	-83
798.656	197
798.758	1473
798.860	1111
798.962	231
799.065	256
799.167	-52
799.269	1484
799.371	1582
799.473	1179
799.575	1342
799.677	1479
799.779	3009
799.881	999
799.983	1243
800.085	839
800.187	904
800.289	882
800.390	733
800.492	1071
800.594	1534
800.696	831
800.798	857
800.899	359
801.001	401
801.103	668
801.205	725
801.306	1003
801.408	-82
801.509	85
801.611	1351
801.713	559
801.814	-341
801.916	745
802.017	887
802.119	991
802.220	1285
802.322	-760
802.423	2962
802.525	-825
802.626	971
802.727	1217
802.829	1429
802.930	-728
803.031	2231
803.133	337
803.234	645
803.335	915
803.436	-123
803.538	206
803.639	115
803.740	842
803.841	-81
803.942	441
804.043	1295
804.144	578
804.245	947
804.346	296
804.447	717
804.548	1535
804.649	1864
804.750	-484
804.851	332
804.952	161
805.053	681
805.154	-499
805.255	1257
805.355	776
805.456	-354
805.557	-318
805.658	-447
805.758	93
805.859	-251
805.960	431
806.061	-266
806.161	344
806.262	914
806.362	173
806.463	55
806.564	747
806.664	384
806.765	1572
806.865	163
806.966	1063
807.066	208
807.166	1159
807.267	1094
807.367	223
807.468	999
807.568	-133
807.668	78
807.769	1013
807.869	-254
807.969	453
808.069	638
808.170	264
808.270	264
808.370	765
808.470	224
808.570	-495
808.670	948
808.770	1235
808.870	456
808.970	589
809.070	793
809.170	-21
809.271	863
809.370	-170
809.470	874
809.570	-515
809.670	-237
809.770	1531
809.870	1388
809.970	1126
810.070	506
810.169	681
810.269	-560
810.369	1180
810.469	140
810.568	815
810.668	253
810.768	-199
810.867	758
810.967	-175
811.066	614
811.166	243
811.265	837
811.365	123
811.464	397
811.564	943
811.663	262
811.763	-728
811.862	1130
811.962	2235
812.061	898
812.160	385
812.260	842
812.359	461
812.458	449
812.557	2944
812.657	916
812.756	1689
812.855	420
812.954	391
813.053	878
813.153	1126
813.252	252
813.351	969
813.450	243
813.549	477
813.648	525
813.747	368
813.846	1558
813.945	579
814.044	1004
814.143	1011
814.242	85
814.341	149
814.439	436
814.538	981
814.637	1235
814.736	920
814.835	1232
814.933	714
815.032	1395
815.131	813
815.229	1250
815.328	2178
815.427	736
815.525	2201
815.624	2154
815.722	1823
815.821	2111
815.919	1353
816.018	844
816.116	2132
816.215	907
816.313	2209
816.412	2171
816.510	1693
816.609	2984
816.707	2412
816.805	2413
816.904	2188
817.002	2510
817.100	2725
817.198	4280
817.296	4341
817.395	5137
817.493	5705
817.591	7358
817.689	9717
817.787	13977
817.885	27625
817.983	53893
818.081	123693
818.179	300746
818.277	556213
818.375	257401
818.473	63989
818.571	30570
818.669	23322
818.767	22532
818.865	24853
818.963	32069
819.061	52844
819.158	100431
819.256	223074
819.354	504485
819.452	732733
819.549	302823
819.647	85991
819.745	40666
819.842	27944
819.940	19329
820.038	13121
820.135	11177
820.233	9320
820.330	6458
820.428	6046
820.525	5543
820.623	5351
820.720	3518
820.818	4615
820.915	3688
821.012	3611
821.110	1104
821.207	3856
821.304	2537
821.402	2485
821.499	2940
821.596	2664
821.693	1810
821.791	2828
821.888	2368
821.985	4491
822.082	1737
822.179	2617
822.276	1022
822.373	1731
822.470	1210
822.567	1755
822.664	952
822.761	1513
822.858	265
822.955	1360
823.052	754
823.149	715
823.246	768
823.343	524
823.440	1345
823.536	1075
823.633	1227
823.730	1631
823.827	896
823.923	978
824.020	1319
824.117	-21
824.213	-554
824.310	1841
824.407	634
824.503	1162
824.600	1390
824.696	761
824.793	1086
824.889	383
824.986	569
825.082	238
825.179	628
825.275	610
825.371	-123
825.468	862
825.564	-239
825.660	909
825.757	-24
825.853	1672
825.949	-348
826.045	1031
826.142	-175
826.238	339
826.334	279
826.430	-314
826.526	156
826.622	-74
826.718	338
826.814	209
826.910	885
827.006	13
827.102	-181
827.198	128
827.294	-82
827.390	-35
827.486	246
827.582	-1120
827.678	-356
827.774	558
827.869	-291
827.965	475
828.061	-664
828.157	-125
828.252	34
828.348	-529
828.444	449
828.539	-47
828.635	-138
828.731	1301
828.826	-463
828.922	1031
829.017	162
829.113	671
829.208	-481
829.304	-685
829.399	-38
829.495	-546
829.590	-69
829.685	-68
829.781	-598
829.876	-182
829.971	-580
830.066	299
830.162	259
830.257	212
830.352	414
830.447	1159
830.543	1095
830.638	-517
830.733	1158
830.828	-408
830.923	679
831.018	253
831.113	364
831.208	-368
831.303	-709
831.398	-193
831.493	-24
831.588	-341
831.683	-1133
831.778	-120
831.873	233
831.967	1143
832.062	-433
832.157	-695
832.252	832
832.346	186
832.441	540
832.536	1174
832.631	3224
832.725	869
832.820	-512
832.914	-571
833.009	189
833.104	781
833.198	345
833.293	-403
833.387	917
833.482	439
833.576	-855
833.670	-68
833.765	605
833.859	-552
833.954	549
834.048	-148
834.142	402
834.237	-734
834.331	-214
834.425	-365
834.519	-476
834.613	586
834.708	-77
834.802	-123
834.896	-181
834.990	-641
835.084	-21
835.178	483
835.272	-69
835.366	-1108
835.460	-319
835.554	234
835.648	189
835.742	837
835.836	359
835.930	-1423
836.024	-250
836.117	995
836.211	13
836.305	1027
836.399	-565
836.493	-919
836.586	797
836.680	-770
836.774	-233
836.867	821
836.961	-280
837.055	-718
837.148	-157
837.242	362
837.335	-443
837.429	73
837.522	-33
837.616	577
837.709	1012
837.803	-100
837.896	96
837.989	-142
838.083	1776
838.176	1720
838.269	-3
838.363	409
838.456	377
838.549	1010
838.642	669
838.735	2949
838.829	1087
838.922	-676
839.015	225
839.108	-1615
839.201	333
839.294	152
839.387	14
839.480	-1022
839.573	496
839.666	434
839.759	38
839.852	-1023
839.945	514
840.038	-260
840.131	-665
840.223	-696
840.316	-172
840.409	-517
840.502	-894
840.594	59
840.687	-965
840.780	358
840.873	-82
840.965	167
841.058	757
841.150	2450
841.243	180
841.336	-125
841.428	308
841.521	-177
841.613	-921
841.706	714
841.798	-379
841.890	-91
841.983	-1123
842.075	1086
842.167	-493
842.260	240
842.352	29
842.444	710
842.537	2223
842.629	2103
842.721	-785
842.813	-110
842.905	-1188
842.997	-126
843.090	218
843.182	660
843.274	1916
843.366	6790
843.458	9533
843.550	3255
843.642	-445
843.734	212
843.826	-177
843.918	246
844.009	-486
844.101	-565
844.193	-739
844.285	305
844.377	-394
844.469	333
844.560	-964
844.652	-1178
844.744	-46
844.835	-627
844.927	92
845.019	-167
845.110	-275
845.202	-248
845.293	-363
845.385	-638
845.476	324
845.568	-41
845.659	-960
845.751	485
845.842	-621
845.934	-1025
846.025	-357
846.116	-314
846.208	324
846.299	-351
846.390	188
846.482	98
846.573	814
846.664	50
846.755	-154
846.846	671
846.937	-1355
847.029	-359
847.120	183
847.211	-616
847.302	-43
847.393	-1235
847.484	-267
847.575	-534
847.666	-1043
847.757	-161
847.847	-343
847.938	1155
848.029	-529
848.120	-927
848.211	-486
848.302	-1324
848.392	-705
848.483	-698
848.574	-752
848.664	-1096
848.755	-51
848.846	-325
848.936	-796
849.027	-287
849.118	-325
849.208	-1337
849.299	61
849.389	544
849.480	1638
849.570	4443
849.661	9731
849.751	12162
849.841	2682
849.932	-812
850.022	-337
850.112	-320
850.203	-552
850.293	-1007
850.383	-1467
850.474	-1302
850.564	-139
850.654	-595
850.744	-1074
850.834	-217
850.924	-611
851.014	-206
851.104	-435
851.194	-337
851.284	-217
851.374	-361
851.464	-904
851.554	-476
851.644	-152
851.734	460
851.824	0
851.914	-443
852.004	84
852.094	-934
852.183	-787
852.273	-76
852.363	-938
852.452	-1216
852.542	-1059
852.632	-428
852.721	-1345
852.811	-1668
852.901	81
852.990	-2
853.080	-1149
853.169	-20
853.259	-748
853.348	482
853.438	-496
853.527	667
853.617	900
853.706	3796
853.795	6387
853.885	18085
853.974	33855
854.063	65834
854.152	80817
854.242	19782
854.331	2007
854.420	445
854.509	304
854.598	210
854.687	-172
854.777	309
854.866	-732
854.955	-267
855.044	-1102
855.133	-573
855.222	-529
855.311	-1215
855.400	-595
855.488	-775
855.577	-855
855.666	234
855.755	-261
855.844	-135
855.933	-912
856.021	-1269
856.110	-813
856.199	-519
856.288	-954
856.376	-1000
856.465	-987
856.554	247
856.642	-1530
856.731	-1039
856.819	-755
856.908	-467
856.996	-418
857.085	-827
857.173	-775
857.262	-597
857.350	-655
857.438	-1146
857.527	-457
857.615	-845
857.703	-125
857.792	-964
857.880	-841
857.968	-922
858.056	-1315
858.145	-535
858.233	-1452
858.321	-1177
858.409	95
858.497	-791
858.585	-991
858.673	-948
858.761	-997
858.849	-457
858.937	-1142
859.025	-438
859.113	-767
859.201	-1339
859.289	-1171
859.377	-1057
859.465	-1045
859.552	-1180
859.640	-1346
859.728	563
859.816	-1005
859.903	-321
859.991	-984
860.079	-1212
860.166	-663
860.254	-518
860.342	-203
860.429	-1213
860.517	-511
860.604	-429
860.692	-723
860.779	-694
860.867	-941
860.954	-489
861.042	-651
861.129	-207
861.216	260
861.304	2
861.391	-691
861.478	-337
861.565	-622
861.653	-446
861.740	-714
861.827	-637
861.914	-554
862.001	-1171
862.089	-189
862.176	-372
862.263	-1576
862.350	-322
862.437	-1246
862.524	-1270
862.611	-627
862.698	-813
862.785	-15
862.871	-562
862.958	-1024
863.045	-768
863.132	-1116
863.219	-997
863.306	-419
863.392	-15
863.479	-793
863.566	-501
863.652	-558
863.739	-877
863.826	-617
863.912	-31
863.999	-1237
864.086	-898
864.172	-462
864.259	-1327
864.345	-1247
864.432	-848
864.518	-1380
864.604	91
864.691	-346
864.777	-285
864.863	-54
864.950	-599
865.036	-629
865.122	15
865.209	-18
865.295	-313
865.381	-143
865.467	110
865.553	592
865.639	528
865.726	2027
865.812	8471
865.898	14413
865.984	21641
866.070	44002
866.156	35578
866.242	6236
866.328	1348
866.414	552
866.499	684
866.585	573
866.671	81
866.757	-270
866.843	401
866.928	-13
867.014	-305
867.100	112
867.186	-520
867.271	41
867.357	426
867.442	808
867.528	-471
867.614	-818
867.699	-1143
867.785	66
867.870	-76
867.956	-774
868.041	259
868.127	-472
868.212	322
868.297	-697
868.383	262
868.468	866
868.553	1661
868.639	1083
868.724	2798
868.809	887
868.894	-3
868.979	330
869.065	-153
869.150	-719
869.235	-94
869.320	-891
869.405	-1046
869.490	-605
869.575	-311
869.660	-1348
869.745	-204
869.830	-1612
869.915	-119
870.000	-463
870.085	-410
870.169	-617
870.254	546
870.339	-1127
870.424	-1126
870.509	-1278
870.593	-848
870.678	83
870.763	-1334
870.847	537
870.932	-1260
871.016	-373
871.101	-1000
871.186	-271
871.270	275
871.355	-618
871.439	-502
871.523	-437
871.608	-369
871.692	-404
871.777	-1139
871.861	-780
871.945	-740
872.030	-353
872.114	-561
872.198	-892
872.282	-879
872.367	-479
872.451	-143
872.535	-842
872.619	-1420
872.703	22
872.787	-889
872.871	-336
872.955	-33
873.039	-880
873.123	-400
873.207	-277
873.291	-753
873.375	-673
873.459	-1051
873.543	-139
873.627	-1034
873.711	-1422
873.794	-380
873.878	-103
873.962	-949
874.045	-1069
874.129	-1320
874.137	-1315
874.213	-1264
874.245	-1032
874.296	-659
874.352	-994
874.380	-1155
874.460	165
874.464	217
874.547	-152
874.568	-71
874.631	168
874.676	-68
874.714	-253
874.784	83
874.798	148
874.881	140
874.892	42
874.965	-608
874.999	-777
875.048	-1045
875.107	-883
875.131	-812
875.215	-252
875.215	-252
875.298	-896
875.323	-897
875.381	-854
875.430	-311
875.465	70
875.538	-334
875.548	-398
875.631	-834
875.646	-770
875.714	-422
875.753	-585
875.798	-760
875.861	-555
875.881	-490
875.964	-435
875.968	-436
876.047	-426
876.076	-490
876.130	-670
876.183	-574
876.213	-503
876.291	-222
876.296	-199
876.379	-406
876.398	-383
876.462	-406
876.506	-837
876.545	-1201
876.613	-80
876.628	167
876.711	-282
876.721	-257
876.794	-13
876.828	-178
876.877	-488
876.935	-323
876.960	-235
877.043	-258
877.043	-257
877.125	178
877.150	238
877.208	205
877.258	-273
877.291	-533
877.365	-608
877.374	-626
877.456	102
877.472	93
877.539	155
877.579	-17
877.622	-189
877.687	-7
877.704	12
877.787	141
877.794	121
877.869	-27
877.901	174
877.952	506
878.008	101
878.034	-116
878.115	-540
878.117	-544
878.199	-880
878.222	-620
878.282	29
878.329	155
878.364	246
878.437	630
878.447	668
878.529	-473
878.544	-443
878.611	-119
878.651	-99
878.694	-137
878.758	-58
878.776	-11
878.858	-13
878.865	-9
878.941	-253
878.972	-192
879.023	77
879.078	-337
879.105	-413
879.185	141
879.187	143
879.269	611
879.292	254
879.351	-535
879.399	-457
879.433	-377
879.506	55
879.516	111
879.598	-40
879.613	-82
879.680	-123
879.720	54
879.762	160
879.827	-178
879.844	-268
879.926	19
879.933	3
880.007	-188
880.040	-125
880.089	57
880.147	-48
880.171	-103
880.253	461
880.254	461
880.335	982
880.360	1126
880.417	1437
880.467	1782
880.499	2113
880.574	2702
880.580	2652
880.662	727
880.680	505
880.744	201
880.787	152
880.825	204
880.893	247
880.907	192
880.989	120
881.000	-8
881.070	-80
881.106	136
881.152	189
881.213	145
881.233	102
881.315	-187
881.319	-175
881.396	371
881.426	322
881.478	93
881.532	368
881.559	530
881.639	535
881.641	533
881.722	96
881.745	0
881.803	67
881.852	322
881.885	365
881.958	461
881.966	491
882.047	507
882.064	562
882.129	1009
882.171	1208
882.210	1360
882.277	1492
882.291	1437
882.372	823
882.383	759
882.454	541
882.489	548
882.535	407
882.596	-215
882.616	-233
882.697	368
882.702	395
882.778	227
882.808	82
882.859	234
882.914	392
882.940	289
883.020	-29
883.021	-22
883.102	512
883.127	571
883.183	221
883.233	251
883.264	544
883.339	627
883.345	598
883.426	619
883.445	589
883.507	638
883.551	350
883.587	309
883.657	1078
883.668	1163
883.749	1275
883.763	1263
883.830	476
883.869	-13
883.910	69
883.975	348
883.991	395
884.072	474
884.081	503
884.152	620
884.187	445
884.233	457
884.292	980
884.314	888
884.394	117
884.398	66
884.475	-94
884.504	-29
884.555	179
884.610	348
884.636	357
884.716	342
884.716	350
884.797	1044
884.821	1135
884.877	506
884.927	-55
884.958	-2
885.033	388
885.038	383
885.118	104
885.139	17
885.199	315
885.244	494
885.279	402
885.350	585
885.359	686
885.439	1019
885.456	1100
885.520	756
885.561	595
885.600	562
885.667	478
885.680	444
885.760	176
885.773	140
885.840	442
885.878	586
885.920	454
885.984	217
886.000	289
886.080	573
886.089	590
886.160	677
886.195	797
886.240	618
886.300	419
886.320	405
886.400	296
886.406	268
886.480	917
886.511	1313
886.560	1062
886.616	611
886.640	665
886.720	840
886.722	840
886.800	831
886.827	836
886.879	1096
886.932	1269
886.959	1116
887.038	832
887.039	845
887.119	1405
887.143	1507
887.198	1068
887.248	812
887.278	1006
887.354	1208
887.358	1197
887.437	1040
887.459	982
887.517	1118
887.564	1147
887.596	1055
887.669	909
887.676	927
887.755	1054
887.774	1081
887.835	390
887.880	-173
887.914	229
887.985	1125
887.994	1041
888.073	172
888.090	-12
888.153	809
888.195	1399
888.232	1336
888.300	1139
888.311	1181
888.391	1429
888.405	1465
888.470	1073
888.510	840
888.549	1031
888.615	1337
888.628	1304
888.708	1081
888.720	1031
888.787	951
888.825	887
888.866	877
888.930	946
888.945	885
889.024	485
889.035	427
889.103	948
889.140	1202
889.182	1290
889.245	1479
889.261	1407
889.340	993
889.349	941
889.419	1282
889.454	1454
889.498	946
889.559	238
889.577	322
889.656	684
889.664	720
889.735	407
889.768	255
889.814	894
889.873	1739
889.978	973
890.083	746
890.187	929
890.292	1875
890.397	783
890.501	1471
890.606	1059
890.710	1793
890.815	1199
890.919	1285
891.024	486
891.128	2158
891.233	725
891.337	1814
891.442	1202
891.546	1410
891.650	448
891.755	2045
891.859	1909
891.963	1083
892.068	1757
892.172	1168
892.276	1228
892.380	718
892.484	1557
892.589	1183
892.693	1534
892.797	719
892.901	521
893.005	1219
893.109	275
893.213	1769
893.317	1506
893.421	1676
893.525	715
893.629	1013
893.733	1183
893.837	1068
893.941	651
894.045	1524
894.148	1578
894.252	1184
894.356	1013
894.460	1660
894.564	1206
894.667	1092
894.771	308
894.875	1204
894.978	799
895.082	1147
895.186	1107
895.289	1078
895.393	599
895.496	2271
895.600	1166
895.703	632
895.807	731
895.910	1284
896.014	338
896.117	1046
896.221	1423
896.324	1760
896.427	747
896.531	1312
896.634	1560
896.737	1007
896.840	251
896.944	760
897.047	1065
897.150	1705
897.253	112
897.356	1440
897.460	382
897.563	1636
897.666	893
897.769	1357
897.872	581
897.975	958
898.078	977
898.181	589
898.284	311
898.387	1436
898.490	1574
898.593	679
898.695	336
898.798	852
898.901	897
899.004	1023
899.107	1336
899.209	1335
899.312	1741
899.415	145
899.518	905
899.620	1258
899.723	1042
899.826	1721
899.928	1840
900.031	834
900.133	732
900.236	968
900.338	919
900.441	879
900.543	-158
900.646	980
900.748	964
900.851	1307
900.953	1229
901.055	469
901.158	883
901.260	912
901.362	489
901.465	157
901.567	857
901.669	988
901.771	1063
901.873	1088
901.976	84
902.078	1151
902.180	759
902.282	467
902.384	888
902.486	1289
902.588	920
902.690	988
902.792	631
902.894	1426
902.996	722
903.098	1088
903.200	760
903.302	1064
903.404	509
903.505	974
903.607	641
903.709	795
903.811	708
903.913	360
904.014	889
904.116	456
904.218	689
904.319	1783
904.421	784
904.523	756
904.624	716
904.726	965
904.827	834
904.929	71
905.030	971
905.132	513
905.233	1091
905.335	1086
905.436	-1
905.537	557
905.639	1138
905.740	541
905.841	324
905.943	1281
906.044	759
906.145	704
906.247	683
906.348	1215
906.449	624
906.550	93
906.651	363
906.752	1542
906.854	196
906.955	772
907.056	147
907.157	1304
907.258	583
907.359	706
907.460	-67
907.561	354
907.662	311
907.762	797
907.863	719
907.964	81
908.065	776
908.166	732
908.267	373
908.367	239
908.468	329
908.569	1067
908.670	999
908.770	1205
908.871	1477
908.971	1443
909.072	500
909.173	886
909.273	246
909.374	1351
909.474	768
909.575	830
909.675	328
909.776	832
909.876	-114
909.977	1631
910.077	854
910.177	887
910.278	922
910.378	-14
910.478	-105
910.579	302
910.679	1022
910.779	809
910.879	245
910.980	1039
911.080	191
911.180	1119
911.280	964
911.380	1204
911.480	-20
911.580	704
911.680	135
911.780	1335
911.880	900
911.980	915
912.080	181
912.180	846
912.280	621
912.380	934
912.480	506
912.580	1309
912.679	199
912.779	1015
912.879	127
912.979	1227
913.078	-444
913.178	118
913.278	989
913.377	559
913.477	674
913.577	754
913.676	1280
913.776	731
913.875	920
913.975	624
914.074	825
914.174	845
914.273	139
914.373	1115
914.472	253
914.572	748
914.671	525
914.770	749
914.870	974
914.969	656
915.068	621
915.167	1047
915.267	0
915.366	352
915.465	823
915.564	1006
915.663	-7
915.763	776
915.862	1082
915.961	646
916.060	-181
916.159	1099
916.258	351
916.357	520
916.456	1210
916.555	511
916.654	257
916.752	294
916.851	773
916.950	251
917.049	439
917.148	372
917.247	585
917.345	298
917.444	461
917.543	856
917.642	855
917.740	1135
917.839	892
917.937	1142
918.036	845
918.135	280
918.233	458
918.332	564
918.430	704
918.529	510
918.627	-430
918.726	633
918.824	790
918.923	383
919.021	253
919.119	473
919.218	272
919.316	658
919.414	87
919.512	1106
919.611	456
919.709	1016
919.807	948
919.905	975
920.003	1223
920.102	894
920.200	-163
920.298	955
920.396	195
920.494	1404
920.592	-31
920.690	1589
920.788	-85
920.886	582
920.984	1583
921.082	1708
921.180	1589
921.277	1164
921.375	534
921.473	1062
921.571	521
921.669	715
921.766	765
921.864	642
921.962	1067
922.060	1386
922.157	322
922.255	1361
922.352	1623
922.450	2321
922.548	304
922.645	760
922.743	675
922.840	2479
922.938	2692
923.035	1856
923.133	2955
923.230	2670
923.327	2696
923.425	3280
923.522	2903
923.619	2540
923.717	1826
923.814	2816
923.911	2324
924.008	3036
924.106	1779
924.203	1862
924.300	1649
924.397	1869
924.494	2256
924.591	2258
924.688	1158
924.786	2130
924.883	1849
924.979	1500
925.077	1449
925.173	2136
925.270	2055
925.367	1767
925.464	2307
925.561	3172
925.658	2650
925.755	2385
925.852	1053
925.948	2002
926.045	1833
926.142	2079
926.239	1836
926.335	1315
926.432	2514
926.529	2061
926.625	1693
926.722	1358
926.818	1250
926.915	1685
927.011	2130
927.108	1589
927.204	1756
927.301	1446
927.397	2746
927.494	1573
927.590	1510
927.687	2082
927.783	1486
927.879	2589
927.976	1156
928.072	1709
928.168	1715
928.264	2167
928.361	1303
928.457	2085
928.553	1002
928.649	2020
928.745	1001
928.841	1223
928.937	1478
929.033	1951
929.129	1715
929.225	2660
929.321	2004
929.417	2009
929.513	2030
929.609	1316
929.705	1077
929.801	1079
929.897	1208
929.993	1634
930.089	1371
930.184	2190
930.280	1491
930.376	2742
930.471	863
930.567	1903
930.663	2300
930.758	1072
930.854	1263
930.950	1848
931.045	1495
931.141	2101
931.236	2409
931.332	1869
931.427	1184
931.523	1771
931.618	1399
931.714	563
931.809	1609
931.905	1150
932.000	1449
932.095	1544
932.191	1891
932.286	1465
932.381	1476
932.476	1548
932.572	1450
932.667	2169
932.762	1135
932.857	1688
932.952	889
933.047	1625
933.142	852
933.237	1795
933.332	1418
933.427	1347
933.522	1096
933.617	977
933.712	1795
933.807	2712
933.902	1737
933.997	2320
934.092	671
934.187	1748
934.282	804
934.376	1415
934.471	1451
934.566	1482
934.661	1638
934.755	1714
934.850	1826
934.945	1397
935.039	1469
935.134	2071
935.228	1733
935.323	1895
935.417	1584
935.512	272
935.606	834
935.701	1950
935.795	821
935.890	1835
935.984	943
936.079	732
936.173	1536
936.267	1512
936.362	171
936.456	1733
936.550	1710
936.644	1445
936.738	514
936.833	1278
936.927	1103
937.021	852
937.115	1218
937.209	1332
937.303	2057
937.397	1635
937.491	972
937.585	1298
937.679	1380
937.773	807
937.867	1050
937.961	1172
938.055	1320
938.149	1746
938.243	702
938.337	422
938.430	1218
938.524	1734
938.618	295
938.712	1013
938.805	1190
938.899	1063
938.993	1001
939.086	269
939.180	1079
939.274	1700
939.367	624
939.461	862
939.554	1209
939.648	720
939.741	490
939.835	1506
939.928	1109
940.022	1067
940.115	726
940.208	1569
940.302	2005
940.395	2193
940.488	-43
940.582	1015
940.675	1068
940.768	1306
940.861	1041
940.954	959
941.048	513
941.141	1504
941.234	1043
941.327	1424
941.420	1638
941.513	1512
941.606	374
941.699	2245
941.792	941
941.885	632
941.978	1274
942.071	228
942.164	-79
942.257	883
942.349	649
942.442	1660
942.535	427
942.628	1145
942.721	1194
942.813	316
942.906	1139
942.999	818
943.091	58
943.184	876
943.277	249
943.369	2050
943.462	-9
943.554	1420
943.647	639
943.739	1592
943.832	428
943.924	405
944.017	1316
944.109	-44
944.201	816
944.294	1470
944.386	248
944.478	152
944.571	689
944.663	1095
944.755	257
944.847	1530
944.940	157
945.032	-67
945.124	359
945.216	2006
945.308	598
945.400	1365
945.492	1238
945.584	768
945.676	514
945.768	590
945.860	911
945.952	1213
946.044	1295
946.136	805
946.228	546
946.320	1051
946.412	583
946.503	697
946.595	962
946.687	382
946.779	456
946.870	688
946.962	213
947.054	907
947.145	1758
947.237	1044
947.329	120
947.420	1325
947.512	627
947.603	471
947.695	-314
947.786	1047
947.878	196
947.969	1102
948.061	210
948.152	637
948.243	508
948.335	959
948.426	495
948.517	1100
948.609	882
948.700	286
948.791	444
948.882	755
948.973	-124
949.065	608
949.156	613
949.247	132
949.338	512
949.429	500
949.520	190
949.611	-154
949.702	668
949.793	1123
949.884	660
949.975	799
950.066	682
950.157	154
950.247	361
950.338	404
950.429	87
950.520	905
950.611	82
950.701	436
950.792	7
950.883	28
950.973	463
951.064	399
951.155	631
951.245	303
951.336	471
951.427	30
951.517	1135
951.608	1129
951.698	61
951.788	1286
951.879	269
951.969	402
952.060	266
952.150	73
952.240	989
952.331	-787
952.421	1490
952.511	335
952.602	527
952.692	710
952.782	-199
952.872	-105
952.962	344
953.052	565
953.143	-458
953.233	857
953.323	321
953.413	924
953.503	575
953.593	349
953.683	-8
953.773	68
953.863	81
953.953	126
954.042	519
954.132	543
954.222	1086
954.312	118
954.402	1562
954.492	731
954.581	1237
954.671	405
954.761	-779
954.850	1999
954.940	531
955.030	583
955.119	550
955.209	528
955.298	-69
955.388	123
955.477	537
955.567	-393
955.656	255
955.746	860
955.835	415
955.925	777
956.014	724
956.103	443
956.193	319
956.282	634
956.371	954
956.461	730
956.550	372
956.639	1518
956.728	19
956.817	525
956.906	311
956.995	1575
957.085	-80
957.174	854
957.263	-411
957.352	622
957.441	78
957.530	1437
957.619	453
957.708	70
957.796	615
957.885	501
957.974	283
958.063	825
958.152	-379
958.241	1549
958.329	144
958.418	838
958.507	-545
958.596	1381
958.684	-130
958.773	1046
958.861	320
958.950	911
959.039	1180
959.127	134
959.216	963
959.304	-223
959.393	-657
959.481	795
959.570	634
959.658	187
959.746	-189
959.835	1127
959.923	782
960.011	581
960.100	1085
960.188	133
960.276	-548
960.365	738
960.453	227
960.541	302
960.629	-313
960.717	352
960.805	296
960.893	554
960.981	-453
961.069	1169
961.158	-307
961.245	1448
961.333	444
961.421	21
961.509	252
961.597	1077
961.685	-25
961.773	688
961.861	396
961.949	1271
962.036	-319
962.124	1046
962.212	44
962.299	-430
962.387	-715
962.475	633
962.562	-236
962.650	888
962.738	251
962.825	556
962.913	116
963.000	998
963.088	548
963.175	-76
963.263	170
963.350	695
963.438	455
963.525	1428
963.612	985
963.700	2329
963.787	4114
963.874	753
963.962	330
964.049	225
964.136	430
964.223	1280
964.310	226
964.398	514
964.485	-163
964.572	558
964.659	1601
964.746	1005
964.833	-265
964.920	96
965.007	553
965.094	369
965.181	-451
965.268	706
965.355	-264
965.441	139
965.528	-845
965.615	809
965.702	645
965.789	-87
965.875	-1106
965.962	494
966.049	324
966.136	741
966.222	-506
966.309	721
966.395	-526
966.482	543
966.569	-28
966.655	587
966.742	298
966.828	732
966.915	469
967.001	435
967.087	68
967.174	-184
967.260	342
967.347	417
967.433	1880
967.519	2514
967.605	189
967.692	-303
967.778	30
967.864	392
967.950	428
968.036	-288
968.123	269
968.209	-370
968.295	-594
968.381	856
968.467	1132
968.553	-544
968.639	1020
968.725	-291
968.811	-23
968.897	1030
968.983	235
969.069	470
969.154	358
969.240	1168
969.326	-305
969.412	7
969.497	-481
969.583	60
969.669	427
969.755	130
969.840	-222
969.926	1079
970.012	-878
970.097	1303
970.183	-107
970.268	264
970.354	779
970.439	179
970.525	1973
970.610	-322
970.696	868
970.781	381
970.866	-571
970.952	850
971.037	-971
971.122	542
971.208	-490
971.293	796
971.378	-842
971.463	218
971.549	13
971.634	562
971.719	237
971.804	205
971.889	67
971.974	-306
972.059	-265
972.144	285
972.229	189
972.314	-133
972.399	122
972.484	542
972.569	618
972.654	-699
972.739	1994
972.824	879
972.908	89
972.993	-30
973.078	-337
973.163	424
973.247	-37
973.332	-1305
973.417	746
973.501	-305
973.586	-208
973.671	141
973.755	-400
973.840	60
973.924	685
974.009	319
974.093	-614
974.178	1069
974.262	1162
974.346	236
974.431	-372
974.515	204
974.600	-487
974.684	142
974.768	-161
974.852	1053
974.937	-1103
975.021	978
975.105	596
975.189	-419
975.273	111
975.358	-609
975.442	6
975.526	1176
975.610	-588
975.694	-229
975.778	1095
975.862	-440
975.946	-1161
976.030	1687
976.114	-582
976.198	1039
976.281	-274
976.365	1007
976.449	-626
976.533	13
976.617	-528
976.700	403
976.784	200
976.868	386
976.951	-342
977.035	7
977.119	-144
977.202	16
977.286	-506
977.369	74
977.453	820
977.536	-134
977.620	-282
977.703	1653
977.787	-595
977.870	685
977.953	1279
978.037	-833
978.120	786
978.203	466
978.287	512
978.370	390
978.453	-320
978.536	94
978.620	606
978.703	211
978.786	-76
978.869	-20
978.952	-1121
979.035	1435
979.118	498
979.201	-451
979.284	-119
979.367	-1271
979.450	57
979.533	150
979.616	-172
979.699	-1034
979.782	95
979.865	989
979.948	42
980.030	26
980.113	450
980.196	-479
980.279	285
980.361	639
980.444	-305
980.526	536
980.609	295
980.692	683
980.774	371
980.857	-1180
980.939	773
981.022	-753
981.104	-215
981.187	738
981.269	177
981.352	280
981.434	-1130
981.516	252
981.599	-4
981.681	618
981.763	-297
981.846	398
981.928	302
982.010	-584
982.092	-890
982.174	1058
982.256	-113
982.339	-88
982.421	283
982.503	391
982.585	-852
982.667	-768
982.749	311
982.831	-209
982.913	-292
982.995	704
983.077	-809
983.158	914
983.240	-1247
983.322	408
983.404	253
983.486	-329
983.568	162
983.649	187
983.731	51
983.813	-186
983.894	-225
983.976	-693
984.058	-178
984.139	1101
984.221	-84
984.302	1089
984.384	191
984.465	-286
984.547	171
984.628	100
984.710	229
984.791	-512
984.872	525
984.954	95
985.035	270
985.116	12
985.198	-786
985.279	1053
985.360	53
985.441	-519
985.522	323
985.604	293
985.685	-1475
985.766	1001
985.847	1089
985.928	-365
986.009	-60
986.090	296
986.171	1009
986.252	397
986.333	77
986.414	-314
986.495	140
986.576	758
986.656	-452
986.737	861
986.818	-83
986.899	-90
986.980	-394
987.060	1172
987.141	296
987.222	498
987.302	205
987.383	-181
987.464	-461
987.544	635
987.625	-725
987.705	989
987.786	358
987.866	326
987.947	657
988.027	542
988.108	-522
988.188	-84
988.268	-192
988.349	-322
988.429	-71
988.509	574
988.589	-218
988.670	-639
988.750	684
988.830	570
988.910	-693
988.990	597
989.070	806
989.151	268
989.231	-724
989.311	-85
989.391	629
989.471	691
989.551	-80
989.631	-306
989.711	399
989.791	-151
989.870	-273
989.950	456
990.030	-41
990.110	525
990.190	-52
990.269	-219
990.349	-153
990.429	305
990.509	227
990.588	-119
990.668	-673
990.747	64
990.827	-391
990.907	484
990.986	-1160
991.066	762
991.145	-280
991.225	512
991.304	526
991.383	384
991.463	-25
991.542	484
991.622	-622
991.701	-564
991.780	-481
991.859	325
991.939	193
992.018	23
992.097	279
992.176	592
992.256	-895
992.335	-213
992.414	3
992.493	-36
992.572	-235
992.651	490
992.730	-735
992.809	-122
992.888	-437
992.967	283
993.046	305
993.125	-977
993.203	126
993.282	707
993.361	41
993.440	720
993.519	-960
993.597	174
993.676	-976
993.755	189
993.834	23
993.912	-490
993.991	839
994.069	-587
994.148	-212
994.226	-522
994.305	-319
994.384	-192
994.462	384
994.540	-1096
994.619	-520
994.697	25
994.776	-882
994.854	-51
994.932	470
995.011	41
995.089	-51
995.167	-529
995.245	-834
995.324	-354
995.402	303
995.480	-106
995.558	116
995.636	-1607
995.714	-721
995.792	411
995.870	-1099
995.948	122
996.026	-519
996.104	-1889
996.182	315
996.260	42
996.338	319
996.416	-1862
996.494	-1747
996.572	-586
996.649	-640
996.727	-996
996.805	193
996.883	280
996.960	-1298
997.038	322
997.116	-551
997.193	-125
997.271	-277
997.348	-141
997.426	268
997.504	-324
997.581	107
997.658	-198
997.736	-1157
997.813	-737
997.891	-222
997.968	-1374
998.046	-307
998.123	-732
998.200	-850
998.277	-1456
998.355	-463
998.432	-1098
998.509	-802
998.586	-281
998.663	-325
998.741	-660
998.818	-928
998.895	-928
998.972	-70
999.049	161
999.126	-1060
999.203	-460
999.280	-711
999.357	-1405
999.434	-626
999.511	-857
999.587	-609
999.664	-1220
999.741	-969
999.818	335
999.895	-1579
999.971	142
1000.048	-516
1000.125	433
1000.202	-1227
1000.278	-483
1000.355	-100
1000.431	-763
1000.508	-750
1000.584	-510
1000.661	-677
1000.738	-954
1000.814	-1563
1000.890	135
1000.967	-775
1001.043	314
1001.120	-1265
1001.196	-497
1001.272	-1791
1001.349	-501
1001.425	-493
1001.501	-631
1001.577	-1208
1001.654	-90
1001.730	-1260
1001.806	-415
1001.882	-1540
1001.958	188
1002.034	-1094
1002.110	201
1002.186	-990
1002.262	-163
1002.338	-1275
1002.414	-483
1002.490	-670
1002.566	-921
1002.642	-1484
1002.718	666
1002.794	-683
1002.870	-975
1002.945	-1402
1003.021	-859
1003.097	-287
1003.173	-267
1003.248	-1476
1003.324	-854
1003.400	-122
1003.475	-1276
1003.551	-65
1003.626	-75
1003.702	-774
1003.777	-428
1003.853	-971
1003.928	-1370
1004.004	-179
1004.079	-500
1004.155	-820
1004.230	-1063
1004.305	-816
1004.381	-1073
1004.456	-565
1004.531	-934
1004.607	-575
1004.682	-945
1004.757	-1019
1004.832	-758
1004.907	-1172
1004.982	-574
1005.057	-510
1005.133	-801
1005.208	-612
1005.283	-428
1005.358	85
1005.433	-1068
1005.508	-781
1005.583	-1473
1005.657	-1066
1005.732	-472
1005.807	-1283
1005.882	-875
1005.957	-1203
1006.032	-504
1006.106	-621
1006.181	-1045
1006.256	-1291
1006.331	-1181
1006.405	-868
1006.480	132
1006.554	-756
1006.629	-704
1006.704	-1785
1006.778	-834
1006.853	-385
1006.927	-981
1007.002	-983
1007.076	-1285
1007.150	-984
1007.225	-825
1007.299	-1097
1007.373	-1336
1007.448	-1303
1007.522	54
1007.596	-54
1007.671	-590
1007.745	-503
1007.819	-1607
1007.893	-1512
1007.967	-845
1008.041	-1970
1008.115	108
1008.190	-1754
1008.264	-249
1008.338	-2176
1008.412	-1549
1008.486	40
1008.560	123
1008.633	-1484
1008.707	-1319
1008.781	-1212
1008.855	-1659
1008.929	-757
1009.003	-719
1009.076	-1645
1009.150	-1242
1009.224	-1559
1009.298	258
1009.371	-1518
1009.445	-244
1009.519	-1663
1009.592	-1195
1009.666	-690
1009.739	-963
1009.813	-1788
1009.886	352
1009.960	-2029
1010.033	-910
1010.107	-358
1010.180	-1454
1010.253	-444
1010.327	-1278
1010.400	-1076
1010.473	-816
1010.547	167
1010.620	-1426
1010.693	-1431
1010.766	-122
1010.840	-573
1010.913	-586
1010.986	-979
1011.059	-700
1011.132	-1418
1011.205	-296
1011.278	-1347
1011.351	-333
1011.424	-1468
1011.497	-1191
1011.570	-305
1011.643	-935
1011.716	-1647
1011.789	-1024
1011.862	-1085
1011.934	-105
1012.007	-1683
1012.080	5
1012.153	-1560
1012.225	-355
1012.298	-1258
1012.371	-1286
1012.443	-640
1012.516	-1158
1012.588	-590
1012.661	-616
1012.733	-1193
1012.806	-230
1012.879	-1338
1012.951	-1244
1013.023	-1539
1013.096	-439
1013.168	-525
1013.241	-498
1013.313	-1017
1013.385	-1440
1013.458	-1067
1013.530	-773
1013.602	-1402
1013.674	-147
1013.746	-2228
1013.819	-1161
1013.891	-962
1013.963	-1337
1014.035	-1146
1014.107	-1249
1014.179	-989
1014.251	-1365
1014.323	-698
1014.395	-425
1014.467	-1437
1014.539	-1032
1014.611	-1686
1014.683	-486
1014.754	-1380
1014.826	-1066
1014.898	-1257
1014.970	-2172
1015.042	-824
1015.113	-959
1015.185	-1603
1015.257	-1709
1015.328	-818
1015.400	-1234
1015.471	-1764
1015.543	-1980
1015.615	-1628
1015.686	-1462
1015.757	-779
1015.829	-954
1015.901	-2056
1015.972	-935
1016.043	-1725
1016.115	-983
1016.186	-1088
1016.257	-1780
1016.328	-1069
1016.400	-75
1016.471	-1108
1016.542	-851
1016.613	-1099
1016.685	-1025
1016.756	-550
1016.827	-1276
1016.898	-1908
1016.969	-632
1017.040	-1402
1017.111	-989
1017.182	-1955
1017.253	-545
1017.324	-1332
1017.395	-683
1017.466	-1875
1017.537	-1007
1017.608	-930
1017.678	-674
1017.749	-1234
1017.820	-456
1017.891	-2053
1017.961	-1632
1018.032	-1077
1018.103	-1101
1018.173	-1425
1018.244	-1244
1018.315	-1774
1018.385	-702
1018.456	-1684
1018.526	-421
1018.597	-1125
1018.667	-1036
1018.738	-888
1018.808	-764
1018.878	-964
1018.949	-615
1019.019	-1091
1019.089	-606
1019.160	-1108
1019.230	-1458
1019.300	-998
1019.371	-1419
1019.441	-1424
1019.511	-1127
1019.581	-1556
1019.651	-1085
1019.721	-1956
1019.791	-1146
1019.861	-1462
1019.931	-862
1020.001	-2265
1020.071	-1264
1020.141	-1238
1020.211	-1717
1020.281	-1386
1020.351	-1634
1020.421	-831
1020.491	-948
1020.560	-2002
1020.630	-699
1020.700	-1352
1020.770	-1258
1020.839	-1573
1020.909	-1272
1020.979	-1673
1021.048	-1280
1021.118	-2188
1021.187	-1136
1021.257	-1160
1021.326	-1753
1021.396	-2336
1021.465	-1631
1021.535	-2156
1021.604	-897
1021.674	-955
1021.743	-1341
1021.812	-1899
1021.882	-939
1021.951	-1669
1022.020	-1525
1022.089	-1205
1022.159	-1161
1022.228	-1103
1022.297	-1859
1022.366	-1215
1022.435	-1143
1022.504	-1470
1022.573	-1140
1022.642	-597
1022.711	-612
1022.781	-1193
1022.849	-378
1022.918	-1953
1022.987	-1730
1023.056	-1648
1023.125	-1022
1023.194	-2019
1023.263	-990
1023.331	-1817
1023.400	-1097
1023.469	-137
1023.538	-981
1023.606	-2497
1023.675	-1745
1023.744	-1281
1023.812	-1449
1023.881	-1057
1023.949	-1949
1024.018	-1288
1024.086	-1064
1024.155	-2087
1024.223	-1925
1024.292	-916
1024.360	-1126
1024.429	-1528
1024.497	-2064
1024.565	-1921
1024.634	-990
1024.702	-1366
1024.770	-859
1024.838	-2156
1024.907	-1307
1024.975	-2074
1025.043	-1489
1025.111	-1867
1025.179	-503
1025.247	-1637
1025.315	-1893
1025.383	-1731
1025.451	-1213
1025.519	-1428
1025.587	-1450
1025.655	-1545
1025.723	-1650
1025.791	-1747
1025.859	-710
1025.927	-1774
1025.995	-1411
1026.062	-944
1026.130	-1349
1026.198	-1299
1026.266	-1057
1026.333	-1589
1026.401	-1430
1026.469	-2328
1026.536	-966
1026.604	-1841
1026.671	-1360
1026.739	-1415
1026.806	-1595
1026.874	-1937
1026.941	-1599
1027.009	-2102
1027.076	-1184
1027.144	-1471
1027.211	-1577
1027.278	-1518
1027.345	-392
1027.413	-1759
1027.480	-1197
1027.547	-1307
1027.614	-1256
1027.682	-1903
1027.749	-1858
1027.816	-1699
1027.883	-1096
1027.950	-1072
1028.017	-1130
1028.084	-1262
1028.151	-911
1028.218	-1066
1028.285	-957
1028.352	-2664
1028.419	-1625
1028.486	-1486
1028.553	-752
1028.619	-1375
1028.686	-1146
1028.753	-1899
1028.820	-788
1028.886	-1199
1028.953	-558
1029.020	-2520
1029.086	-2282
1029.153	-2071
1029.220	-1658
1029.286	-2032
1029.353	-1476
1029.419	-2239
1029.486	-2158
1029.552	-1447
1029.619	-1874
1029.685	-2133
1029.751	-1080
1029.818	-402
1029.884	-2362
1029.951	-1084
1030.017	-1097
1030.083	-1663
1030.149	-1345
1030.216	-1102
1030.282	-1158
1030.348	-1468
1030.414	-1170
1030.480	-1377
1030.546	-1770
1030.612	-1532
1030.678	-2073
1030.744	-1991
1030.810	-1704
1030.876	-1316
1030.942	-665
1031.008	-1564
1031.074	-2590
1031.140	-1832
1031.206	-1782
1031.272	-2541
1031.337	-1790
1031.403	-1601
1031.469	-1160
1031.534	-634
1031.600	-698
1031.666	-1444
1031.731	-1750
1031.797	-1434
1031.863	-1895
1031.928	-2276
1031.994	-1481
1032.059	-1709
1032.125	-1321
1032.190	-2168
1032.256	-2047
1032.321	-1762
1032.386	-1501
1032.452	-913
1032.517	-789
1032.582	-2410
1032.647	-939
1032.713	-1994
1032.778	-1967
1032.843	-1246
1032.908	-1540
1032.974	-1055
1033.039	-1760
1033.104	-1773
1033.169	-987
1033.234	-1543
1033.299	-2062
1033.364	-1697
1033.429	-1574
1033.494	-859
1033.559	-2002
1033.624	-1616
1033.688	-675
1033.753	-1766
1033.818	-1460
1033.883	-1905
1033.948	-1390
1034.013	-1150
1034.077	-735
1034.142	-1680
1034.207	-2192
1034.271	-1580
1034.336	-311
1034.400	-2029
1034.465	-1819
1034.530	-1524
1034.594	-1627
1034.658	-2050
1034.723	-2150
1034.787	-1173
1034.852	-1090
1034.916	-3084
1034.981	-1792
1035.045	-1139
1035.109	-1879
1035.173	-837
1035.238	-2035
1035.302	-1385
1035.366	-1761
1035.430	-2035
1035.495	-2127
1035.559	-1103
1035.623	-1723
1035.687	-2114
1035.751	-1230
1035.815	-1802
1035.879	-1536
1035.943	-1190
1036.007	-1921
1036.071	-1618
1036.135	-1029
1036.198	-1557
1036.262	-1817
1036.326	-2463
1036.390	-1274
1036.454	-1666
1036.517	-1594
1036.581	-1844
1036.645	-1775
1036.709	-1623
1036.772	-1879
1036.836	-1401
1036.900	-1303
1036.963	-2301
1037.026	-1123
1037.090	-1344
1037.154	-1948
1037.217	-1586
1037.280	-1769
1037.344	-1307
1037.407	-1864
1037.471	-1835
1037.534	-2240
1037.597	-1997
1037.661	-1380
1037.724	-1945
1037.787	-1530
1037.850	-1656
1037.913	-1368
1037.977	-1297
1038.040	-1848
1038.103	-1562
1038.166	-1420
1038.229	-1653
1038.292	-1009
1038.355	-1767
1038.418	-1229
1038.481	-958
1038.544	-1614
1038.607	-2122
1038.670	-1756
1038.732	-1280
1038.795	-1983
1038.858	-2221
1038.921	-1762
1038.984	-1648
1039.046	-1290
1039.109	-1592
1039.172	-1338
1039.234	-1767
1039.297	-1478
1039.360	-1140
1039.422	-1943
1039.485	-1651
1039.547	-1376
1039.610	-1652
1039.672	-882
1039.734	-1796
1039.797	-1729
1039.859	-1884
1039.922	-1992
1039.984	-1638
1040.046	-1969
1040.109	-1699
1040.171	-1546
1040.233	-1972
1040.295	-1295
1040.358	-1560
1040.420	-2098
1040.482	-1589
1040.544	-1129
1040.606	-952
1040.668	-1619
1040.730	-1411
1040.792	-1607
1040.854	-1760
1040.916	-1373
1040.978	-2304
1041.040	-1136
1041.102	-2019
1041.164	-1762
1041.225	-1585
1041.287	-2033
1041.349	-1636
1041.411	-1740
1041.472	-1344
1041.534	-793
1041.596	-2332
1041.657	-1617
1041.719	-1899
1041.781	-1899
1041.842	-1455
1041.904	-1918
1041.965	-2013
1042.027	-1839
1042.088	-2183
1042.150	-1508
1042.211	-786
1042.272	-1291
1042.334	-1628
1042.395	-1589
1042.456	-1525
1042.518	-1357
1042.579	-858
1042.640	-2007
1042.701	-1737
1042.763	-894
1042.824	-2554
1042.885	-1564
1042.946	-1431
1043.007	-844
1043.068	-1077
1043.129	-1526
1043.190	-1603
1043.251	-1408
1043.312	-1495
1043.373	-1081
1043.434	-1738
1043.495	-1608
1043.556	-1808
1043.616	-1055
1043.677	-1587
1043.738	-1516
1043.799	-2177
1043.859	-1518
1043.920	-1508
1043.981	-1317
1044.041	-1533
1044.102	-1771
1044.162	-1332
1044.223	-1812
1044.284	-2198
1044.344	-1523
1044.405	-1136
1044.465	-1422
1044.525	-1348
1044.586	-1676
1044.646	-2142
1044.707	-1659
1044.767	-1319
1044.827	-1222
1044.887	-1788
1044.948	-954
1045.008	-1772
1045.068	-1087
1045.128	-1647
1045.188	-1878
1045.249	-1131
1045.309	-851
1045.369	-1822
1045.429	-1412
1045.489	-1354
1045.549	-1122
1045.609	-1168
1045.669	-1628
1045.729	-1667
1045.789	-1499
1045.848	-1362
1045.908	-969
1045.968	-1279
1046.028	-1280
1046.088	-1088
1046.147	-633
1046.207	-1538
1046.267	-1132
1046.326	-1345
1046.386	-398
1046.446	-1552
1046.505	-831
1046.565	-909
1046.624	-217
1046.684	-29
1046.743	-720
1046.803	-520
1046.862	339
1046.922	0
