'Start Wavelength	183.907
'End Wavelength	1046.922
'Gate Delay	5.000
'Gate Width (ms)	1.050
'Laser Output Level	0.000
'X Position	0.000
'Y Position	0.000
'Z Position	0.000
'Grid Point Number	1.000
'Shot Number	100.000
183.907	710.000
183.977	1531.000
184.047	-52
184.116	452
184.186	555
184.256	997
184.325	-793
184.395	224
184.465	699
184.534	375
184.604	-428
184.674	482
184.743	-204
184.813	789
184.883	494
184.952	558
185.022	1077
185.092	1123
185.161	-26
185.231	1127
185.301	957
185.370	1417
185.440	-351
185.509	514
185.579	574
185.649	662
185.718	743
185.788	2053
185.857	1028
185.927	987
185.996	609
186.066	1148
186.136	515
186.205	761
186.275	1386
186.344	1915
186.414	745
186.483	798
186.553	1131
186.622	3073
186.692	699
186.761	1192
186.831	383
186.900	1305
186.970	965
187.039	1695
187.109	1902
187.178	1337
187.248	852
187.317	1881
187.387	1009
187.456	1400
187.526	1153
187.595	2420
187.664	665
187.734	2168
187.803	965
187.873	1480
187.942	1793
188.012	2282
188.081	61
188.150	1870
188.220	1588
188.289	2481
188.358	1973
188.428	1358
188.497	658
188.567	1844
188.636	1082
188.705	1552
188.775	938
188.844	1739
188.913	1341
188.983	1438
189.052	1263
189.121	1701
189.191	1028
189.260	1987
189.329	1324
189.399	1507
189.468	1090
189.537	1953
189.606	1664
189.676	1769
189.745	2371
189.814	2398
189.883	1162
189.953	1870
190.022	2426
190.091	3103
190.161	4483
190.230	2550
190.299	783
190.368	1849
190.437	1392
190.507	2022
190.576	867
190.645	1550
190.714	743
190.783	1488
190.853	1644
190.922	2501
190.991	2186
191.060	3549
191.129	1246
191.198	2019
191.268	305
191.337	1462
191.406	1478
191.475	1075
191.544	663
191.613	2389
191.682	812
191.752	1416
191.821	1645
191.890	1586
191.959	973
192.028	2083
192.097	1469
192.166	2400
192.235	450
192.304	1715
192.373	1155
192.442	1220
192.511	787
192.580	1161
192.650	1284
192.719	1151
192.788	1631
192.857	1510
192.926	1252
192.995	1498
193.064	1276
193.133	2253
193.202	1778
193.271	3785
193.340	2187
193.409	3720
193.478	3266
193.547	3500
193.615	3532
193.684	4579
193.753	2742
193.822	2124
193.891	1858
193.960	1782
194.029	2619
194.098	2216
194.167	801
194.236	1634
194.305	745
194.374	1370
194.443	1468
194.512	2887
194.580	2309
194.649	3345
194.718	2835
194.787	2253
194.856	1433
194.925	2520
194.994	1522
195.062	3133
195.131	3249
195.200	4311
195.269	4539
195.338	4168
195.407	2562
195.475	2410
195.544	3278
195.613	4434
195.682	2402
195.751	3929
195.819	3536
195.888	3653
195.957	4391
196.026	4188
196.094	4334
196.163	4863
196.232	3909
196.301	4182
196.369	2959
196.438	4355
196.507	2230
196.576	2342
196.644	2004
196.713	1917
196.782	1477
196.850	2165
196.919	976
196.988	2499
197.056	991
197.125	2090
197.194	1707
197.262	2343
197.331	1711
197.400	1841
197.468	1793
197.537	1706
197.606	1830
197.674	3448
197.743	4502
197.812	3082
197.880	3841
197.949	3656
198.017	3801
198.086	3297
198.155	1930
198.223	2735
198.292	4706
198.360	3119
198.429	2634
198.497	2386
198.566	2845
198.635	4916
198.703	3129
198.772	3204
198.840	5286
198.909	4922
198.977	2619
199.046	1659
199.114	2076
199.183	2989
199.251	1119
199.320	2454
199.388	1534
199.457	2434
199.525	2826
199.594	1978
199.662	1935
199.731	2840
199.799	3386
199.867	2691
199.936	2344
200.004	2854
200.073	1745
200.141	2874
200.210	1852
200.278	2277
200.346	2693
200.415	3839
200.483	3230
200.552	3807
200.620	2665
200.688	2812
200.757	2889
200.825	2734
200.893	2608
200.962	2691
201.030	1675
201.098	2276
201.167	2996
201.235	3318
201.303	2469
201.372	2996
201.440	1755
201.508	3980
201.577	2927
201.645	3110
201.713	2457
201.781	2514
201.850	3354
201.918	2703
201.986	3172
202.055	3274
202.123	2409
202.191	3428
202.259	2561
202.327	2789
202.396	2413
202.464	2914
202.532	3080
202.600	9306
202.669	6112
202.737	3575
202.805	2312
202.873	2852
202.941	2242
203.009	2079
203.078	2296
203.146	3067
203.214	2180
203.282	2349
203.350	2923
203.418	2822
203.487	2587
203.555	2298
203.623	2817
203.691	2542
203.759	2078
203.827	2684
203.895	3514
203.963	4251
204.031	3060
204.099	3527
204.168	1905
204.236	4377
204.304	2659
204.372	3804
204.440	1796
204.508	2857
204.576	1469
204.644	2301
204.712	1676
204.780	2711
204.848	3067
204.916	2392
204.984	2601
205.052	3145
205.120	2494
205.188	3919
205.256	2033
205.324	3345
205.392	2875
205.460	3443
205.528	2111
205.596	3031
205.664	2107
205.732	3043
205.799	5897
205.867	9457
205.935	3092
206.003	4128
206.071	2460
206.139	3475
206.207	2934
206.275	3446
206.343	2425
206.411	3366
206.478	2865
206.546	3180
206.614	3645
206.682	2882
206.750	2459
206.818	3861
206.885	3433
206.953	2244
207.021	2669
207.089	2704
207.157	1943
207.225	2908
207.292	2427
207.360	3446
207.428	2006
207.496	3453
207.563	2756
207.631	3291
207.699	2085
207.767	3362
207.834	2119
207.902	3188
207.970	2320
208.038	3769
208.105	2732
208.173	3731
208.241	3808
208.309	5050
208.376	4240
208.444	6637
208.512	3979
208.579	2495
208.647	3336
208.715	4819
208.782	3062
208.850	2709
208.918	2855
208.985	3640
209.053	4171
209.120	3795
209.188	3143
209.256	3886
209.323	2627
209.391	5953
209.459	5171
209.526	3978
209.594	2841
209.661	3351
209.729	3016
209.796	4622
209.864	3744
209.932	2977
209.999	4714
210.067	5109
210.134	4290
210.202	4214
210.269	6898
210.337	7407
210.404	4249
210.472	3260
210.539	3535
210.607	5122
210.674	5552
210.742	4183
210.809	4171
210.877	5754
210.944	6384
211.012	5229
211.079	5499
211.146	4144
211.214	4089
211.281	5395
211.349	6726
211.416	4819
211.484	5253
211.551	4977
211.618	3992
211.686	4198
211.753	3448
211.821	4125
211.888	4154
211.955	4606
212.023	3387
212.090	5145
212.157	4187
212.225	5086
212.292	6930
212.359	12008
212.427	21514
212.494	13662
212.561	6696
212.629	6516
212.696	5707
212.763	4828
212.831	3907
212.898	4246
212.965	3565
213.032	4947
213.100	5652
213.167	5523
213.234	5570
213.301	4875
213.369	4369
213.436	3768
213.503	4307
213.570	5561
213.638	5348
213.705	4623
213.772	3422
213.839	5845
213.906	5839
213.973	6680
214.041	4871
214.108	5024
214.175	4892
214.242	6056
214.309	4134
214.376	6673
214.444	5928
214.511	6340
214.578	5063
214.645	5718
214.712	6418
214.779	6079
214.846	5057
214.913	6658
214.980	6563
215.048	7126
215.115	8809
215.182	9368
215.249	6408
215.316	5871
215.383	5183
215.450	5630
215.517	5957
215.584	5673
215.651	5309
215.718	5473
215.785	6881
215.852	7981
215.919	8595
215.986	9300
216.053	6023
216.120	5260
216.187	6635
216.254	7538
216.321	6410
216.388	8150
216.455	7837
216.522	8461
216.589	9518
216.656	14827
216.722	13507
216.789	9106
216.856	7506
216.923	5858
216.990	6471
217.057	6990
217.124	8720
217.191	8816
217.258	8867
217.324	9584
217.391	8173
217.458	7185
217.525	5997
217.592	5867
217.659	5324
217.725	7981
217.792	9353
217.859	9833
217.926	5894
217.993	4767
218.059	4919
218.126	5244
218.193	4353
218.260	4712
218.327	4482
218.393	6649
218.460	5918
218.527	4118
218.594	5251
218.660	12001
218.727	11258
218.794	5150
218.860	4964
218.927	4126
218.994	4162
219.061	5028
219.127	7496
219.194	11604
219.261	5993
219.327	4545
219.394	4700
219.461	3752
219.527	4199
219.594	8014
219.661	5035
219.727	3759
219.794	4123
219.860	4114
219.927	4733
219.994	8146
220.060	13925
220.127	11505
220.193	6667
220.260	5963
220.326	7156
220.393	10300
220.460	11107
220.526	9200
220.593	6241
220.659	8168
220.726	8518
220.792	14163
220.859	13929
220.925	15923
220.992	17913
221.058	18844
221.125	18728
221.191	15802
221.258	8082
221.324	6733
221.391	6519
221.457	6123
221.524	5494
221.590	7840
221.657	15572
221.723	13664
221.789	11306
221.856	11365
221.922	7739
221.989	7080
222.055	4674
222.121	6031
222.188	10297
222.254	7346
222.321	5920
222.387	4579
222.453	4285
222.520	6585
222.586	4848
222.652	5363
222.719	4911
222.785	5705
222.851	4326
222.918	6139
222.984	6518
223.050	9851
223.116	6634
223.183	5636
223.249	2995
223.315	3829
223.382	4604
223.448	5392
223.514	3376
223.580	3884
223.647	4046
223.713	3508
223.779	4550
223.845	6626
223.911	6336
223.978	3971
224.044	5232
224.110	4636
224.176	3705
224.242	3859
224.309	3450
224.375	4322
224.441	3254
224.507	4495
224.573	4136
224.639	5706
224.705	2667
224.772	4007
224.838	4559
224.904	6419
224.970	4438
225.036	4672
225.102	5363
225.168	5794
225.234	4599
225.300	5000
225.366	3953
225.432	5255
225.499	4413
225.565	6030
225.631	6391
225.697	5831
225.763	6165
225.829	6973
225.895	7148
225.961	11843
226.027	10755
226.093	9742
226.159	10749
226.225	12145
226.291	20794
226.357	32472
226.423	23666
226.489	17407
226.554	10631
226.620	10434
226.686	14626
226.752	24095
226.818	24320
226.884	43394
226.950	36810
227.016	18771
227.082	11549
227.148	12124
227.214	14132
227.279	16454
227.345	14180
227.411	11782
227.477	11415
227.543	22380
227.609	23917
227.674	19610
227.740	12199
227.806	10351
227.872	7028
227.938	8997
228.003	16910
228.069	9464
228.135	5406
228.201	6656
228.267	5401
228.332	10656
228.398	10596
228.464	8261
228.530	4408
228.595	5474
228.661	4978
228.727	12083
228.792	10877
228.858	7522
228.924	7606
228.990	9272
229.055	10344
229.121	12297
229.187	8036
229.252	8102
229.318	5457
229.384	8802
229.449	10464
229.515	4918
229.581	3796
229.646	7444
229.712	7704
229.777	16030
229.843	18377
229.909	15110
229.974	16529
230.040	15564
230.105	9750
230.171	11261
230.236	13324
230.302	19390
230.368	15936
230.433	10073
230.499	9297
230.564	16093
230.630	10729
230.695	7440
230.761	7125
230.826	5378
230.892	11143
230.957	7763
231.023	5047
231.088	6770
231.154	5643
231.219	7262
231.284	9116
231.350	11240
231.415	6440
231.481	6515
231.546	5303
231.612	5038
231.677	4899
231.742	4102
231.808	6850
231.873	5233
231.939	4028
232.004	11363
232.069	10917
232.135	6967
232.200	5741
232.265	5777
232.331	4022
232.396	4750
232.461	4040
232.527	5121
232.592	4267
232.657	5581
232.723	8597
232.788	8635
232.853	5133
232.918	4995
232.984	4632
233.049	4582
233.114	7515
233.179	9465
233.245	9873
233.310	11612
233.375	5219
233.440	6677
233.506	4885
233.571	5887
233.636	5099
233.701	6538
233.766	8756
233.832	11953
233.897	7600
233.962	9817
234.027	13344
234.092	11139
234.157	9749
234.222	9318
234.288	11561
234.353	23478
234.418	22296
234.483	16779
234.548	13387
234.613	11873
234.678	11034
234.743	11971
234.808	23839
234.873	17370
234.938	10324
235.004	8960
235.069	9421
235.134	7919
235.199	8114
235.264	7122
235.329	5851
235.394	8035
235.459	9032
235.524	8547
235.589	7787
235.654	6330
235.719	5073
235.784	7801
235.849	7413
235.913	13560
235.978	13786
236.043	16225
236.108	8342
236.173	8080
236.238	9053
236.303	6856
236.368	6852
236.433	10597
236.498	14996
236.563	11313
236.627	17439
236.692	53447
236.757	47299
236.822	22599
236.887	17973
236.952	16004
237.017	10557
237.081	13832
237.146	16739
237.211	25674
237.276	50384
237.341	85115
237.405	48658
237.470	24306
237.535	16771
237.600	11874
237.664	10479
237.729	9852
237.794	12633
237.859	18520
237.923	14315
237.988	10855
238.053	13541
238.118	15303
238.182	29351
238.247	26592
238.312	16039
238.376	13509
238.441	12677
238.506	11815
238.570	6484
238.635	8911
238.700	6923
238.764	6572
238.829	13501
238.893	17114
238.958	12375
239.023	13264
239.087	7976
239.152	9823
239.216	7318
239.281	8041
239.346	7342
239.410	7804
239.475	7936
239.539	25720
239.604	21213
239.668	11649
239.733	9007
239.797	14456
239.862	33886
239.926	32822
239.991	14890
240.055	10738
240.120	8849
240.184	10474
240.249	7667
240.313	7391
240.378	7960
240.442	18095
240.507	26559
240.571	13638
240.635	13977
240.700	19095
240.764	11796
240.829	9298
240.893	6406
240.957	9044
241.022	15822
241.086	27521
241.151	17794
241.215	9225
241.279	10374
241.344	16899
241.408	11149
241.472	10834
241.537	11654
241.601	10746
241.665	9010
241.730	9938
241.794	11023
241.858	13650
241.922	11445
241.987	12042
242.051	9553
242.115	11984
242.179	10945
242.244	8449
242.308	9688
242.372	11108
242.436	15539
242.501	11545
242.565	8321
242.629	8981
242.693	8966
242.757	8399
242.822	9689
242.886	10698
242.950	9432
243.014	9803
243.078	13283
243.142	16366
243.206	10326
243.271	11326
243.335	12534
243.399	15399
243.463	33376
243.527	79367
243.591	34168
243.655	20506
243.719	11981
243.783	14965
243.847	20309
243.911	23297
243.975	35180
244.040	31286
244.104	18132
244.168	12798
244.232	21495
244.296	29420
244.360	23768
244.424	17012
244.488	12192
244.552	12756
244.615	8504
244.679	10519
244.743	13141
244.807	16759
244.871	10669
244.935	10707
244.999	8562
245.063	12014
245.127	12843
245.191	18615
245.255	19418
245.319	18184
245.383	19028
245.446	14095
245.510	10336
245.574	14864
245.638	13588
245.702	13220
245.766	27735
245.829	19915
245.893	13375
245.957	12694
246.021	14151
246.085	14835
246.149	17252
246.212	39971
246.276	61525
246.340	32374
246.404	22184
246.467	20087
246.531	29647
246.595	19753
246.659	18181
246.722	19883
246.786	26904
246.850	25173
246.913	27743
246.977	15124
247.041	14542
247.104	18838
247.168	15660
247.232	37489
247.295	74412
247.359	43373
247.423	21353
247.486	33722
247.550	24599
247.614	20132
247.677	27345
247.741	18868
247.804	15150
247.868	18450
247.932	37500
247.995	74539
248.059	34175
248.122	19722
248.186	23294
248.249	41478
248.313	106569
248.376	122468
248.440	87018
248.503	38639
248.567	30815
248.630	41897
248.694	57171
248.757	70567
248.821	116645
248.884	87242
248.948	76119
249.011	101987
249.075	132730
249.138	125939
249.202	60897
249.265	37623
249.328	32795
249.392	31615
249.455	27254
249.519	20988
249.582	27124
249.645	41893
249.709	30004
249.772	20370
249.835	19457
249.899	20570
249.962	18906
250.025	19225
250.089	46517
250.152	71768
250.215	37999
250.279	27451
250.342	24335
250.405	23438
250.468	22633
250.532	28314
250.595	36855
250.658	82049
250.721	125603
250.785	64216
250.848	37812
250.911	26185
250.974	23134
251.038	34641
251.101	71209
251.164	38826
251.227	40049
251.290	34620
251.354	39669
251.417	106360
251.480	114478
251.543	86330
251.606	170055
251.669	152352
251.732	79846
251.795	92365
251.859	87007
251.922	127023
251.985	91034
252.048	48904
252.111	40686
252.174	38935
252.237	72242
252.300	138450
252.363	127979
252.426	167993
252.489	99363
252.552	63084
252.615	45383
252.678	46501
252.741	99048
252.804	111111
252.867	166679
252.930	143131
252.993	95434
253.056	62010
253.119	51323
253.182	38266
253.245	47844
253.308	45629
253.371	49350
253.434	48977
253.497	45104
253.559	73761
253.622	61121
253.685	79270
253.748	88337
253.811	42075
253.874	41224
253.937	44367
254.000	36997
254.062	57088
254.125	82391
254.188	80540
254.251	69339
254.314	35741
254.376	57698
254.439	70495
254.502	68099
254.565	60904
254.628	102913
254.690	76028
254.753	44393
254.816	35971
254.878	36564
254.941	56455
255.004	59881
255.067	31278
255.129	37547
255.192	21608
255.255	20669
255.317	27836
255.380	17755
255.443	12786
255.505	14131
255.568	16475
255.631	17888
255.693	19726
255.756	15005
255.819	15378
255.881	14099
255.944	12254
256.006	12501
256.069	13635
256.132	13166
256.194	18106
256.257	31193
256.319	24652
256.382	23363
256.444	17778
256.507	14939
256.569	13717
256.632	12480
256.694	17561
256.757	33244
256.819	87587
256.882	44166
256.944	26352
257.007	23301
257.069	29197
257.132	19375
257.194	14840
257.257	15696
257.319	16811
257.381	14472
257.444	26360
257.506	94357
257.569	127783
257.631	82417
257.693	50284
257.756	24818
257.818	23125
257.880	16082
257.943	16606
258.005	16409
258.067	19392
258.130	18482
258.192	20871
258.254	44164
258.317	26102
258.379	17253
258.441	40249
258.503	35208
258.566	32193
258.628	41292
258.690	17362
258.753	18623
258.815	45776
258.877	27035
258.939	15521
259.001	14680
259.064	16429
259.126	16832
259.188	21026
259.250	15933
259.312	22488
259.375	51713
259.437	38428
259.499	16879
259.561	16630
259.623	19891
259.685	24308
259.747	16113
259.809	30379
259.872	55297
259.934	79220
259.996	107068
260.058	43306
260.120	18329
260.182	14780
260.244	12836
260.306	12754
260.368	13371
260.430	15492
260.492	42410
260.554	70274
260.616	40229
260.678	53834
260.740	65162
260.802	24737
260.864	23372
260.926	21055
260.988	20398
261.050	20885
261.112	56930
261.174	102026
261.236	54110
261.298	27681
261.359	29838
261.421	41609
261.483	19694
261.545	18580
261.607	13559
261.669	12999
261.731	21368
261.793	50438
261.854	32271
261.916	24339
261.978	27700
262.040	32002
262.102	15273
262.164	22298
262.225	19449
262.287	15573
262.349	39434
262.411	34201
262.472	16562
262.534	20384
262.596	38912
262.658	17931
262.719	13321
262.781	17295
262.843	36446
262.904	21712
262.966	17199
263.028	19503
263.090	56633
263.151	150673
263.213	78057
263.275	68751
263.336	27243
263.398	18089
263.459	14773
263.521	16866
263.583	36864
263.644	29526
263.706	15477
263.767	11624
263.829	9950
263.891	10034
263.952	10438
264.014	12451
264.075	29976
264.137	81205
264.198	36830
264.260	16463
264.321	14799
264.383	39537
264.444	107020
264.506	39070
264.567	23911
264.629	41308
264.690	93503
264.752	38922
264.813	22607
264.875	17523
264.936	18690
264.998	18063
265.059	11990
265.120	12424
265.182	18113
265.243	44755
265.305	48661
265.366	18255
265.427	13421
265.489	15333
265.550	11572
265.611	18087
265.673	20279
265.734	19763
265.795	12852
265.857	10737
265.918	9685
265.979	17666
266.040	70218
266.102	68125
266.163	31186
266.224	41968
266.286	22049
266.347	14942
266.408	14916
266.469	15420
266.530	12125
266.592	11445
266.653	27072
266.714	49908
266.775	17855
266.836	15104
266.898	13286
266.959	33626
267.020	24231
267.081	13639
267.142	10908
267.203	10178
267.264	9789
267.326	14146
267.387	11132
267.448	10132
267.509	11791
267.570	12182
267.631	10637
267.692	9254
267.753	10295
267.814	11497
267.875	21628
267.936	49709
267.997	40461
268.058	34391
268.119	18311
268.180	19256
268.241	15315
268.302	13171
268.363	11878
268.424	16151
268.485	17697
268.546	14779
268.607	10327
268.668	10350
268.729	9905
268.790	13523
268.851	17080
268.912	42044
268.972	49382
269.033	31407
269.094	14676
269.155	12978
269.216	11147
269.277	13332
269.338	11199
269.398	11635
269.459	17061
269.520	24649
269.581	32899
269.642	41630
269.702	29117
269.763	20058
269.824	15063
269.885	19477
269.945	31929
270.006	15353
270.067	10787
270.128	10898
270.188	11367
270.249	13339
270.310	10576
270.370	10835
270.431	11093
270.492	10008
270.553	12469
270.613	31220
270.674	54202
270.734	27540
270.795	16860
270.856	25002
270.916	23141
270.977	14603
271.038	19475
271.098	21265
271.159	29166
271.219	31434
271.280	13738
271.340	12932
271.401	15413
271.462	29679
271.522	22833
271.583	16186
271.643	16379
271.704	16164
271.764	21243
271.825	43788
271.885	120325
271.946	164855
272.006	66165
272.066	77673
272.127	124631
272.187	49104
272.248	28998
272.308	28509
272.369	75864
272.429	52686
272.489	46460
272.550	56825
272.610	49894
272.671	40988
272.731	31134
272.791	48771
272.852	34356
272.912	30287
272.972	18145
273.033	17029
273.093	26736
273.153	35095
273.214	23870
273.274	23756
273.334	77324
273.394	126526
273.455	66809
273.515	57375
273.575	116572
273.635	55148
273.696	56469
273.756	109492
273.816	53854
273.876	31325
273.936	41855
273.997	77224
274.057	32198
274.117	26029
274.177	37457
274.237	139179
274.297	121477
274.358	74151
274.418	88864
274.478	80856
274.538	36970
274.598	26222
274.658	51418
274.718	70594
274.778	37134
274.838	23663
274.898	38447
274.958	96501
275.018	103343
275.078	81468
275.138	40463
275.198	23526
275.258	17420
275.318	22620
275.378	45140
275.438	53286
275.498	31864
275.558	44093
275.618	90769
275.678	81210
275.738	61150
275.798	63309
275.858	42290
275.918	20616
275.978	22783
276.038	24100
276.098	17633
276.157	34109
276.217	92564
276.277	48239
276.337	39547
276.397	22403
276.457	29257
276.517	21143
276.576	15567
276.636	15225
276.696	29187
276.756	54880
276.815	44331
276.875	23647
276.935	26258
276.995	25654
277.055	16074
277.114	16620
277.174	22691
277.234	69806
277.293	37413
277.353	24248
277.413	17554
277.472	19476
277.532	19277
277.592	19196
277.651	40085
277.711	72955
277.771	31791
277.830	92754
277.890	82137
277.950	50734
278.009	114871
278.069	53775
278.128	51405
278.188	79558
278.248	41889
278.307	76021
278.367	51098
278.426	22850
278.486	18362
278.545	14730
278.605	13628
278.664	14011
278.724	16881
278.783	40919
278.843	99068
278.902	36024
278.962	25206
279.021	26112
279.081	20840
279.140	22103
279.199	24775
279.259	22229
279.318	19804
279.378	24068
279.437	42062
279.496	136411
279.556	242213
279.615	196706
279.675	68025
279.734	47167
279.793	74524
279.853	117800
279.912	50669
279.971	29247
280.031	27612
280.090	47405
280.149	84954
280.208	57445
280.268	183440
280.327	185726
280.386	61677
280.445	56697
280.505	62370
280.564	35427
280.623	32804
280.682	38269
280.742	59336
280.801	24667
280.860	20412
280.919	21768
280.978	19489
281.037	17238
281.097	15461
281.156	14713
281.215	14697
281.274	20433
281.333	64809
281.392	54234
281.451	17810
281.510	15023
281.569	14440
281.628	12716
281.688	11661
281.747	18129
281.806	20775
281.865	14252
281.924	14304
281.983	16657
282.042	10836
282.101	12599
282.160	12596
282.219	11930
282.278	15221
282.337	44604
282.396	34158
282.454	17624
282.513	21082
282.572	70802
282.631	48751
282.690	19055
282.749	16396
282.808	23824
282.867	21873
282.926	23280
282.985	12285
283.043	12283
283.102	13246
283.161	16413
283.220	33652
283.279	69670
283.338	25779
283.396	17241
283.455	18014
283.514	20876
283.573	32855
283.631	25694
283.690	17139
283.749	18239
283.808	33265
283.866	43128
283.925	17972
283.984	16101
284.043	25133
284.101	27501
284.160	18975
284.219	28978
284.277	22672
284.336	30834
284.395	89057
284.453	74642
284.512	30976
284.570	45056
284.629	38115
284.688	31349
284.746	32433
284.805	35793
284.863	44731
284.922	57376
284.981	63064
285.039	88126
285.098	147268
285.156	284969
285.215	342508
285.273	348994
285.332	316748
285.390	189229
285.449	120915
285.507	84983
285.566	62874
285.624	49175
285.683	37966
285.741	32698
285.799	29073
285.858	28665
285.916	29258
285.975	21775
286.033	19872
286.091	17464
286.150	14943
286.208	17797
286.267	24252
286.325	23717
286.383	37947
286.442	33235
286.500	17049
286.558	14844
286.616	14082
286.675	24067
286.733	21296
286.791	20609
286.850	22020
286.908	28724
286.966	47594
287.024	22522
287.083	15359
287.141	13809
287.199	15275
287.257	26138
287.315	18160
287.374	19822
287.432	44885
287.490	32593
287.548	21489
287.606	17430
287.664	15503
287.723	25537
287.781	35683
287.839	18319
287.897	19958
287.955	20464
288.013	26033
288.071	50575
288.129	151100
288.187	353582
288.245	192932
288.303	70846
288.361	44652
288.419	41333
288.477	30634
288.535	21943
288.593	18112
288.651	17701
288.709	14596
288.767	15885
288.825	17256
288.883	13757
288.941	13507
288.999	13488
289.057	13870
289.115	15232
289.173	16192
289.231	16193
289.289	16527
289.346	14595
289.404	18647
289.462	31387
289.520	34592
289.578	19506
289.636	10889
289.694	10603
289.751	10879
289.809	12117
289.867	13394
289.925	18567
289.983	24286
290.040	13987
290.098	12192
290.156	18329
290.214	22791
290.271	14900
290.329	12008
290.387	12431
290.444	11839
290.502	10821
290.560	12728
290.617	17419
290.675	15249
290.733	14244
290.790	16808
290.848	13167
290.906	15561
290.963	16145
291.021	14810
291.078	14488
291.136	18424
291.194	50096
291.251	106640
291.309	35437
291.366	16452
291.424	16907
291.481	18935
291.539	18902
291.596	13082
291.654	12106
291.711	11392
291.769	14943
291.826	34940
291.884	24242
291.941	15173
291.999	16766
292.056	18408
292.114	21346
292.171	14978
292.228	17369
292.286	22590
292.343	39871
292.401	49402
292.458	31560
292.515	21569
292.573	26341
292.630	24813
292.687	22215
292.745	20373
292.802	29236
292.859	76416
292.917	94887
292.974	59065
293.031	25119
293.089	18683
293.146	17208
293.203	15653
293.260	15548
293.318	21493
293.375	43077
293.432	25399
293.489	16795
293.546	16005
293.604	23679
293.661	49616
293.718	125392
293.775	87531
293.832	45357
293.889	32290
293.947	31462
294.004	25543
294.061	28881
294.118	48380
294.175	95742
294.232	127430
294.289	55967
294.346	29957
294.403	25827
294.460	22573
294.517	22125
294.574	19924
294.631	18732
294.688	23022
294.745	48726
294.802	143489
294.859	185724
294.916	78830
294.973	46127
295.030	41665
295.087	36511
295.144	26205
295.201	21471
295.258	19169
295.315	25015
295.372	54239
295.429	96051
295.486	52192
295.542	39091
295.599	82768
295.656	149867
295.713	104505
295.770	101520
295.827	46208
295.883	30313
295.940	30708
295.997	50584
296.054	50420
296.111	27412
296.167	20455
296.224	18948
296.281	16920
296.338	18749
296.394	18449
296.451	23196
296.508	49533
296.564	102736
296.621	87197
296.678	119926
296.734	179856
296.791	81990
296.848	46142
296.904	48371
296.961	92579
297.018	116050
297.074	95040
297.131	42056
297.187	32397
297.244	42170
297.301	93098
297.357	159848
297.414	67524
297.470	34378
297.527	28579
297.583	23564
297.640	26544
297.696	22708
297.753	18573
297.809	17807
297.866	14392
297.922	14843
297.979	15585
298.035	19351
298.092	29545
298.148	62315
298.204	66922
298.261	40838
298.317	63626
298.374	143733
298.430	88166
298.486	43228
298.543	33863
298.599	30257
298.656	32047
298.712	49830
298.768	93352
298.824	62242
298.881	28959
298.937	21547
298.993	21648
299.050	31645
299.106	29449
299.162	24712
299.218	24531
299.275	19693
299.331	23221
299.387	39638
299.443	108772
299.500	129005
299.556	62376
299.612	34509
299.668	32847
299.724	39980
299.780	42959
299.837	30145
299.893	37980
299.949	99905
300.005	124788
300.061	105879
300.117	162954
300.173	88087
300.229	46263
300.285	54318
300.341	66405
300.397	37048
300.453	24751
300.510	23702
300.566	25876
300.622	31649
300.678	67598
300.734	125680
300.790	104849
300.845	115393
300.901	83273
300.957	113504
301.013	88715
301.069	41226
301.125	32799
301.181	38428
301.237	28154
301.293	22819
301.349	19724
301.405	18581
301.461	18413
301.516	20834
301.572	26183
301.628	48301
301.684	44116
301.740	50769
301.796	74213
301.851	55064
301.907	85903
301.963	92222
302.019	120885
302.074	266731
302.130	284522
302.186	140707
302.242	64559
302.297	48593
302.353	45080
302.409	73073
302.464	66475
302.520	58616
302.576	116659
302.631	136999
302.687	89239
302.743	43080
302.798	28513
302.854	25340
302.910	25719
302.965	33656
303.021	52291
303.076	52120
303.132	64721
303.187	77181
303.243	41380
303.299	26660
303.354	21417
303.410	20690
303.465	19597
303.521	20263
303.576	20470
303.632	26146
303.687	39567
303.743	94192
303.798	88021
303.853	40238
303.909	27256
303.964	27375
304.020	39041
304.075	62389
304.130	53696
304.186	93961
304.241	97310
304.297	78149
304.352	44790
304.358	43503
304.407	33080
304.449	30346
304.463	29445
304.518	33418
304.539	31772
304.573	29173
304.629	28529
304.630	28757
304.684	39907
304.720	65333
304.739	78104
304.794	115380
304.811	100234
304.850	64164
304.902	35965
304.905	34158
304.960	26441
304.992	24882
305.015	23765
305.071	22320
305.083	21837
305.126	20139
305.173	18509
305.181	18251
305.236	16156
305.264	18302
305.292	20582
305.347	25819
305.354	25893
305.402	26054
305.445	25280
305.457	25143
305.512	29931
305.535	31737
305.567	34175
305.622	34944
305.626	35623
305.678	49898
305.716	80080
305.733	91286
305.788	112581
305.807	100153
305.843	78211
305.897	92138
305.898	92254
305.953	98716
305.988	70427
306.008	54612
306.063	41551
306.078	38225
306.118	30049
306.168	23325
306.173	22748
306.228	18681
306.259	17750
306.283	17115
306.338	16340
306.349	16504
306.393	17254
306.440	17495
306.448	17639
306.503	20868
306.530	24442
306.558	32157
306.613	68639
306.620	73771
306.668	100311
306.711	106173
306.723	105290
306.778	84248
306.801	66892
306.833	46631
306.888	28616
306.892	27869
306.943	21353
306.982	20475
306.997	20281
307.052	19804
307.072	19913
307.107	21948
307.162	29660
307.163	29834
307.217	46703
307.253	54915
307.272	56351
307.327	59452
307.343	54095
307.381	42375
307.434	36184
307.436	36684
307.491	63402
307.524	91525
307.546	99809
307.600	91934
307.614	81367
307.655	50754
307.704	29714
307.710	28732
307.765	33401
307.795	41343
307.819	48878
307.874	78539
307.885	77671
307.929	57901
307.975	35265
307.984	33223
308.038	33011
308.065	36998
308.093	52049
308.148	96785
308.156	108939
308.202	173620
308.246	216202
308.257	216642
308.312	129191
308.336	104689
308.366	87237
308.421	67264
308.426	64665
308.475	41473
308.517	29987
308.530	27781
308.585	23971
308.607	23089
308.639	24097
308.694	29109
308.697	29646
308.748	53425
308.787	82146
308.803	83460
308.857	62987
308.877	51988
308.912	40576
308.967	34300
308.967	34328
309.021	40902
309.058	47269
309.076	55438
309.130	90393
309.148	105525
309.185	160224
309.238	246669
309.239	247131
309.293	283616
309.328	264655
309.348	233986
309.402	122593
309.418	96692
309.457	69622
309.508	48860
309.511	48117
309.566	46301
309.598	47746
309.620	55388
309.674	80805
309.688	88102
309.729	87944
309.778	75332
309.783	73864
309.837	55437
309.868	47775
309.892	57823
309.946	89197
309.959	100251
310.001	129761
310.049	152769
310.055	148374
310.109	89473
310.139	55955
310.163	43864
310.218	28965
310.229	26830
310.272	23375
310.319	20460
310.326	20196
310.381	19971
310.409	19751
310.435	19111
310.489	17675
310.499	17726
310.543	19554
310.589	21056
310.598	21192
310.652	23123
310.679	23511
310.706	21333
310.760	16156
310.769	15475
310.814	14015
310.859	12767
310.868	12812
310.923	13631
310.948	14264
310.977	15839
311.031	19066
311.038	19558
311.085	19651
311.128	18898
311.139	18674
311.193	17976
311.218	17731
311.247	16864
311.301	15071
311.308	14884
311.356	15584
311.398	16763
311.410	16555
311.464	15148
311.488	14489
311.518	14454
311.572	14667
311.578	14760
311.626	20536
311.668	25816
311.680	26376
311.734	28447
311.758	29502
311.788	29093
311.842	28213
311.847	28149
311.896	35161
311.937	41763
311.950	40653
312.004	35726
312.027	33390
312.058	27669
312.112	17862
312.117	16932
312.165	17198
312.207	17528
312.297	31658
312.386	25432
312.476	20876
312.566	37165
312.656	18254
312.745	15201
312.835	17680
312.925	20778
313.015	19421
313.104	21122
313.194	14198
313.284	15617
313.374	19506
313.463	18389
313.553	14786
313.643	14501
313.732	12694
313.822	14430
313.912	17386
314.001	19822
314.091	26980
314.180	35509
314.270	26004
314.360	29768
314.449	23733
314.539	16991
314.628	15903
314.718	22049
314.808	26074
314.897	15980
314.987	15691
315.076	20350
315.166	26881
315.255	25916
315.345	24631
315.434	26027
315.524	23002
315.613	25643
315.703	28716
315.792	33276
315.881	68112
315.971	33594
316.060	47093
316.150	73527
316.239	72417
316.328	27976
316.418	16045
316.507	16701
316.597	22190
316.686	20548
316.775	33422
316.865	69279
316.954	18323
317.043	13552
317.133	14438
317.222	15045
317.311	13712
317.400	13648
317.490	20415
317.579	23068
317.668	16560
317.757	24844
317.847	41898
317.936	112496
318.025	62824
318.114	39705
318.203	30180
318.293	45681
318.382	79565
318.471	62824
318.560	81445
318.649	134117
318.738	33972
318.828	27171
318.917	28438
319.006	36074
319.095	84884
319.184	168666
319.273	96961
319.362	53364
319.451	22095
319.540	22626
319.629	45703
319.718	70529
319.807	37429
319.896	70198
319.985	196817
320.074	78091
320.163	31021
320.252	49673
320.341	48137
320.430	41998
320.519	43629
320.608	28816
320.697	24757
320.786	24400
320.875	27966
320.964	35988
321.053	50842
321.142	72656
321.230	74720
321.319	67576
321.408	137024
321.497	62957
321.586	55822
321.675	73204
321.764	71046
321.852	50879
321.941	82143
322.030	54240
322.119	65272
322.207	131886
322.296	110343
322.385	62629
322.474	61783
322.562	153537
322.651	86498
322.740	63603
322.829	90343
322.917	102003
323.006	55645
323.095	46704
323.183	36615
323.272	53012
323.361	80785
323.449	192745
323.538	78421
323.626	156600
323.715	93226
323.804	51221
323.892	149454
323.981	87038
324.069	33528
324.158	85825
324.246	77468
324.335	37449
324.424	50216
324.512	22124
324.601	30258
324.689	46458
324.778	74657
324.866	70541
324.954	24099
325.043	23749
325.131	48459
325.220	83611
325.308	89584
325.397	66356
325.485	39990
325.574	16499
325.662	15474
325.750	19264
325.839	16097
325.927	15442
326.015	22640
326.104	35203
326.192	45881
326.280	17749
326.369	18092
326.457	25122
326.545	41022
326.634	19346
326.722	13060
326.810	14959
326.898	14502
326.987	20046
327.075	39409
327.163	43002
327.251	24266
327.340	30171
327.428	37980
327.516	15043
327.604	16069
327.692	18868
327.781	23619
327.869	37846
327.957	24803
328.045	21064
328.133	12868
328.221	20791
328.309	16082
328.397	15287
328.485	20134
328.574	27984
328.662	75001
328.750	48185
328.838	23173
328.926	15668
329.014	14909
329.102	26726
329.190	64759
329.278	37048
329.366	13085
329.454	14077
329.542	13819
329.630	11968
329.718	14957
329.806	17987
329.893	20146
329.981	17191
330.069	11989
330.157	26174
330.245	59831
330.333	33165
330.421	16072
330.509	29576
330.597	95169
330.684	67007
330.772	34746
330.860	55873
330.948	67735
331.036	26163
331.123	12426
331.211	16719
331.299	24544
331.387	61638
331.475	88120
331.562	27981
331.650	15353
331.738	21444
331.825	29197
331.913	14458
332.001	13543
332.089	25928
332.176	50207
332.264	94118
332.352	72627
332.439	28247
332.527	21037
332.614	18409
332.702	25287
332.790	18906
332.877	47415
332.965	84409
333.052	21190
333.140	22698
333.228	43274
333.315	17852
333.403	20972
333.490	60731
333.578	45266
333.665	38144
333.753	22441
333.840	15339
333.928	22908
334.015	65979
334.103	83778
334.190	201549
334.278	58656
334.365	34272
334.452	26184
334.540	17362
334.627	24875
334.715	35069
334.802	62813
334.889	251680
334.977	212653
335.064	42069
335.151	22306
335.239	26886
335.326	37197
335.413	110021
335.501	125629
335.588	26466
335.675	20427
335.762	35239
335.850	52873
335.937	33434
336.024	81874
336.111	271861
336.199	125776
336.286	31558
336.373	17180
336.460	13364
336.547	15270
336.635	20255
336.722	18752
336.809	18185
336.896	28697
336.983	83784
337.070	175147
337.157	204965
337.245	162349
337.332	106087
337.419	22128
337.506	18109
337.593	25507
337.680	75874
337.767	177314
337.854	62915
337.941	74528
338.028	81290
338.115	30241
338.202	42794
338.289	62408
338.376	168628
338.463	63193
338.550	119195
338.637	101919
338.724	48373
338.811	68753
338.898	19008
338.984	17007
339.071	24552
339.158	24106
339.245	55758
339.332	33984
339.419	53176
339.506	44647
339.593	11290
339.679	14084
339.766	14196
339.853	24001
339.940	35928
340.027	16127
340.113	17644
340.200	21727
340.287	17811
340.374	23422
340.460	34127
340.547	17486
340.634	29282
340.720	82401
340.807	43625
340.894	11969
340.980	15151
341.067	13415
341.154	15801
341.240	23577
341.327	43640
341.414	15088
341.500	15146
341.587	15471
341.674	14901
341.760	33762
341.847	37380
341.933	13302
342.020	8133
342.106	8754
342.193	15924
342.279	26193
342.366	21110
342.452	31314
342.539	20042
342.625	45537
342.712	87589
342.798	38254
342.885	18544
342.971	8799
343.058	9204
343.144	10121
343.230	10027
343.317	9748
343.403	8947
343.490	8460
343.576	8649
343.662	10683
343.749	13919
343.835	17660
343.921	33029
344.008	135657
344.094	251616
344.180	62553
344.267	34506
344.353	94929
344.439	106655
344.525	47834
344.612	18005
344.698	17657
344.784	13231
344.870	10045
344.957	11608
345.043	20638
345.129	18648
345.215	32053
345.301	17296
345.387	12468
345.474	9465
345.560	11951
345.646	16999
345.732	14196
345.818	13992
345.904	12931
345.990	15918
346.076	19249
346.162	35673
346.249	14488
346.335	10286
346.421	12547
346.507	40526
346.593	108947
346.679	31875
346.765	15749
346.851	14789
346.937	13274
347.023	10945
347.108	14400
347.194	12800
347.280	11397
347.366	16108
347.452	43076
347.538	135129
347.624	109028
347.710	96493
347.796	22085
347.882	15248
347.967	14870
348.053	26072
348.139	14941
348.225	11775
348.311	11369
348.397	9718
348.482	14770
348.568	18032
348.654	9898
348.740	16040
348.825	15606
348.911	21766
348.997	70376
349.083	120924
349.168	26599
349.254	11880
349.340	11547
349.425	10708
349.511	18967
349.597	22261
349.682	37307
349.768	92738
349.854	43340
349.939	16121
350.025	11276
350.110	9439
350.196	8766
350.282	7713
350.367	10022
350.453	24489
350.538	23569
350.624	21554
350.709	18959
350.795	11062
350.880	11237
350.966	13808
351.051	21516
351.137	17834
351.222	12622
351.308	37283
351.393	82570
351.479	20780
351.564	9474
351.649	12665
351.735	9814
351.820	9060
351.906	11179
351.991	19305
352.076	61620
352.162	76039
352.247	20048
352.332	14913
352.418	24593
352.503	37332
352.588	135115
352.673	101649
352.759	26694
352.844	14621
352.929	16873
353.014	21481
353.100	15859
353.185	28725
353.270	42217
353.355	36730
353.441	13232
353.526	18551
353.611	37163
353.696	39306
353.781	23133
353.866	12217
353.952	14823
354.037	38280
354.122	74354
354.207	66755
354.292	24729
354.377	12894
354.462	11507
354.547	18224
354.632	19009
354.717	29866
354.802	31499
354.887	13883
354.972	9501
355.057	9166
355.142	8205
355.227	13285
355.312	23754
355.397	53072
355.482	112292
355.567	52672
355.652	43431
355.737	43214
355.822	101658
355.907	74187
355.991	16752
356.076	11222
356.161	10576
356.246	9640
356.331	12235
356.416	30573
356.501	143696
356.585	135479
356.670	25876
356.755	19960
356.840	31898
356.924	128807
357.009	349085
357.094	131940
357.179	40883
357.263	29009
357.348	29842
357.433	31410
357.517	25388
357.602	19862
357.687	16003
357.771	19422
357.856	20975
357.941	24280
358.025	93916
358.110	314086
358.195	143536
358.279	31061
358.364	26705
358.448	90568
358.533	206552
358.617	148274
358.702	138516
358.787	54701
358.871	39944
358.956	30002
359.040	11239
359.125	9770
359.209	9271
359.294	12379
359.378	15900
359.462	28094
359.547	20296
359.631	17044
359.716	10914
359.800	16535
359.885	27605
359.969	15479
360.053	11413
360.138	13733
360.222	20698
360.306	36404
360.391	27622
360.475	34079
360.559	64863
360.644	81693
360.728	59259
360.812	90182
360.896	202293
360.981	119060
361.065	70342
361.149	21854
361.233	21985
361.318	18957
361.402	21042
361.486	16704
361.570	12837
361.654	19743
361.739	47404
361.823	151989
361.907	189707
361.991	40654
362.075	34006
362.159	68499
362.243	48182
362.327	52203
362.411	60186
362.495	35551
362.580	19729
362.664	14677
362.748	12901
362.832	17065
362.916	28255
363.000	93181
363.084	231544
363.168	246789
363.252	67471
363.336	35575
363.420	51141
363.503	162521
363.587	156343
363.671	34330
363.755	30611
363.839	38354
363.923	19128
364.007	40150
364.091	46761
364.175	74579
364.258	226760
364.342	161249
364.426	193837
364.510	108305
364.594	59227
364.677	61590
364.761	184131
364.845	122222
364.929	62138
365.013	50966
365.096	43359
365.180	49407
365.264	76933
365.347	220394
365.431	106821
365.515	38621
365.598	18199
365.682	18959
365.766	48037
365.849	49851
365.933	24708
366.017	37555
366.100	30075
366.184	12708
366.267	13267
366.351	12889
366.435	10249
366.518	9421
366.602	8909
366.685	13119
366.769	17995
366.852	42763
366.936	55504
367.019	29167
367.103	36748
367.186	58133
367.270	16975
367.353	10280
367.436	12092
367.520	11438
367.603	16309
367.687	25568
367.770	41848
367.853	25774
367.937	70589
368.020	99130
368.104	30069
368.187	35952
368.270	49652
368.353	42912
368.437	62221
368.520	139942
368.603	81949
368.687	89744
368.770	136318
368.853	41280
368.936	56746
369.020	56085
369.103	19509
369.186	15478
369.269	15510
369.352	33563
369.436	49668
369.519	29982
369.602	15187
369.685	18765
369.768	19642
369.851	17040
369.934	12010
370.018	20733
370.101	40203
370.184	33717
370.267	28586
370.350	47636
370.433	66164
370.516	116633
370.599	124575
370.682	57723
370.765	102261
370.848	105967
370.931	167604
371.014	74204
371.097	20296
371.180	13562
371.263	9515
371.346	8908
371.429	10313
371.511	14057
371.594	29901
371.677	52551
371.760	59130
371.843	39717
371.926	141696
372.009	269661
372.091	91124
372.174	77585
372.257	143010
372.340	62581
372.423	82394
372.505	93717
372.588	35817
372.671	64104
372.754	161396
372.836	79549
372.919	88560
373.002	145788
373.085	45524
373.167	36772
373.250	83560
373.332	154540
373.415	201168
373.498	356362
373.580	143298
373.663	196578
373.746	230464
373.828	64913
373.911	37598
373.993	47143
374.076	152864
374.159	130185
374.241	63198
374.324	151389
374.406	92941
374.489	125118
374.571	298292
374.654	120568
374.736	77529
374.819	200412
374.901	268136
374.983	244346
375.066	51219
375.148	33380
375.231	125491
375.313	214848
375.395	91465
375.478	22856
375.560	16889
375.643	24365
375.725	75173
375.807	238351
375.890	206662
375.972	121687
376.054	72900
376.136	115103
376.219	48755
376.301	80366
376.383	191232
376.465	73399
376.548	62742
376.630	72920
376.712	170233
376.794	72959
376.877	14658
376.959	11834
377.041	19718
377.123	53243
377.205	52000
377.287	12105
377.369	10144
377.452	12808
377.534	10596
377.616	12482
377.698	11384
377.780	10418
377.862	13068
377.944	12587
378.026	8363
378.108	10360
378.190	10236
378.272	9404
378.354	7527
378.436	9798
378.518	34481
378.600	98227
378.682	65921
378.764	108745
378.846	79426
378.928	40007
379.010	45837
379.091	22743
379.173	12258
379.255	12534
379.337	19132
379.419	59638
379.501	141349
379.583	57564
379.664	21995
379.746	50127
379.828	116900
379.910	140556
379.991	107958
380.073	23983
380.155	20386
380.237	14670
380.318	11212
380.400	13896
380.482	30574
380.564	43788
380.645	44996
380.727	41380
380.809	24505
380.890	19717
380.972	15014
381.053	14017
381.135	17486
381.217	46666
381.298	115742
381.380	56108
381.461	55268
381.543	179644
381.624	189125
381.706	43387
381.787	34220
381.869	34125
381.951	90555
382.032	278810
382.113	172108
382.195	54886
382.276	37147
382.358	74602
382.439	164973
382.521	176364
382.602	244506
382.684	125583
382.765	231759
382.846	212956
382.928	248342
383.009	132030
383.090	93600
383.172	319074
383.253	465421
383.334	204358
383.416	231782
383.497	109813
383.578	54387
383.659	94232
383.741	275739
383.822	636406
383.903	332020
383.984	176345
384.066	297810
384.147	174506
384.228	41832
384.309	37561
384.390	27283
384.471	22200
384.553	26968
384.634	41022
384.715	35264
384.796	19257
384.877	27517
384.958	97536
385.039	112666
385.120	45508
385.201	24967
385.282	42260
385.363	42676
385.444	28470
385.525	50773
385.606	135349
385.687	102647
385.768	45104
385.849	57139
385.930	157288
386.011	221940
386.092	63927
386.173	23978
386.254	26044
386.335	24410
386.416	28393
386.496	79939
386.577	118421
386.658	58838
386.739	43002
386.820	46058
386.901	39041
386.981	28100
387.062	18526
387.143	34057
387.224	111945
387.304	101744
387.385	48615
387.466	45250
387.547	52847
387.627	30365
387.708	54467
387.789	183391
387.869	193626
387.950	52131
388.031	18334
388.111	30614
388.192	88389
388.273	116114
388.353	54671
388.434	24802
388.514	45035
388.595	152710
388.676	193747
388.756	106569
388.837	109898
388.917	62377
388.998	21511
389.078	18243
389.159	15370
389.239	13922
389.320	26963
389.400	25077
389.480	59353
389.561	117909
389.641	50917
389.722	29185
389.802	47077
389.883	58003
389.963	128422
390.043	92865
390.124	46267
390.204	51860
390.284	124669
390.365	79816
390.445	112695
390.525	151923
390.605	112340
390.686	58681
390.766	25450
390.846	15162
390.927	12557
391.007	15712
391.087	21964
391.167	23452
391.247	18179
391.328	38527
391.408	61212
391.488	36677
391.568	15198
391.648	22075
391.728	28789
391.808	26553
391.888	31022
391.969	68617
392.049	103006
392.129	59832
392.209	60365
392.289	120031
392.369	77112
392.449	93369
392.529	50901
392.609	37543
392.689	46338
392.769	117691
392.849	96744
392.929	99250
393.009	197221
393.089	125674
393.169	115750
393.248	308953
393.328	832753
393.408	825548
393.488	294956
393.568	103274
393.648	54811
393.728	36101
393.807	27521
393.887	21205
393.967	19340
394.047	22690
394.127	24306
394.206	28189
394.286	72856
394.366	286288
394.446	279171
394.525	61093
394.605	23481
394.685	41955
394.764	121272
394.844	180317
394.924	108090
395.003	30949
395.083	21201
395.163	18197
395.242	17785
395.322	17686
395.402	11917
395.481	21196
395.561	80269
395.640	189279
395.720	137357
395.799	185708
395.879	117033
395.958	37210
396.038	97274
396.117	372549
396.197	384588
396.276	149390
396.356	82419
396.435	83321
396.515	47617
396.594	57681
396.673	102357
396.753	307376
396.832	764138
396.912	600844
396.991	181740
397.070	57680
397.150	35224
397.229	26562
397.308	38907
397.388	62589
397.467	29585
397.546	15760
397.625	14490
397.705	20534
397.784	23798
397.863	13501
397.942	10912
398.022	17569
398.101	73946
398.180	179188
398.259	97037
398.338	27835
398.417	20594
398.497	17592
398.576	17385
398.655	10864
398.734	10070
398.813	14473
398.892	66884
398.971	179375
399.050	77865
399.129	13178
399.208	9979
399.287	9680
399.366	9299
399.445	11494
399.524	11192
399.603	11006
399.682	25770
399.761	71744
399.840	189485
399.919	125379
399.998	21520
400.077	8958
400.156	9686
400.235	16444
400.313	14450
400.392	22325
400.471	68678
400.550	94121
400.629	29180
400.708	18798
400.786	27882
400.865	70755
400.944	68492
401.023	26240
401.102	7509
401.180	8618
401.259	13810
401.338	19838
401.416	21142
401.495	20795
401.574	18713
401.652	15640
401.731	23590
401.810	19972
401.888	9407
401.967	8093
402.046	12414
402.124	22020
402.203	28730
402.281	15440
402.360	30851
402.438	80633
402.517	50661
402.596	22268
402.674	23816
402.753	12621
402.831	9384
402.910	14585
402.988	58866
403.066	148162
403.145	74508
403.223	53316
403.302	117629
403.380	86275
403.459	90189
403.537	38562
403.615	19009
403.694	6462
403.772	6472
403.850	6764
403.929	5963
404.007	10063
404.085	20799
404.164	22526
404.242	8929
404.320	11132
404.398	23393
404.477	59529
404.555	216118
404.633	163212
404.711	29467
404.789	12349
404.868	11905
404.946	8585
405.024	5389
405.102	5984
405.180	6851
405.258	6782
405.336	8528
405.415	12430
405.493	30712
405.571	21752
405.649	8621
405.727	11084
405.805	19799
405.883	16568
405.961	23038
406.039	29074
406.117	11129
406.195	17093
406.273	66126
406.351	199072
406.429	117962
406.507	35190
406.585	14595
406.663	12423
406.740	17764
406.818	16218
406.896	10432
406.974	10152
407.052	26924
407.130	127512
407.208	151340
407.285	29189
407.363	10019
407.441	10193
407.519	8185
407.596	11792
407.674	21574
407.752	41306
407.830	69117
407.907	40062
407.985	15244
408.063	8210
408.141	9795
408.218	25847
408.296	23403
408.373	13518
408.451	13224
408.529	11834
408.606	6981
408.684	4773
408.762	4702
408.839	4557
408.917	4672
408.994	6424
409.072	7159
409.149	7336
409.227	15228
409.304	16614
409.382	12013
409.459	13880
409.537	21775
409.614	17479
409.692	11592
409.769	13182
409.846	24839
409.924	31116
410.001	22529
410.079	13752
410.156	10805
410.233	9240
410.311	8115
410.388	7384
410.465	12846
410.543	12659
410.620	8097
410.697	10493
410.775	12620
410.852	7915
410.929	15710
411.006	18074
411.083	13747
411.161	34165
411.238	37865
411.315	20719
411.392	8756
411.469	16146
411.547	17298
411.624	10253
411.701	8665
411.778	11082
411.855	23147
411.932	13066
412.009	9079
412.086	8540
412.163	15696
412.240	17501
412.317	24829
412.394	18474
412.471	7101
412.548	6883
412.625	8463
412.702	16583
412.779	29016
412.856	15814
412.933	7095
413.010	6811
413.087	17845
413.164	68828
413.241	81441
413.318	21708
413.395	17765
413.471	23775
413.548	10736
413.625	8980
413.702	16383
413.779	11510
413.855	4668
413.932	4373
414.009	4971
414.086	4801
414.162	6230
414.239	17665
414.316	71135
414.393	119953
414.469	38617
414.546	6818
414.623	6438
414.699	7074
414.776	10073
414.853	6544
414.929	9312
415.006	10672
415.082	17387
415.159	10227
415.236	7148
415.312	8806
415.389	18366
415.465	23129
415.542	10990
415.618	9439
415.695	16217
415.771	11474
415.848	11713
415.924	12649
416.000	10324
416.077	6152
416.153	3580
416.230	2358
416.306	4441
416.383	6378
416.459	6505
416.535	4499
416.612	5164
416.688	5292
416.764	5619
416.841	5190
416.917	6996
416.993	7008
417.069	11671
417.146	13652
417.222	14130
417.298	9210
417.374	7774
417.451	9735
417.527	11996
417.603	12405
417.679	9398
417.755	8264
417.831	4837
417.908	4523
417.984	4247
418.060	5839
418.136	21153
418.212	24517
418.288	10316
418.364	6206
418.440	8802
418.516	15767
418.592	31940
418.668	41616
418.744	50075
418.820	31981
418.896	10354
418.972	4596
419.048	8888
419.124	22902
419.200	16744
419.276	4832
419.352	3377
419.428	5137
419.504	8644
419.579	10530
419.655	8333
419.731	10401
419.807	33848
419.883	52807
419.959	31839
420.034	12374
420.110	26541
420.186	82666
420.262	53746
420.337	15395
420.413	11932
420.489	6154
420.565	5848
420.640	6772
420.716	8537
420.792	5473
420.867	8040
420.943	7459
421.019	16765
421.094	11894
421.170	7480
421.245	5684
421.321	7684
421.397	7408
421.472	10406
421.548	19161
421.623	20080
421.699	11585
421.774	12958
421.850	11810
421.925	21196
422.001	18053
422.076	15608
422.152	19475
422.227	31559
422.302	32497
422.378	47335
422.453	89012
422.529	195294
422.604	425703
422.679	523016
422.755	420541
422.830	190677
422.905	81822
422.981	47368
423.056	31421
423.131	24352
423.207	19724
423.282	22720
423.357	35096
423.432	23653
423.508	25683
423.583	53047
423.658	33728
423.733	17630
423.808	20596
423.883	19380
423.959	16010
424.034	13426
424.109	10582
424.184	6605
424.259	5575
424.334	6882
424.409	4680
424.484	6790
424.559	9703
424.634	8381
424.709	12641
424.784	13170
424.859	9825
424.934	22007
425.009	67881
425.084	94747
425.159	32232
425.234	8357
425.309	4250
425.384	5157
425.459	4254
425.534	8610
425.609	12029
425.683	7810
425.758	6521
425.833	10239
425.908	13086
425.983	45166
426.058	101952
426.132	42551
426.207	17108
426.282	30853
426.357	24380
426.431	8333
426.506	8683
426.581	11906
426.655	8188
426.730	7092
426.805	6800
426.879	8848
426.954	10366
427.029	24307
427.103	93396
427.178	179216
427.253	70781
427.327	15570
427.402	25812
427.476	37018
427.551	13645
427.625	16531
427.700	13156
427.774	10799
427.849	14231
427.923	8949
427.998	7364
428.072	13527
428.147	29045
428.221	81240
428.296	166174
428.370	73669
428.444	22833
428.519	39698
428.593	69299
428.667	56021
428.742	70883
428.816	59198
428.890	145407
428.965	164360
429.039	75785
429.113	77615
429.188	23876
429.262	10165
429.336	21207
429.410	54372
429.485	38769
429.559	60807
429.633	36868
429.707	13712
429.781	44663
429.855	184564
429.930	226354
430.004	161330
430.078	232208
430.152	162838
430.226	188637
430.300	162166
430.374	31426
430.448	22049
430.522	82507
430.596	186815
430.670	97744
430.744	189314
430.818	230593
430.892	50424
430.966	13153
431.040	8316
431.114	6379
431.188	6968
431.262	7799
431.336	10689
431.410	39031
431.484	84560
431.557	38419
431.631	8369
431.705	8299
431.779	35230
431.853	133644
431.927	82196
432.000	13845
432.074	9280
432.148	17730
432.222	13493
432.295	6212
432.369	7673
432.443	18797
432.516	91038
432.590	174194
432.664	63843
432.737	11828
432.811	4769
432.885	2734
432.958	3976
433.032	3774
433.106	3675
433.179	2849
433.253	3934
433.326	3870
433.400	3983
433.473	4266
433.547	3393
433.620	5884
433.694	14382
433.767	13209
433.841	6536
433.914	2257
433.988	3621
434.061	4935
434.134	5956
434.208	3496
434.281	3688
434.355	3327
434.428	4765
434.501	3280
434.575	5910
434.648	6368
434.721	3565
434.795	2714
434.868	2470
434.941	3136
435.014	2764
435.088	3503
435.161	5807
435.234	12036
435.307	15734
435.381	8721
435.454	8116
435.527	10908
435.600	11884
435.673	8346
435.746	6175
435.819	5334
435.892	4731
435.966	4480
436.039	6723
436.112	5827
436.185	3573
436.258	2444
436.331	2703
436.404	2525
436.477	3540
436.550	2174
436.623	4342
436.696	3840
436.769	5799
436.842	5501
436.915	9689
436.987	12295
437.060	5528
437.133	3007
437.206	4453
437.279	5133
437.352	3331
437.425	4177
437.498	7405
437.570	17716
437.643	14129
437.716	4287
437.789	4475
437.861	17686
437.934	39590
438.007	14179
438.080	4602
438.152	5854
438.225	16013
438.298	95695
438.370	213283
438.443	91826
438.516	30843
438.588	8259
438.661	4589
438.734	5235
438.806	8722
438.879	9396
438.951	13354
439.024	20803
439.096	7858
439.169	4310
439.241	3230
439.314	5785
439.386	15815
439.459	22202
439.531	28447
439.604	9081
439.676	3792
439.749	3233
439.821	3080
439.893	3418
439.966	5793
440.038	9482
440.110	8530
440.183	5335
440.255	5243
440.327	11101
440.400	58895
440.472	167952
440.544	90479
440.617	18362
440.689	16492
440.761	25063
440.833	34431
440.905	17858
440.978	5311
441.050	3737
441.122	4126
441.194	4025
441.266	4598
441.338	4031
441.411	12739
441.483	65301
441.555	79304
441.627	21717
441.699	23608
441.771	19555
441.843	6801
441.915	3986
441.987	4670
442.059	4606
442.131	11668
442.203	17324
442.275	20206
442.347	14385
442.419	18429
442.491	80201
442.563	180086
442.635	89285
442.706	80188
442.778	45369
442.850	10537
442.922	6440
442.994	13712
443.066	18742
443.137	13273
443.209	9241
443.281	14435
443.353	34960
443.425	106418
443.496	296563
443.568	280389
443.640	105160
443.711	26004
443.783	13227
443.855	9178
443.926	6258
443.998	11585
444.070	15196
444.141	13327
444.213	15897
444.285	18381
444.356	19434
444.428	15898
444.499	6991
444.571	4931
444.642	5004
444.714	8045
444.785	15242
444.857	29191
444.928	59714
445.000	29617
445.071	44883
445.143	39037
445.214	20961
445.285	47219
445.357	111337
445.428	217824
445.500	420937
445.571	292928
445.642	154009
445.714	93553
445.785	79583
445.856	23773
445.928	21240
445.999	18691
446.070	14037
446.141	15505
446.213	19433
446.284	12568
446.355	17002
446.426	10191
446.497	10272
446.569	23445
446.640	25813
446.711	15193
446.782	7647
446.853	14792
446.924	12947
446.995	9541
447.066	13501
447.138	25383
447.209	9392
447.280	3214
447.351	3800
447.422	6010
447.493	11828
447.564	11886
447.635	13573
447.706	6059
447.777	3601
447.847	3553
447.918	5614
447.989	13710
448.060	19589
448.131	43439
448.202	29907
448.273	20879
448.344	8567
448.414	5467
448.485	5323
448.556	4092
448.627	3436
448.698	4042
448.768	3648
448.839	8953
448.910	23574
448.981	15672
449.051	6241
449.122	4994
449.193	3146
449.263	5379
449.334	4566
449.405	8464
449.475	19256
449.546	16399
449.616	27399
449.687	15845
449.758	6302
449.828	4518
449.899	3367
449.969	3830
450.040	4019
450.110	8939
450.181	8654
450.251	4255
450.322	4111
450.392	6423
450.463	4591
450.533	4906
450.604	5221
450.674	4858
450.744	5273
450.815	6068
450.885	4665
450.955	4584
451.026	4282
451.096	6487
451.166	10290
451.237	34537
451.307	60658
451.377	17115
451.447	5411
451.518	5294
451.588	4732
451.658	6194
451.728	18099
451.799	71308
451.869	55425
451.939	11841
452.009	4453
452.079	4507
452.149	6307
452.219	23899
452.289	74908
452.360	37143
452.430	8112
452.500	8487
452.570	10517
452.640	18902
452.710	59537
452.780	68653
452.850	38908
452.920	31691
452.990	12009
453.060	9466
453.129	13962
453.199	20179
453.269	70092
453.339	111097
453.409	152150
453.479	198970
453.549	276664
453.619	286138
453.688	84755
453.758	17018
453.828	7672
453.898	7574
453.968	6122
454.037	6427
454.087	6159
454.107	5994
454.168	4244
454.177	3923
454.247	4716
454.249	4787
454.316	5433
454.330	7008
454.386	12584
454.411	25619
454.456	45046
454.492	44713
454.525	44278
454.574	21082
454.595	11285
454.655	6991
454.665	6506
454.734	12615
454.736	13258
454.804	29491
454.817	39717
454.873	74297
454.898	70325
454.943	60417
454.979	39427
455.013	22164
455.060	14649
455.082	13388
455.141	22428
455.152	23004
455.221	61445
455.222	62264
455.291	76581
455.303	68082
455.360	31344
455.384	31399
455.430	34837
455.465	41219
455.499	44177
455.546	64894
455.569	70697
455.627	35127
455.638	29447
455.707	9537
455.708	9597
455.777	9002
455.789	8970
455.846	8418
455.869	7988
455.916	7373
455.950	8648
455.985	9296
456.031	8752
456.054	8354
456.112	6947
456.124	6863
456.193	7951
456.193	7874
456.262	12534
456.274	13360
456.332	15569
456.355	16378
456.401	15910
456.436	12293
456.470	9032
456.516	7046
456.540	6432
456.597	5857
456.609	5688
456.678	6598
456.678	6555
456.747	5875
456.759	6072
456.817	6865
456.840	6527
456.886	5931
456.920	6206
456.955	6779
457.001	7929
457.024	9190
457.082	13673
457.093	14242
457.162	18679
457.163	18798
457.232	21622
457.243	20457
457.301	12302
457.324	10183
457.370	8608
457.405	8418
457.439	8525
457.485	8838
457.508	9059
457.566	10845
457.577	11186
457.646	13270
457.647	13359
457.715	23318
457.727	25541
457.784	39982
457.808	48834
457.853	57779
457.889	64186
457.922	58819
457.969	39266
457.991	42494
458.050	59645
458.060	62475
458.129	97868
458.130	98949
458.198	83630
458.211	75043
458.267	40006
458.292	27232
458.336	21362
458.372	20658
458.405	29560
458.453	46015
458.474	60214
458.533	107556
458.543	110614
458.611	157526
458.614	158423
458.680	84657
458.694	65288
458.749	33149
458.775	23535
458.818	16832
458.855	15299
458.887	14709
458.936	14511
458.955	14374
459.016	14689
459.024	14735
459.093	15226
459.097	15282
459.162	17163
459.177	17883
459.230	19837
459.257	20706
459.299	20800
459.338	20631
459.368	20941
459.418	22724
459.437	21825
459.499	16339
459.505	16074
459.574	14296
459.579	14275
459.643	14051
459.659	14140
459.711	15226
459.740	15379
459.780	16670
459.820	18821
459.849	19550
459.900	20408
459.917	19845
459.981	18458
459.986	18297
460.054	14323
460.061	14079
460.123	15989
460.141	16849
460.191	20866
460.222	23065
460.260	24527
460.302	27787
460.328	25701
460.382	18089
460.397	17623
460.462	16350
460.465	16425
460.534	19616
460.543	20022
460.602	37911
460.623	44895
460.671	65125
460.703	80819
460.739	72517
460.783	58246
460.808	47867
460.864	19619
460.876	18633
460.944	17987
460.945	17954
461.013	18218
461.024	18028
461.081	18421
461.104	19173
461.150	18936
461.184	18296
461.218	18077
461.264	17335
461.286	17514
461.345	18959
461.355	19049
461.423	19550
461.425	19559
461.491	21632
461.505	22185
461.559	43779
461.585	54134
461.628	91786
461.665	128700
461.696	143712
461.745	173665
461.764	148825
461.825	40018
461.832	37627
461.901	25194
461.905	24810
461.969	23589
461.985	23359
462.037	21675
462.065	20485
462.105	25024
462.145	30163
462.173	46211
462.225	76858
462.241	85214
462.305	125425
462.310	121995
462.378	59471
462.385	51550
462.446	27588
462.465	22053
462.514	22140
462.545	22889
462.582	22526
462.625	21828
462.650	22012
462.705	22572
462.718	23832
462.785	30088
462.786	30397
462.854	48735
462.865	52055
462.922	65915
462.945	70984
462.990	49924
463.025	30839
463.058	26106
463.104	21382
463.126	21428
463.184	22600
463.194	22925
463.262	24612
463.264	24672
463.330	26084
463.344	26339
463.398	30158
463.424	31925
463.466	33170
463.504	34702
463.533	34476
463.583	33284
463.601	34578
463.663	39176
463.669	40262
463.737	53131
463.743	54314
463.805	87727
463.823	97167
463.873	150933
463.903	185845
463.940	199555
463.982	215087
464.008	170263
464.062	63409
464.076	56662
464.142	27190
464.144	27042
464.211	25389
464.221	25197
464.279	27726
464.301	28746
464.347	32944
464.381	35936
464.414	41756
464.461	49868
464.482	51656
464.540	57243
464.550	54315
464.617	30347
464.620	29515
464.685	32567
464.699	33339
464.753	34965
464.779	35606
464.820	36282
464.859	36867
464.888	40549
464.938	46772
464.956	48357
465.018	54647
465.023	53283
465.091	33077
465.098	30945
465.158	29396
465.177	29104
465.226	30990
465.257	32010
465.293	34846
465.336	38112
465.361	41631
465.416	49447
465.428	54757
465.495	83287
465.496	83909
465.563	160400
465.575	173770
465.631	212268
465.654	228270
465.698	136120
465.734	56152
465.765	44858
465.813	29860
465.833	29509
465.893	29455
465.900	29577
465.968	30287
465.972	30277
466.035	29564
466.052	29357
466.102	29376
466.131	29209
466.170	29783
466.210	30343
466.237	30468
466.290	30538
466.304	31228
466.369	34026
466.372	34199
466.439	37377
466.449	37769
466.506	42138
466.528	43726
466.573	67967
466.607	85991
466.641	142968
466.687	222006
466.708	247254
466.766	317008
466.775	291543
466.842	93499
466.845	83942
466.909	51124
466.925	43435
466.977	40890
467.004	39530
467.044	40206
467.083	40744
467.111	42347
467.163	45137
467.178	46060
467.242	49421
467.245	49497
467.312	48943
467.321	48769
467.379	53729
467.400	55362
467.446	64223
467.480	70403
467.559	60849
467.638	45664
467.717	47359
467.796	53886
467.875	61744
467.955	60646
468.034	95221
468.113	257798
468.192	382923
468.271	99275
468.350	54557
468.429	63469
468.508	66515
468.588	56093
468.667	53913
468.746	57063
468.825	55254
468.904	47261
468.983	59721
469.062	112582
469.141	141499
469.220	50832
469.299	44665
469.378	48226
469.456	43051
469.535	41765
469.614	45845
469.693	52953
469.772	78716
469.851	123036
469.930	83862
470.009	42178
470.088	40342
470.166	44192
470.245	55959
470.324	65276
470.403	49637
470.482	43428
470.560	39924
470.639	46726
470.718	53941
470.797	47016
470.875	59737
470.954	98491
471.033	112806
471.111	40509
471.190	34892
471.269	34846
471.347	36396
471.426	42612
471.505	48856
471.583	46397
471.662	39334
471.740	38850
471.819	37713
471.898	37904
471.976	36462
472.055	38608
472.133	47762
472.212	74253
472.290	86129
472.369	49617
472.447	36170
472.526	36238
472.604	36398
472.683	41884
472.761	45241
472.839	41396
472.918	40022
472.996	43976
473.075	55396
473.153	53044
473.231	43253
473.310	53653
473.388	54411
473.466	45864
473.545	45671
473.623	60980
473.701	62783
473.780	41369
473.858	40865
473.936	46871
474.014	41878
474.093	49405
474.171	86062
474.249	134195
474.327	89140
474.405	36850
474.484	35460
474.562	37560
474.640	39161
474.718	42489
474.796	42445
474.874	34786
474.952	30872
475.030	32645
475.108	34642
475.187	36135
475.265	41831
475.343	65493
475.421	75808
475.499	42282
475.577	42748
475.655	63708
475.733	154796
475.811	289322
475.889	263158
475.966	179205
476.044	48426
476.122	62380
476.200	76550
476.278	65668
476.356	46942
476.434	50535
476.512	61436
476.590	79523
476.667	70328
476.745	47016
476.823	47507
476.901	49721
476.979	54923
477.056	49651
477.134	51306
477.212	49395
477.290	47776
477.367	42406
477.445	43719
477.523	43290
477.601	44599
477.678	46573
477.756	62589
477.834	74722
477.911	47118
477.989	44342
478.066	48721
478.144	58563
478.222	62455
478.299	91387
478.377	84846
478.454	42964
478.532	41777
478.609	46089
478.687	47028
478.764	41844
478.842	43790
478.919	50584
478.997	48182
479.074	43514
479.152	58753
479.229	81418
479.307	55296
479.384	36640
479.461	37708
479.539	47255
479.616	59938
479.694	50227
479.771	54732
479.848	60277
479.926	87492
480.003	95782
480.080	43206
480.157	40275
480.235	40599
480.312	42191
480.389	55191
480.467	103205
480.544	135002
480.621	67260
480.698	58609
480.775	66982
480.853	71096
480.930	55226
481.007	55301
481.084	63737
481.161	68993
481.238	66001
481.315	50109
481.392	47125
481.470	50096
481.547	54037
481.624	49822
481.701	48772
481.778	53714
481.855	61005
481.932	98386
482.009	173145
482.086	129689
482.163	56140
482.240	71364
482.317	116721
482.393	96641
482.470	54548
482.547	56263
482.624	50075
482.701	53966
482.778	54435
482.855	42358
482.932	43364
483.009	43931
483.085	49088
483.162	59348
483.239	58648
483.316	47820
483.393	46950
483.469	47318
483.546	59613
483.623	67725
483.699	49405
483.776	51653
483.853	59020
483.930	81170
484.006	225182
484.083	388218
484.160	136280
484.236	90989
484.313	80674
484.389	74103
484.466	65374
484.543	64342
484.619	71856
484.696	78261
484.772	92432
484.849	105369
484.925	70983
485.002	63243
485.078	73130
485.155	77147
485.231	65899
485.308	64268
485.384	70163
485.461	96731
485.537	210345
485.614	277276
485.690	83129
485.766	64499
485.843	69062
485.919	103020
485.995	113210
486.072	60382
486.148	56683
486.224	57561
486.301	66485
486.377	87040
486.453	88118
486.530	70690
486.606	73734
486.682	86460
486.758	158103
486.835	216643
486.911	147612
486.987	269003
487.063	263434
487.139	273765
487.215	187275
487.292	83966
487.368	65862
487.444	81635
487.520	108290
487.596	104276
487.672	142849
487.748	401421
487.824	613903
487.900	212720
487.976	88643
488.052	92824
488.128	113315
488.204	93320
488.280	75322
488.356	91647
488.432	246561
488.508	423016
488.584	132582
488.660	64297
488.736	61375
488.812	66710
488.888	82092
488.964	109663
489.039	254711
489.115	412377
489.191	251562
489.267	74033
489.343	71058
489.418	53640
489.494	49045
489.570	49858
489.646	54776
489.722	56984
489.797	62323
489.873	112546
489.949	309230
490.024	285457
490.100	65351
490.176	55697
490.251	73735
490.327	96403
490.403	61211
490.478	48039
490.554	43645
490.629	44631
490.705	46271
490.781	50860
490.856	56391
490.932	63131
491.007	62247
491.083	59575
491.158	59692
491.234	85335
491.309	236790
491.385	274712
491.460	71761
491.536	70265
491.611	55754
491.686	62681
491.762	82189
491.837	177038
491.913	307958
491.988	436061
492.063	525888
492.139	196859
492.214	123850
492.289	46983
492.365	45222
492.440	57662
492.515	71978
492.590	68897
492.666	51191
492.741	77929
492.816	146591
492.891	80677
492.967	40845
493.042	39351
493.117	39724
493.192	39976
493.267	51438
493.342	96895
493.418	120432
493.493	46353
493.568	38331
493.643	41919
493.718	64214
493.793	117872
493.868	116601
493.943	65076
494.018	46613
494.093	47335
494.168	49235
494.243	37408
494.318	35765
494.393	36616
494.468	35766
494.543	36283
494.618	45172
494.693	42709
494.768	45517
494.842	45658
494.917	35749
494.992	38108
495.067	35192
495.142	34948
495.217	40000
495.292	42196
495.366	53879
495.441	73706
495.516	96414
495.591	117567
495.665	354375
495.740	861541
495.815	395423
495.890	88608
495.964	71064
496.039	67984
496.114	64134
496.188	67643
496.263	66822
496.338	66304
496.412	79198
496.487	91953
496.561	87652
496.636	88878
496.710	69978
496.785	81360
496.860	101776
496.934	72859
497.009	66279
497.083	62579
497.158	63930
497.232	83073
497.307	109395
497.381	78834
497.455	100220
497.530	150984
497.604	90531
497.679	86806
497.753	150172
497.827	200194
497.902	138098
497.976	146591
498.050	311153
498.125	1234020
498.199	1348406
498.273	233073
498.348	137457
498.422	106205
498.496	104936
498.570	102086
498.645	79725
498.719	85602
498.793	112833
498.867	197471
498.941	256094
499.016	528441
499.090	1457161
499.164	606360
499.238	90747
499.312	72427
499.386	89858
499.460	89604
499.534	83908
499.609	102134
499.683	175979
499.757	167309
499.831	252857
499.905	1008341
499.979	1049899
500.053	246964
500.127	234241
500.201	136052
500.275	91360
500.349	86771
500.422	97427
500.496	133857
500.570	253280
500.644	603925
500.718	1171818
500.792	328981
500.866	95426
500.940	136551
501.013	116850
501.087	101242
501.161	163031
501.235	226701
501.309	459021
501.382	1165308
501.456	1065189
501.530	271491
501.603	479978
501.677	215810
501.751	82692
501.825	91386
501.898	169984
501.972	540685
502.046	391925
502.119	108260
502.193	222363
502.266	592783
502.340	330715
502.413	260248
502.487	571845
502.561	382698
502.634	121159
502.708	73493
502.781	67944
502.855	56896
502.928	52229
503.002	54130
503.075	54872
503.149	63481
503.222	63224
503.295	73366
503.369	90983
503.442	117309
503.516	369948
503.589	1042092
503.662	755451
503.736	229255
503.809	490028
503.882	436377
503.956	515931
504.029	529024
504.102	302934
504.175	367552
504.249	146239
504.322	101875
504.395	96252
504.468	64312
504.542	69586
504.615	49799
504.688	44736
504.761	47733
504.834	62778
504.907	69077
504.980	109064
505.053	68830
505.127	77588
505.200	90352
505.273	110006
505.346	72686
505.419	51434
505.492	47567
505.565	40906
505.638	36947
505.711	42333
505.784	43244
505.857	41595
505.930	45778
506.003	46466
506.076	49084
506.149	73761
506.221	106898
506.294	76372
506.367	184196
506.440	658205
506.513	400402
506.586	110743
506.659	66937
506.731	46909
506.804	58297
506.877	87428
506.950	68611
507.022	45774
507.095	69964
507.168	93184
507.241	48062
507.313	37466
507.386	44865
507.459	60674
507.531	43466
507.604	37774
507.677	39088
507.749	32803
507.822	43369
507.894	69602
507.967	72444
508.040	42089
508.112	38805
508.185	42861
508.257	41599
508.330	64999
508.402	47919
508.475	46701
508.547	52041
508.620	51659
508.692	103567
508.765	61405
508.837	34319
508.909	33886
508.982	35122
509.054	41028
509.127	35923
509.199	33221
509.271	33425
509.344	30567
509.416	30910
509.488	33968
509.560	36148
509.633	35540
509.705	43696
509.777	43007
509.849	61569
509.922	46632
509.994	32363
510.066	33408
510.138	32763
510.210	43764
510.283	43735
510.355	41752
510.427	35761
510.499	36913
510.571	36648
510.643	38823
510.715	66020
510.787	65881
510.859	42944
510.931	59778
511.003	71760
511.076	65725
511.148	38832
511.219	40414
511.291	84601
511.363	122561
511.435	41354
511.507	31880
511.579	33417
511.651	33669
511.723	32924
511.795	33315
511.867	35562
511.939	51157
512.010	145762
512.082	125868
512.154	43289
512.226	38522
512.298	41500
512.369	63661
512.441	51558
512.513	54842
512.585	42744
512.656	44911
512.728	57255
512.800	39828
512.871	35293
512.943	35991
513.015	31325
513.086	36031
513.158	39983
513.230	42897
513.301	67037
513.373	78670
513.444	42960
513.516	33387
513.588	34914
513.659	40262
513.731	52299
513.802	48398
513.874	95037
513.945	190388
514.016	69507
514.088	39020
514.159	42468
514.231	55605
514.302	65956
514.374	44790
514.445	53419
514.516	151970
514.588	127694
514.659	59740
514.730	145813
514.802	101528
514.873	44135
514.944	41727
515.016	40962
515.087	55384
515.158	88469
515.229	148600
515.301	49595
515.372	39332
515.443	34016
515.514	31751
515.585	30270
515.656	31239
515.728	29529
515.799	31882
515.870	34259
515.941	37078
516.012	37179
516.083	40226
516.154	48261
516.225	70175
516.296	65988
516.367	55268
516.438	62520
516.509	80186
516.580	105063
516.651	274559
516.722	1011927
516.793	529176
516.864	135380
516.935	131027
517.006	134023
517.077	174526
517.148	338919
517.219	886323
517.289	1413645
517.360	783556
517.431	326425
517.502	82467
517.573	74380
517.643	68795
517.714	72064
517.785	73572
517.856	77197
517.926	87377
517.997	97344
518.068	115018
518.138	137940
518.209	178113
518.280	524932
518.350	1898531
518.421	793018
518.492	143608
518.562	104856
518.633	118352
518.703	112327
518.774	168508
518.845	396060
518.915	406599
518.986	159599
519.056	120496
519.127	178925
519.197	274336
519.268	684734
519.338	512576
519.408	133865
519.479	129737
519.549	100671
519.620	64573
519.690	53604
519.760	55737
519.831	59171
519.901	61711
519.971	49804
520.042	60670
520.112	79338
520.182	74742
520.253	79544
520.323	56616
520.393	54985
520.463	61286
520.534	59924
520.604	93142
520.674	72731
520.744	79241
520.814	103659
520.885	107409
520.955	194726
521.025	779191
521.095	366688
521.165	73410
521.235	69246
521.305	59034
521.375	49639
521.445	53447
521.515	69350
521.585	79371
521.655	83236
521.725	64986
521.795	61803
521.865	51878
521.935	92274
522.005	96640
522.075	52875
522.145	56457
522.215	70968
522.285	111881
522.355	146838
522.424	309708
522.494	289268
522.564	112742
522.634	147700
522.704	432166
522.774	194314
522.843	60974
522.913	56382
522.983	69985
523.053	57067
523.122	58036
523.192	70564
523.262	227080
523.331	250317
523.401	61546
523.471	42051
523.540	47035
523.610	38704
523.680	39789
523.749	43715
523.819	63128
523.888	75252
523.958	44248
524.027	47092
524.097	56816
524.166	48773
524.236	53564
524.305	54053
524.375	47404
524.444	44835
524.514	49799
524.583	53276
524.653	75404
524.722	86004
524.791	57621
524.861	50154
524.930	46470
524.999	49744
525.069	68730
525.138	67721
525.207	91560
525.277	58801
525.346	53502
525.415	49866
525.484	51419
525.554	70817
525.623	70546
525.692	54602
525.761	62756
525.830	63008
525.900	74531
525.969	110080
526.038	156140
526.107	250829
526.176	719415
526.245	624066
526.314	230125
526.383	398991
526.452	517880
526.522	779006
526.591	888410
526.660	325624
526.729	167234
526.797	153834
526.867	261059
526.935	1022007
527.004	1738430
527.073	978606
527.142	138804
527.211	73138
527.280	67017
527.349	71199
527.418	45107
527.487	45331
527.555	42082
527.624	40037
527.693	39387
527.762	41379
527.831	40288
527.899	41603
527.968	44118
528.037	45542
528.106	51431
528.174	90165
528.243	89692
528.312	119361
528.380	165807
528.449	62662
528.518	43100
528.586	34862
528.655	37095
528.723	37251
528.792	37557
528.861	45386
528.929	42845
528.998	38565
529.066	34409
529.135	35543
529.203	34742
529.272	36664
529.340	37583
529.409	40435
529.477	41131
529.545	60143
529.614	68140
529.682	67122
529.751	93856
529.819	71743
529.887	61492
529.956	41821
530.024	44933
530.092	37396
530.161	42613
530.229	67958
530.297	47179
530.365	37248
530.434	34738
530.502	34803
530.570	35867
530.638	33541
530.707	39213
530.775	44600
530.843	38212
530.911	38502
530.979	36343
531.047	37407
531.115	39921
531.183	37692
531.252	38749
531.320	41154
531.388	39840
531.456	38228
531.524	37122
531.592	38907
531.660	42408
531.728	38786
531.796	37913
531.864	37880
531.932	41082
532.000	39801
532.067	43355
532.135	43490
532.203	48742
532.271	53564
532.339	75275
532.407	195904
532.475	132507
532.542	65806
532.610	67235
532.678	82690
532.746	267142
532.814	741864
532.881	232366
532.949	59860
533.017	47746
533.084	43900
533.152	42096
533.220	42291
533.287	48352
533.355	40559
533.423	39558
533.490	39193
533.558	40981
533.625	41613
533.693	43397
533.761	44338
533.828	48083
533.896	46091
533.963	72305
534.031	91552
534.098	131937
534.166	75958
534.233	43780
534.300	43430
534.368	46000
534.435	45903
534.503	44486
534.570	44597
534.637	49632
534.705	54154
534.772	60366
534.840	82912
534.907	311955
534.974	433394
535.041	84320
535.109	75706
535.176	49860
535.243	39944
535.310	42260
535.378	42403
535.445	37703
535.512	36562
535.579	40242
535.646	40416
535.714	40318
535.781	42700
535.848	43126
535.915	46724
535.982	44576
536.049	45066
536.116	46219
536.183	43607
536.250	45345
536.317	48003
536.384	51989
536.451	71893
536.518	77054
536.585	60520
536.652	70412
536.719	93401
536.786	82196
536.853	64236
536.920	88807
536.987	141683
537.053	121247
537.120	377908
537.187	370636
537.254	64227
537.321	49806
537.388	49349
537.454	44460
537.521	43471
537.588	41285
537.654	44740
537.721	46721
537.788	46881
537.855	42070
537.921	44349
537.988	45761
538.055	45632
538.121	44581
538.188	48106
538.254	63556
538.321	126461
538.388	87716
538.454	51936
538.521	46663
538.587	42914
538.654	42005
538.720	43235
538.787	42616
538.853	48366
538.920	63311
538.986	68778
539.053	57992
539.119	55003
539.185	52604
539.252	55795
539.318	83018
539.385	66355
539.451	56752
539.517	55637
539.583	61254
539.650	129544
539.716	347694
539.782	117759
539.849	52580
539.915	50353
539.981	50290
540.047	61271
540.114	56965
540.180	57033
540.246	55536
540.312	71216
540.378	127764
540.444	133529
540.510	126848
540.576	361725
540.643	141568
540.709	52120
540.775	50513
540.841	49414
540.907	66009
540.973	97694
541.039	73223
541.105	82025
541.171	54119
541.237	50264
541.303	51086
541.369	53898
541.435	65811
541.500	109298
541.566	81214
541.632	49412
541.698	44425
541.764	44478
541.830	44931
541.896	46034
541.961	48064
542.027	48806
542.093	47793
542.159	48909
542.224	54116
542.290	67365
542.356	106883
542.421	131594
542.487	66731
542.553	52911
542.618	65731
542.684	55802
542.750	54259
542.815	61690
542.881	101075
542.947	315239
543.012	254180
543.078	56608
543.143	49151
543.209	52099
543.274	53653
543.340	58250
543.405	120544
543.471	210620
543.536	63649
543.602	49974
543.667	51260
543.732	45835
543.798	46236
543.863	48323
543.928	43434
543.994	41725
544.059	44677
544.124	43148
544.190	44446
544.255	46540
544.320	48049
544.386	52319
544.451	65316
544.516	77704
544.581	75450
544.646	189706
544.712	326647
544.777	84332
544.842	71641
544.907	83040
544.972	69493
545.037	64159
545.102	70678
545.168	73169
545.233	74218
545.298	77030
545.363	90057
545.428	89496
545.493	127338
545.558	284047
545.623	142829
545.688	77972
545.753	68895
545.818	69228
545.883	70014
545.947	69328
546.012	79875
546.077	89291
546.142	74391
546.207	74733
546.272	87291
546.337	93142
546.401	78181
546.466	72803
546.531	74236
546.596	81659
546.661	80245
546.725	77141
546.790	74882
546.855	78995
546.919	80506
546.984	85287
547.049	95089
547.113	115773
547.178	107030
547.243	114840
547.307	127270
547.372	146390
547.436	167413
547.501	131742
547.565	132129
547.630	137363
547.695	142104
547.759	167430
547.823	156240
547.888	122701
547.952	122848
548.017	127645
548.081	142726
548.146	187206
548.210	175163
548.274	136695
548.339	130041
548.403	121392
548.468	115484
548.532	117302
548.596	120827
548.660	120888
548.725	133607
548.789	157553
548.853	166177
548.917	137125
548.982	176395
549.046	187901
549.110	121818
549.174	113940
549.238	121563
549.303	124774
549.367	130580
549.431	128500
549.495	121495
549.559	122849
549.623	134058
549.687	153808
549.751	183157
549.815	176112
549.879	169645
549.943	157764
550.007	170287
550.071	172255
550.135	176867
550.199	162531
550.263	150877
550.327	154077
550.391	200418
550.455	171251
550.519	160767
550.582	171158
550.646	208172
550.710	218127
550.774	186114
550.838	186918
550.901	194917
550.965	204706
551.029	214878
551.093	232308
551.156	276034
551.220	438649
551.284	535567
551.347	299116
551.411	437465
551.475	533459
551.538	224829
551.602	184379
551.666	173620
551.729	161747
551.793	159735
551.856	156893
551.920	151960
551.983	154445
552.047	153593
552.110	150043
552.174	152546
552.237	157591
552.301	147064
552.364	140589
552.428	141060
552.491	144554
552.554	145532
552.618	147508
552.681	152233
552.745	150405
552.808	174214
552.871	196707
552.934	163577
552.998	151775
553.061	159049
553.124	147215
553.187	140782
553.251	145076
553.314	149809
553.377	144803
553.440	154760
553.503	182658
553.567	207787
553.630	152505
553.693	147725
553.756	151148
553.819	143931
553.882	141437
553.945	140453
554.008	137303
554.071	138771
554.134	141234
554.197	135276
554.260	127937
554.323	135292
554.386	137750
554.449	141290
554.512	136453
554.575	133909
554.638	138620
554.701	135490
554.764	130582
554.827	128340
554.889	123680
554.952	117504
555.015	118162
555.078	119581
555.141	120404
555.203	116800
555.266	116499
555.329	120003
555.391	113711
555.454	116576
555.517	115948
555.580	111221
555.642	103417
555.705	104148
555.768	105825
555.830	104063
555.893	99036
555.955	98147
556.018	99665
556.080	101927
556.143	99186
556.206	101904
556.268	106811
556.330	106788
556.393	101417
556.455	102381
556.518	141497
556.580	155708
556.643	95809
556.705	91151
556.767	90574
556.830	95529
556.892	95654
556.955	127868
557.017	108928
557.079	92484
557.142	88649
557.204	95696
557.266	149263
557.328	140172
557.391	87933
557.453	81227
557.515	82360
557.577	93517
557.639	99529
557.701	83142
557.764	81546
557.826	86764
557.888	94522
557.950	95347
558.012	96443
558.074	112612
558.136	214671
558.198	507552
558.260	214130
558.322	107324
558.384	103194
558.446	112798
558.508	124730
558.570	152194
558.632	208768
558.694	294161
558.756	276666
558.818	705630
558.880	1698131
558.942	627450
559.003	538633
559.065	285182
559.127	131944
559.189	128361
559.251	138875
559.312	172475
559.374	365486
559.436	1203544
559.498	644251
559.559	153413
559.621	129777
559.683	145145
559.744	228191
559.806	641750
559.868	948941
559.929	238620
559.991	155025
560.052	202171
560.114	494143
560.176	339974
560.237	292197
560.299	483134
560.360	146498
560.422	91999
560.483	85567
560.545	81454
560.606	81756
560.667	78227
560.729	77532
560.790	75425
560.852	75511
560.913	76215
560.974	73322
561.036	73316
561.097	74389
561.158	75307
561.220	75121
561.281	75963
561.342	77094
561.403	82950
561.465	94522
561.526	174499
561.587	239469
561.648	98749
561.709	74583
561.771	74160
561.832	72732
561.893	71162
561.954	69276
562.015	70036
562.076	71257
562.137	70833
562.198	71125
562.259	69375
562.320	71022
562.381	75655
562.442	95923
562.503	87317
562.564	69384
562.625	67480
562.686	68076
562.747	75495
562.808	72812
562.869	72947
562.930	95308
562.991	92831
563.051	84179
563.112	77035
563.173	72912
563.234	72453
563.294	69723
563.355	69952
563.416	71626
563.477	69499
563.537	73446
563.598	78484
563.659	73978
563.720	75018
563.780	74947
563.841	76467
563.901	73762
563.962	71401
564.023	73658
564.083	74227
564.144	75129
564.204	75611
564.265	76358
564.325	89325
564.386	165971
564.446	172883
564.507	75864
564.567	70464
564.628	67637
564.688	68556
564.749	71246
564.809	80726
564.869	102611
564.930	75756
564.990	66080
565.050	65510
565.111	65196
565.171	63509
565.231	64461
565.292	63456
565.352	62530
565.412	64883
565.472	67155
565.532	68487
565.593	65162
565.653	62324
565.713	65257
565.773	69259
565.833	76532
565.893	90697
565.953	70243
566.013	65100
566.074	69643
566.134	93181
566.194	153886
566.254	161876
566.314	103573
566.374	72225
566.434	68941
566.494	68105
566.554	65096
566.614	64272
566.673	64862
566.733	68724
566.793	70714
566.853	72543
566.913	68808
566.973	70213
567.033	71755
567.092	75895
567.152	72359
567.212	72040
567.272	72453
567.331	78786
567.391	73731
567.451	76962
567.511	105605
567.570	118957
567.630	71741
567.690	65921
567.749	64402
567.809	64246
567.868	67346
567.928	71503
567.988	81520
568.047	75144
568.107	72475
568.166	76529
568.226	88661
568.285	107577
568.345	96495
568.404	83583
568.464	78781
568.523	75587
568.582	77807
568.642	82717
568.701	90516
568.761	107293
568.820	143844
568.879	144764
568.939	143178
568.998	109640
569.057	80182
569.116	73161
569.176	67584
569.235	63547
569.294	61941
569.353	62056
569.413	62369
569.472	67583
569.531	61322
569.590	59392
569.649	58507
569.708	56160
569.767	61271
569.827	74592
569.886	68167
569.945	57616
570.004	58826
570.063	60896
570.122	63512
570.181	68258
570.240	79858
570.299	80840
570.358	73725
570.417	61869
570.475	56075
570.534	59269
570.593	61283
570.652	63076
570.711	66285
570.770	61590
570.829	69537
570.887	61741
570.946	65945
571.005	57962
571.064	57112
571.122	62001
571.181	75004
571.240	63581
571.299	57517
571.357	62665
571.416	68101
571.475	75024
571.533	83693
571.592	62530
571.650	68954
571.709	59387
571.768	57762
571.826	56416
571.885	52619
571.943	53927
572.002	57235
572.060	60671
572.119	51658
572.177	51730
572.236	49448
572.294	50297
572.352	51410
572.411	49914
572.469	50829
572.528	48851
572.586	51067
572.644	55671
572.703	69213
572.761	59609
572.819	53457
572.877	50605
572.936	48087
572.994	48768
573.052	48991
573.110	51802
573.169	49959
573.227	46257
573.285	47570
573.343	47608
573.401	50400
573.459	47881
573.517	47670
573.576	48805
573.634	49447
573.692	52208
573.750	49317
573.808	49685
573.866	53122
573.924	71672
573.982	73657
574.040	53776
574.098	49837
574.155	47534
574.213	45179
574.271	45827
574.329	48143
574.387	45273
574.445	43312
574.503	43842
574.560	40781
574.618	41683
574.676	41828
574.734	42091
574.792	43223
574.849	41301
574.907	39331
574.965	39406
575.022	39419
575.080	40578
575.138	41049
575.195	44219
575.253	44209
575.311	47014
575.368	41964
575.426	40017
575.483	40698
575.541	41180
575.598	40438
575.656	45530
575.713	45198
575.771	41173
575.828	40953
575.886	42891
575.943	45051
576.001	48178
576.058	49043
576.115	50103
576.173	59791
576.230	68481
576.287	67505
576.345	56957
576.402	49666
576.459	49636
576.517	51534
576.574	57393
576.631	62134
576.688	53728
576.746	49567
576.803	48826
576.860	45484
576.917	45580
576.974	47119
577.031	45955
577.089	46956
577.146	48137
577.203	47865
577.260	48747
577.317	54001
577.374	62168
577.431	59036
577.488	50006
577.545	44455
577.602	44078
577.659	43902
577.716	42403
577.773	43224
577.830	42745
577.886	43009
577.943	41746
578.000	41487
578.057	47940
578.114	44967
578.171	41833
578.227	41940
578.284	42295
578.341	45951
578.398	44644
578.454	47549
578.511	56509
578.568	63545
578.625	55831
578.681	45214
578.738	41347
578.794	41146
578.851	41394
578.908	41415
578.964	45036
579.021	44397
579.077	42527
579.134	41755
579.190	41534
579.247	38441
579.303	41179
579.360	39696
579.416	39268
579.473	37713
579.529	37390
579.586	39869
579.642	40400
579.698	41321
579.755	43274
579.811	41106
579.867	39242
579.924	37398
579.980	38456
580.036	41288
580.093	40542
580.149	42377
580.205	43976
580.261	42372
580.317	45250
580.374	48172
580.430	57219
580.486	55079
580.542	47352
580.598	44357
580.619	43698
580.654	42614
580.692	42895
580.710	43131
580.765	41407
580.767	41410
580.823	42162
580.838	41867
580.879	41292
580.911	41348
580.935	41477
580.984	40127
580.991	40003
581.047	41922
581.057	41784
581.103	41423
581.130	42659
581.159	44070
581.203	43565
581.215	43498
581.270	44583
581.276	44452
581.326	43686
581.349	44005
581.382	44586
581.422	44345
581.438	44338
581.494	46852
581.494	46788
581.550	44810
581.567	44876
581.606	45090
581.640	44712
581.661	44566
581.713	43797
581.717	43786
581.773	42107
581.786	42552
581.829	44099
581.859	43810
581.885	43641
581.932	42842
581.940	42738
581.996	44714
582.004	44372
582.052	42630
582.077	41893
582.107	41143
582.150	42779
582.163	43276
582.219	43181
582.223	43128
582.274	42954
582.296	43489
582.330	44432
582.368	45558
582.386	46086
582.441	40963
582.441	40976
582.497	40598
582.514	40528
582.552	40681
582.587	40005
582.608	39532
582.659	40591
582.663	40698
582.719	39333
582.732	39215
582.774	38956
582.805	39997
582.830	40738
582.877	39429
582.885	39277
582.941	39210
582.950	39242
582.996	39297
583.023	39683
583.052	40192
583.095	39492
583.107	39284
583.162	40748
583.168	40811
583.218	41558
583.240	40786
583.273	39432
583.313	37808
583.328	37315
583.384	38082
583.385	38115
583.439	38692
583.458	38354
583.494	37882
583.531	36814
583.549	36260
583.603	37834
583.605	37873
583.660	36715
583.676	36674
583.715	36616
583.748	37382
583.770	38055
583.820	39187
583.825	39232
583.881	38809
583.893	38458
583.936	37455
583.965	37353
583.991	37185
584.038	36631
584.046	36543
584.101	37052
584.110	37089
584.156	36990
584.183	36831
584.211	36701
584.255	36094
584.266	35939
584.321	34368
584.328	34449
584.376	34723
584.400	34903
584.431	35311
584.472	35105
584.486	34929
584.541	35791
584.545	35756
584.596	34743
584.617	35020
584.651	35946
584.689	37507
584.706	37957
584.761	37579
584.762	37604
584.816	37663
584.834	37694
584.871	37789
584.906	38478
584.926	38797
584.978	37793
584.980	37729
585.035	40144
585.051	40934
585.090	43219
585.123	43847
585.145	44084
585.195	46631
585.200	46825
585.254	48601
585.267	49527
585.309	52760
585.340	55899
585.364	58167
585.412	60374
585.419	60702
585.473	66305
585.484	68270
585.528	78606
585.556	90721
585.583	110522
585.628	167128
585.637	184505
585.692	366186
585.700	400925
585.747	542391
585.772	437995
585.801	271946
585.845	111009
585.856	85750
585.910	58761
585.917	56801
585.965	50697
585.989	48032
586.019	45177
586.061	44147
586.074	43885
586.128	44342
586.133	44533
586.183	46706
586.205	47411
586.237	47972
586.277	48228
586.292	48067
586.346	46977
586.349	47012
586.401	46781
586.421	47308
586.455	48759
586.493	52427
586.509	55105
586.564	69746
586.565	70919
586.618	120546
586.637	118791
586.672	103110
586.709	70749
586.727	56853
586.781	51255
586.781	51162
586.835	45245
586.853	44213
586.889	42735
586.925	41387
586.944	40872
586.996	42566
586.998	42545
587.052	43371
587.068	43406
587.106	42796
587.140	42255
587.161	42168
587.212	43052
587.215	43038
587.269	44997
587.284	45115
587.323	44482
587.356	44281
587.377	44254
587.427	45265
587.431	45260
587.485	45188
587.499	45442
587.539	46064
587.571	46918
587.593	47179
587.643	47385
587.648	47393
587.702	49234
587.715	49780
587.755	50640
587.786	51249
587.810	51500
587.858	50981
587.864	50878
587.917	52611
587.930	53185
587.971	55657
588.001	58571
588.025	59965
588.073	58396
588.079	58243
588.133	60408
588.145	61340
588.187	64134
588.217	66435
588.241	68833
588.288	74624
588.295	75336
588.348	83319
588.360	85365
588.402	93068
588.431	99039
588.456	104039
588.503	116094
588.510	117783
588.564	135748
588.575	140128
588.617	158434
588.646	174027
588.671	190788
588.718	231277
588.725	240747
588.778	333746
588.789	359945
588.832	540652
588.861	692618
588.886	881673
588.932	1264081
588.939	1288273
588.993	1318265
589.004	1317565
589.047	1005102
589.075	734793
589.100	567866
589.147	325095
589.154	307498
589.207	231417
589.218	220091
589.261	205171
589.290	202105
589.314	207935
589.361	231663
589.368	240999
589.421	339664
589.433	368175
589.475	592372
589.504	781724
589.528	937612
589.576	1185676
589.582	1158006
589.635	789564
589.647	697108
589.689	401355
589.718	236629
589.742	190730
589.790	131216
589.795	127809
589.849	110207
589.861	109226
589.902	109536
589.932	103697
589.955	94234
590.004	70824
590.009	69141
590.062	62689
590.075	61444
590.115	58180
590.146	56130
590.168	54879
590.218	53538
590.222	53322
590.275	52450
590.289	52436
590.328	51833
590.360	51086
590.381	50312
590.431	48868
590.435	48662
590.488	48337
590.503	48396
590.541	47690
590.574	47253
590.594	46826
590.645	46075
590.647	45902
590.700	44959
590.716	44808
590.753	44754
590.787	45144
590.806	44845
590.859	44795
590.859	44657
590.912	43913
590.930	43840
590.965	44063
591.001	44804
591.018	44378
591.071	43148
591.072	43267
591.124	43074
591.143	43325
591.177	43677
591.214	44165
591.230	44266
591.283	45252
591.285	45424
591.336	45665
591.356	46038
591.389	45511
591.427	44745
591.442	44076
591.495	41986
591.498	42014
591.547	41770
591.569	41713
591.600	41501
591.640	41775
591.653	41837
591.706	42555
591.711	42793
591.759	44168
591.782	45315
591.811	46819
591.853	49395
591.864	48549
591.917	43793
591.924	43361
591.969	43037
591.995	43322
592.022	43566
592.066	44335
592.075	44722
592.127	48083
592.137	49042
592.180	52349
592.208	54366
592.233	50898
592.279	44247
592.285	43765
592.338	41985
592.350	41755
592.390	41298
592.421	41283
592.443	41536
592.491	42563
592.495	42401
592.548	42258
592.562	42375
592.600	41868
592.633	41730
592.653	41182
592.704	39962
592.705	40222
592.775	42141
592.846	41686
592.916	43287
592.987	44866
593.058	43070
593.128	40489
593.199	41725
593.270	40503
593.341	41437
593.411	42945
593.482	42572
593.553	42626
593.623	41819
593.694	43512
593.764	46016
593.835	43695
593.906	42652
593.976	43695
594.047	45524
594.117	51951
594.188	51778
594.258	44761
594.329	43488
594.399	45373
594.470	45748
594.540	45945
594.611	45696
594.681	46128
594.751	46567
594.822	49209
594.892	50372
594.963	52052
595.033	52395
595.103	53915
595.174	56558
595.244	68886
595.314	76978
595.384	57534
595.455	55416
595.525	56547
595.595	58059
595.665	59553
595.736	56725
595.806	58873
595.876	58275
595.946	58417
596.016	58147
596.087	61665
596.157	61209
596.227	60654
596.297	64306
596.367	68891
596.437	72680
596.507	80859
596.577	87974
596.647	72307
596.717	71144
596.787	73385
596.857	71827
596.927	71832
596.997	73794
597.067	72657
597.137	75493
597.207	75607
597.277	75166
597.347	73602
597.417	71812
597.487	72304
597.557	75468
597.626	75884
597.696	78758
597.766	85039
597.836	89127
597.906	74174
597.975	67434
598.045	68661
598.115	69643
598.185	74227
598.254	83251
598.324	88455
598.394	87450
598.464	87154
598.533	83889
598.603	78148
598.672	77517
598.742	78765
598.812	78559
598.881	79483
598.951	78713
599.020	78660
599.090	81216
599.159	82780
599.229	78258
599.299	75833
599.368	81235
599.437	78974
599.507	73279
599.576	74102
599.646	71857
599.715	72277
599.785	70896
599.854	72518
599.924	72507
599.993	70463
600.062	70542
600.132	70790
600.201	74975
600.270	85738
600.340	87577
600.409	84630
600.478	84488
600.547	86173
600.617	80979
600.686	67245
600.755	64596
600.824	62481
600.894	60561
600.963	58844
601.032	58232
601.101	57503
601.170	54675
601.239	55752
601.308	56408
601.378	55443
601.447	54434
601.516	54563
601.585	57398
601.654	59019
601.723	55952
601.792	56380
601.861	59017
601.930	61933
601.999	63612
602.068	59548
602.137	65135
602.206	64427
602.275	61971
602.343	68004
602.412	67304
602.481	62922
602.550	61745
602.619	63454
602.688	66145
602.756	64712
602.825	64141
602.894	66794
602.963	66400
603.032	68301
603.100	67131
603.169	68201
603.238	68445
603.307	68808
603.375	69146
603.444	70657
603.513	70210
603.581	72155
603.650	72832
603.719	70677
603.787	71687
603.856	73737
603.924	75987
603.993	78147
604.061	78787
604.130	81384
604.198	85585
604.267	84845
604.335	85363
604.404	86787
604.472	87596
604.541	88460
604.609	88799
604.678	88485
604.746	90260
604.815	93997
604.883	93017
604.951	95402
605.020	94824
605.088	98213
605.156	97233
605.225	98503
605.293	98964
605.361	98955
605.429	99984
605.498	104076
605.566	106186
605.634	109149
605.702	112718
605.771	116688
605.839	116291
605.907	112988
605.975	108781
606.043	106677
606.111	106064
606.180	107703
606.248	105614
606.316	106318
606.384	106888
606.452	112764
606.520	117569
606.588	114066
606.656	110111
606.724	108091
606.792	101287
606.860	93354
606.928	84343
606.996	82478
607.064	80233
607.132	82413
607.200	87096
607.267	89268
607.335	91802
607.403	93016
607.471	90315
607.539	87762
607.607	87080
607.674	78044
607.742	79295
607.810	80802
607.878	79203
607.946	80382
608.013	83625
608.081	86300
608.149	85375
608.216	88344
608.284	90219
608.352	90903
608.419	90626
608.487	97405
608.555	89009
608.622	89364
608.690	93948
608.757	102833
608.825	104639
608.893	104422
608.960	102353
609.028	101838
609.095	104528
609.163	94629
609.230	85801
609.298	78034
609.365	80393
609.432	87289
609.500	94377
609.567	107587
609.635	122859
609.702	127015
609.769	122791
609.837	98546
609.904	84956
609.971	87102
610.039	98672
610.106	133852
610.173	253785
610.241	558460
610.308	285921
610.375	111684
610.442	90188
610.509	85899
610.577	85114
610.644	87168
610.711	89931
610.778	91470
610.845	95628
610.912	100864
610.980	105699
611.047	105800
611.114	105062
611.181	99654
611.248	99142
611.315	106369
611.382	106763
611.449	110973
611.516	113102
611.583	111930
611.650	111855
611.717	114182
611.784	117163
611.851	121667
611.918	134540
611.984	157550
612.051	225360
612.118	462692
612.185	1090342
612.252	613688
612.319	175574
612.386	145853
612.452	134627
612.519	131560
612.586	135182
612.653	129947
612.719	130886
612.786	125827
612.853	116177
612.919	113095
612.986	115763
613.053	108359
613.120	100978
613.186	99058
613.253	99759
613.319	100642
613.386	101642
613.453	102667
613.519	107631
613.586	111324
613.652	120240
613.719	114320
613.785	110388
613.852	104437
613.918	101253
613.985	104752
614.051	109061
614.118	112484
614.184	108032
614.250	102411
614.317	104206
614.383	102995
614.449	103678
614.516	104168
614.582	105477
614.648	103587
614.715	102318
614.781	101780
614.847	101062
614.914	102972
614.980	98703
615.046	98200
615.112	100145
615.179	99681
615.245	101542
615.311	101395
615.377	104841
615.443	107786
615.509	105450
615.575	108701
615.642	107446
615.708	113208
615.774	118518
615.840	126993
615.906	139761
615.972	172748
616.038	268004
616.104	563167
616.170	1277806
616.236	966223
616.302	249137
616.368	191924
616.434	141405
616.500	132802
616.565	149125
616.631	183336
616.697	146346
616.763	157330
616.829	237968
616.895	414436
616.961	362303
617.026	155650
617.092	115684
617.158	110320
617.224	106249
617.289	100293
617.355	96993
617.421	98080
617.487	96451
617.552	91026
617.618	87998
617.684	89449
617.749	90706
617.815	86566
617.880	84860
617.946	85121
618.012	85995
618.077	88015
618.143	83014
618.208	86385
618.274	92888
618.339	93952
618.405	77725
618.470	78244
618.536	79876
618.601	81371
618.667	75483
618.732	71467
618.798	69831
618.863	70469
618.928	69616
618.994	72821
619.059	75766
619.124	85156
619.190	75016
619.255	70398
619.320	70649
619.386	69869
619.451	68803
619.516	67087
619.581	67519
619.647	68822
619.712	70101
619.777	66462
619.842	68132
619.907	69260
619.972	70040
620.038	70256
620.103	66825
620.168	65667
620.233	68468
620.298	66496
620.363	68071
620.428	69576
620.493	71775
620.558	71176
620.623	72595
620.688	72728
620.753	71215
620.818	72729
620.883	73393
620.948	72512
621.013	71930
621.078	73117
621.143	72424
621.207	76097
621.272	74978
621.337	74373
621.402	76364
621.467	83114
621.532	82871
621.596	78253
621.661	71700
621.726	70413
621.791	72476
621.855	73438
621.920	74505
621.985	76243
622.049	79201
622.114	77991
622.179	76155
622.243	79634
622.308	79787
622.373	83879
622.437	81389
622.502	76492
622.566	75842
622.631	75175
622.695	78129
622.760	77553
622.824	76299
622.889	78470
622.953	80058
623.018	97263
623.082	93046
623.147	80166
623.211	77879
623.276	79348
623.340	73734
623.404	71839
623.469	73841
623.533	73586
623.597	70744
623.662	71613
623.726	66222
623.790	64940
623.854	64177
623.919	65041
623.983	64547
624.047	65992
624.111	65861
624.176	67915
624.240	69804
624.304	73163
624.368	66555
624.432	66726
624.496	69356
624.560	73942
624.625	74980
624.689	71556
624.753	72970
624.817	69670
624.881	68325
624.945	62882
625.009	61941
625.073	63368
625.137	68380
625.201	74324
625.265	72950
625.329	65579
625.393	66825
625.456	67243
625.520	69306
625.584	73442
625.648	79726
625.712	97922
625.776	150206
625.839	155324
625.903	82033
625.967	63177
626.031	83356
626.095	108876
626.158	67202
626.222	51446
626.286	49145
626.349	48594
626.413	45105
626.477	48943
626.540	45900
626.604	45709
626.668	45240
626.731	44569
626.795	46817
626.858	46171
626.922	43703
626.986	45237
627.049	42823
627.113	45458
627.176	42320
627.240	42832
627.303	42585
627.366	42877
627.430	43638
627.493	43147
627.557	42693
627.620	43272
627.684	44025
627.747	44248
627.810	40551
627.874	39458
627.937	37312
628.000	41256
628.064	39279
628.127	34435
628.190	35754
628.253	35141
628.317	33852
628.380	33442
628.443	33284
628.506	33153
628.569	30919
628.632	29721
628.696	30279
628.759	30685
628.822	28382
628.885	28140
628.948	28732
629.011	29072
629.074	27300
629.137	27105
629.200	27179
629.263	29925
629.326	26068
629.389	26281
629.452	26453
629.515	26473
629.578	26550
629.641	28728
629.704	26467
629.767	27052
629.830	25047
629.892	25461
629.955	25583
630.018	28661
630.081	27378
630.144	32056
630.207	27359
630.269	27783
630.332	27319
630.395	26270
630.458	23832
630.520	24179
630.583	24733
630.646	23301
630.708	24323
630.771	22782
630.834	25540
630.896	23535
630.959	23991
631.021	24191
631.084	23676
631.146	25656
631.209	28503
631.272	24142
631.334	23685
631.397	23548
631.459	23143
631.522	24781
631.584	25028
631.646	27197
631.709	29055
631.771	32883
631.834	27887
631.896	25786
631.958	22819
632.021	24319
632.083	21972
632.145	23585
632.208	22891
632.270	22906
632.332	20903
632.395	21639
632.457	22717
632.519	21711
632.581	22366
632.643	20680
632.706	21783
632.768	20297
632.830	22035
632.892	21756
632.954	21986
633.016	23744
633.078	21386
633.141	21229
633.203	20644
633.265	21803
633.327	21544
633.389	21218
633.451	23810
633.513	25804
633.575	25466
633.637	26112
633.698	23194
633.760	22100
633.822	23425
633.884	23072
633.946	23127
634.008	23389
634.070	23950
634.132	24461
634.193	27105
634.255	27839
634.317	28469
634.379	29457
634.441	25568
634.502	24615
634.564	20910
634.626	20583
634.687	20869
634.749	20336
634.811	20059
634.873	19106
634.934	20662
634.996	20512
635.057	19420
635.119	19914
635.181	20135
635.242	21742
635.304	18583
635.365	22596
635.427	20180
635.488	20434
635.550	19938
635.611	20517
635.673	19200
635.734	22916
635.796	22197
635.857	24788
635.918	24313
635.980	27501
636.041	28506
636.102	30686
636.164	30768
636.225	30025
636.286	24670
636.348	24117
636.409	21630
636.470	20054
636.531	20259
636.593	20686
636.654	21461
636.715	17409
636.776	17104
636.838	17431
636.899	17528
636.960	17873
637.021	15694
637.082	16616
637.143	16630
637.204	15538
637.265	15351
637.326	17006
637.387	16804
637.448	16573
637.509	16611
637.570	16097
637.631	16536
637.692	14619
637.753	13773
637.814	16326
637.875	15224
637.936	16534
637.997	15639
638.058	15808
638.119	15898
638.179	15604
638.240	14259
638.301	14827
638.362	14491
638.423	15416
638.483	15623
638.544	13744
638.605	14213
638.666	12822
638.726	14540
638.787	14704
638.848	14281
638.908	13165
638.969	14067
639.030	13848
639.090	13032
639.151	13600
639.211	16737
639.272	19109
639.332	25673
639.393	17724
639.453	14612
639.514	15523
639.574	14325
639.635	13387
639.695	14887
639.756	12951
639.816	14730
639.877	16725
639.937	22775
639.997	27843
640.058	13832
640.118	12275
640.178	12937
640.239	13033
640.299	12723
640.359	12571
640.420	14143
640.480	15395
640.540	16153
640.600	15465
640.661	15143
640.721	14111
640.781	17137
640.841	11808
640.901	12351
640.961	13489
641.021	15002
641.082	15610
641.142	19387
641.202	15450
641.262	11074
641.322	13271
641.382	12021
641.442	12778
641.502	11754
641.562	12919
641.622	12456
641.682	13586
641.742	14590
641.802	13494
641.861	13102
641.921	13264
641.981	14832
642.041	14256
642.101	16932
642.161	11631
642.221	12118
642.280	11432
642.340	10966
642.400	11631
642.460	12224
642.519	11632
642.579	11102
642.639	12724
642.698	10303
642.758	13884
642.818	12415
642.877	11740
642.937	12824
642.997	15418
643.056	18415
643.116	12412
643.175	14202
643.235	12726
643.294	12880
643.354	13886
643.414	14988
643.473	18337
643.532	20164
643.592	26708
643.651	43889
643.711	76881
643.770	153602
643.830	377440
643.889	730867
643.948	158238
644.008	31759
644.067	21684
644.126	16257
644.186	15123
644.245	14158
644.304	11069
644.363	13445
644.423	10284
644.482	12310
644.541	13397
644.600	11406
644.659	16822
644.719	20094
644.778	29229
644.837	48210
644.896	101250
644.955	215312
645.014	64309
645.073	18192
645.132	14487
645.191	13106
645.250	13018
645.309	14361
645.368	14239
645.427	18485
645.486	28028
645.545	44460
645.604	15630
645.663	12360
645.722	12678
645.781	13591
645.840	15676
645.898	17762
645.957	26804
646.016	39393
646.075	73837
646.134	143958
646.192	393234
646.251	519497
646.310	71549
646.369	23698
646.427	18553
646.486	14427
646.545	13810
646.603	12896
646.662	11157
646.721	11679
646.779	10947
646.838	10817
646.896	15209
646.955	19440
647.014	29024
647.072	53479
647.131	140270
647.189	60888
647.248	13699
647.306	10575
647.365	10787
647.423	7072
647.481	10353
647.540	8606
647.598	8993
647.657	8676
647.715	9588
647.773	7628
647.832	8570
647.890	7523
647.948	7948
648.007	9137
648.065	7659
648.123	7650
648.181	10314
648.240	8523
648.298	7075
648.356	7688
648.414	9466
648.472	8452
648.531	9290
648.589	7463
648.647	8019
648.705	7613
648.763	9002
648.821	9169
648.879	8023
648.937	9945
648.995	11746
649.053	14969
649.111	22064
649.169	36147
649.227	61900
649.285	131087
649.343	358634
649.401	152788
649.459	39481
649.516	23968
649.574	12735
649.632	15634
649.690	16439
649.748	17115
649.806	21638
649.863	40213
649.921	100933
649.979	59937
650.037	12603
650.094	6560
650.152	8266
650.210	6567
650.268	7477
650.325	7636
650.383	7063
650.440	6311
650.498	7153
650.556	7503
650.613	6125
650.671	7050
650.728	7036
650.786	8180
650.843	8769
650.901	6067
650.958	6549
651.016	5956
651.073	6726
651.131	4972
651.188	5444
651.246	6661
651.303	5876
651.360	5469
651.418	6065
651.475	6068
651.532	4703
651.590	5716
651.647	5432
651.704	6124
651.762	5611
651.819	6228
651.876	5802
651.933	5689
651.990	6125
652.048	4135
652.105	5211
652.162	5675
652.219	4631
652.276	5253
652.333	5859
652.390	4655
652.448	5254
652.505	4577
652.562	4692
652.619	5497
652.676	5386
652.733	5594
652.790	5372
652.847	3077
652.904	5514
652.961	4257
653.017	4785
653.074	5660
653.131	5944
653.188	4400
653.245	5071
653.302	5113
653.359	4316
653.415	5074
653.472	4868
653.529	5442
653.586	3394
653.642	4994
653.699	5591
653.756	3988
653.813	4033
653.869	5331
653.926	4963
653.983	4296
654.039	4781
654.096	4659
654.152	5524
654.209	4849
654.266	5890
654.322	4524
654.379	6201
654.435	6917
654.492	6621
654.548	8785
654.605	12758
654.661	7567
654.717	5311
654.774	5814
654.830	5633
654.887	5486
654.943	5191
655.000	5880
655.056	5771
655.112	6320
655.168	5645
655.225	5905
655.281	7212
655.337	8122
655.394	13592
655.450	9342
655.506	7963
655.562	12860
655.618	12196
655.675	4951
655.731	5985
655.787	4756
655.843	5561
655.899	4184
655.955	5242
656.011	4570
656.067	4339
656.123	4935
656.179	5379
656.235	6538
656.291	4693
656.347	6973
656.403	5459
656.459	5808
656.515	6030
656.571	6285
656.627	5825
656.683	6374
656.739	5951
656.795	5390
656.850	6246
656.906	6870
656.962	6125
657.018	4552
657.074	5960
657.129	7265
657.185	8930
657.241	15531
657.297	9461
657.352	5659
657.408	5197
657.464	5739
657.519	6748
657.575	4806
657.630	5287
657.686	4895
657.742	4923
657.797	4658
657.853	4785
657.908	5812
657.964	4028
658.019	5451
658.075	4808
658.130	6719
658.186	3923
658.241	4964
658.297	4532
658.352	4760
658.407	4506
658.463	4185
658.518	5780
658.573	4493
658.629	4170
658.684	4588
658.739	5947
658.795	3573
658.850	4658
658.905	4375
658.960	4557
659.016	3921
659.071	4760
659.126	5353
659.181	4958
659.236	9178
659.291	9726
659.346	6397
659.401	5664
659.457	5048
659.512	4079
659.567	5633
659.622	4952
659.677	4667
659.732	4014
659.787	5637
659.842	5693
659.897	7752
659.952	6672
660.007	4589
660.061	4670
660.116	3954
660.171	4328
660.226	3757
660.281	5187
660.336	3934
660.391	5253
660.445	3906
660.500	5281
660.555	5357
660.610	4900
660.664	5716
660.719	4216
660.774	5747
660.828	5492
660.883	5204
660.938	5451
660.992	4163
661.047	5768
661.101	4580
661.156	4661
661.211	4016
661.265	4720
661.320	5624
661.374	5175
661.429	4313
661.483	4859
661.538	4358
661.592	4596
661.647	4773
661.701	5469
661.755	4794
661.810	5394
661.864	4201
661.919	5491
661.973	5437
662.027	4458
662.081	4274
662.136	5030
662.190	4911
662.244	5726
662.299	4897
662.353	5556
662.407	4998
662.461	5226
662.515	5307
662.569	5967
662.624	5911
662.678	5237
662.732	4465
662.786	6011
662.840	5698
662.894	5295
662.948	4546
663.002	5553
663.056	4926
663.110	3989
663.164	5181
663.218	5595
663.272	4595
663.326	6349
663.380	5623
663.434	6948
663.488	4627
663.542	5925
663.595	5558
663.649	5135
663.703	5367
663.757	6211
663.811	5215
663.864	5516
663.918	5686
663.972	5130
664.026	4959
664.079	5174
664.133	5757
664.187	5361
664.240	4595
664.294	4451
664.348	5616
664.401	4779
664.455	5294
664.508	4616
664.562	5216
664.615	5441
664.669	4186
664.722	5512
664.776	4754
664.829	5352
664.883	5152
664.936	5573
664.990	5606
665.043	6041
665.097	6099
665.150	8229
665.203	6685
665.257	5516
665.310	5939
665.363	6812
665.417	6491
665.470	6518
665.523	5651
665.576	6020
665.630	6139
665.683	6842
665.736	6249
665.789	5573
665.842	5964
665.895	6854
665.949	5911
666.002	6030
666.055	6250
666.108	7543
666.161	6426
666.214	6761
666.267	7072
666.320	7809
666.373	6416
666.426	6875
666.479	6942
666.532	7045
666.585	7773
666.638	8515
666.691	7899
666.744	8047
666.796	6883
666.849	7045
666.902	6405
666.955	5098
667.008	6260
667.060	5731
667.113	4686
667.166	5810
667.219	5738
667.271	5932
667.324	6330
667.377	5647
667.430	5429
667.482	6061
667.535	6191
667.587	7407
667.640	6261
667.693	8013
667.745	10698
667.798	11031
667.850	6738
667.903	7222
667.955	6288
668.008	6972
668.060	8140
668.113	8753
668.165	8247
668.218	8236
668.270	7614
668.322	7982
668.375	6603
668.427	7574
668.479	6200
668.532	7583
668.584	7341
668.636	7039
668.689	6724
668.741	6234
668.793	6744
668.845	6318
668.898	6757
668.950	6634
669.002	7445
669.054	7214
669.106	6751
669.158	7646
669.211	6912
669.263	6467
669.315	7577
669.367	6774
669.419	7397
669.471	7669
669.523	6499
669.575	6970
669.627	6678
669.679	6476
669.731	6341
669.783	7169
669.835	6647
669.886	6557
669.938	7503
669.990	6286
670.042	6105
670.094	6704
670.146	6149
670.197	7241
670.249	7913
670.301	8115
670.353	8474
670.404	10040
670.456	11751
670.508	16426
670.560	22262
670.611	36140
670.663	59153
670.715	144507
670.766	219185
670.818	60673
670.869	13901
670.921	10455
670.972	10235
671.024	8522
671.075	7506
671.127	8735
671.178	7276
671.230	7513
671.281	7017
671.333	7698
671.384	8699
671.436	10214
671.487	11799
671.538	13191
671.590	19188
671.641	26150
671.692	43380
671.744	78339
671.795	46039
671.846	17091
671.897	12077
671.949	11068
672.000	8450
672.051	8864
672.102	8812
672.153	8447
672.204	7339
672.256	7196
672.307	8518
672.358	8555
672.409	8366
672.460	7618
672.511	7014
672.562	7695
672.613	7695
672.664	7572
672.715	8410
672.766	8465
672.817	7185
672.868	7685
672.919	7035
672.970	7255
673.021	7008
673.071	6855
673.122	7543
673.173	7053
673.224	7568
673.275	7091
673.326	6883
673.376	7142
673.427	6963
673.478	6348
673.528	6776
673.579	7224
673.630	6027
673.680	7681
673.731	6541
673.782	6460
673.832	7473
673.883	8494
673.934	6653
673.984	7013
674.035	7344
674.085	7204
674.136	7569
674.186	8540
674.237	8528
674.287	12663
674.338	9311
674.388	7214
674.438	7678
674.489	7492
674.539	7798
674.589	8313
674.640	7610
674.690	7885
674.740	8003
674.791	9779
674.841	8457
674.891	8259
674.942	7614
674.992	7891
675.042	7077
675.092	6720
675.142	6610
675.193	7469
675.243	6716
675.293	8248
675.343	7938
675.393	7014
675.443	8189
675.493	6206
675.543	6441
675.593	8195
675.643	7058
675.693	7437
675.743	6840
675.793	7141
675.843	5842
675.893	7859
675.943	6288
675.993	6552
676.043	6621
676.093	6852
676.142	5404
676.192	6698
676.242	7185
676.292	6008
676.341	7374
676.391	8556
676.441	6117
676.491	6712
676.540	6511
676.590	6850
676.640	6635
676.689	6766
676.739	5782
676.789	6410
676.838	5529
676.888	5949
676.937	6447
676.987	6357
677.037	5761
677.086	6176
677.136	5896
677.185	6312
677.235	5418
677.284	6273
677.333	5235
677.383	5304
677.432	6290
677.482	5665
677.531	6399
677.580	5912
677.630	5525
677.679	4905
677.728	5629
677.778	5271
677.827	5242
677.876	5785
677.925	5747
677.975	5575
678.024	5431
678.073	5164
678.122	6276
678.171	6633
678.220	6971
678.269	8083
678.319	7536
678.368	7735
678.417	6345
678.466	7878
678.515	8319
678.564	8224
678.613	6803
678.662	6672
678.711	6978
678.760	6174
678.809	6851
678.857	6776
678.906	6565
678.955	6444
679.004	6662
679.053	6603
679.102	6322
679.151	7063
679.199	6475
679.248	5958
679.297	6035
679.346	6573
679.394	6041
679.443	6614
679.492	5732
679.540	6678
679.589	6644
679.638	7583
679.686	5523
679.735	5981
679.784	6612
679.832	7235
679.881	5617
679.929	5138
679.978	5367
680.026	5985
680.075	6290
680.123	5490
680.172	5438
680.220	4667
680.268	5582
680.317	4998
680.365	5502
680.414	5756
680.462	5423
680.510	6005
680.559	5027
680.607	5497
680.655	4784
680.703	6167
680.752	5235
680.800	4605
680.848	4597
680.896	4920
680.945	5114
680.993	5766
681.041	5522
681.089	5816
681.137	5042
681.185	5033
681.233	5113
681.258	5263
681.281	5394
681.329	5864
681.377	4889
681.380	4945
681.425	5783
681.473	6301
681.502	6004
681.521	5772
681.569	6028
681.617	5611
681.624	5649
681.665	5822
681.713	6396
681.745	5751
681.761	5429
681.809	5910
681.857	5609
681.867	5571
681.904	5388
681.952	5984
681.989	5872
682.000	5824
682.048	5758
682.096	5550
682.111	5576
682.143	5567
682.191	5202
682.233	6680
682.239	6894
682.286	5466
682.334	5151
682.354	5032
682.382	4865
682.430	6472
682.476	5777
682.477	5751
682.525	4763
682.572	5293
682.598	5500
682.620	5682
682.667	5246
682.715	5777
682.720	5785
682.763	5768
682.810	5952
682.841	5766
682.857	5634
682.905	4682
682.952	5389
682.963	5591
683.000	6282
683.047	5242
683.085	6477
683.095	6801
683.142	5705
683.190	5489
683.206	5413
683.237	5217
683.284	6516
683.328	5006
683.332	4875
683.379	5740
683.426	5644
683.449	5246
683.473	4823
683.521	5929
683.568	5744
683.571	5723
683.615	5266
683.662	5538
683.693	5356
683.709	5266
683.757	5339
683.804	5736
683.814	5721
683.851	5598
683.898	5636
683.936	5287
683.945	5188
683.992	5286
684.039	5747
684.057	5878
684.086	6127
684.133	6087
684.179	5788
684.180	5764
684.227	5948
684.274	5961
684.300	5884
684.321	5812
684.368	5764
684.415	5343
684.422	5322
684.462	5159
684.509	6140
684.543	5440
684.556	5184
684.603	5390
684.649	5014
684.665	5360
684.696	6104
684.743	5434
684.786	6283
684.790	6351
684.837	6267
684.883	6415
684.908	6880
684.930	7212
684.977	8034
685.023	6309
685.029	6360
685.070	6735
685.117	6083
685.150	6743
685.164	7012
685.210	6940
685.257	7343
685.272	7449
685.303	7651
685.350	6498
685.393	6492
685.396	6493
685.443	7307
685.490	7011
685.514	7544
685.536	7857
685.583	7320
685.629	7236
685.636	7097
685.675	6380
685.722	7294
685.757	7354
685.768	7345
685.815	7189
685.861	6856
685.878	6870
685.908	7036
685.954	7073
686.000	7966
686.000	7978
686.047	8034
686.093	8685
686.121	8549
686.139	8287
686.185	8096
686.232	7239
686.242	7259
686.278	7282
686.324	6914
686.363	6684
686.370	6680
686.416	6231
686.463	7023
686.484	7068
686.509	7118
686.555	6604
686.601	6799
686.606	6854
686.647	7195
686.693	7156
686.727	6618
686.739	6501
686.785	6295
686.831	6673
686.848	6773
686.877	6728
686.923	6440
686.969	6135
686.969	6134
687.015	7065
687.061	6473
687.090	7026
687.107	7315
687.153	6968
687.199	6989
687.211	6849
687.245	6518
687.291	7136
687.332	7497
687.336	7526
687.382	7573
687.428	7019
687.453	7117
687.474	7118
687.520	6777
687.565	6590
687.574	6563
687.611	6705
687.657	7023
687.695	6958
687.702	6958
687.748	7367
687.794	7889
687.816	7809
687.839	7530
687.885	6971
687.931	6640
687.937	6669
687.976	7075
688.022	6931
688.058	6829
688.067	6802
688.113	7600
688.158	7275
688.179	7056
688.204	6864
688.249	6874
688.295	7516
688.300	7635
688.340	8262
688.386	7729
688.421	7324
688.431	7248
688.477	6693
688.522	7058
688.542	7252
688.567	7559
688.613	7677
688.658	6704
688.663	6757
688.703	7037
688.749	7498
688.784	7510
688.794	7555
688.839	7253
688.884	7366
688.905	7201
688.930	6958
688.975	7191
689.020	7709
689.026	7676
689.065	7342
689.110	7123
689.146	6765
689.155	6733
689.201	6539
689.246	6859
689.267	6936
689.291	7169
689.336	7799
689.381	8009
689.388	8042
689.426	7678
689.471	7180
689.509	6797
689.516	6796
689.561	7041
689.606	7062
689.630	7201
689.651	7351
689.696	6527
689.741	7449
689.750	7497
689.785	7791
689.830	7749
689.871	7492
689.875	7434
689.920	7582
689.965	7338
689.992	7340
690.010	7414
690.054	7048
690.099	7391
690.112	7178
690.144	6874
690.189	7322
690.233	7257
690.233	7264
690.278	7564
690.323	7457
690.354	7196
690.367	7140
690.412	7545
690.457	7391
690.474	7265
690.501	6989
690.546	7415
690.590	6852
690.595	6845
690.635	6892
690.680	6834
690.716	6718
690.724	6756
690.769	7465
690.813	7467
690.836	7532
690.857	7552
690.902	7572
690.946	7705
690.957	7734
690.991	8038
691.035	8385
691.077	9130
691.080	9168
691.124	9136
691.168	8983
691.198	9014
691.213	8924
691.257	8768
691.301	8127
691.318	7872
691.346	7649
691.390	7757
691.434	7548
691.439	7545
691.478	7817
691.522	8172
691.559	8199
691.567	8199
691.611	8227
691.655	8311
691.680	8211
691.699	8129
691.743	8192
691.787	8358
691.800	8375
691.831	8505
691.875	8128
691.919	8463
691.921	8453
691.964	8543
692.008	8881
692.041	8630
692.052	8577
692.096	8511
692.139	8907
692.162	8947
692.183	8885
692.227	8670
692.271	8513
692.282	8446
692.315	8424
692.359	8177
692.402	8462
692.403	8479
692.447	8487
692.490	8666
692.523	9114
692.534	9231
692.578	9339
692.622	8809
692.643	8876
692.666	8844
692.709	8389
692.753	8312
692.763	8252
692.797	8262
692.840	7836
692.884	7900
692.884	7916
692.928	8092
692.971	7952
693.004	8026
693.015	8080
693.059	8265
693.102	8535
693.124	8441
693.146	8358
693.189	8365
693.233	8607
693.245	8650
693.276	8973
693.320	8911
693.363	9127
693.365	9130
693.407	9256
693.450	9130
693.485	8721
693.493	8728
693.537	9134
693.580	9257
693.605	9384
693.624	9373
693.667	9390
693.710	9280
693.725	9301
693.753	10118
693.797	11265
693.840	12513
693.845	12611
693.883	11887
693.926	10837
693.966	10112
693.970	10095
694.013	9608
694.056	9319
694.086	8939
694.099	8904
694.142	9160
694.185	9209
694.206	9189
694.229	9323
694.272	9348
694.315	9747
694.326	9732
694.358	9849
694.401	10278
694.444	10489
694.446	10483
694.487	10341
694.530	10383
694.566	10195
694.573	10119
694.616	9395
694.659	8735
694.686	8388
694.702	8426
694.745	8385
694.787	8151
694.806	8190
694.830	8241
694.873	8190
694.916	8242
694.926	8164
694.959	8256
695.002	8554
695.044	8675
695.046	8675
695.087	8906
695.130	8770
695.166	8892
695.172	8967
695.215	8952
695.258	9038
695.286	9322
695.301	9398
695.343	9254
695.386	9389
695.406	9212
695.428	9043
695.471	8894
695.514	8900
695.526	8783
695.556	8907
695.599	9467
695.641	9751
695.646	9757
695.684	9748
695.726	9890
695.766	9947
695.769	9949
695.811	9596
695.854	9400
695.886	9074
695.896	9139
695.938	9208
695.981	9539
696.005	9679
696.023	9591
696.065	9182
696.108	9194
696.125	9012
696.150	9262
696.192	9905
696.235	10070
696.245	10202
696.277	10271
696.319	10105
696.361	10056
696.365	10021
696.404	9742
696.446	9387
696.485	9215
696.488	9274
696.530	9488
696.572	9934
696.604	10250
696.614	10245
696.656	9962
696.698	9789
696.724	9560
696.740	9560
696.783	9686
696.825	9700
696.844	9683
696.867	9677
696.909	9685
696.951	9655
696.964	9611
696.992	9650
697.034	9718
697.076	9844
697.083	9837
697.118	9831
697.160	9641
697.202	9650
697.203	9625
697.244	9690
697.286	9688
697.323	9573
697.327	9609
697.369	9799
697.411	9984
697.442	10133
697.453	10238
697.494	10519
697.536	10878
697.562	11031
697.578	11125
697.620	11279
697.661	11433
697.682	11474
697.703	11518
697.744	11608
697.786	11763
697.801	11745
697.828	11770
697.869	11792
697.911	11762
697.921	11740
697.952	11369
697.994	10889
698.035	10346
698.040	10248
698.077	10169
698.118	10104
698.160	10056
698.160	10030
698.201	10128
698.243	10179
698.279	10277
698.284	10297
698.325	10162
698.367	10104
698.399	9943
698.408	9987
698.449	10144
698.491	10295
698.518	10357
698.532	10504
698.573	10886
698.614	11277
698.638	11462
698.656	11503
698.697	11543
698.738	11567
698.757	11556
698.779	11393
698.820	11014
698.862	10634
698.877	10468
698.903	10809
698.944	11312
698.985	11817
698.996	11928
699.026	11671
699.067	11279
699.116	10786
699.235	11112
699.354	10581
699.474	10352
699.593	11452
699.713	12103
699.832	11620
699.951	11880
700.070	11420
700.190	10517
700.309	10760
700.428	11490
700.547	11029
700.667	10967
700.786	11619
700.905	11000
701.024	11684
701.143	9846
701.262	9992
701.381	10383
701.500	10963
701.619	11532
701.738	9453
701.857	9502
701.976	9255
702.095	10019
702.214	11622
702.333	11177
702.452	11088
702.571	9551
702.690	9395
702.809	9226
702.928	10232
703.047	9817
703.165	10202
703.284	9084
703.403	9905
703.522	9954
703.640	10701
703.759	12426
703.878	13872
703.997	9576
704.115	9463
704.234	10023
704.353	8710
704.471	8548
704.590	8243
704.708	8899
704.827	8098
704.946	9463
705.064	9697
705.183	9450
705.301	11730
705.420	15767
705.538	12577
705.656	10777
705.775	11094
705.893	13055
706.012	13818
706.130	12479
706.249	11787
706.367	12930
706.485	12960
706.604	11284
706.722	11847
706.840	15012
706.958	13178
707.077	10882
707.195	10858
707.313	11438
707.431	11046
707.549	10409
707.668	10528
707.786	11541
707.904	10795
708.022	10997
708.140	10623
708.258	9800
708.376	10983
708.494	10939
708.612	13831
708.730	17582
708.848	15678
708.966	14821
709.084	14571
709.202	14278
709.320	13383
709.438	14001
709.556	14512
709.674	13740
709.791	14054
709.909	12599
710.027	13100
710.145	13536
710.263	13396
710.380	13028
710.498	12426
710.616	12182
710.733	13622
710.851	13554
710.969	12734
711.086	13289
711.204	13421
711.322	12414
711.439	12887
711.557	12363
711.674	11537
711.792	11719
711.909	12760
712.027	11107
712.144	12102
712.262	11832
712.379	15037
712.497	21268
712.614	19292
712.732	16009
712.849	15367
712.966	17269
713.084	20050
713.201	17031
713.318	16046
713.436	16627
713.553	16684
713.670	17362
713.787	19149
713.905	17393
714.022	15628
714.139	16465
714.256	17823
714.373	23301
714.490	35797
714.608	88223
714.725	350653
714.842	299007
714.959	27720
715.076	17055
715.193	15582
715.310	14985
715.427	14653
715.544	13616
715.661	14289
715.778	15041
715.895	15213
716.011	16392
716.128	13351
716.245	13927
716.362	16920
716.479	15274
716.596	14386
716.713	13583
716.829	12936
716.946	12674
717.063	12066
717.180	12217
717.296	12540
717.413	12545
717.530	13891
717.646	12369
717.763	12217
717.880	12140
717.996	12310
718.113	11833
718.229	12502
718.346	11183
718.462	11783
718.579	13964
718.695	22766
718.812	17137
718.928	15952
719.045	11346
719.161	11241
719.277	11320
719.394	11594
719.510	11601
719.626	12931
719.743	15254
719.859	17956
719.975	29758
720.092	108992
720.208	212494
720.324	26010
720.440	13304
720.557	13471
720.673	19597
720.789	25654
720.905	39830
721.021	14982
721.137	11023
721.253	10839
721.369	10727
721.486	13730
721.602	15237
721.718	10744
721.834	9717
721.950	11204
722.066	9265
722.181	8981
722.297	10197
722.413	9987
722.529	9400
722.645	9158
722.761	9915
722.877	8862
722.993	9677
723.108	11305
723.224	9596
723.340	9560
723.456	8706
723.571	8201
723.687	8830
723.803	8565
723.918	8350
724.034	8189
724.150	8881
724.265	10267
724.381	19740
724.497	17093
724.612	8596
724.728	7704
724.843	8096
724.959	9696
725.074	19030
725.190	15375
725.305	8975
725.421	8222
725.536	7148
725.651	7914
725.767	7431
725.882	7655
725.997	7406
726.113	6621
726.228	7447
726.343	7041
726.459	6936
726.574	7189
726.689	6381
726.804	7499
726.920	7710
727.035	7340
727.150	7146
727.265	7264
727.380	7396
727.495	7112
727.610	5521
727.725	7355
727.841	6106
727.956	7916
728.071	7958
728.186	6855
728.301	6140
728.416	7421
728.531	6537
728.645	5752
728.760	7355
728.875	6425
728.990	6818
729.105	7390
729.220	7107
729.335	7441
729.449	5764
729.564	5365
729.679	5712
729.794	6140
729.908	6437
730.023	5928
730.138	4844
730.253	6195
730.367	5595
730.482	5367
730.596	6086
730.711	6819
730.826	6805
730.940	5581
731.055	6615
731.169	5842
731.284	5771
731.398	5288
731.513	7251
731.627	7431
731.742	8263
731.856	7711
731.970	6925
732.085	8648
732.199	12092
732.313	16524
732.428	43877
732.542	133218
732.656	66167
732.771	11942
732.885	8796
732.999	8485
733.113	8670
733.227	8662
733.342	6475
733.456	6825
733.570	5487
733.684	6427
733.798	5973
733.912	5999
734.026	6504
734.140	6604
734.254	7464
734.368	12158
734.482	9627
734.596	6149
734.710	5268
734.824	4871
734.938	5828
735.052	5796
735.166	7236
735.280	6957
735.393	5601
735.507	5550
735.621	8485
735.735	12356
735.849	5727
735.962	5629
736.076	5796
736.190	6334
736.303	8591
736.417	8746
736.531	5566
736.644	5593
736.758	5372
736.872	4648
736.985	5024
737.099	5473
737.212	5147
737.326	5498
737.439	5562
737.553	4716
737.666	6034
737.780	4743
737.893	4148
738.007	4684
738.120	4767
738.233	5059
738.347	4968
738.460	5240
738.573	5773
738.687	4917
738.800	5313
738.913	6100
739.026	5359
739.140	3842
739.253	3305
739.366	4782
739.479	4260
739.592	4233
739.705	4808
739.818	5058
739.932	4210
740.045	4529
740.158	4303
740.271	4317
740.384	4189
740.497	4436
740.610	4451
740.723	4219
740.836	4349
740.949	5431
741.062	6663
741.174	4837
741.287	4008
741.400	3229
741.513	5087
741.626	5365
741.739	4082
741.851	4191
741.964	3655
742.077	3950
742.189	4243
742.302	4776
742.415	4276
742.527	4267
742.640	4144
742.753	4203
742.865	3881
742.978	4319
743.090	3633
743.203	3820
743.316	2998
743.428	3696
743.541	3709
743.653	2964
743.766	3074
743.878	4432
743.990	4857
744.103	4427
744.215	3700
744.327	4036
744.440	5247
744.552	7650
744.664	3023
744.777	3873
744.889	3647
745.001	4424
745.113	2455
745.226	4245
745.338	4331
745.450	4143
745.562	2747
745.674	3259
745.786	3702
745.898	2983
746.010	2894
746.122	2956
746.234	3019
746.347	3661
746.459	3226
746.570	2963
746.682	3193
746.794	3503
746.906	3711
747.018	2824
747.130	2502
747.242	3374
747.354	3196
747.466	3853
747.577	2919
747.689	3834
747.801	3746
747.913	2336
748.024	3683
748.136	3092
748.248	2792
748.359	3000
748.471	3008
748.583	3088
748.694	2795
748.806	3641
748.918	4309
749.029	3906
749.141	3551
749.252	3921
749.364	4067
749.475	8753
749.587	5142
749.698	2795
749.809	3345
749.921	2987
750.032	2796
750.144	2528
750.255	2502
750.366	3011
750.478	2566
750.589	3014
750.700	2385
750.811	3371
750.923	4653
751.034	10080
751.145	7274
751.256	2073
751.367	2260
751.479	2467
751.590	2327
751.701	2362
751.812	1894
751.923	2754
752.034	2848
752.145	2024
752.256	2435
752.367	2109
752.478	2134
752.589	2555
752.700	2086
752.811	2365
752.922	1965
753.032	3484
753.143	3649
753.254	2373
753.365	2548
753.476	2463
753.586	2730
753.697	2134
753.808	2511
753.919	1473
754.029	2201
754.140	2374
754.251	2660
754.361	2045
754.472	1957
754.582	2262
754.693	2260
754.804	2475
754.914	2331
755.025	1830
755.135	2088
755.246	2019
755.356	2229
755.466	2628
755.577	3121
755.687	2384
755.798	2101
755.908	1662
756.018	2204
756.129	2162
756.239	2377
756.349	3323
756.460	2346
756.570	2937
756.680	2340
756.790	2808
756.900	2990
757.011	1940
757.121	1710
757.231	2158
757.341	2442
757.451	2568
757.561	1456
757.671	2320
757.781	1818
757.891	2876
758.001	1713
758.111	1899
758.221	2334
758.331	3141
758.441	2729
758.551	4939
758.661	3824
758.771	3087
758.880	2829
758.990	2376
759.100	2858
759.210	2482
759.320	3470
759.429	2366
759.539	2661
759.649	3088
759.758	2589
759.868	4240
759.978	3599
760.087	2806
760.197	3659
760.307	3486
760.416	2610
760.526	3091
760.635	2531
760.745	3160
760.854	3521
760.964	4835
761.073	4182
761.182	4100
761.292	3083
761.401	3994
761.511	2644
761.620	3319
761.729	2761
761.839	3436
761.948	2840
762.057	2370
762.166	2264
762.276	1833
762.385	3266
762.494	2691
762.603	2646
762.712	4001
762.822	2149
762.931	2792
763.040	2138
763.149	2610
763.258	2607
763.367	2916
763.476	2857
763.585	2793
763.694	3033
763.803	2990
763.912	3169
764.021	3280
764.130	2660
764.238	3230
764.347	2354
764.456	3447
764.565	3181
764.674	3399
764.783	2447
764.891	2185
765.000	3956
765.109	3617
765.217	3063
765.326	4156
765.435	4448
765.543	4975
765.652	4320
765.761	5862
765.869	7196
765.978	12236
766.086	21720
766.195	42867
766.303	120425
766.412	329771
766.520	241401
766.629	49145
766.737	18887
766.846	11747
766.954	7518
767.062	7963
767.171	6379
767.279	6204
767.387	5140
767.496	5038
767.604	4171
767.712	4412
767.820	3302
767.928	4316
768.037	3921
768.145	4224
768.253	4756
768.361	3208
768.469	4003
768.577	3551
768.685	4422
768.793	3957
768.901	3545
769.009	3576
769.117	3957
769.225	4314
769.333	6670
769.441	10020
769.549	17877
769.657	41898
769.765	142416
769.873	268365
769.981	68980
770.088	13976
770.196	8945
770.304	6827
770.412	5304
770.519	4222
770.627	4649
770.735	3839
770.842	3708
770.950	4153
771.058	3439
771.165	3146
771.273	3403
771.380	4166
771.488	4715
771.595	4155
771.703	3155
771.810	4369
771.918	3200
772.025	4158
772.133	4623
772.240	4082
772.348	4865
772.455	4546
772.562	3765
772.670	3447
772.777	4027
772.884	4033
772.991	3735
773.099	4087
773.206	3413
773.313	3688
773.420	3237
773.528	3104
773.635	3269
773.742	4185
773.849	4060
773.956	3678
774.063	3378
774.170	3522
774.277	4668
774.384	3579
774.491	3167
774.598	4762
774.705	3720
774.812	4649
774.919	4314
775.026	4254
775.133	4094
775.239	4182
775.346	2789
775.453	3180
775.560	3083
775.667	3607
775.773	2853
775.880	4011
775.987	3054
776.093	3942
776.200	3943
776.307	3319
776.413	3688
776.520	3756
776.627	3849
776.733	3193
776.840	1920
776.946	5470
777.053	3156
777.159	2974
777.266	2507
777.372	3996
777.478	3678
777.585	3156
777.691	2612
777.798	3366
777.904	3732
778.010	4812
778.117	4612
778.223	3642
778.329	3142
778.435	3551
778.542	3149
778.648	2841
778.754	1861
778.860	3407
778.966	2469
779.072	2827
779.178	2083
779.284	2879
779.391	2706
779.497	2406
779.603	4620
779.708	1944
779.815	3883
779.920	6349
780.026	8025
780.132	3160
780.238	2159
780.344	3406
780.450	3353
780.556	2364
780.661	1991
780.767	3159
780.873	2284
780.979	3387
781.085	2629
781.190	3102
781.296	2209
781.402	2220
781.507	1647
781.613	1734
781.719	2060
781.824	2087
781.930	3244
782.035	2660
782.141	2132
782.246	2317
782.352	2186
782.457	3067
782.563	2097
782.668	2243
782.773	2248
782.879	2085
782.984	3116
783.090	3206
783.195	4495
783.300	3356
783.405	2387
783.511	2410
783.616	3685
783.721	2171
783.826	1284
783.932	2801
784.037	2309
784.142	2580
784.247	1713
784.352	2494
784.457	2132
784.562	1459
784.667	2087
784.772	2517
784.877	2029
784.982	2049
785.087	1700
785.192	2764
785.297	1596
785.402	2428
785.507	2221
785.611	2104
785.716	1812
785.821	2105
785.926	1494
786.031	2286
786.135	1953
786.240	1874
786.345	1103
786.450	2270
786.554	2243
786.659	1843
786.763	963
786.868	2190
786.973	2876
787.077	1643
787.182	2151
787.286	1374
787.391	1294
787.495	1633
787.600	750
787.704	1314
787.809	2378
787.913	1914
788.017	2711
788.122	1444
788.226	2247
788.330	1800
788.435	1731
788.539	2248
788.643	744
788.747	1309
788.852	1650
788.956	1252
789.060	2382
789.164	1347
789.268	562
789.372	1970
789.476	472
789.580	862
789.684	536
789.788	2522
789.892	1741
789.996	2032
790.100	1540
790.204	1708
790.308	1602
790.412	1080
790.516	898
790.620	1659
790.724	2700
790.828	1237
790.931	971
791.035	2950
791.139	1365
791.242	820
791.346	2100
791.450	1517
791.554	1189
791.657	654
791.761	2194
791.864	2454
791.968	1661
792.072	2140
792.175	1806
792.279	1340
792.382	1507
792.486	2099
792.589	1391
792.693	1608
792.796	279
792.899	2863
793.003	1657
793.106	-27
793.209	1165
793.313	1966
793.416	-311
793.519	2795
793.623	3201
793.726	4896
793.829	1406
793.932	1664
794.035	1500
794.138	1787
794.242	2144
794.345	2784
794.448	1873
794.551	2909
794.654	5886
794.757	4621
794.860	2234
794.963	1285
795.066	961
795.169	1680
795.272	404
795.375	1278
795.477	975
795.580	2231
795.683	689
795.786	1366
795.889	338
795.991	2043
796.094	2388
796.197	383
796.300	1963
796.402	1105
796.505	819
796.608	1040
796.710	1535
796.813	1447
796.915	999
797.018	1802
797.120	728
797.223	443
797.326	1603
797.428	614
797.530	684
797.633	1667
797.735	2416
797.838	2769
797.940	2258
798.042	1289
798.145	672
798.247	1612
798.349	-253
798.452	1723
798.554	339
798.656	405
798.758	1983
798.860	865
798.962	285
799.065	424
799.167	430
799.269	2407
799.371	1630
799.473	2190
799.575	1540
799.677	1670
799.779	2716
799.881	2774
799.983	1941
800.085	1437
800.187	1306
800.289	409
800.390	1194
800.492	1078
800.594	449
800.696	247
800.798	946
800.899	-134
801.001	787
801.103	420
801.205	805
801.306	1435
801.408	134
801.509	840
801.611	467
801.713	818
801.814	-162
801.916	252
802.017	421
802.119	84
802.220	784
802.322	-827
802.423	3005
802.525	-400
802.626	786
802.727	1076
802.829	1583
802.930	-625
803.031	1855
803.133	291
803.234	-1
803.335	-26
803.436	36
803.538	244
803.639	-367
803.740	1511
803.841	47
803.942	1300
804.043	1033
804.144	199
804.245	456
804.346	136
804.447	-241
804.548	2402
804.649	1798
804.750	748
804.851	-540
804.952	387
805.053	130
805.154	-221
805.255	1498
805.355	240
805.456	-49
805.557	67
805.658	-114
805.758	1225
805.859	632
805.960	469
806.061	-170
806.161	313
806.262	505
806.362	-286
806.463	69
806.564	217
806.664	435
806.765	1444
806.865	-131
806.966	459
807.066	-35
807.166	331
807.267	547
807.367	661
807.468	932
807.568	-1326
807.668	1175
807.769	1089
807.869	-95
807.969	650
808.069	586
808.170	1163
808.270	-164
808.370	1323
808.470	1543
808.570	172
808.670	-323
808.770	420
808.870	-288
808.970	1019
809.070	357
809.170	8
809.271	388
809.370	742
809.470	-165
809.570	1108
809.670	-502
809.770	-293
809.870	125
809.970	693
810.070	434
810.169	769
810.269	-1086
810.369	826
810.469	-419
810.568	351
810.668	459
810.768	-414
810.867	-285
810.967	199
811.066	293
811.166	96
811.265	970
811.365	-180
811.464	98
811.564	119
811.663	1006
811.763	-1078
811.862	545
811.962	1006
812.061	-112
812.160	-389
812.260	626
812.359	522
812.458	206
812.557	168
812.657	115
812.756	989
812.855	264
812.954	-457
813.053	1217
813.153	1088
813.252	-824
813.351	-67
813.450	366
813.549	289
813.648	-305
813.747	781
813.846	367
813.945	-88
814.044	929
814.143	650
814.242	99
814.341	506
814.439	-353
814.538	1128
814.637	-822
814.736	-198
814.835	1034
814.933	-39
815.032	953
815.131	1018
815.229	901
815.328	2276
815.427	180
815.525	422
815.624	981
815.722	797
815.821	737
815.919	745
816.018	281
816.116	1877
816.215	1313
816.313	1367
816.412	378
816.510	2099
816.609	2548
816.707	2099
816.805	657
816.904	407
817.002	1453
817.100	2503
817.198	1568
817.296	2032
817.395	1003
817.493	2435
817.591	853
817.689	2037
817.787	2508
817.885	3689
817.983	5590
818.081	12536
818.179	32937
818.277	79348
818.375	52707
818.473	11794
818.571	5806
818.669	3422
818.767	2460
818.865	4187
818.963	3475
819.061	6441
819.158	11231
819.256	28432
819.354	67126
819.452	142843
819.549	69933
819.647	15787
819.745	6062
819.842	5068
819.940	2716
820.038	1630
820.135	1862
820.233	3456
820.330	1231
820.428	1642
820.525	1788
820.623	1199
820.720	731
820.818	977
820.915	1105
821.012	2055
821.110	536
821.207	1849
821.304	609
821.402	1709
821.499	1562
821.596	844
821.693	1164
821.791	1813
821.888	1782
821.985	5311
822.082	2276
822.179	2406
822.276	345
822.373	786
822.470	662
822.567	1048
822.664	65
822.761	878
822.858	-254
822.955	397
823.052	575
823.149	942
823.246	612
823.343	626
823.440	1091
823.536	925
823.633	350
823.730	1043
823.827	784
823.923	975
824.020	1659
824.117	637
824.213	530
824.310	644
824.407	491
824.503	1068
824.600	903
824.696	357
824.793	2168
824.889	1048
824.986	495
825.082	568
825.179	1198
825.275	312
825.371	42
825.468	741
825.564	10
825.660	1189
825.757	1017
825.853	1464
825.949	-702
826.045	615
826.142	43
826.238	921
826.334	856
826.430	-17
826.526	487
826.622	910
826.718	112
826.814	18
826.910	1693
827.006	-289
827.102	-245
827.198	1074
827.294	-77
827.390	815
827.486	233
827.582	-361
827.678	-43
827.774	1957
827.869	-1111
827.965	2002
828.061	-540
828.157	-88
828.252	210
828.348	-627
828.444	946
828.539	-70
828.635	283
828.731	1548
828.826	-444
828.922	1549
829.017	20
829.113	1585
829.208	92
829.304	163
829.399	2179
829.495	112
829.590	1554
829.685	-614
829.781	553
829.876	-46
829.971	499
830.066	443
830.162	474
830.257	93
830.352	181
830.447	1071
830.543	801
830.638	-34
830.733	1689
830.828	-226
830.923	267
831.018	22
831.113	739
831.208	351
831.303	-116
831.398	499
831.493	265
831.588	824
831.683	-726
831.778	-333
831.873	522
831.967	1256
832.062	376
832.157	-296
832.252	1093
832.346	1084
832.441	1263
832.536	2091
832.631	4263
832.725	2425
832.820	-711
832.914	-361
833.009	128
833.104	1353
833.198	658
833.293	440
833.387	265
833.482	308
833.576	261
833.670	1398
833.765	738
833.859	652
833.954	977
834.048	574
834.142	40
834.237	-90
834.331	364
834.425	-4
834.519	-770
834.613	762
834.708	-314
834.802	368
834.896	39
834.990	530
835.084	360
835.178	44
835.272	686
835.366	248
835.460	961
835.554	-2
835.648	-176
835.742	-525
835.836	435
835.930	-519
836.024	472
836.117	860
836.211	-275
836.305	2165
836.399	1715
836.493	-796
836.586	799
836.680	-376
836.774	49
836.867	466
836.961	-750
837.055	-510
837.148	487
837.242	87
837.335	151
837.429	446
837.522	88
837.616	1978
837.709	3503
837.803	1192
837.896	308
837.989	803
838.083	1786
838.176	4907
838.269	1763
838.363	1575
838.456	400
838.549	2053
838.642	2377
838.735	5885
838.829	1758
838.922	-699
839.015	-15
839.108	-197
839.201	-56
839.294	351
839.387	288
839.480	315
839.573	1678
839.666	1047
839.759	258
839.852	-442
839.945	45
840.038	-68
840.131	-399
840.223	-125
840.316	185
840.409	269
840.502	-938
840.594	1230
840.687	-1201
840.780	1051
840.873	-310
840.965	1110
841.058	1791
841.150	3421
841.243	858
841.336	486
841.428	72
841.521	-153
841.613	-36
841.706	137
841.798	194
841.890	662
841.983	-421
842.075	1118
842.167	-574
842.260	918
842.352	1954
842.444	1794
842.537	5646
842.629	4767
842.721	-163
842.813	507
842.905	-87
842.997	873
843.090	1005
843.182	1931
843.274	4451
843.366	12067
843.458	16706
843.550	6987
843.642	389
843.734	1279
843.826	722
843.918	538
844.009	881
844.101	-446
844.193	17
844.285	-689
844.377	441
844.469	258
844.560	231
844.652	121
844.744	104
844.835	19
844.927	489
845.019	716
845.110	593
845.202	-66
845.293	-1251
845.385	-612
845.476	-284
845.568	1034
845.659	-79
845.751	543
845.842	-20
845.934	-279
846.025	163
846.116	-30
846.208	-452
846.299	468
846.390	-228
846.482	-245
846.573	1257
846.664	1632
846.755	1883
846.846	1530
846.937	-499
847.029	-400
847.120	-533
847.211	-693
847.302	894
847.393	-307
847.484	369
847.575	-1007
847.666	-160
847.757	-503
847.847	539
847.938	1302
848.029	405
848.120	16
848.211	-572
848.302	-1107
848.392	-215
848.483	573
848.574	-470
848.664	-352
848.755	-127
848.846	85
848.936	-320
849.027	465
849.118	-340
849.208	256
849.299	1427
849.389	2560
849.480	7115
849.570	14623
849.661	27590
849.751	45668
849.841	14143
849.932	1638
850.022	413
850.112	219
850.203	347
850.293	294
850.383	162
850.474	-39
850.564	844
850.654	-223
850.744	137
850.834	-71
850.924	165
851.014	-196
851.104	-618
851.194	102
851.284	595
851.374	986
851.464	-760
851.554	500
851.644	843
851.734	1255
851.824	201
851.914	486
852.004	30
852.094	-708
852.183	-320
852.273	57
852.363	156
852.452	270
852.542	-783
852.632	387
852.721	-159
852.811	507
852.901	531
852.990	1305
853.080	316
853.169	653
853.259	562
853.348	646
853.438	969
853.527	2641
853.617	3528
853.706	7617
853.795	15098
853.885	35821
853.974	66422
854.063	124863
854.152	177465
854.242	64199
854.331	11663
854.420	4518
854.509	3507
854.598	2921
854.687	2760
854.777	2692
854.866	1017
854.955	1216
855.044	-450
855.133	224
855.222	-366
855.311	368
855.400	73
855.488	-359
855.577	477
855.666	-208
855.755	180
855.844	803
855.933	-1326
856.021	353
856.110	-69
856.199	117
856.288	-251
856.376	715
856.465	-771
856.554	272
856.642	-693
856.731	-147
856.819	699
856.908	-48
856.996	281
857.085	-231
857.173	-567
857.262	420
857.350	688
857.438	117
857.527	354
857.615	-211
857.703	-168
857.792	-542
857.880	-299
857.968	-537
858.056	-829
858.145	-597
858.233	-717
858.321	-206
858.409	197
858.497	-513
858.585	-621
858.673	-88
858.761	-200
858.849	-791
858.937	137
859.025	-310
859.113	-246
859.201	-565
859.289	380
859.377	324
859.465	271
859.552	-97
859.640	-706
859.728	388
859.816	-37
859.903	-89
859.991	-1288
860.079	206
860.166	193
860.254	-185
860.342	-107
860.429	-112
860.517	-670
860.604	157
860.692	-506
860.779	-440
860.867	-364
860.954	120
861.042	-400
861.129	-290
861.216	-471
861.304	-950
861.391	239
861.478	-293
861.565	-605
861.653	-89
861.740	-83
861.827	-1009
861.914	17
862.001	485
862.089	121
862.176	-147
862.263	-642
862.350	-819
862.437	-598
862.524	-538
862.611	-325
862.698	162
862.785	-876
862.871	272
862.958	-389
863.045	-290
863.132	156
863.219	-670
863.306	-822
863.392	212
863.479	-322
863.566	720
863.652	-485
863.739	90
863.826	411
863.912	-4
863.999	-771
864.086	162
864.172	-112
864.259	-288
864.345	-80
864.432	-526
864.518	-159
864.604	-20
864.691	-541
864.777	213
864.863	1442
864.950	854
865.036	1349
865.122	1213
865.209	1969
865.295	2334
865.381	2155
865.467	2536
865.553	3180
865.639	4978
865.726	8976
865.812	18791
865.898	36080
865.984	53827
866.070	103071
866.156	100909
866.242	25069
866.328	6842
866.414	2422
866.499	2200
866.585	1732
866.671	1728
866.757	1677
866.843	1783
866.928	1483
867.014	1621
867.100	1772
867.186	1445
867.271	913
867.357	2711
867.442	2109
867.528	731
867.614	345
867.699	1285
867.785	1333
867.870	1107
867.956	823
868.041	931
868.127	1263
868.212	1189
868.297	1262
868.383	1313
868.468	1843
868.553	3524
868.639	3794
868.724	7089
868.809	5214
868.894	1646
868.979	1208
869.065	1808
869.150	483
869.235	951
869.320	-173
869.405	348
869.490	257
869.575	222
869.660	-441
869.745	1810
869.830	-53
869.915	490
870.000	417
870.085	6
870.169	258
870.254	1130
870.339	145
870.424	150
870.509	344
870.593	524
870.678	1061
870.763	750
870.847	36
870.932	242
871.016	-514
871.101	-61
871.186	0
871.270	95
871.355	-625
871.439	613
871.523	258
871.608	295
871.692	-218
871.777	541
871.861	948
871.945	265
872.030	615
872.114	-247
872.198	-660
872.282	492
872.367	-529
872.451	559
872.535	-118
872.619	-132
872.703	557
872.787	935
872.871	649
872.955	35
873.039	-135
873.123	879
873.207	549
873.291	-143
873.375	288
873.459	594
873.543	-682
873.627	3
873.711	260
873.794	461
873.878	-511
873.962	-513
874.045	802
874.129	-641
874.137	-608
874.213	-286
874.245	-3
874.296	457
874.352	7
874.380	-215
874.460	-322
874.464	-327
874.547	-547
874.568	-231
874.631	704
874.676	571
874.714	466
874.784	647
874.798	678
874.881	1049
874.892	827
874.965	-676
874.999	-250
875.048	308
875.107	181
875.131	135
875.215	111
875.215	112
875.298	-302
875.323	-289
875.381	-280
875.430	486
875.465	1049
875.538	-3
875.548	-160
875.631	-152
875.646	-148
875.714	-112
875.753	-134
875.798	-104
875.861	509
875.881	686
875.964	-236
875.968	-181
876.047	869
876.076	882
876.130	863
876.183	272
876.213	-33
876.291	828
876.296	879
876.379	536
876.398	537
876.462	659
876.506	377
876.545	43
876.613	991
876.628	1198
876.711	264
876.721	337
876.794	1100
876.828	875
876.877	422
876.935	540
876.960	599
877.043	358
877.043	357
877.125	639
877.150	759
877.208	926
877.258	1024
877.291	1130
877.365	948
877.374	925
877.456	1436
877.472	1264
877.539	611
877.579	880
877.622	1185
877.687	1049
877.704	974
877.787	789
877.794	822
877.869	1410
877.901	1340
877.952	930
878.008	768
878.034	878
878.115	710
878.117	705
878.199	628
878.222	895
878.282	1552
878.329	1410
878.364	1331
878.437	1462
878.447	1460
878.529	507
878.544	544
878.611	993
878.651	815
878.694	596
878.758	889
878.776	972
878.858	1078
878.865	1121
878.941	1541
878.972	1148
879.023	626
879.078	1216
879.105	1648
879.185	2616
879.187	2623
879.269	2136
879.292	1875
879.351	1411
879.399	1325
879.433	1212
879.506	1687
879.516	1808
879.598	1375
879.613	1341
879.680	1098
879.720	1443
879.762	1880
879.827	1581
879.844	1428
879.926	1281
879.933	1278
880.007	1258
880.040	1141
880.089	1349
880.147	2222
880.171	2572
880.253	3666
880.254	3666
880.335	4630
880.360	5181
880.417	7631
880.467	10440
880.499	12545
880.574	16016
880.580	15690
880.662	6443
880.680	5000
880.744	2886
880.787	2153
880.825	1959
880.893	1611
880.907	1614
880.989	1355
881.000	1415
881.070	1953
881.106	1992
881.152	1784
881.213	1868
881.233	1934
881.315	1952
881.319	1923
881.396	1984
881.426	2110
881.478	2144
881.532	2357
881.559	2448
881.639	1750
881.641	1743
881.722	2301
881.745	2265
881.803	2194
881.852	2234
881.885	2364
881.958	2703
881.966	2741
882.047	3189
882.064	3144
882.129	3393
882.171	3910
882.210	5645
882.277	8647
882.291	8426
882.372	6175
882.383	5800
882.454	3273
882.489	2367
882.535	2296
882.596	2047
882.616	1971
882.697	2117
882.702	2052
882.778	1548
882.808	1534
882.859	1482
882.914	1892
882.940	2172
883.020	2190
883.021	2199
883.102	2449
883.127	2436
883.183	2451
883.233	2586
883.264	2451
883.339	2088
883.345	2091
883.426	1961
883.445	1917
883.507	2046
883.551	2183
883.587	2499
883.657	2985
883.668	3033
883.749	2970
883.763	3023
883.830	2378
883.869	1913
883.910	1957
883.975	2104
883.991	2164
884.072	2089
884.081	2149
884.152	2994
884.187	2978
884.233	2632
884.292	2599
884.314	2588
884.394	2219
884.398	2204
884.475	2414
884.504	2439
884.555	2473
884.610	2534
884.636	2708
884.716	2950
884.716	2962
884.797	3301
884.821	3167
884.877	2661
884.927	2407
884.958	2380
885.033	2312
885.038	2337
885.118	2751
885.139	2700
885.199	2355
885.244	2428
885.279	2674
885.350	2978
885.359	3029
885.439	3365
885.456	3364
885.520	3074
885.561	2983
885.600	3110
885.667	3264
885.680	3364
885.760	3993
885.773	4060
885.840	4049
885.878	4088
885.920	4254
885.984	4196
886.000	4107
886.080	3819
886.089	3768
886.160	3681
886.195	3617
886.240	3578
886.300	3443
886.320	3489
886.400	3721
886.406	3724
886.480	4136
886.511	4276
886.560	5129
886.616	5965
886.640	5686
886.720	4736
886.722	4696
886.800	4480
886.827	4345
886.879	4392
886.932	4408
886.959	4400
887.038	4331
887.039	4350
887.119	4502
887.143	4541
887.198	4023
887.248	3504
887.278	3678
887.354	4067
887.358	4071
887.437	3830
887.459	3745
887.517	4285
887.564	4677
887.596	4692
887.669	4692
887.676	4674
887.755	4323
887.774	4177
887.835	4124
887.880	4122
887.914	4249
887.985	4359
887.994	4453
888.073	5173
888.090	5311
888.153	4997
888.195	4723
888.232	4667
888.300	4521
888.311	4506
888.391	4230
888.405	4178
888.470	3937
888.510	3694
888.549	3943
888.615	4451
888.628	4461
888.708	4336
888.720	4302
888.787	4468
888.825	4517
888.866	4185
888.930	3650
888.945	3768
889.024	4307
889.035	4366
889.103	4786
889.140	4979
889.182	4781
889.245	4455
889.261	4590
889.340	5139
889.349	5186
889.419	4807
889.454	4583
889.498	4457
889.559	4253
889.577	4402
889.656	4994
889.664	5037
889.735	5067
889.768	5055
889.814	5158
889.873	5258
889.978	4719
890.083	4192
890.187	4275
890.292	4733
890.397	5091
890.501	4648
890.606	4390
890.710	4873
890.815	5043
890.919	5218
891.024	4680
891.128	4335
891.233	4797
891.337	5015
891.442	4837
891.546	3822
891.650	3477
891.755	3743
891.859	5304
891.963	4473
892.068	3999
892.172	4049
892.276	4688
892.380	3915
892.484	5352
892.589	4278
892.693	4648
892.797	3961
892.901	4534
893.005	3860
893.109	5038
893.213	4834
893.317	4258
893.421	3712
893.525	4622
893.629	3961
893.733	4705
893.837	4987
893.941	4635
894.045	4810
894.148	3561
894.252	4260
894.356	4951
894.460	6427
894.564	4670
894.667	4936
894.771	3672
894.875	4706
894.978	4024
895.082	4025
895.186	5373
895.289	4124
895.393	4478
895.496	5162
895.600	3863
895.703	3326
895.807	3857
895.910	4701
896.014	4240
896.117	3593
896.221	4973
896.324	3857
896.427	3519
896.531	3963
896.634	4090
896.737	4646
896.840	4715
896.944	4851
897.047	5094
897.150	4118
897.253	4181
897.356	3807
897.460	4866
897.563	3728
897.666	4170
897.769	4519
897.872	3902
897.975	3672
898.078	3694
898.181	3294
898.284	3955
898.387	4562
898.490	4855
898.593	3427
898.695	4367
898.798	5358
898.901	6360
899.004	5283
899.107	3663
899.209	4255
899.312	4423
899.415	3825
899.518	4065
899.620	4129
899.723	5093
899.826	9465
899.928	10280
900.031	4317
900.133	3887
900.236	3770
900.338	3412
900.441	3244
900.543	4002
900.646	3114
900.748	3794
900.851	4446
900.953	3586
901.055	3887
901.158	4390
901.260	3292
901.362	3322
901.465	2969
901.567	4219
901.669	2912
901.771	3465
901.873	3870
901.976	3559
902.078	4240
902.180	2972
902.282	4124
902.384	4015
902.486	5496
902.588	7602
902.690	7877
902.792	4335
902.894	3748
902.996	3477
903.098	3232
903.200	3833
903.302	4091
903.404	3873
903.505	3178
903.607	4204
903.709	4831
903.811	3248
903.913	3384
904.014	3007
904.116	3421
904.218	2720
904.319	3911
904.421	4551
904.523	3313
904.624	3714
904.726	3850
904.827	3393
904.929	3218
905.030	3098
905.132	4272
905.233	3989
905.335	2819
905.436	2920
905.537	2702
905.639	2990
905.740	3021
905.841	3154
905.943	3186
906.044	3033
906.145	3326
906.247	2877
906.348	3059
906.449	3269
906.550	3060
906.651	4013
906.752	3807
906.854	3328
906.955	2577
907.056	2939
907.157	3244
907.258	3871
907.359	2805
907.460	2894
907.561	2597
907.662	4203
907.762	2847
907.863	3040
907.964	2597
908.065	3723
908.166	2484
908.267	3309
908.367	3752
908.468	3576
908.569	4490
908.670	5098
908.770	7333
908.871	7053
908.971	9966
909.072	8533
909.173	1962
909.273	3443
909.374	3510
909.474	3173
909.575	3516
909.675	3135
909.776	2968
909.876	3665
909.977	3873
910.077	3640
910.177	3566
910.278	2827
910.378	2668
910.478	3447
910.579	3387
910.679	3255
910.779	3429
910.879	3425
910.980	3395
911.080	2960
911.180	3414
911.280	2551
911.380	3015
911.480	3010
911.580	2791
911.680	3610
911.780	4849
911.880	4702
911.980	3169
912.080	3828
912.180	3768
912.280	4087
912.380	2603
912.480	3587
912.580	2744
912.679	2668
912.779	3220
912.879	3448
912.979	2980
913.078	2385
913.178	2858
913.278	2752
913.377	2739
913.477	2869
913.577	3565
913.676	2949
913.776	3662
913.875	3438
913.975	3643
914.074	2980
914.174	2973
914.273	3052
914.373	3122
914.472	3137
914.572	3443
914.671	2808
914.770	2269
914.870	3136
914.969	2591
915.068	2707
915.167	3110
915.267	2982
915.366	2210
915.465	2143
915.564	2490
915.663	2704
915.763	2783
915.862	3123
915.961	3617
916.060	2114
916.159	2874
916.258	2477
916.357	2895
916.456	3862
916.555	2748
916.654	3357
916.752	3905
916.851	3103
916.950	2690
917.049	3442
917.148	2739
917.247	1883
917.345	2326
917.444	2492
917.543	1849
917.642	2454
917.740	2852
917.839	3391
917.937	2838
918.036	3030
918.135	2663
918.233	2134
918.332	2647
918.430	2611
918.529	2077
918.627	2123
918.726	3005
918.824	2895
918.923	2399
919.021	2538
919.119	2503
919.218	2766
919.316	2964
919.414	3052
919.512	2934
919.611	2754
919.709	2396
919.807	2787
919.905	2768
920.003	3509
920.102	3520
920.200	3025
920.298	3290
920.396	2891
920.494	2493
920.592	2177
920.690	3185
920.788	3719
920.886	3388
920.984	3997
921.082	3554
921.180	3594
921.277	3306
921.375	3998
921.473	3930
921.571	3444
921.669	4214
921.766	3443
921.864	3222
921.962	4094
922.060	3510
922.157	3324
922.255	4831
922.352	4286
922.450	4579
922.548	3922
922.645	4494
922.743	4692
922.840	6322
922.938	7627
923.035	6831
923.133	6439
923.230	7077
923.327	8653
923.425	7145
923.522	7959
923.619	6674
923.717	6525
923.814	6798
923.911	6984
924.008	8000
924.106	5749
924.203	6525
924.300	6097
924.397	5911
924.494	8061
924.591	7695
924.688	6398
924.786	6194
924.883	6424
924.979	6796
925.077	6368
925.173	6461
925.270	6490
925.367	6512
925.464	7431
925.561	7118
925.658	8427
925.755	8659
925.852	8811
925.948	7039
926.045	6709
926.142	6553
926.239	6494
926.335	4701
926.432	7120
926.529	6850
926.625	6637
926.722	4788
926.818	5952
926.915	5527
927.011	5820
927.108	5606
927.204	5127
927.301	5145
927.397	6821
927.494	6554
927.590	5183
927.687	5696
927.783	6576
927.879	6618
927.976	5618
928.072	5402
928.168	6057
928.264	5616
928.361	5726
928.457	7312
928.553	5398
928.649	6168
928.745	6039
928.841	5078
928.937	5867
929.033	5066
929.129	5161
929.225	6226
929.321	4763
929.417	5947
929.513	5732
929.609	5083
929.705	4815
929.801	5823
929.897	4439
929.993	5117
930.089	4171
930.184	4948
930.280	5916
930.376	6406
930.471	4521
930.567	4951
930.663	5535
930.758	5174
930.854	5012
930.950	5314
931.045	3916
931.141	5351
931.236	6444
931.332	5087
931.427	5072
931.523	5542
931.618	5403
931.714	4064
931.809	5341
931.905	5797
932.000	3203
932.095	4252
932.191	6213
932.286	5429
932.381	4976
932.476	4083
932.572	4626
932.667	4507
932.762	4068
932.857	4217
932.952	5002
933.047	4987
933.142	3349
933.237	4669
933.332	4727
933.427	5231
933.522	4524
933.617	4808
933.712	4039
933.807	5062
933.902	4912
933.997	4952
934.092	4458
934.187	4735
934.282	5703
934.376	4502
934.471	5115
934.566	4180
934.661	3670
934.755	4493
934.850	4964
934.945	4475
935.039	4122
935.134	4313
935.228	4989
935.323	5159
935.417	2789
935.512	3614
935.606	3512
935.701	4325
935.795	3873
935.890	4738
935.984	4017
936.079	3811
936.173	5055
936.267	3289
936.362	3734
936.456	4060
936.550	5631
936.644	3847
936.738	4059
936.833	3452
936.927	3461
937.021	4407
937.115	3116
937.209	4143
937.303	4185
937.397	4139
937.491	3901
937.585	4595
937.679	3986
937.773	3010
937.867	2888
937.961	3810
938.055	4549
938.149	4138
938.243	3020
938.337	3360
938.430	3854
938.524	4043
938.618	3729
938.712	3093
938.805	3996
938.899	3819
938.993	4613
939.086	2574
939.180	1987
939.274	2878
939.367	4687
939.461	3537
939.554	2847
939.648	2706
939.741	3434
939.835	3271
939.928	5074
940.022	4052
940.115	4142
940.208	4740
940.302	4389
940.395	5063
940.488	2917
940.582	4159
940.675	3050
940.768	3461
940.861	4092
940.954	4612
941.048	2657
941.141	2782
941.234	4229
941.327	4893
941.420	5724
941.513	4468
941.606	3554
941.699	3557
941.792	3802
941.885	3100
941.978	4459
942.071	3286
942.164	2908
942.257	2394
942.349	3490
942.442	3001
942.535	2794
942.628	2036
942.721	3610
942.813	2684
942.906	3320
942.999	3390
943.091	3461
943.184	3712
943.277	2588
943.369	3108
943.462	2817
943.554	2915
943.647	2658
943.739	4047
943.832	3929
943.924	1410
944.017	3435
944.109	2160
944.201	3515
944.294	3133
944.386	2381
944.478	3123
944.571	2173
944.663	2702
944.755	3268
944.847	3056
944.940	2537
945.032	2308
945.124	2402
945.216	4332
945.308	3701
945.400	2415
945.492	3314
945.584	3865
945.676	3447
945.768	2806
945.860	2865
945.952	3802
946.044	3475
946.136	2553
946.228	3300
946.320	2474
946.412	2968
946.503	2682
946.595	3997
946.687	2571
946.779	2328
946.870	3133
946.962	2336
947.054	2616
947.145	3047
947.237	2859
947.329	3006
947.420	3493
947.512	3125
947.603	2238
947.695	3045
947.786	2222
947.878	2503
947.969	2625
948.061	3018
948.152	2778
948.243	2455
948.335	2757
948.426	2022
948.517	3066
948.609	3480
948.700	2451
948.791	2371
948.882	2244
948.973	1794
949.065	2440
949.156	1857
949.247	1915
949.338	2727
949.429	2616
949.520	2075
949.611	1968
949.702	2305
949.793	2375
949.884	2184
949.975	2916
950.066	969
950.157	1765
950.247	2327
950.338	1727
950.429	3485
950.520	4211
950.611	5040
950.701	3175
950.792	3642
950.883	5010
950.973	3634
951.064	4991
951.155	4414
951.245	3445
951.336	2756
951.427	1795
951.517	4255
951.608	2673
951.698	2522
951.788	2334
951.879	1753
951.969	1667
952.060	2491
952.150	2169
952.240	3862
952.331	1530
952.421	3197
952.511	1594
952.602	2044
952.692	1610
952.782	2266
952.872	1504
952.962	2292
953.052	2285
953.143	1691
953.233	3111
953.323	1834
953.413	2089
953.503	2827
953.593	2405
953.683	1910
953.773	1839
953.863	1747
953.953	1405
954.042	2606
954.132	1394
954.222	3106
954.312	2761
954.402	4125
954.492	10540
954.581	14667
954.671	5183
954.761	1755
954.850	2224
954.940	1857
955.030	2043
955.119	1078
955.209	1731
955.298	1812
955.388	2290
955.477	2661
955.567	1867
955.656	1650
955.746	2010
955.835	1143
955.925	1527
956.014	1678
956.103	2085
956.193	1772
956.282	1807
956.371	1862
956.461	1452
956.550	1717
956.639	2202
956.728	1662
956.817	2043
956.906	2173
956.995	2036
957.085	1769
957.174	2034
957.263	1436
957.352	1942
957.441	1507
957.530	1077
957.619	1655
957.708	1327
957.796	947
957.885	1999
957.974	1077
958.063	1630
958.152	1112
958.241	1369
958.329	2054
958.418	2088
958.507	1159
958.596	2910
958.684	1255
958.773	1664
958.861	1890
958.950	1526
959.039	1771
959.127	1447
959.216	2737
959.304	1567
959.393	2512
959.481	2369
959.570	3098
959.658	2964
959.746	4487
959.835	13190
959.923	18657
960.011	6609
960.100	2996
960.188	2416
960.276	1925
960.365	1732
960.453	1245
960.541	1384
960.629	1246
960.717	967
960.805	789
960.893	1543
960.981	1124
961.069	2425
961.158	2102
961.245	2110
961.333	2064
961.421	1504
961.509	2498
961.597	1722
961.685	1567
961.773	1462
961.861	1932
961.949	2214
962.036	739
962.124	1633
962.212	1175
962.299	1080
962.387	1346
962.475	1267
962.562	1497
962.650	2840
962.738	1748
962.825	1689
962.913	1786
963.000	1670
963.088	1608
963.175	1946
963.263	2790
963.350	3872
963.438	6533
963.525	7484
963.612	17076
963.700	45304
963.787	71727
963.874	26955
963.962	4104
964.049	1819
964.136	2266
964.223	2233
964.310	1926
964.398	1796
964.485	3732
964.572	7962
964.659	16390
964.746	11258
964.833	2487
964.920	1056
965.007	964
965.094	3038
965.181	2229
965.268	1552
965.355	1658
965.441	1576
965.528	729
965.615	2271
965.702	1204
965.789	1345
965.875	2049
965.962	1782
966.049	1836
966.136	1989
966.222	1858
966.309	3348
966.395	1058
966.482	1568
966.569	1419
966.655	1716
966.742	1686
966.828	2072
966.915	2685
967.001	2763
967.087	2448
967.174	4118
967.260	7353
967.347	14117
967.433	36312
967.519	47505
967.605	14423
967.692	2872
967.778	3103
967.864	1680
967.950	1750
968.036	1022
968.123	2141
968.209	1440
968.295	268
968.381	2476
968.467	1926
968.553	322
968.639	2589
968.725	6437
968.811	11242
968.897	7781
968.983	1725
969.069	1635
969.154	1553
969.240	1587
969.326	1065
969.412	1684
969.497	1115
969.583	924
969.669	2579
969.755	1449
969.840	1163
969.926	2307
970.012	3568
970.097	4606
970.183	5259
970.268	5537
970.354	10645
970.439	23152
970.525	32112
970.610	9901
970.696	3019
970.781	1584
970.866	675
970.952	2163
971.037	873
971.122	912
971.208	1465
971.293	829
971.378	145
971.463	1691
971.549	2716
971.634	3378
971.719	4062
971.804	6280
971.889	6076
971.974	1361
972.059	697
972.144	1297
972.229	2058
972.314	1749
972.399	2166
972.484	1938
972.569	4944
972.654	8770
972.739	20843
972.824	17156
972.908	3702
972.993	2133
973.078	961
973.163	1338
973.247	946
973.332	-126
973.417	2618
973.501	693
973.586	1438
973.671	2356
973.755	1867
973.840	3551
973.924	2890
974.009	3567
974.093	4412
974.178	8974
974.262	16098
974.346	13020
974.431	3830
974.515	1548
974.600	1322
974.684	2150
974.768	809
974.852	2682
974.937	240
975.021	2012
975.105	778
975.189	1677
975.273	1709
975.358	1195
975.442	57
975.526	2578
975.610	-255
975.694	407
975.778	1583
975.862	828
975.946	-800
976.030	1790
976.114	794
976.198	872
976.281	809
976.365	1928
976.449	811
976.533	1318
976.617	1108
976.700	1664
976.784	3121
976.868	5149
976.951	9607
977.035	4471
977.119	1374
977.202	1973
977.286	1809
977.369	2031
977.453	1953
977.536	1772
977.620	888
977.703	1121
977.787	1254
977.870	2931
977.953	3563
978.037	2996
978.120	7398
978.203	14830
978.287	18716
978.370	7505
978.453	2753
978.536	3465
978.620	8442
978.703	11477
978.786	4800
978.869	688
978.952	358
979.035	1710
979.118	971
979.201	971
979.284	1511
979.367	613
979.450	1500
979.533	144
979.616	1553
979.699	455
979.782	757
979.865	1232
979.948	1036
980.030	1113
980.113	893
980.196	-321
980.279	542
980.361	567
980.444	668
980.526	850
980.609	1298
980.692	2314
980.774	1208
980.857	994
980.939	1482
981.022	1147
981.104	1262
981.187	296
981.269	2098
981.352	831
981.434	569
981.516	695
981.599	1648
981.681	1145
981.763	984
981.846	712
981.928	358
982.010	795
982.092	724
982.174	1296
982.256	908
982.339	-334
982.421	366
982.503	748
982.585	-249
982.667	1112
982.749	1225
982.831	595
982.913	133
982.995	2398
983.077	2854
983.158	4855
983.240	1208
983.322	1605
983.404	2266
983.486	582
983.568	1392
983.649	1010
983.731	1742
983.813	1631
983.894	1473
983.976	804
984.058	1194
984.139	1516
984.221	-105
984.302	1978
984.384	776
984.465	726
984.547	962
984.628	510
984.710	936
984.791	1233
984.872	1158
984.954	1238
985.035	559
985.116	777
985.198	896
985.279	1064
985.360	460
985.441	294
985.522	1359
985.604	979
985.685	-152
985.766	1996
985.847	2216
985.928	517
986.009	764
986.090	784
986.171	1291
986.252	-79
986.333	1313
986.414	278
986.495	323
986.576	505
986.656	1349
986.737	1160
986.818	1345
986.899	641
986.980	965
987.060	1317
987.141	508
987.222	1584
987.302	1792
987.383	1441
987.464	1277
987.544	1251
987.625	402
987.705	2035
987.786	1579
987.866	1406
987.947	1577
988.027	1381
988.108	486
988.188	1669
988.268	785
988.349	920
988.429	1252
988.509	603
988.589	-87
988.670	-938
988.750	2582
988.830	1364
988.910	1692
988.990	693
989.070	1576
989.151	915
989.231	350
989.311	1501
989.391	820
989.471	280
989.551	945
989.631	642
989.711	929
989.791	-246
989.870	61
989.950	2016
990.030	347
990.110	528
990.190	1102
990.269	-294
990.349	304
990.429	1020
990.509	928
990.588	799
990.668	537
990.747	1075
990.827	523
990.907	449
990.986	838
991.066	847
991.145	-256
991.225	1522
991.304	417
991.383	728
991.463	494
991.542	519
991.622	146
991.701	-201
991.780	230
991.859	-305
991.939	789
992.018	443
992.097	1133
992.176	376
992.256	597
992.335	-435
992.414	906
992.493	-425
992.572	1273
992.651	3060
992.730	640
992.809	390
992.888	62
992.967	-18
993.046	487
993.125	-1164
993.203	621
993.282	552
993.361	-271
993.440	595
993.519	-446
993.597	333
993.676	-619
993.755	837
993.834	371
993.912	-585
993.991	961
994.069	-166
994.148	-121
994.226	-296
994.305	907
994.384	-338
994.462	962
994.540	-1077
994.619	-215
994.697	312
994.776	504
994.854	542
994.932	30
995.011	707
995.089	-102
995.167	194
995.245	63
995.324	-172
995.402	-195
995.480	-197
995.558	269
995.636	-626
995.714	-245
995.792	913
995.870	-173
995.948	-81
996.026	490
996.104	-1167
996.182	587
996.260	334
996.338	218
996.416	-296
996.494	-394
996.572	451
996.649	-403
996.727	-937
996.805	343
996.883	-292
996.960	-715
997.038	594
997.116	618
997.193	-578
997.271	-344
997.348	-647
997.426	-235
997.504	-750
997.581	888
997.658	190
997.736	-1200
997.813	-1282
997.891	421
997.968	-642
998.046	596
998.123	-213
998.200	327
998.277	-645
998.355	-422
998.432	-977
998.509	-417
998.586	19
998.663	367
998.741	619
998.818	-797
998.895	-47
998.972	861
999.049	-1043
999.126	-1322
999.203	944
999.280	228
999.357	-691
999.434	59
999.511	486
999.587	270
999.664	510
999.741	357
999.818	1554
999.895	-128
999.971	-5
1000.048	-874
1000.125	596
1000.202	431
1000.278	165
1000.355	-119
1000.431	-158
1000.508	-881
1000.584	-172
1000.661	-365
1000.738	-824
1000.814	-284
1000.890	561
1000.967	-292
1001.043	601
1001.120	-476
1001.196	-948
1001.272	-1214
1001.349	-31
1001.425	170
1001.501	-598
1001.577	-1427
1001.654	-942
1001.730	-513
1001.806	-798
1001.882	-1181
1001.958	-537
1002.034	218
1002.110	371
1002.186	-773
1002.262	-1187
1002.338	-1340
1002.414	-455
1002.490	-5
1002.566	-48
1002.642	-849
1002.718	809
1002.794	310
1002.870	-1280
1002.945	-716
1003.021	-657
1003.097	-183
1003.173	118
1003.248	-773
1003.324	-842
1003.400	690
1003.475	-1589
1003.551	-654
1003.626	-922
1003.702	-671
1003.777	-1072
1003.853	-381
1003.928	-399
1004.004	-212
1004.079	-88
1004.155	119
1004.230	-1294
1004.305	-339
1004.381	-350
1004.456	-627
1004.531	-1281
1004.607	-192
1004.682	-1077
1004.757	-770
1004.832	-1004
1004.907	105
1004.982	-431
1005.057	-397
1005.133	-1348
1005.208	-935
1005.283	-946
1005.358	-655
1005.433	-1254
1005.508	606
1005.583	104
1005.657	19
1005.732	231
1005.807	-1105
1005.882	-596
1005.957	-718
1006.032	-869
1006.106	-526
1006.181	-872
1006.256	-879
1006.331	-892
1006.405	-578
1006.480	-540
1006.554	-723
1006.629	-1245
1006.704	-1218
1006.778	-873
1006.853	-511
1006.927	-1675
1007.002	-384
1007.076	-465
1007.150	-657
1007.225	-909
1007.299	116
1007.373	-1169
1007.448	-990
1007.522	-245
1007.596	-518
1007.671	-326
1007.745	-479
1007.819	-1538
1007.893	-887
1007.967	-582
1008.041	-2051
1008.115	-787
1008.190	-640
1008.264	-969
1008.338	-2023
1008.412	-704
1008.486	-1463
1008.560	-787
1008.633	-1056
1008.707	-1168
1008.781	-495
1008.855	-1151
1008.929	-922
1009.003	-1296
1009.076	-1524
1009.150	-589
1009.224	-950
1009.298	-1072
1009.371	-2133
1009.445	-828
1009.519	-670
1009.592	-2051
1009.666	-902
1009.739	-1056
1009.813	-1493
1009.886	308
1009.960	-2231
1010.033	-828
1010.107	-943
1010.180	-1894
1010.253	-929
1010.327	-1099
1010.400	-1749
1010.473	-695
1010.547	331
1010.620	-1791
1010.693	-578
1010.766	-1891
1010.840	-1529
1010.913	-1444
1010.986	-1695
1011.059	-1714
1011.132	-1103
1011.205	-930
1011.278	-991
1011.351	-1058
1011.424	-741
1011.497	-1524
1011.570	-992
1011.643	-611
1011.716	-1342
1011.789	-1321
1011.862	-766
1011.934	-618
1012.007	-2202
1012.080	-1284
1012.153	-949
1012.225	-638
1012.298	-908
1012.371	-1678
1012.443	-977
1012.516	-1646
1012.588	-969
1012.661	-1357
1012.733	-2278
1012.806	-1327
1012.879	-640
1012.951	-1561
1013.023	-1624
1013.096	-1177
1013.168	-1023
1013.241	-600
1013.313	-965
1013.385	-1271
1013.458	-732
1013.530	-924
1013.602	-1176
1013.674	-1064
1013.746	-1248
1013.819	-1866
1013.891	-799
1013.963	-1853
1014.035	-1294
1014.107	-1246
1014.179	-376
1014.251	-2244
1014.323	-795
1014.395	-1466
1014.467	-406
1014.539	-815
1014.611	-2282
1014.683	-1463
1014.754	-1247
1014.826	-1788
1014.898	-883
1014.970	-2132
1015.042	-1477
1015.113	-1201
1015.185	-1280
1015.257	-2606
1015.328	-1583
1015.400	-2440
1015.471	-964
1015.543	-1875
1015.615	-1455
1015.686	-1465
1015.757	-1400
1015.829	-1100
1015.901	-1716
1015.972	-1140
1016.043	-1825
1016.115	-1002
1016.186	-1137
1016.257	-1309
1016.328	-373
1016.400	-954
1016.471	-1673
1016.542	-2273
1016.613	-1280
1016.685	-2002
1016.756	-1321
1016.827	-1749
1016.898	-2187
1016.969	-1016
1017.040	-1877
1017.111	-1630
1017.182	-1916
1017.253	-1321
1017.324	-1248
1017.395	-1767
1017.466	-868
1017.537	-1460
1017.608	-1014
1017.678	-1226
1017.749	-2164
1017.820	-1920
1017.891	-1594
1017.961	-2083
1018.032	-1079
1018.103	-1664
1018.173	-1211
1018.244	-1679
1018.315	-1381
1018.385	-1815
1018.456	-1708
1018.526	-2139
1018.597	-1667
1018.667	-1765
1018.738	-1751
1018.808	-1548
1018.878	-1917
1018.949	-1363
1019.019	-1456
1019.089	-1168
1019.160	-1608
1019.230	-2320
1019.300	-1423
1019.371	-1844
1019.441	-745
1019.511	-1089
1019.581	-1518
1019.651	-1408
1019.721	-1243
1019.791	-1736
1019.861	-1392
1019.931	-2026
1020.001	-1504
1020.071	-722
1020.141	-1833
1020.211	-1791
1020.281	-1565
1020.351	-1143
1020.421	-1521
1020.491	-1094
1020.560	-1925
1020.630	-2095
1020.700	-924
1020.770	-2292
1020.839	-2176
1020.909	-1832
1020.979	-1806
1021.048	-1004
1021.118	-1881
1021.187	-1947
1021.257	-2363
1021.326	-1380
1021.396	-2669
1021.465	-853
1021.535	-585
1021.604	-2012
1021.674	-1870
1021.743	-2403
1021.812	-1988
1021.882	-1546
1021.951	-1903
1022.020	-1589
1022.089	-1999
1022.159	-1330
1022.228	-2019
1022.297	-1457
1022.366	-2054
1022.435	-1486
1022.504	-2023
1022.573	-1578
1022.642	-1658
1022.711	-2173
1022.781	-1064
1022.849	-1401
1022.918	-2531
1022.987	-1708
1023.056	-1680
1023.125	-2369
1023.194	-2192
1023.263	-2184
1023.331	-1137
1023.400	-2262
1023.469	-2169
1023.538	-1355
1023.606	-2458
1023.675	-1615
1023.744	-1813
1023.812	-1722
1023.881	-1801
1023.949	-1215
1024.018	-2007
1024.086	-2136
1024.155	-1817
1024.223	-1596
1024.292	-1727
1024.360	-1835
1024.429	-1147
1024.497	-2184
1024.565	-1556
1024.634	-2276
1024.702	-1263
1024.770	-2066
1024.838	-2007
1024.907	-1286
1024.975	-1566
1025.043	-1966
1025.111	-1819
1025.179	-1296
1025.247	-1749
1025.315	-2130
1025.383	-1701
1025.451	-1972
1025.519	-2018
1025.587	-1579
1025.655	-1607
1025.723	-2917
1025.791	-2002
1025.859	-1896
1025.927	-1030
1025.995	-2397
1026.062	-1346
1026.130	-1671
1026.198	-2564
1026.266	-1516
1026.333	-1458
1026.401	-2003
1026.469	-2603
1026.536	-2005
1026.604	-2032
1026.671	-1622
1026.739	-2300
1026.806	-2025
1026.874	-2036
1026.941	-1713
1027.009	-1929
1027.076	-1664
1027.144	-1350
1027.211	-2103
1027.278	-1958
1027.345	-2001
1027.413	-2120
1027.480	-1679
1027.547	-1295
1027.614	-2001
1027.682	-1810
1027.749	-1370
1027.816	-1926
1027.883	-1383
1027.950	-1528
1028.017	-2987
1028.084	-1980
1028.151	-2613
1028.218	-1986
1028.285	-1259
1028.352	-1871
1028.419	-2001
1028.486	-1419
1028.553	-1658
1028.619	-2266
1028.686	-2148
1028.753	-2311
1028.820	-2081
1028.886	-2266
1028.953	-2451
1029.020	-2155
1029.086	-2199
1029.153	-1792
1029.220	-1941
1029.286	-1524
1029.353	-2057
1029.419	-1459
1029.486	-1201
1029.552	-2032
1029.619	-1451
1029.685	-2018
1029.751	-2035
1029.818	-1181
1029.884	-2059
1029.951	-463
1030.017	-2679
1030.083	-1352
1030.149	-2191
1030.216	-2396
1030.282	-2215
1030.348	-2287
1030.414	-2314
1030.480	-1909
1030.546	-2007
1030.612	-1512
1030.678	-2726
1030.744	-2044
1030.810	-1803
1030.876	-2549
1030.942	-1911
1031.008	-1870
1031.074	-2242
1031.140	-2310
1031.206	-1105
1031.272	-2513
1031.337	-1631
1031.403	-1641
1031.469	-1806
1031.534	-2080
1031.600	-1876
1031.666	-2672
1031.731	-2287
1031.797	-1107
1031.863	-2660
1031.928	-2005
1031.994	-1828
1032.059	-1997
1032.125	-2509
1032.190	-1646
1032.256	-3123
1032.321	-2202
1032.386	-2241
1032.452	-1550
1032.517	-2107
1032.582	-1880
1032.647	-1235
1032.713	-2286
1032.778	-1399
1032.843	-2429
1032.908	-1939
1032.974	-1864
1033.039	-2263
1033.104	-1655
1033.169	-1543
1033.234	-1536
1033.299	-800
1033.364	-785
1033.429	-1153
1033.494	-1418
1033.559	-1948
1033.624	-1901
1033.688	-1230
1033.753	-2406
1033.818	-1519
1033.883	-700
1033.948	-1195
1034.013	-998
1034.077	-1177
1034.142	-338
1034.207	575
1034.271	909
1034.336	1979
1034.400	900
1034.465	-234
1034.530	-789
1034.594	-959
1034.658	-1024
1034.723	-1123
1034.787	-1927
1034.852	-2727
1034.916	-2087
1034.981	-2023
1035.045	-1603
1035.109	-2482
1035.173	-1623
1035.238	-1914
1035.302	-1701
1035.366	-1681
1035.430	-2018
1035.495	-2687
1035.559	-1840
1035.623	-1811
1035.687	-1931
1035.751	-2725
1035.815	-2340
1035.879	-2445
1035.943	-1943
1036.007	-1245
1036.071	-1787
1036.135	-2880
1036.198	-1835
1036.262	-2159
1036.326	-1073
1036.390	-1386
1036.454	-1887
1036.517	-2127
1036.581	-779
1036.645	-641
1036.709	-600
1036.772	-2546
1036.836	-1693
1036.900	-1932
1036.963	-1548
1037.026	-2119
1037.090	-2205
1037.154	-1599
1037.217	-1402
1037.280	-3008
1037.344	-2053
1037.407	-2279
1037.471	-883
1037.534	-2067
1037.597	-1607
1037.661	-1754
1037.724	-2056
1037.787	-1913
1037.850	-1973
1037.913	-2032
1037.977	-1442
1038.040	-1586
1038.103	-1552
1038.166	-3041
1038.229	-1635
1038.292	-2136
1038.355	-1313
1038.418	-1698
1038.481	-882
1038.544	-1513
1038.607	-2024
1038.670	-1975
1038.732	-1393
1038.795	-1859
1038.858	-2082
1038.921	-1392
1038.984	-951
1039.046	-1659
1039.109	-1888
1039.172	-1542
1039.234	-1614
1039.297	-1494
1039.360	-2304
1039.422	-1691
1039.485	-1613
1039.547	-2029
1039.610	-2108
1039.672	-1128
1039.734	-1419
1039.797	-2375
1039.859	-2309
1039.922	-2584
1039.984	-1667
1040.046	-2193
1040.109	-2161
1040.171	-2425
1040.233	-2154
1040.295	-1875
1040.358	-2533
1040.420	-2783
1040.482	-2055
1040.544	-2039
1040.606	-2242
1040.668	-2004
1040.730	-1339
1040.792	-2465
1040.854	-1908
1040.916	-1781
1040.978	-2220
1041.040	-1613
1041.102	-2333
1041.164	-2399
1041.225	-2266
1041.287	-2875
1041.349	-1743
1041.411	-1854
1041.472	-2386
1041.534	-2330
1041.596	-2096
1041.657	-2404
1041.719	-2369
1041.781	-2349
1041.842	-1861
1041.904	-1630
1041.965	-1296
1042.027	-753
1042.088	-1503
1042.150	-1457
1042.211	-2271
1042.272	-1366
1042.334	-1644
1042.395	-2473
1042.456	-2113
1042.518	-1865
1042.579	-2598
1042.640	-1934
1042.701	-1737
1042.763	-2616
1042.824	-1900
1042.885	-2041
1042.946	-2099
1043.007	-2158
1043.068	-1896
1043.129	-2195
1043.190	-2346
1043.251	-1813
1043.312	-1716
1043.373	-2358
1043.434	-2850
1043.495	-1661
1043.556	-1153
1043.616	-1467
1043.677	-2744
1043.738	-1070
1043.799	-1964
1043.859	-2105
1043.920	-1518
1043.981	-2287
1044.041	-2211
1044.102	-2548
1044.162	-2177
1044.223	-1940
1044.284	-2440
1044.344	-1968
1044.405	-2216
1044.465	-2064
1044.525	-2311
1044.586	-1967
1044.646	-1796
1044.707	-2380
1044.767	-1490
1044.827	-1469
1044.887	-1666
1044.948	-1333
1045.008	-1760
1045.068	-1715
1045.128	-2060
1045.188	-2103
1045.249	-1251
1045.309	-1909
1045.369	-1715
1045.429	-1462
1045.489	-2189
1045.549	-2465
1045.609	-2433
1045.669	-1721
1045.729	-2261
1045.789	-2180
1045.848	-1922
1045.908	-1921
1045.968	-1489
1046.028	-2509
1046.088	-1882
1046.147	-1375
1046.207	-2215
1046.267	-1823
1046.326	-1428
1046.386	-1845
1046.446	-2162
1046.505	-1145
1046.565	-917
1046.624	-969
1046.684	-1121
1046.743	-1511
1046.803	-737
1046.862	-522
1046.922	0
