'Start Wavelength	183.907
'End Wavelength	1046.922
'Gate Delay	5.000
'Gate Width (ms)	1.050
'Laser Output Level	0.000
'X Position	0.000
'Y Position	0.000
'Z Position	0.000
'Grid Point Number	1.000
'Shot Number	100.000
183.907	312.000
183.977	-346.000
184.047	-384
184.116	816
184.186	-77
184.256	-47
184.325	-645
184.395	-711
184.465	92
184.534	-311
184.604	-738
184.674	-5
184.743	-644
184.813	563
184.883	-229
184.952	16
185.022	-742
185.092	-89
185.161	-375
185.231	-21
185.301	-833
185.370	950
185.440	-312
185.509	-289
185.579	-104
185.649	369
185.718	-205
185.788	512
185.857	-311
185.927	291
185.996	753
186.066	255
186.136	9
186.205	-118
186.275	135
186.344	-418
186.414	-110
186.483	261
186.553	585
186.622	653
186.692	115
186.761	-622
186.831	40
186.900	-96
186.970	-335
187.039	1235
187.109	134
187.178	114
187.248	236
187.317	109
187.387	-702
187.456	-109
187.526	-515
187.595	-105
187.664	358
187.734	392
187.803	-504
187.873	-270
187.942	-164
188.012	1245
188.081	-413
188.150	-368
188.220	890
188.289	314
188.358	31
188.428	650
188.497	-517
188.567	468
188.636	228
188.705	-144
188.775	505
188.844	436
188.913	838
188.983	-416
189.052	262
189.121	-38
189.191	-145
189.260	1254
189.329	-587
189.399	-21
189.468	-98
189.537	102
189.606	191
189.676	139
189.745	811
189.814	598
189.883	-289
189.953	-449
190.022	-101
190.091	400
190.161	564
190.230	332
190.299	-599
190.368	325
190.437	182
190.507	-30
190.576	-554
190.645	-93
190.714	473
190.783	-923
190.853	9
190.922	155
190.991	100
191.060	-188
191.129	-1184
191.198	280
191.268	-333
191.337	496
191.406	278
191.475	309
191.544	-319
191.613	18
191.682	-167
191.752	-198
191.821	-457
191.890	918
191.959	-644
192.028	328
192.097	-415
192.166	644
192.235	-31
192.304	570
192.373	-550
192.442	-259
192.511	-263
192.580	236
192.650	183
192.719	273
192.788	-169
192.857	89
192.926	-218
192.995	-29
193.064	-599
193.133	423
193.202	-458
193.271	838
193.340	821
193.409	-230
193.478	244
193.547	168
193.615	1017
193.684	431
193.753	143
193.822	1128
193.891	32
193.960	369
194.029	-643
194.098	731
194.167	-654
194.236	685
194.305	-85
194.374	185
194.443	39
194.512	771
194.580	-100
194.649	230
194.718	-283
194.787	314
194.856	-636
194.925	101
194.994	698
195.062	-230
195.131	-139
195.200	-100
195.269	245
195.338	206
195.407	-229
195.475	-151
195.544	39
195.613	354
195.682	89
195.751	49
195.819	-538
195.888	600
195.957	572
196.026	1121
196.094	417
196.163	0
196.232	178
196.301	191
196.369	902
196.438	463
196.507	-48
196.576	-231
196.644	-264
196.713	385
196.782	-293
196.850	586
196.919	-301
196.988	429
197.056	-265
197.125	718
197.194	260
197.262	-491
197.331	-418
197.400	-266
197.468	-663
197.537	-502
197.606	-469
197.674	987
197.743	167
197.812	235
197.880	-44
197.949	550
198.017	945
198.086	880
198.155	491
198.223	152
198.292	84
198.360	209
198.429	-78
198.497	97
198.566	219
198.635	638
198.703	269
198.772	13
198.840	478
198.909	695
198.977	-456
199.046	709
199.114	-137
199.183	51
199.251	-365
199.320	157
199.388	521
199.457	-106
199.525	270
199.594	-373
199.662	71
199.731	338
199.799	76
199.867	155
199.936	-466
200.004	402
200.073	460
200.141	49
200.210	82
200.278	-15
200.346	-764
200.415	1241
200.483	417
200.552	564
200.620	440
200.688	226
200.757	64
200.825	685
200.893	418
200.962	540
201.030	309
201.098	619
201.167	-579
201.235	801
201.303	-535
201.372	463
201.440	-190
201.508	413
201.577	409
201.645	136
201.713	-158
201.781	-154
201.850	499
201.918	38
201.986	86
202.055	927
202.123	115
202.191	654
202.259	538
202.327	528
202.396	-74
202.464	649
202.532	34
202.600	1208
202.669	693
202.737	453
202.805	108
202.873	389
202.941	797
203.009	-75
203.078	488
203.146	1049
203.214	-365
203.282	854
203.350	671
203.418	15
203.487	214
203.555	-145
203.623	291
203.691	-7
203.759	531
203.827	398
203.895	236
203.963	48
204.031	-660
204.099	721
204.168	-926
204.236	946
204.304	-158
204.372	501
204.440	588
204.508	782
204.576	33
204.644	299
204.712	910
204.780	547
204.848	748
204.916	865
204.984	8
205.052	923
205.120	-158
205.188	640
205.256	-520
205.324	410
205.392	569
205.460	768
205.528	338
205.596	842
205.664	1358
205.732	665
205.799	681
205.867	1696
205.935	184
206.003	1523
206.071	982
206.139	10
206.207	234
206.275	447
206.343	869
206.411	522
206.478	429
206.546	770
206.614	745
206.682	17
206.750	-45
206.818	1107
206.885	871
206.953	-479
207.021	740
207.089	654
207.157	-554
207.225	808
207.292	-209
207.360	515
207.428	-145
207.496	887
207.563	-348
207.631	505
207.699	341
207.767	1246
207.834	515
207.902	-167
207.970	576
208.038	1438
208.105	225
208.173	501
208.241	433
208.309	1735
208.376	636
208.444	939
208.512	425
208.579	-22
208.647	903
208.715	1637
208.782	203
208.850	874
208.918	787
208.985	591
209.053	983
209.120	399
209.188	-168
209.256	365
209.323	218
209.391	829
209.459	964
209.526	940
209.594	70
209.661	834
209.729	363
209.796	969
209.864	755
209.932	645
209.999	1314
210.067	867
210.134	642
210.202	557
210.269	737
210.337	696
210.404	286
210.472	1411
210.539	729
210.607	141
210.674	467
210.742	1031
210.809	445
210.877	1434
210.944	409
211.012	411
211.079	1103
211.146	409
211.214	859
211.281	1280
211.349	479
211.416	607
211.484	1595
211.551	307
211.618	475
211.686	670
211.753	742
211.821	1045
211.888	535
211.955	801
212.023	467
212.090	408
212.157	212
212.225	917
212.292	1494
212.359	2406
212.427	2958
212.494	2267
212.561	1043
212.629	1435
212.696	-84
212.763	938
212.831	488
212.898	1971
212.965	685
213.032	725
213.100	428
213.167	1100
213.234	1267
213.301	1803
213.369	1049
213.436	676
213.503	622
213.570	788
213.638	441
213.705	477
213.772	-420
213.839	243
213.906	799
213.973	1186
214.041	625
214.108	774
214.175	877
214.242	1306
214.309	733
214.376	1652
214.444	-133
214.511	972
214.578	671
214.645	2334
214.712	1606
214.779	1192
214.846	-241
214.913	1572
214.980	1119
215.048	1574
215.115	853
215.182	1886
215.249	1210
215.316	1379
215.383	1088
215.450	1225
215.517	782
215.584	1042
215.651	521
215.718	1340
215.785	1193
215.852	1264
215.919	1747
215.986	1224
216.053	569
216.120	330
216.187	1364
216.254	636
216.321	871
216.388	1317
216.455	1253
216.522	780
216.589	959
216.656	1718
216.722	1704
216.789	1701
216.856	998
216.923	1878
216.990	2073
217.057	2045
217.124	1740
217.191	1643
217.258	1859
217.324	1862
217.391	2423
217.458	2230
217.525	1531
217.592	2090
217.659	1096
217.725	1984
217.792	1381
217.859	2422
217.926	393
217.993	1706
218.059	1554
218.126	1712
218.193	1064
218.260	999
218.327	264
218.393	1255
218.460	796
218.527	1256
218.594	596
218.660	1685
218.727	1532
218.794	439
218.860	1128
218.927	180
218.994	581
219.061	534
219.127	806
219.194	1864
219.261	435
219.327	497
219.394	851
219.461	54
219.527	468
219.594	1312
219.661	210
219.727	312
219.794	644
219.860	316
219.927	137
219.994	911
220.060	1511
220.127	2750
220.193	1810
220.260	1710
220.326	1979
220.393	2799
220.460	3360
220.526	2757
220.593	1770
220.659	2400
220.726	1505
220.792	4198
220.859	3471
220.925	5508
220.992	5089
221.058	5858
221.125	4126
221.191	2763
221.258	1610
221.324	2385
221.391	1345
221.457	1328
221.524	871
221.590	2286
221.657	3381
221.723	2580
221.789	2009
221.856	1692
221.922	1314
221.989	1991
222.055	1589
222.121	917
222.188	1962
222.254	1023
222.321	953
222.387	630
222.453	967
222.520	460
222.586	458
222.652	1539
222.719	152
222.785	656
222.851	822
222.918	437
222.984	346
223.050	718
223.116	501
223.183	904
223.249	421
223.315	150
223.382	292
223.448	1075
223.514	151
223.580	618
223.647	147
223.713	603
223.779	464
223.845	545
223.911	788
223.978	622
224.044	338
224.110	575
224.176	1086
224.242	1453
224.309	-13
224.375	966
224.441	704
224.507	349
224.573	-366
224.639	631
224.705	-233
224.772	1320
224.838	-24
224.904	457
224.970	333
225.036	763
225.102	414
225.168	1635
225.234	892
225.300	779
225.366	579
225.432	1131
225.499	943
225.565	584
225.631	422
225.697	1646
225.763	1622
225.829	1627
225.895	935
225.961	1561
226.027	1864
226.093	1712
226.159	2322
226.225	4057
226.291	6563
226.357	8823
226.423	5433
226.489	3450
226.554	2607
226.620	3083
226.686	2121
226.752	4198
226.818	6128
226.884	9404
226.950	8198
227.016	5472
227.082	3957
227.148	2882
227.214	2008
227.279	2068
227.345	1307
227.411	1704
227.477	2259
227.543	3486
227.609	3489
227.674	2666
227.740	1031
227.806	1914
227.872	916
227.938	1716
228.003	1686
228.069	1541
228.135	79
228.201	1142
228.267	371
228.332	1244
228.398	462
228.464	1675
228.530	-41
228.595	767
228.661	318
228.727	1598
228.792	1977
228.858	415
228.924	169
228.990	1974
229.055	-77
229.121	2172
229.187	813
229.252	950
229.318	256
229.384	1164
229.449	466
229.515	-256
229.581	-521
229.646	1695
229.712	1252
229.777	1902
229.843	1184
229.909	1857
229.974	2217
230.040	1314
230.105	2171
230.171	1618
230.236	1364
230.302	3342
230.368	2435
230.433	1086
230.499	1402
230.564	2414
230.630	535
230.695	1150
230.761	1756
230.826	920
230.892	1546
230.957	997
231.023	135
231.088	692
231.154	1438
231.219	1534
231.284	1731
231.350	1518
231.415	361
231.481	757
231.546	654
231.612	966
231.677	618
231.742	316
231.808	1505
231.873	253
231.939	-320
232.004	2536
232.069	917
232.135	635
232.200	278
232.265	1292
232.331	658
232.396	664
232.461	263
232.527	665
232.592	-67
232.657	620
232.723	1079
232.788	249
232.853	539
232.918	623
232.984	298
233.049	906
233.114	63
233.179	1375
233.245	1387
233.310	1488
233.375	330
233.440	374
233.506	784
233.571	890
233.636	1078
233.701	442
233.766	69
233.832	1525
233.897	291
233.962	270
234.027	639
234.092	1120
234.157	614
234.222	907
234.288	1255
234.353	2235
234.418	1839
234.483	2616
234.548	1352
234.613	1678
234.678	1977
234.743	1592
234.808	3335
234.873	1428
234.938	2434
235.004	1967
235.069	1326
235.134	1233
235.199	1431
235.264	1426
235.329	313
235.394	1368
235.459	1854
235.524	450
235.589	798
235.654	1615
235.719	-383
235.784	1348
235.849	774
235.913	2016
235.978	1463
236.043	2010
236.108	1045
236.173	283
236.238	1449
236.303	866
236.368	1078
236.433	1741
236.498	1636
236.563	3616
236.627	6206
236.692	13233
236.757	12372
236.822	5888
236.887	3754
236.952	3922
237.017	2468
237.081	4382
237.146	4719
237.211	10037
237.276	13897
237.341	15828
237.405	11925
237.470	6005
237.535	3819
237.600	3407
237.664	2583
237.729	1728
237.794	2897
237.859	6651
237.923	4254
237.988	1953
238.053	2479
238.118	1802
238.182	3436
238.247	4069
238.312	1075
238.376	2015
238.441	-298
238.506	2341
238.570	139
238.635	2276
238.700	551
238.764	278
238.829	1906
238.893	1587
238.958	1783
239.023	2171
239.087	404
239.152	2032
239.216	216
239.281	1595
239.346	1394
239.410	1149
239.475	852
239.539	3757
239.604	1149
239.668	2179
239.733	683
239.797	2974
239.862	5895
239.926	4467
239.991	2448
240.055	1445
240.120	1072
240.184	1662
240.249	372
240.313	685
240.378	421
240.442	1554
240.507	2305
240.571	1946
240.635	271
240.700	2508
240.764	608
240.829	1082
240.893	-295
240.957	1256
241.022	1798
241.086	2454
241.151	658
241.215	322
241.279	1726
241.344	1595
241.408	1178
241.472	2377
241.537	1977
241.601	2935
241.665	1275
241.730	1924
241.794	1795
241.858	1643
241.922	1620
241.987	2266
242.051	1409
242.115	1290
242.179	1834
242.244	1380
242.308	2553
242.372	1859
242.436	818
242.501	2428
242.565	974
242.629	1461
242.693	1652
242.757	584
242.822	1666
242.886	1786
242.950	2240
243.014	1352
243.078	2136
243.142	1990
243.206	518
243.271	1465
243.335	1088
243.399	2772
243.463	6496
243.527	14381
243.591	5602
243.655	3026
243.719	1389
243.783	2684
243.847	2388
243.911	4296
243.975	3865
244.040	1828
244.104	2412
244.168	1727
244.232	1937
244.296	2881
244.360	2792
244.424	1393
244.488	1108
244.552	2255
244.615	-240
244.679	798
244.743	714
244.807	981
244.871	1753
244.935	1338
244.999	276
245.063	2023
245.127	1660
245.191	1461
245.255	2086
245.319	2160
245.383	329
245.446	1719
245.510	-302
245.574	1565
245.638	1227
245.702	674
245.766	3253
245.829	2643
245.893	713
245.957	958
246.021	2269
246.085	1947
246.149	1539
246.212	5240
246.276	5979
246.340	2945
246.404	2185
246.467	2855
246.531	2348
246.595	2784
246.659	1911
246.722	1739
246.786	2432
246.850	3318
246.913	2504
246.977	337
247.041	1104
247.104	1881
247.168	1978
247.232	4449
247.295	8575
247.359	4912
247.423	2042
247.486	3609
247.550	2395
247.614	1846
247.677	2184
247.741	1491
247.804	1341
247.868	2403
247.932	2843
247.995	8276
248.059	2776
248.122	1644
248.186	3618
248.249	5452
248.313	14289
248.376	13898
248.440	8436
248.503	2922
248.567	4107
248.630	4370
248.694	6278
248.757	9155
248.821	14133
248.884	10675
248.948	7937
249.011	12549
249.075	16451
249.138	14493
249.202	7199
249.265	4754
249.328	4926
249.392	3776
249.455	3743
249.519	3102
249.582	3688
249.645	5099
249.709	4403
249.772	2821
249.835	2248
249.899	2544
249.962	3035
250.025	2925
250.089	6512
250.152	8185
250.215	4017
250.279	3012
250.342	2752
250.405	3467
250.468	2314
250.532	3273
250.595	6272
250.658	15154
250.721	21639
250.785	10524
250.848	6895
250.911	3639
250.974	4146
251.038	5587
251.101	9567
251.164	4888
251.227	5051
251.290	4914
251.354	7364
251.417	19480
251.480	20148
251.543	18235
251.606	32768
251.669	26663
251.732	14209
251.795	14215
251.859	13582
251.922	22784
251.985	14251
252.048	7161
252.111	5376
252.174	4491
252.237	8829
252.300	17343
252.363	17780
252.426	27407
252.489	12484
252.552	6611
252.615	4074
252.678	6038
252.741	12928
252.804	16196
252.867	29492
252.930	19336
252.993	10290
253.056	8106
253.119	3914
253.182	3492
253.245	5391
253.308	4888
253.371	3440
253.434	3412
253.497	3758
253.559	7257
253.622	4344
253.685	4928
253.748	5101
253.811	2783
253.874	3731
253.937	3352
254.000	3265
254.062	5389
254.125	7855
254.188	6411
254.251	5204
254.314	3017
254.376	4542
254.439	6075
254.502	4886
254.565	5579
254.628	10253
254.690	5317
254.753	2948
254.816	2688
254.878	2336
254.941	6400
255.004	5540
255.067	3173
255.129	2338
255.192	1786
255.255	107
255.317	2168
255.380	1044
255.443	1579
255.505	29
255.568	19
255.631	121
255.693	1627
255.756	-535
255.819	1448
255.881	1093
255.944	662
256.006	84
256.069	856
256.132	657
256.194	1340
256.257	1411
256.319	2189
256.382	1720
256.444	1934
256.507	2292
256.569	1359
256.632	2420
256.694	2915
256.757	11282
256.819	25845
256.882	11373
256.944	5536
257.007	4016
257.069	3635
257.132	2434
257.194	3274
257.257	1794
257.319	1944
257.381	3068
257.444	9728
257.506	27451
257.569	31281
257.631	13929
257.693	9203
257.756	3840
257.818	2776
257.880	2287
257.943	3070
258.005	1866
258.067	2154
258.130	1793
258.192	2466
258.254	3034
258.317	3149
258.379	2085
258.441	4701
258.503	4460
258.566	3051
258.628	3991
258.690	1273
258.753	2490
258.815	4531
258.877	2301
258.939	2292
259.001	2045
259.064	2129
259.126	2175
259.188	2484
259.250	2072
259.312	2597
259.375	4314
259.437	2152
259.499	693
259.561	2495
259.623	2462
259.685	1483
259.747	2243
259.809	3782
259.872	4961
259.934	9453
259.996	7376
260.058	2186
260.120	811
260.182	1691
260.244	1160
260.306	855
260.368	1336
260.430	695
260.492	1315
260.554	4198
260.616	1941
260.678	4875
260.740	4934
260.802	2273
260.864	1812
260.926	1572
260.988	1926
261.050	1431
261.112	1826
261.174	5791
261.236	3576
261.298	2223
261.359	2442
261.421	3594
261.483	574
261.545	1558
261.607	-22
261.669	1231
261.731	1971
261.793	4658
261.854	1904
261.916	2283
261.978	666
262.040	1187
262.102	786
262.164	1241
262.225	1071
262.287	1333
262.349	3811
262.411	3402
262.472	1390
262.534	1344
262.596	1931
262.658	1720
262.719	439
262.781	2023
262.843	1119
262.904	1403
262.966	1728
263.028	1122
263.090	6953
263.151	17867
263.213	6277
263.275	3571
263.336	1912
263.398	1990
263.459	579
263.521	634
263.583	3308
263.644	1914
263.706	-4
263.767	770
263.829	331
263.891	-72
263.952	603
264.014	111
264.075	307
264.137	1921
264.198	1717
264.260	333
264.321	-1
264.383	2204
264.444	3480
264.506	948
264.567	435
264.629	2417
264.690	1089
264.752	2328
264.813	1160
264.875	-245
264.936	960
264.998	766
265.059	724
265.120	1375
265.182	2297
265.243	16047
265.305	16625
265.366	4491
265.427	1689
265.489	1409
265.550	-218
265.611	1535
265.673	610
265.734	998
265.795	859
265.857	1536
265.918	213
265.979	4954
266.040	24483
266.102	21200
266.163	6705
266.224	4459
266.286	1746
266.347	1483
266.408	1401
266.469	852
266.530	-13
266.592	772
266.653	3228
266.714	3427
266.775	1066
266.836	1635
266.898	187
266.959	1379
267.020	1193
267.081	2109
267.142	1040
267.203	1157
267.264	-407
267.326	1624
267.387	479
267.448	810
267.509	493
267.570	1113
267.631	452
267.692	-151
267.753	1478
267.814	99
267.875	2768
267.936	4958
267.997	2550
268.058	3289
268.119	1086
268.180	1558
268.241	972
268.302	1314
268.363	-340
268.424	1065
268.485	579
268.546	825
268.607	494
268.668	327
268.729	674
268.790	514
268.851	1129
268.912	3025
268.972	4406
269.033	2421
269.094	583
269.155	944
269.216	-47
269.277	1093
269.338	993
269.398	992
269.459	358
269.520	2565
269.581	2651
269.642	3349
269.702	1980
269.763	1582
269.824	1377
269.885	1314
269.945	2563
270.006	1407
270.067	-165
270.128	919
270.188	576
270.249	522
270.310	-182
270.370	1185
270.431	476
270.492	821
270.553	404
270.613	2681
270.674	6029
270.734	1522
270.795	1079
270.856	1905
270.916	585
270.977	908
271.038	1289
271.098	1920
271.159	2230
271.219	1923
271.280	841
271.340	335
271.401	967
271.462	2023
271.522	1029
271.583	1364
271.643	499
271.704	1492
271.764	1834
271.825	4820
271.885	14623
271.946	18874
272.006	5288
272.066	9453
272.127	14452
272.187	5859
272.248	2709
272.308	2622
272.369	9254
272.429	5414
272.489	3884
272.550	3547
272.610	4319
272.671	2920
272.731	1394
272.791	2627
272.852	1950
272.912	2234
272.972	748
273.033	972
273.093	1130
273.153	2102
273.214	1071
273.274	1375
273.334	5726
273.394	13137
273.455	4398
273.515	5232
273.575	10936
273.635	4015
273.696	5807
273.756	12172
273.816	5666
273.876	2616
273.936	2481
273.997	5231
274.057	1085
274.117	973
274.177	3320
274.237	17181
274.297	12059
274.358	7231
274.418	10664
274.478	8427
274.538	1857
274.598	1402
274.658	4176
274.718	4861
274.778	2537
274.838	1281
274.898	1645
274.958	6604
275.018	11379
275.078	7273
275.138	2421
275.198	1410
275.258	1325
275.318	1402
275.378	3457
275.438	4595
275.498	1945
275.558	3985
275.618	8752
275.678	8278
275.738	5033
275.798	3879
275.858	1106
275.918	993
275.978	1401
276.038	1861
276.098	789
276.157	3474
276.217	10906
276.277	4294
276.337	2964
276.397	1491
276.457	1953
276.517	1050
276.576	1338
276.636	898
276.696	1983
276.756	6233
276.815	3621
276.875	1731
276.935	1401
276.995	1526
277.055	1018
277.114	862
277.174	1762
277.234	8461
277.293	3062
277.353	940
277.413	1386
277.472	730
277.532	837
277.592	1670
277.651	5740
277.711	10820
277.771	3025
277.830	13621
277.890	10297
277.950	7104
278.009	18489
278.069	7558
278.128	7833
278.188	10275
278.248	4662
278.307	11994
278.367	6959
278.426	1772
278.486	1978
278.545	510
278.605	168
278.664	1205
278.724	1225
278.783	5059
278.843	11805
278.902	3821
278.962	1642
279.021	2606
279.081	2677
279.140	2380
279.199	2687
279.259	3400
279.318	2576
279.378	3544
279.437	6555
279.496	21709
279.556	41292
279.615	28220
279.675	8820
279.734	6013
279.793	10602
279.853	16944
279.912	6734
279.971	3982
280.031	2597
280.090	7482
280.149	13366
280.208	7543
280.268	24527
280.327	24788
280.386	5858
280.445	6751
280.505	5623
280.564	2602
280.623	1528
280.682	4506
280.742	7187
280.801	2022
280.860	434
280.919	1748
280.978	573
281.037	472
281.097	44
281.156	1019
281.215	697
281.274	1247
281.333	8159
281.392	5723
281.451	1272
281.510	741
281.569	243
281.628	499
281.688	1035
281.747	1057
281.806	1291
281.865	-185
281.924	179
281.983	1322
282.042	-1259
282.101	335
282.160	294
282.219	912
282.278	957
282.337	5511
282.396	2674
282.454	1143
282.513	1581
282.572	8920
282.631	4280
282.690	297
282.749	647
282.808	1611
282.867	1184
282.926	1854
282.985	476
283.043	317
283.102	96
283.161	1359
283.220	3206
283.279	8496
283.338	1650
283.396	1063
283.455	1126
283.514	2036
283.573	2448
283.631	2324
283.690	1260
283.749	1009
283.808	3172
283.866	4489
283.925	659
283.984	1727
284.043	849
284.101	2920
284.160	1483
284.219	1866
284.277	2117
284.336	3358
284.395	11616
284.453	9248
284.512	4025
284.570	5345
284.629	3729
284.688	3820
284.746	3826
284.805	5067
284.863	6157
284.922	8033
284.981	10822
285.039	17208
285.098	28032
285.156	58524
285.215	73738
285.273	78780
285.332	62450
285.390	35934
285.449	22842
285.507	15664
285.566	10127
285.624	8348
285.683	6024
285.741	5034
285.799	4003
285.858	3888
285.916	3045
285.975	3006
286.033	1889
286.091	2543
286.150	243
286.208	1764
286.267	1273
286.325	1714
286.383	3431
286.442	2549
286.500	1130
286.558	1043
286.616	78
286.675	1629
286.733	2364
286.791	1175
286.850	1163
286.908	1929
286.966	4136
287.024	1830
287.083	495
287.141	807
287.199	667
287.257	2396
287.315	685
287.374	1971
287.432	5089
287.490	3512
287.548	1318
287.606	1282
287.664	1259
287.723	1565
287.781	2402
287.839	1299
287.897	689
287.955	2700
288.013	3545
288.071	11100
288.129	36460
288.187	80146
288.245	40083
288.303	14546
288.361	7710
288.419	5550
288.477	3149
288.535	2548
288.593	1682
288.651	1911
288.709	25
288.767	1194
288.825	349
288.883	140
288.941	-303
288.999	866
289.057	266
289.115	155
289.173	-416
289.231	349
289.289	822
289.346	62
289.404	378
289.462	2044
289.520	2883
289.578	15
289.636	-210
289.694	604
289.751	45
289.809	415
289.867	86
289.925	1291
289.983	959
290.040	851
290.098	374
290.156	586
290.214	975
290.271	672
290.329	-272
290.387	105
290.444	136
290.502	-452
290.560	-201
290.617	333
290.675	-947
290.733	741
290.790	1203
290.848	1070
290.906	270
290.963	944
291.021	-188
291.078	302
291.136	380
291.194	2815
291.251	7204
291.309	2132
291.366	487
291.424	818
291.481	54
291.539	247
291.596	534
291.654	-233
291.711	-36
291.769	515
291.826	1882
291.884	1120
291.941	-295
291.999	641
292.056	324
292.114	668
292.171	43
292.228	44
292.286	688
292.343	1403
292.401	1666
292.458	1706
292.515	390
292.573	1045
292.630	1128
292.687	1325
292.745	568
292.802	755
292.859	2774
292.917	9418
292.974	5217
293.031	1130
293.089	-143
293.146	385
293.203	-206
293.260	334
293.318	-420
293.375	834
293.432	82
293.489	1111
293.546	-390
293.604	1445
293.661	5268
293.718	16361
293.775	6021
293.832	2956
293.889	1832
293.947	2662
294.004	687
294.061	914
294.118	3885
294.175	8449
294.232	4642
294.289	1273
294.346	1467
294.403	1555
294.460	294
294.517	618
294.574	587
294.631	873
294.688	988
294.745	4204
294.802	15858
294.859	12284
294.916	4199
294.973	2418
295.030	2080
295.087	1405
295.144	885
295.201	1594
295.258	109
295.315	1197
295.372	7325
295.429	12513
295.486	4504
295.542	2243
295.599	3152
295.656	5480
295.713	5659
295.770	12232
295.827	4166
295.883	2354
295.940	1370
295.997	3340
296.054	2329
296.111	1233
296.167	885
296.224	741
296.281	322
296.338	685
296.394	1131
296.451	1613
296.508	5282
296.564	10041
296.621	6891
296.678	16487
296.734	20881
296.791	6955
296.848	3825
296.904	4415
296.961	9944
297.018	14899
297.074	10766
297.131	3488
297.187	2916
297.244	5259
297.301	14987
297.357	25892
297.414	10545
297.470	3427
297.527	1989
297.583	2453
297.640	1672
297.696	1164
297.753	-153
297.809	439
297.866	570
297.922	280
297.979	-322
298.035	1041
298.092	2666
298.148	7957
298.204	7865
298.261	3617
298.317	7119
298.374	17627
298.430	10369
298.486	4632
298.543	1867
298.599	1773
298.656	2536
298.712	6219
298.768	14205
298.824	9149
298.881	2759
298.937	1982
298.993	1306
299.050	1306
299.106	1710
299.162	1612
299.218	1143
299.275	1164
299.331	1646
299.387	4230
299.443	16498
299.500	19248
299.556	7370
299.612	3271
299.668	2794
299.724	5018
299.780	4416
299.837	2233
299.893	4188
299.949	14179
300.005	16882
300.061	14230
300.117	22788
300.173	10780
300.229	4475
300.285	5576
300.341	6428
300.397	3605
300.453	1065
300.510	995
300.566	1000
300.622	2416
300.678	9858
300.734	18999
300.790	14766
300.845	17646
300.901	11250
300.957	15647
301.013	11437
301.069	4126
301.125	2536
301.181	2464
301.237	1607
301.293	623
301.349	763
301.405	913
301.461	607
301.516	1785
301.572	1562
301.628	2821
301.684	2585
301.740	4918
301.796	8273
301.851	6220
301.907	10183
301.963	11700
302.019	19174
302.074	45611
302.130	45345
302.186	19644
302.242	8325
302.297	5385
302.353	5541
302.409	9896
302.464	9061
302.520	7640
302.576	15635
302.631	19125
302.687	10770
302.743	5049
302.798	2117
302.854	2779
302.910	2498
302.965	3017
303.021	4148
303.076	5540
303.132	5579
303.187	8112
303.243	4202
303.299	2645
303.354	907
303.410	1701
303.465	1544
303.521	1225
303.576	1039
303.632	2598
303.687	4546
303.743	15398
303.798	12943
303.853	5185
303.909	1722
303.964	2201
304.020	3782
304.075	7058
304.130	5481
304.186	10891
304.241	10339
304.297	8813
304.352	3632
304.358	3529
304.407	2696
304.449	1913
304.463	1652
304.518	2321
304.539	2162
304.573	1901
304.629	1854
304.630	1889
304.684	3503
304.720	8333
304.739	10804
304.794	16721
304.811	14090
304.850	7900
304.902	3578
304.905	3297
304.960	2238
304.992	1686
305.015	1270
305.071	1841
305.083	1686
305.126	1109
305.173	789
305.181	746
305.236	120
305.264	772
305.292	1402
305.347	629
305.354	765
305.402	1656
305.445	1526
305.457	1472
305.512	1892
305.535	2005
305.567	2197
305.622	3014
305.626	3138
305.678	5277
305.716	11009
305.733	13354
305.788	15415
305.807	13413
305.843	9687
305.897	12414
305.898	12446
305.953	13399
305.988	8773
306.008	6112
306.063	3680
306.078	3192
306.118	1894
306.168	2089
306.173	2109
306.228	1191
306.259	1133
306.283	1088
306.338	30
306.349	220
306.393	1029
306.440	1476
306.448	1543
306.503	1021
306.530	960
306.558	1007
306.613	3401
306.620	3661
306.668	5493
306.711	9645
306.723	10624
306.778	9993
306.801	7788
306.833	4796
306.888	1697
306.892	1660
306.943	1730
306.982	1357
306.997	1111
307.052	1195
307.072	970
307.107	656
307.162	1243
307.163	1244
307.217	1494
307.253	1328
307.272	1069
307.327	410
307.343	592
307.381	1262
307.434	1201
307.436	1211
307.491	2753
307.524	4288
307.546	5224
307.600	8662
307.614	7841
307.655	4808
307.704	2574
307.710	2370
307.765	1776
307.795	2205
307.819	2552
307.874	2639
307.885	2775
307.929	3575
307.975	4498
307.984	4735
308.038	8089
308.065	10748
308.093	15059
308.148	31136
308.156	34704
308.202	52704
308.246	61113
308.257	61475
308.312	40516
308.336	32089
308.366	23825
308.421	14651
308.426	14062
308.475	9473
308.517	6852
308.530	6072
308.585	4761
308.607	4430
308.639	3923
308.694	3607
308.697	3607
308.748	3562
308.787	3537
308.803	3443
308.857	3036
308.877	3189
308.912	3776
308.967	4796
308.967	4841
309.021	7120
309.058	9225
309.076	10868
309.130	19684
309.148	23702
309.185	35480
309.238	56675
309.239	56746
309.293	63671
309.328	60560
309.348	56053
309.402	33013
309.418	27983
309.457	19937
309.508	13270
309.511	12869
309.566	10495
309.598	9465
309.620	9025
309.674	9533
309.688	9894
309.729	10174
309.778	8668
309.783	8445
309.837	6219
309.868	5637
309.892	5875
309.946	7290
309.959	8240
310.001	11050
310.049	12720
310.055	12532
310.109	8488
310.139	5942
310.163	4077
310.218	2114
310.229	1776
310.272	1272
310.319	1135
310.326	1066
310.381	444
310.409	408
310.435	496
310.489	298
310.499	371
310.543	997
310.589	1247
310.598	1178
310.652	861
310.679	728
310.706	629
310.760	382
310.769	369
310.814	490
310.859	497
310.868	451
310.923	207
310.948	72
310.977	203
311.031	523
311.038	586
311.085	626
311.128	445
311.139	415
311.193	465
311.218	426
311.247	465
311.301	572
311.308	590
311.356	765
311.398	900
311.410	879
311.464	732
311.488	698
311.518	610
311.572	355
311.578	337
311.626	767
311.668	1141
311.680	1156
311.734	1168
311.758	1182
311.788	723
311.842	-116
311.847	-199
311.896	381
311.937	913
311.950	820
312.004	412
312.027	235
312.058	139
312.112	-28
312.117	-39
312.165	1
312.207	45
312.297	248
312.386	718
312.476	145
312.566	1652
312.656	221
312.745	366
312.835	453
312.925	819
313.015	362
313.104	298
313.194	-40
313.284	852
313.374	70
313.463	290
313.553	165
313.643	345
313.732	316
313.822	84
313.912	511
314.001	802
314.091	147
314.180	45
314.270	736
314.360	617
314.449	739
314.539	-262
314.628	26
314.718	477
314.808	642
314.897	172
314.987	1047
315.076	1069
315.166	544
315.255	440
315.345	787
315.434	504
315.524	496
315.613	229
315.703	583
315.792	953
315.881	1747
315.971	1098
316.060	1106
316.150	750
316.239	-111
316.328	1014
316.418	483
316.507	-174
316.597	1256
316.686	904
316.775	-409
316.865	598
316.954	-351
317.043	157
317.133	-345
317.222	-79
317.311	-33
317.400	30
317.490	939
317.579	952
317.668	130
317.757	91
317.847	1797
317.936	3281
318.025	2636
318.114	1081
318.203	1140
318.293	812
318.382	1208
318.471	1789
318.560	1289
318.649	1163
318.738	-134
318.828	444
318.917	626
319.006	-170
319.095	1508
319.184	2832
319.273	1845
319.362	1935
319.451	181
319.540	1023
319.629	865
319.718	2264
319.807	628
319.896	1233
319.985	3074
320.074	1394
320.163	702
320.252	764
320.341	550
320.430	473
320.519	1278
320.608	365
320.697	564
320.786	429
320.875	668
320.964	746
321.053	1035
321.142	2250
321.230	2244
321.319	1551
321.408	3086
321.497	1964
321.586	1633
321.675	747
321.764	958
321.852	832
321.941	2331
322.030	778
322.119	1384
322.207	3972
322.296	1805
322.385	517
322.474	1561
322.562	4835
322.651	1898
322.740	2263
322.829	2128
322.917	684
323.006	525
323.095	972
323.183	367
323.272	1230
323.361	1309
323.449	2402
323.538	1083
323.626	1627
323.715	455
323.804	-203
323.892	1179
323.981	1374
324.069	377
324.158	729
324.246	626
324.335	1003
324.424	1664
324.512	534
324.601	1038
324.689	1174
324.778	1822
324.866	860
324.954	39
325.043	-86
325.131	470
325.220	409
325.308	104
325.397	415
325.485	424
325.574	396
325.662	264
325.750	322
325.839	711
325.927	507
326.015	1083
326.104	-108
326.192	197
326.280	882
326.369	288
326.457	622
326.545	1714
326.634	312
326.722	943
326.810	906
326.898	826
326.987	484
327.075	379
327.163	870
327.251	-203
327.340	581
327.428	1464
327.516	-46
327.604	704
327.692	246
327.781	370
327.869	393
327.957	-188
328.045	495
328.133	741
328.221	-329
328.309	839
328.397	647
328.485	775
328.574	252
328.662	2036
328.750	988
328.838	541
328.926	649
329.014	466
329.102	864
329.190	1220
329.278	842
329.366	1
329.454	445
329.542	470
329.630	362
329.718	351
329.806	909
329.893	207
329.981	1831
330.069	2663
330.157	10971
330.245	25179
330.333	14154
330.421	3237
330.509	1827
330.597	3768
330.684	1699
330.772	462
330.860	97
330.948	423
331.036	1295
331.123	-540
331.211	164
331.299	524
331.387	787
331.475	419
331.562	415
331.650	535
331.738	139
331.825	-228
331.913	500
332.001	257
332.089	732
332.176	283
332.264	567
332.352	675
332.439	116
332.527	297
332.614	476
332.702	256
332.790	-119
332.877	249
332.965	953
333.052	664
333.140	341
333.228	1368
333.315	-1
333.403	308
333.490	465
333.578	695
333.665	1944
333.753	1288
333.840	-109
333.928	715
334.015	-56
334.103	1380
334.190	2444
334.278	1698
334.365	1075
334.452	523
334.540	699
334.627	237
334.715	530
334.802	560
334.889	2107
334.977	2514
335.064	810
335.151	70
335.239	53
335.326	602
335.413	1915
335.501	1947
335.588	606
335.675	366
335.762	778
335.850	878
335.937	802
336.024	2196
336.111	3391
336.199	1617
336.286	863
336.373	272
336.460	219
336.547	171
336.635	549
336.722	454
336.809	412
336.896	281
336.983	1444
337.070	1678
337.157	2467
337.245	819
337.332	649
337.419	215
337.506	754
337.593	222
337.680	287
337.767	2153
337.854	80
337.941	855
338.028	-245
338.115	-198
338.202	377
338.289	556
338.376	606
338.463	207
338.550	809
338.637	1288
338.724	-115
338.811	685
338.898	40
338.984	211
339.071	-336
339.158	644
339.245	1025
339.332	931
339.419	359
339.506	182
339.593	-106
339.679	508
339.766	52
339.853	931
339.940	1150
340.027	115
340.113	348
340.200	278
340.287	246
340.374	833
340.460	1389
340.547	-501
340.634	1576
340.720	3073
340.807	1144
340.894	177
340.980	71
341.067	-343
341.154	-18
341.240	550
341.327	1605
341.414	368
341.500	441
341.587	630
341.674	550
341.760	790
341.847	1156
341.933	-282
342.020	-317
342.106	755
342.193	713
342.279	626
342.366	453
342.452	1050
342.539	311
342.625	1391
342.712	3421
342.798	1226
342.885	532
342.971	-110
343.058	-213
343.144	-416
343.230	532
343.317	-291
343.403	157
343.490	140
343.576	78
343.662	-260
343.749	70
343.835	-21
343.921	2141
344.008	8848
344.094	17895
344.180	3472
344.267	1352
344.353	4934
344.439	4543
344.525	1463
344.612	751
344.698	1036
344.784	611
344.870	42
344.957	15
345.043	785
345.129	-516
345.215	987
345.301	229
345.387	767
345.474	-499
345.560	-130
345.646	-860
345.732	320
345.818	-427
345.904	-421
345.990	84
346.076	-36
346.162	18
346.249	356
346.335	261
346.421	78
346.507	1757
346.593	7018
346.679	690
346.765	630
346.851	-807
346.937	-769
347.023	166
347.108	459
347.194	462
347.280	602
347.366	448
347.452	2280
347.538	7565
347.624	7044
347.710	4631
347.796	354
347.882	-470
347.967	360
348.053	-281
348.139	-67
348.225	125
348.311	-353
348.397	-7
348.482	430
348.568	76
348.654	30
348.740	809
348.825	-404
348.911	1300
348.997	3549
349.083	6893
349.168	417
349.254	427
349.340	45
349.425	-19
349.511	219
349.597	629
349.682	1026
349.768	5044
349.854	1938
349.939	-7
350.025	-36
350.110	-309
350.196	589
350.282	152
350.367	250
350.453	129
350.538	160
350.624	259
350.709	129
350.795	418
350.880	-1087
350.966	453
351.051	286
351.137	-8
351.222	-49
351.308	1054
351.393	4239
351.479	-186
351.564	340
351.649	-489
351.735	-60
351.820	-97
351.906	-635
351.991	157
352.076	1753
352.162	3220
352.247	1108
352.332	-2
352.418	381
352.503	1141
352.588	5755
352.673	4324
352.759	953
352.844	132
352.929	617
353.014	89
353.100	-21
353.185	944
353.270	940
353.355	911
353.441	133
353.526	-650
353.611	755
353.696	213
353.781	631
353.866	-707
353.952	665
354.037	381
354.122	1982
354.207	1599
354.292	14
354.377	279
354.462	238
354.547	-45
354.632	657
354.717	381
354.802	144
354.887	-8
354.972	112
355.057	155
355.142	-106
355.227	402
355.312	64
355.397	1048
355.482	3623
355.567	1004
355.652	2298
355.737	860
355.822	5433
355.907	3610
355.991	90
356.076	246
356.161	400
356.246	-141
356.331	-148
356.416	503
356.501	9867
356.585	7615
356.670	-114
356.755	1549
356.840	862
356.924	6379
357.009	18925
357.094	7444
357.179	924
357.263	836
357.348	434
357.433	-564
357.517	497
357.602	-381
357.687	294
357.771	1372
357.856	1323
357.941	1699
358.025	5793
358.110	20537
358.195	9067
358.279	1359
358.364	431
358.448	3969
358.533	10138
358.617	6748
358.702	6424
358.787	2581
358.871	1059
358.956	654
359.040	358
359.125	295
359.209	-531
359.294	76
359.378	678
359.462	151
359.547	703
359.631	-89
359.716	-431
359.800	-413
359.885	518
359.969	-628
360.053	619
360.138	-2
360.222	231
360.306	650
360.391	404
360.475	603
360.559	2280
360.644	2187
360.728	1498
360.812	5314
360.896	12650
360.981	3614
361.065	962
361.149	418
361.233	912
361.318	-606
361.402	-144
361.486	869
361.570	529
361.654	-202
361.739	1464
361.823	9015
361.907	11831
361.991	1076
362.075	600
362.159	1561
362.243	1247
362.327	510
362.411	3381
362.495	749
362.580	1224
362.664	424
362.748	-692
362.832	192
362.916	967
363.000	6786
363.084	14471
363.168	14630
363.252	2605
363.336	697
363.420	1626
363.503	1850
363.587	1822
363.671	42
363.755	206
363.839	982
363.923	-662
364.007	706
364.091	378
364.175	-114
364.258	5543
364.342	6086
364.426	12281
364.510	4729
364.594	2970
364.677	2780
364.761	12232
364.845	7982
364.929	1336
365.013	1153
365.096	1404
365.180	588
365.264	935
365.347	4293
365.431	464
365.515	-680
365.598	-927
365.682	1310
365.766	-181
365.849	-376
365.933	57
366.017	652
366.100	-1160
366.184	-482
366.267	-194
366.351	-1264
366.435	-569
366.518	-703
366.602	-444
366.685	-136
366.769	-263
366.852	647
366.936	549
367.019	380
367.103	-1035
367.186	-7
367.270	151
367.353	-697
367.436	383
367.520	-284
367.603	-338
367.687	-811
367.770	728
367.853	775
367.937	4861
368.020	5481
368.104	-81
368.187	382
368.270	1274
368.353	935
368.437	265
368.520	739
368.603	1173
368.687	3443
368.770	7300
368.853	1353
368.936	1443
369.020	710
369.103	230
369.186	-786
369.269	-263
369.352	861
369.436	384
369.519	464
369.602	-443
369.685	911
369.768	-779
369.851	583
369.934	-221
370.018	-249
370.101	168
370.184	1658
370.267	102
370.350	219
370.433	1317
370.516	7100
370.599	7496
370.682	666
370.765	4355
370.848	5818
370.931	8030
371.014	3179
371.097	-692
371.180	689
371.263	-19
371.346	-899
371.429	125
371.511	-265
371.594	516
371.677	762
371.760	1089
371.843	2002
371.926	10314
372.009	18501
372.091	7018
372.174	3479
372.257	9564
372.340	3372
372.423	1210
372.505	1179
372.588	462
372.671	3348
372.754	9415
372.836	3766
372.919	1147
373.002	2303
373.085	245
373.167	1409
373.250	4191
373.332	9178
373.415	13054
373.498	22713
373.580	9487
373.663	12096
373.746	14497
373.828	2988
373.911	2059
373.993	535
374.076	2178
374.159	964
374.241	2272
374.324	7753
374.406	5137
374.489	8068
374.571	20871
374.654	7966
374.736	4308
374.819	13090
374.901	19108
374.983	16884
375.066	3425
375.148	1461
375.231	1286
375.313	3048
375.395	960
375.478	-182
375.560	145
375.643	395
375.725	3876
375.807	14770
375.890	8563
375.972	431
376.054	780
376.136	559
376.219	26
376.301	4756
376.383	11935
376.465	4419
376.548	1803
376.630	3799
376.712	11083
376.794	4048
376.877	638
376.959	-1381
377.041	155
377.123	-887
377.205	-252
377.287	-1274
377.369	-578
377.452	-557
377.534	77
377.616	-505
377.698	-475
377.780	-815
377.862	-295
377.944	574
378.026	-896
378.108	92
378.190	-375
378.272	149
378.354	80
378.436	-1436
378.518	-1279
378.600	527
378.682	1832
378.764	5038
378.846	3430
378.928	-153
379.010	584
379.091	1235
379.173	740
379.255	-587
379.337	156
379.419	2815
379.501	7509
379.583	2270
379.664	-89
379.746	1437
379.828	6468
379.910	7295
379.991	6480
380.073	819
380.155	151
380.237	-669
380.318	-661
380.400	-201
380.482	113
380.564	797
380.645	186
380.727	1057
380.809	767
380.890	-125
380.972	-440
381.053	-109
381.135	868
381.217	1271
381.298	5289
381.380	2124
381.461	1727
381.543	11046
381.624	12121
381.706	1942
381.787	542
381.869	905
381.951	5233
382.032	18373
382.113	12505
382.195	742
382.276	1851
382.358	4448
382.439	10440
382.521	12620
382.602	16795
382.684	7799
382.765	13686
382.846	12116
382.928	16656
383.009	8633
383.090	7451
383.172	25480
383.253	31903
383.334	12091
383.416	15032
383.497	7681
383.578	2809
383.659	6210
383.741	23232
383.822	50131
383.903	22573
383.984	10325
384.066	19889
384.147	9645
384.228	1847
384.309	1275
384.390	346
384.471	81
384.553	477
384.634	1001
384.715	1340
384.796	-411
384.877	1268
384.958	5118
385.039	4495
385.120	1756
385.201	1117
385.282	78
385.363	-173
385.444	790
385.525	2500
385.606	8474
385.687	6418
385.768	1073
385.849	1199
385.930	10808
386.011	16795
386.092	2826
386.173	418
386.254	-36
386.335	917
386.416	-129
386.496	2896
386.577	5426
386.658	642
386.739	-460
386.820	569
386.901	-468
386.981	224
387.062	-417
387.143	992
387.224	5125
387.304	4461
387.385	1955
387.466	-1085
387.547	477
387.627	158
387.708	2612
387.789	11215
387.869	11939
387.950	3447
388.031	47
388.111	-1346
388.192	399
388.273	1765
388.353	359
388.434	948
388.514	2302
388.595	10940
388.676	12054
388.756	5877
388.837	5158
388.917	2323
388.998	-1567
389.078	689
389.159	-83
389.239	-361
389.320	1020
389.400	-680
389.480	2555
389.561	5629
389.641	2737
389.722	624
389.802	362
389.883	2842
389.963	8282
390.043	3387
390.124	-653
390.204	2496
390.284	5243
390.365	2128
390.445	2572
390.525	7326
390.605	7480
390.686	2176
390.766	1154
390.846	704
390.927	-176
391.007	-681
391.087	355
391.167	32
391.247	-804
391.328	78
391.408	871
391.488	86
391.568	-467
391.648	-140
391.728	692
391.808	1098
391.888	187
391.969	3637
392.049	5286
392.129	1972
392.209	2362
392.289	7820
392.369	2920
392.449	825
392.529	-694
392.609	1777
392.689	1926
392.769	8640
392.849	5389
392.929	4479
393.009	8949
393.089	5716
393.169	7003
393.248	20159
393.328	69977
393.408	67348
393.488	17138
393.568	4184
393.648	2987
393.728	1178
393.807	320
393.887	1494
393.967	1161
394.047	1793
394.127	1496
394.206	4514
394.286	18482
394.366	65022
394.446	62929
394.525	15623
394.605	4118
394.685	2398
394.764	2819
394.844	2424
394.924	1574
395.003	849
395.083	829
395.163	736
395.242	755
395.322	1910
395.402	-103
395.481	2211
395.561	1136
395.640	4068
395.720	5039
395.799	4476
395.879	4368
395.958	6870
396.038	29007
396.117	83109
396.197	81437
396.276	25850
396.356	7684
396.435	3956
396.515	3594
396.594	2575
396.673	5734
396.753	22411
396.832	63553
396.912	43269
396.991	9846
397.070	3126
397.150	659
397.229	1969
397.308	1806
397.388	3716
397.467	1612
397.546	983
397.625	-1828
397.705	1356
397.784	635
397.863	-1050
397.942	-481
398.022	-318
398.101	-937
398.180	1344
398.259	24
398.338	-38
398.417	-488
398.497	-1112
398.576	648
398.655	-1162
398.734	-699
398.813	-384
398.892	-370
398.971	1522
399.050	-204
399.129	-1302
399.208	215
399.287	280
399.366	-1052
399.445	159
399.524	396
399.603	-1531
399.682	299
399.761	-6
399.840	2313
399.919	1496
399.998	-1244
400.077	-1648
400.156	-1236
400.235	289
400.313	-602
400.392	-607
400.471	2741
400.550	3925
400.629	-46
400.708	-612
400.786	-1024
400.865	-673
400.944	-1235
401.023	815
401.102	140
401.180	-729
401.259	-734
401.338	-500
401.416	-348
401.495	-871
401.574	-1000
401.652	-1258
401.731	-544
401.810	-974
401.888	-1000
401.967	-1294
402.046	-444
402.124	-508
402.203	-1158
402.281	354
402.360	-473
402.438	-24
402.517	-1029
402.596	-308
402.674	-603
402.753	-1104
402.831	-727
402.910	-187
402.988	1825
403.066	9109
403.145	4781
403.223	3236
403.302	7926
403.380	5345
403.459	5319
403.537	1207
403.615	-796
403.694	-1475
403.772	420
403.850	-913
403.929	-1066
404.007	-1143
404.085	857
404.164	-331
404.242	-237
404.320	2484
404.398	9505
404.477	8024
404.555	16117
404.633	12863
404.711	7269
404.789	3467
404.868	136
404.946	-908
405.024	-361
405.102	-633
405.180	-689
405.258	-2534
405.336	155
405.415	-1309
405.493	53
405.571	-276
405.649	-789
405.727	-1860
405.805	-572
405.883	-466
405.961	-500
406.039	-1046
406.117	-1854
406.195	-96
406.273	1803
406.351	12083
406.429	5049
406.507	-467
406.585	-1577
406.663	-576
406.740	-1308
406.818	-1914
406.896	-1653
406.974	-398
407.052	-838
407.130	6687
407.208	8417
407.285	860
407.363	-1894
407.441	-1112
407.519	-1040
407.596	-686
407.674	106
407.752	4695
407.830	3174
407.907	115
407.985	-1831
408.063	-546
408.141	-1491
408.218	-793
408.296	-1878
408.373	-1366
408.451	55
408.529	-1030
408.606	-1145
408.684	-1067
408.762	-1064
408.839	-1125
408.917	-1487
408.994	-729
409.072	-1283
409.149	-966
409.227	136
409.304	-527
409.382	-552
409.459	-530
409.537	282
409.614	-348
409.692	-1294
409.769	-639
409.846	254
409.924	623
410.001	-1896
410.079	-1046
410.156	-384
410.233	-627
410.311	-1467
410.388	-1765
410.465	-1376
410.543	-1661
410.620	-44
410.697	18
410.775	-964
410.852	-1960
410.929	-111
411.006	-641
411.083	-1628
411.161	-605
411.238	-795
411.315	-1773
411.392	-1054
411.469	-316
411.547	-662
411.624	-2234
411.701	-1655
411.778	-637
411.855	-1375
411.932	-1218
412.009	-1313
412.086	-912
412.163	-1129
412.240	-1427
412.317	-759
412.394	-2195
412.471	-679
412.548	-1663
412.625	-1401
412.702	-884
412.779	-892
412.856	-89
412.933	-2216
413.010	-1202
413.087	-699
413.164	1006
413.241	3241
413.318	-715
413.395	453
413.471	-930
413.548	-617
413.625	-954
413.702	-2114
413.779	-730
413.855	-1907
413.932	-591
414.009	-1819
414.086	-1317
414.162	-852
414.239	-743
414.316	910
414.393	5146
414.469	-231
414.546	-1563
414.623	-1558
414.699	-1065
414.776	-1202
414.853	-963
414.929	-947
415.006	-1825
415.082	-1425
415.159	-1026
415.236	-1360
415.312	-744
415.389	-1054
415.465	-1434
415.542	-937
415.618	-1768
415.695	-239
415.771	-1649
415.848	-1109
415.924	-1377
416.000	-1427
416.077	-339
416.153	-1558
416.230	-1824
416.306	-1462
416.383	-2191
416.459	-533
416.535	-1558
416.612	-2090
416.688	-1122
416.764	-1136
416.841	-1774
416.917	-1277
416.993	-1442
417.069	-1018
417.146	-833
417.222	-1267
417.298	-977
417.374	-1567
417.451	-1011
417.527	-1211
417.603	-1797
417.679	-1134
417.755	-1163
417.831	-1351
417.908	-792
417.984	-1183
418.060	-2212
418.136	-1023
418.212	-953
418.288	-1117
418.364	-804
418.440	-1508
418.516	-73
418.592	-1411
418.668	135
418.744	144
418.820	-139
418.896	-1263
418.972	-1880
419.048	-1568
419.124	229
419.200	-1520
419.276	-1153
419.352	-1307
419.428	-917
419.504	-734
419.579	-1327
419.655	-960
419.731	-1154
419.807	-21
419.883	81
419.959	-369
420.034	-512
420.110	89
420.186	3045
420.262	1873
420.337	-1300
420.413	-653
420.489	-911
420.565	-404
420.640	-977
420.716	-501
420.792	-2157
420.867	-436
420.943	-1814
421.019	-12
421.094	-1394
421.170	-1147
421.245	-1287
421.321	-1031
421.397	-949
421.472	1304
421.548	1824
421.623	1267
421.699	-20
421.774	-1052
421.850	-1287
421.925	-25
422.001	-76
422.076	-834
422.152	-779
422.227	1326
422.302	2227
422.378	4100
422.453	7396
422.529	22455
422.604	64390
422.679	97689
422.755	62893
422.830	23585
422.905	7966
422.981	3889
423.056	2581
423.131	1529
423.207	1016
423.282	4
423.357	1367
423.432	682
423.508	989
423.583	277
423.658	475
423.733	-701
423.808	-621
423.883	48
423.959	222
424.034	-943
424.109	-719
424.184	-1250
424.259	-1423
424.334	-877
424.409	-1067
424.484	-471
424.559	-716
424.634	-996
424.709	-815
424.784	-1393
424.859	-1282
424.934	-2055
425.009	1995
425.084	4412
425.159	398
425.234	-772
425.309	-1194
425.384	-568
425.459	-1331
425.534	-211
425.609	-1340
425.683	-1150
425.758	-840
425.833	-644
425.908	-553
425.983	-544
426.058	3534
426.132	-40
426.207	-1088
426.282	313
426.357	-1625
426.431	-1073
426.506	-645
426.581	-704
426.655	-55
426.730	-782
426.805	-1780
426.879	-423
426.954	-751
427.029	114
427.103	3568
427.178	10997
427.253	4565
427.327	-283
427.402	-1078
427.476	-750
427.551	-1450
427.625	-780
427.700	-517
427.774	-1355
427.849	-297
427.923	-1539
427.998	-1630
428.072	-935
428.147	-21
428.221	3795
428.296	15017
428.370	7547
428.444	53
428.519	-1132
428.593	-1228
428.667	-614
428.742	412
428.816	-272
428.890	7632
428.965	12551
429.039	2916
429.113	-777
429.188	-406
429.262	-1052
429.336	-340
429.410	1027
429.485	830
429.559	-660
429.633	-44
429.707	-502
429.781	-135
429.855	6537
429.930	11863
430.004	2832
430.078	829
430.152	4081
430.226	20604
430.300	21639
430.374	3053
430.448	496
430.522	-601
430.596	919
430.670	3003
430.744	15365
430.818	20906
430.892	3708
430.966	-696
431.040	-281
431.114	-1375
431.188	-1406
431.262	-764
431.336	-1320
431.410	112
431.484	-441
431.557	512
431.631	-975
431.705	-159
431.779	1578
431.853	13045
431.927	9080
432.000	997
432.074	-718
432.148	-905
432.222	-1018
432.295	-702
432.369	-810
432.443	-160
432.516	3847
432.590	11876
432.664	4059
432.737	-652
432.811	-906
432.885	-816
432.958	39
433.032	-941
433.106	-1057
433.179	-1181
433.253	-1879
433.326	-1059
433.400	-946
433.473	-985
433.547	-1109
433.620	-718
433.694	-1441
433.767	106
433.841	-1223
433.914	-671
433.988	-1535
434.061	-925
434.134	-1073
434.208	-901
434.281	-1167
434.355	-1144
434.428	-482
434.501	-1252
434.575	-773
434.648	-1168
434.721	-1441
434.795	-1249
434.868	-1334
434.941	-1009
435.014	-1097
435.088	-937
435.161	-324
435.234	-925
435.307	-860
435.381	-580
435.454	-721
435.527	-407
435.600	-869
435.673	-871
435.746	-522
435.819	-471
435.892	-756
435.966	-1514
436.039	-1507
436.112	-650
436.185	-987
436.258	-1067
436.331	-1001
436.404	-1109
436.477	-1126
436.550	-801
436.623	-1636
436.696	-1498
436.769	-847
436.842	-757
436.915	-1179
436.987	-927
437.060	-762
437.133	-1048
437.206	-1697
437.279	-739
437.352	-1481
437.425	-693
437.498	-561
437.570	-47
437.643	388
437.716	-771
437.789	-1115
437.861	-637
437.934	297
438.007	-459
438.080	-867
438.152	-729
438.225	-67
438.298	6249
438.370	19684
438.443	9392
438.516	1195
438.588	-281
438.661	-1079
438.734	-582
438.806	-1004
438.879	-784
438.951	-1115
439.024	-833
439.096	-938
439.169	-1005
439.241	-1649
439.314	-1397
439.386	-1076
439.459	-768
439.531	-1212
439.604	-1147
439.676	-666
439.749	-1199
439.821	-1186
439.893	-491
439.966	-727
440.038	-854
440.110	-96
440.183	-1084
440.255	-225
440.327	-472
440.400	2083
440.472	9956
440.544	8757
440.617	418
440.689	-42
440.761	-513
440.833	28
440.905	-402
440.978	-1603
441.050	-1180
441.122	89
441.194	-1632
441.266	-974
441.338	-1154
441.411	-455
441.483	2154
441.555	5170
441.627	943
441.699	-599
441.771	-1202
441.843	-1703
441.915	-1175
441.987	-1607
442.059	-986
442.131	-1383
442.203	-1550
442.275	-780
442.347	93
442.419	708
442.491	5785
442.563	16524
442.635	9105
442.706	879
442.778	630
442.850	-728
442.922	-1176
442.994	-1501
443.066	-697
443.137	-870
443.209	-545
443.281	-975
443.353	1251
443.425	8690
443.496	32387
443.568	36771
443.640	14000
443.711	1950
443.783	-638
443.855	-1052
443.926	-999
443.998	-1264
444.070	-1106
444.141	-687
444.213	-636
444.285	-1038
444.356	-1223
444.428	-751
444.499	-1510
444.571	-857
444.642	-1208
444.714	-1142
444.785	-459
444.857	-878
444.928	-1072
445.000	-629
445.071	-185
445.143	-632
445.214	-467
445.285	567
445.357	4426
445.428	20682
445.500	53782
445.571	38790
445.642	18503
445.714	5162
445.785	1889
445.856	-520
445.928	-75
445.999	-193
446.070	-835
446.141	-744
446.213	290
446.284	-796
446.355	-1123
446.426	-1544
446.497	-787
446.569	-1098
446.640	-1352
446.711	-660
446.782	-1461
446.853	-760
446.924	-387
446.995	-579
447.066	-634
447.138	-1686
447.209	-1322
447.280	-1286
447.351	-1338
447.422	-1651
447.493	-1160
447.564	-1088
447.635	-278
447.706	-1451
447.777	-1522
447.847	-1377
447.918	-2262
447.989	-1424
448.060	-1550
448.131	-1153
448.202	-941
448.273	-1037
448.344	-510
448.414	-1294
448.485	-1728
448.556	-1468
448.627	-1457
448.698	-1123
448.768	-1164
448.839	-1836
448.910	-883
448.981	-635
449.051	-1211
449.122	-1080
449.193	-1974
449.263	-951
449.334	-1011
449.405	-537
449.475	-422
449.546	-324
449.616	-1282
449.687	-1085
449.758	-1304
449.828	-1125
449.899	-1308
449.969	-1275
450.040	-1096
450.110	-1190
450.181	-954
450.251	-1533
450.322	-1161
450.392	-521
450.463	-767
450.533	-697
450.604	-1782
450.674	-1353
450.744	-452
450.815	-1714
450.885	-768
450.955	-1113
451.026	-1216
451.096	-1539
451.166	-940
451.237	-1499
451.307	-611
451.377	-711
451.447	-1566
451.518	-1207
451.588	-1296
451.658	-1106
451.728	-714
451.799	-1257
451.869	-518
451.939	-1521
452.009	-1303
452.079	-1296
452.149	-1012
452.219	-1278
452.289	-88
452.360	-1048
452.430	-1454
452.500	-843
452.570	-335
452.640	-427
452.710	-252
452.780	1281
452.850	799
452.920	1021
452.990	242
453.060	-1252
453.129	-1482
453.199	-572
453.269	-546
453.339	438
453.409	1431
453.479	669
453.549	1439
453.619	1428
453.688	46
453.758	-995
453.828	-1473
453.898	-1080
453.968	-1363
454.037	-813
454.087	-1111
454.107	-1248
454.168	-1239
454.177	-1253
454.247	-1419
454.249	-1417
454.316	-1889
454.330	-1663
454.386	-863
454.411	-1156
454.456	-1729
454.492	-1326
454.525	-1010
454.574	-458
454.595	-232
454.655	-994
454.665	-1132
454.734	-958
454.736	-937
454.804	-1007
454.817	-790
454.873	-54
454.898	-167
454.943	-480
454.979	-917
455.013	-1314
455.060	-858
455.082	-614
455.141	-574
455.152	-535
455.221	405
455.222	454
455.291	2671
455.303	3637
455.360	6690
455.384	8630
455.430	8279
455.465	6367
455.499	5123
455.546	1171
455.569	-252
455.627	8
455.638	58
455.707	-793
455.708	-772
455.777	-712
455.789	-772
455.846	-1108
455.869	-1118
455.916	-1172
455.950	-1208
455.985	-1333
456.031	-1138
456.054	-986
456.112	-854
456.124	-846
456.193	-545
456.193	-562
456.262	-581
456.274	-491
456.332	159
456.355	49
456.401	-338
456.436	-574
456.470	-784
456.516	-598
456.540	-536
456.597	-439
456.609	-452
456.678	-145
456.678	-157
456.747	-1348
456.759	-1261
456.817	-612
456.840	-456
456.886	-428
456.920	-503
456.955	-497
457.001	-536
457.024	-594
457.082	-437
457.093	-404
457.162	-200
457.163	-186
457.232	-803
457.243	-657
457.301	-144
457.324	-148
457.370	-5
457.405	-7
457.439	-97
457.485	-344
457.508	-470
457.566	-214
457.577	-100
457.646	706
457.647	733
457.715	2406
457.727	2647
457.784	4758
457.808	5877
457.853	7166
457.889	8762
457.922	8113
457.969	5712
457.991	6122
458.050	7514
458.060	7960
458.129	12785
458.130	12968
458.198	12164
458.211	11572
458.267	6787
458.292	4242
458.336	2747
458.372	2164
458.405	3110
458.453	5166
458.474	7315
458.533	14217
458.543	14912
458.611	22203
458.614	22477
458.680	12393
458.694	9820
458.749	5373
458.775	3194
458.818	1734
458.855	1192
458.887	1017
458.936	1034
458.955	813
459.016	567
459.024	633
459.093	1394
459.097	1383
459.162	541
459.177	572
459.230	1070
459.257	1654
459.299	2200
459.338	1826
459.368	1572
459.418	1934
459.437	1894
459.499	1198
459.505	1169
459.574	1005
459.579	1032
459.643	1120
459.659	954
459.711	738
459.740	1015
459.780	1340
459.820	1369
459.849	1219
459.900	1019
459.917	1010
459.981	1254
459.986	1272
460.054	1246
460.061	1264
460.123	1416
460.141	1645
460.191	2734
460.222	2969
460.260	3035
460.302	3506
460.328	3344
460.382	2729
460.397	2669
460.462	2498
460.465	2613
460.534	5960
460.543	6328
460.602	21910
460.623	27750
460.671	47301
460.703	62581
460.739	56731
460.783	47467
460.808	36885
460.864	6750
460.876	5672
460.944	2943
460.945	2912
461.013	2107
461.024	2020
461.081	2199
461.104	2423
461.150	2240
461.184	1775
461.218	1478
461.264	1551
461.286	1714
461.345	1710
461.355	1672
461.423	1930
461.425	1929
461.491	1923
461.505	1960
461.559	2369
461.585	2416
461.628	2808
461.665	3497
461.696	3926
461.745	4511
461.764	4087
461.825	2200
461.832	2162
461.901	1811
461.905	1827
461.969	1892
461.985	1915
462.037	2221
462.065	2361
462.105	2194
462.145	2032
462.173	2323
462.225	2293
462.241	2239
462.305	2659
462.310	2633
462.378	2462
462.385	2404
462.446	2475
462.465	2474
462.514	2352
462.545	2340
462.582	2205
462.625	2005
462.650	1972
462.705	1814
462.718	1747
462.785	1702
462.786	1711
462.854	1948
462.865	1984
462.922	2287
462.945	2511
462.990	2592
463.025	2420
463.058	2032
463.104	1526
463.126	1671
463.184	2362
463.194	2434
463.262	2145
463.264	2151
463.330	1692
463.344	1625
463.398	2615
463.424	3027
463.466	2545
463.504	1975
463.533	1955
463.583	2062
463.601	2198
463.663	2768
463.669	2820
463.737	3104
463.743	3137
463.805	3900
463.823	4125
463.873	4585
463.903	4848
463.940	4852
463.982	4837
464.008	4246
464.062	2853
464.076	2852
464.142	2948
464.144	2956
464.211	2950
464.221	2953
464.279	3314
464.301	3450
464.347	3715
464.381	3986
464.414	3619
464.461	2881
464.482	3138
464.540	3946
464.550	3962
464.617	3975
464.620	3967
464.685	5157
464.699	5441
464.753	7416
464.779	8381
464.820	9777
464.859	11068
464.888	10063
464.938	8187
464.956	8230
465.018	8142
465.023	8067
465.091	7044
465.098	6926
465.158	6918
465.177	6936
465.226	6952
465.257	6887
465.293	6975
465.336	7016
465.361	7581
465.416	8828
465.428	8757
465.495	8337
465.496	8355
465.563	8548
465.575	8539
465.631	9550
465.654	10057
465.698	8833
465.734	7672
465.765	7311
465.813	6775
465.833	6998
465.893	7570
465.900	7554
465.968	7314
465.972	7280
466.035	8126
466.052	8354
466.102	8346
466.131	8285
466.170	8384
466.210	8462
466.237	8570
466.290	8677
466.304	8821
466.369	9432
466.372	9464
466.439	9807
466.449	9830
466.506	10270
466.528	10419
466.573	10744
466.607	10907
466.641	12319
466.687	14271
466.708	15296
466.766	17980
466.775	17573
466.842	14290
466.845	14102
466.909	12435
466.925	11983
466.977	11747
467.004	11618
467.044	12178
467.083	12673
467.111	13875
467.163	16046
467.178	16664
467.242	19076
467.245	18977
467.312	16091
467.321	15673
467.379	15327
467.400	15157
467.446	14654
467.480	14232
467.559	13322
467.638	12962
467.717	12090
467.796	13763
467.875	13277
467.955	12711
468.034	12758
468.113	14835
468.192	17191
468.271	11909
468.350	12363
468.429	12920
468.508	13083
468.588	10562
468.667	10119
468.746	10417
468.825	8941
468.904	7976
468.983	9940
469.062	10445
469.141	11560
469.220	8630
469.299	9054
469.378	10518
469.456	14263
469.535	13454
469.614	11412
469.693	9970
469.772	11404
469.851	11761
469.930	11197
470.009	11044
470.088	10581
470.166	12578
470.245	15331
470.324	17732
470.403	15016
470.482	12307
470.560	11236
470.639	10640
470.718	12192
470.797	10157
470.875	10441
470.954	10563
471.033	11526
471.111	8849
471.190	8490
471.269	8727
471.347	8451
471.426	8708
471.505	9937
471.583	11602
471.662	11570
471.740	9043
471.819	9193
471.898	9404
471.976	10220
472.055	8910
472.133	9765
472.212	10215
472.290	10349
472.369	9259
472.447	8324
472.526	7508
472.604	8788
472.683	8630
472.761	9108
472.839	9545
472.918	8678
472.996	8140
473.075	8841
473.153	7727
473.231	6783
473.310	8834
473.388	8441
473.466	8711
473.545	10446
473.623	14245
473.701	12572
473.780	9686
473.858	8518
473.936	10310
474.014	7804
474.093	9443
474.171	10586
474.249	9994
474.327	8192
474.405	8181
474.484	7787
474.562	7922
474.640	8367
474.718	8549
474.796	8947
474.874	9544
474.952	7672
475.030	7604
475.108	9167
475.187	9553
475.265	11153
475.343	13955
475.421	16504
475.499	9719
475.577	8010
475.655	8055
475.733	8521
475.811	10492
475.889	9639
475.966	8549
476.044	7762
476.122	8746
476.200	11840
476.278	9565
476.356	5741
476.434	7225
476.512	7852
476.590	10232
476.667	9342
476.745	6284
476.823	7404
476.901	6374
476.979	5820
477.056	5833
477.134	7612
477.212	7163
477.290	6910
477.367	5626
477.445	5941
477.523	5563
477.601	5169
477.678	5161
477.756	6077
477.834	5852
477.911	5744
477.989	5732
478.066	6222
478.144	5392
478.222	7154
478.299	12694
478.377	13882
478.454	6883
478.532	4745
478.609	5459
478.687	7245
478.764	5078
478.842	5563
478.919	6556
478.997	6532
479.074	4575
479.152	5429
479.229	5564
479.307	5108
479.384	4351
479.461	4921
479.539	4456
479.616	4798
479.694	4350
479.771	4973
479.848	4351
479.926	4349
480.003	6535
480.080	5707
480.157	5468
480.235	4440
480.312	4502
480.389	4469
480.467	4824
480.544	5151
480.621	4874
480.698	3715
480.775	4845
480.853	4750
480.930	4653
481.007	4878
481.084	5427
481.161	9502
481.238	6967
481.315	4018
481.392	3512
481.470	4112
481.547	3240
481.624	3922
481.701	3657
481.778	4479
481.855	4092
481.932	4736
482.009	5932
482.086	5898
482.163	4883
482.240	7706
482.317	15188
482.393	12628
482.470	4415
482.547	4115
482.624	4015
482.701	4392
482.778	3594
482.855	3924
482.932	4490
483.009	3078
483.085	4775
483.162	7412
483.239	7095
483.316	4301
483.393	4886
483.469	4784
483.546	4903
483.623	3928
483.699	3634
483.776	4331
483.853	5204
483.930	5505
484.006	8575
484.083	13632
484.160	22898
484.236	47872
484.313	39644
484.389	27004
484.466	24080
484.543	21674
484.619	22675
484.696	23637
484.772	21330
484.849	21621
484.925	20672
485.002	19917
485.078	20979
485.155	20648
485.231	18535
485.308	19187
485.384	19487
485.461	20287
485.537	19647
485.614	21902
485.690	17857
485.766	17565
485.843	18360
485.919	23094
485.995	25433
486.072	17885
486.148	16661
486.224	16613
486.301	16170
486.377	16566
486.453	17059
486.530	18315
486.606	26084
486.682	29688
486.758	26005
486.835	24489
486.911	21575
486.987	26181
487.063	36568
487.139	52887
487.215	42019
487.292	25294
487.368	19967
487.444	20989
487.520	23169
487.596	27524
487.672	33155
487.748	65468
487.824	109334
487.900	52149
487.976	23772
488.052	20220
488.128	20969
488.204	18522
488.280	17115
488.356	16322
488.432	18579
488.508	21476
488.584	16930
488.660	16423
488.736	16476
488.812	17421
488.888	21795
488.964	24931
489.039	43121
489.115	69113
489.191	46394
489.267	16938
489.343	14673
489.418	14880
489.494	13853
489.570	11485
489.646	14971
489.722	13751
489.797	12873
489.873	13463
489.949	16058
490.024	16954
490.100	12192
490.176	12616
490.251	14483
490.327	19359
490.403	12849
490.478	13034
490.554	11645
490.629	11622
490.705	11611
490.781	12169
490.856	10294
490.932	12658
491.007	12025
491.083	12931
491.158	10170
491.234	11881
491.309	12682
491.385	12985
491.460	11085
491.536	11255
491.611	12174
491.686	11830
491.762	16066
491.837	27385
491.913	45288
491.988	54282
492.063	83288
492.139	19524
492.214	10987
492.289	9912
492.365	9070
492.440	10465
492.515	8011
492.590	9496
492.666	8207
492.741	9738
492.816	10217
492.891	7959
492.967	10338
493.042	8662
493.117	10783
493.192	12756
493.267	18750
493.342	63520
493.418	102396
493.493	18868
493.568	7775
493.643	8217
493.718	9348
493.793	9175
493.868	15060
493.943	10525
494.018	9679
494.093	7693
494.168	6820
494.243	7551
494.318	6867
494.393	6614
494.468	6834
494.543	6605
494.618	9385
494.693	6546
494.768	6179
494.842	7261
494.917	6315
494.992	6966
495.067	7293
495.142	6289
495.217	7774
495.292	7506
495.366	7777
495.441	9573
495.516	11578
495.591	15858
495.665	46983
495.740	133022
495.815	62332
495.890	10689
495.964	5941
496.039	8979
496.114	7620
496.188	10481
496.263	11126
496.338	6853
496.412	7395
496.487	9289
496.561	10314
496.636	11796
496.710	8987
496.785	9213
496.860	9231
496.934	9550
497.009	8915
497.083	8720
497.158	8773
497.232	10908
497.307	12597
497.381	12043
497.455	12363
497.530	13525
497.604	13512
497.679	15052
497.753	17914
497.827	23505
497.902	25712
497.976	27058
498.050	30905
498.125	61940
498.199	75574
498.273	39262
498.348	36983
498.422	30738
498.496	28638
498.570	26888
498.645	19589
498.719	16758
498.793	15790
498.867	15258
498.941	15904
499.016	23313
499.090	55986
499.164	27467
499.238	10008
499.312	9044
499.386	11634
499.460	9808
499.534	7227
499.609	8619
499.683	9077
499.757	7847
499.831	10491
499.905	30930
499.979	34878
500.053	8735
500.127	11965
500.201	12876
500.275	7644
500.349	6581
500.422	7041
500.496	10602
500.570	23003
500.644	28650
500.718	35095
500.792	12620
500.866	5980
500.940	6029
501.013	5570
501.087	5709
501.161	11136
501.235	13734
501.309	10322
501.382	24827
501.456	29119
501.530	10104
501.603	9862
501.677	6173
501.751	3368
501.825	5697
501.898	5376
501.972	10779
502.046	9334
502.119	4375
502.193	8737
502.266	12634
502.340	7410
502.413	6262
502.487	10529
502.561	7145
502.634	5065
502.708	6384
502.781	5788
502.855	4267
502.928	3028
503.002	3396
503.075	2580
503.149	2675
503.222	3462
503.295	3277
503.369	4619
503.442	4260
503.516	7654
503.589	17270
503.662	12284
503.736	6452
503.809	10559
503.882	11313
503.956	14296
504.029	18830
504.102	32648
504.175	51310
504.249	20886
504.322	8632
504.395	6546
504.468	4803
504.542	3265
504.615	3809
504.688	3904
504.761	2386
504.834	5145
504.907	6474
504.980	11821
505.053	6117
505.127	6086
505.200	8794
505.273	2831
505.346	2321
505.419	2132
505.492	3596
505.565	1961
505.638	2360
505.711	3294
505.784	2509
505.857	2377
505.930	3303
506.003	1655
506.076	4084
506.149	2198
506.221	2628
506.294	4288
506.367	4820
506.440	15011
506.513	11463
506.586	3986
506.659	2863
506.731	3791
506.804	3444
506.877	6649
506.950	3716
507.022	4539
507.095	1598
507.168	4171
507.241	4505
507.313	3175
507.386	2219
507.459	6516
507.531	5142
507.604	2859
507.677	3958
507.749	2600
507.822	6002
507.894	12021
507.967	20513
508.040	11808
508.112	10618
508.185	8059
508.257	7345
508.330	11421
508.402	7507
508.475	6873
508.547	7014
508.620	6366
508.692	7068
508.765	7228
508.837	5987
508.909	6166
508.982	6157
509.054	7022
509.127	6686
509.199	5139
509.271	5273
509.344	5155
509.416	5610
509.488	5196
509.560	6360
509.633	6163
509.705	7482
509.777	6479
509.849	10390
509.922	8020
509.994	6367
510.066	7569
510.138	7622
510.210	17590
510.283	16852
510.355	13069
510.427	11682
510.499	9259
510.571	9896
510.643	9808
510.715	13727
510.787	12139
510.859	10664
510.931	9512
511.003	12230
511.076	12486
511.148	7972
511.219	8156
511.291	9331
511.363	9718
511.435	8404
511.507	6641
511.579	7887
511.651	7754
511.723	6875
511.795	6950
511.867	6560
511.939	8304
512.010	7383
512.082	7966
512.154	7032
512.226	7889
512.298	13511
512.369	20100
512.441	16125
512.513	13984
512.585	10722
512.656	11559
512.728	11059
512.800	9671
512.871	9750
512.943	9033
513.015	7769
513.086	9079
513.158	10220
513.230	8491
513.301	11609
513.373	15216
513.444	9317
513.516	8686
513.588	7996
513.659	9463
513.731	10855
513.802	9413
513.874	16744
513.945	29661
514.016	12481
514.088	8774
514.159	9333
514.231	12037
514.302	16818
514.374	14708
514.445	10494
514.516	12527
514.588	9745
514.659	9392
514.730	11146
514.802	12573
514.873	12891
514.944	16185
515.016	11967
515.087	12154
515.158	11143
515.229	13063
515.301	13616
515.372	21088
515.443	15396
515.514	10957
515.585	8333
515.656	10227
515.728	8919
515.799	8021
515.870	9727
515.941	9248
516.012	8536
516.083	14162
516.154	14128
516.225	15975
516.296	15438
516.367	13213
516.438	14732
516.509	18054
516.580	21151
516.651	51214
516.722	204925
516.793	110705
516.864	22365
516.935	20296
517.006	22664
517.077	29252
517.148	59570
517.219	191428
517.289	365009
517.360	64793
517.431	19713
517.502	10950
517.573	10844
517.643	10826
517.714	12943
517.785	13050
517.856	13019
517.926	16652
517.997	18818
518.068	23535
518.138	30673
518.209	40343
518.280	121316
518.350	518919
518.421	241774
518.492	32080
518.562	17982
518.633	15748
518.703	15455
518.774	25107
518.845	53164
518.915	58774
518.986	22170
519.056	15316
519.127	21754
519.197	28262
519.268	31296
519.338	16793
519.408	9614
519.479	14582
519.549	11237
519.620	8889
519.690	6470
519.760	5812
519.831	6786
519.901	7273
519.971	6008
520.042	5369
520.112	5240
520.182	7549
520.253	11180
520.323	6218
520.393	6021
520.463	10336
520.534	4244
520.604	9399
520.674	6459
520.744	5879
520.814	9817
520.885	11840
520.955	7687
521.025	18151
521.095	10343
521.165	6308
521.235	5893
521.305	4398
521.375	5742
521.445	5856
521.515	7451
521.585	10098
521.655	8138
521.725	8212
521.795	7880
521.865	3881
521.935	6753
522.005	4847
522.075	4321
522.145	6089
522.215	4724
522.285	5684
522.355	6335
522.424	8638
522.494	8767
522.564	9009
522.634	16818
522.704	58318
522.774	26673
522.843	6958
522.913	5651
522.983	7750
523.053	6764
523.122	6131
523.192	8513
523.262	27844
523.331	33329
523.401	7656
523.471	4200
523.540	6100
523.610	4051
523.680	3453
523.749	4092
523.819	4842
523.888	4817
523.958	3507
524.027	4088
524.097	3817
524.166	3923
524.236	3558
524.305	5493
524.375	3337
524.444	2472
524.514	5656
524.583	3781
524.653	3681
524.722	3924
524.791	2623
524.861	5139
524.930	3486
524.999	3525
525.069	5904
525.138	3282
525.207	3658
525.277	4383
525.346	4208
525.415	4907
525.484	4842
525.554	3985
525.623	5231
525.692	6969
525.761	6961
525.830	7425
525.900	9185
525.969	11809
526.038	20070
526.107	34145
526.176	111374
526.245	103917
526.314	34769
526.383	55527
526.452	84713
526.522	125571
526.591	149508
526.660	44167
526.729	24574
526.797	25850
526.867	40523
526.935	166494
527.004	311592
527.073	199452
527.142	21881
527.211	9514
527.280	8495
527.349	7695
527.418	3623
527.487	5145
527.555	3000
527.624	3159
527.693	1560
527.762	4930
527.831	1969
527.899	3148
527.968	3155
528.037	2959
528.106	4666
528.174	8985
528.243	5974
528.312	6723
528.380	11697
528.449	3813
528.518	4025
528.586	1880
528.655	2464
528.723	3289
528.792	2424
528.861	1765
528.929	1404
528.998	2849
529.066	2344
529.135	2275
529.203	1696
529.272	477
529.340	3089
529.409	4263
529.477	1852
529.545	1623
529.614	4007
529.682	2265
529.751	2684
529.819	4650
529.887	2451
529.956	2108
530.024	2765
530.092	1548
530.161	4218
530.229	5763
530.297	3291
530.365	2964
530.434	2194
530.502	1606
530.570	1966
530.638	454
530.707	2980
530.775	4226
530.843	2455
530.911	1810
530.979	3046
531.047	1799
531.115	2617
531.183	2070
531.252	2990
531.320	2238
531.388	2385
531.456	2539
531.524	1214
531.592	3692
531.660	4281
531.728	2673
531.796	1526
531.864	2607
531.932	2934
532.000	1648
532.067	2527
532.135	3077
532.203	4695
532.271	2815
532.339	8162
532.407	21803
532.475	15469
532.542	7207
532.610	7156
532.678	8451
532.746	33840
532.814	114102
532.881	31686
532.949	5368
533.017	4239
533.084	2940
533.152	2089
533.220	3048
533.287	2699
533.355	3577
533.423	3228
533.490	2199
533.558	2821
533.625	3158
533.693	3394
533.761	4241
533.828	4546
533.896	3601
533.963	9035
534.031	10788
534.098	15174
534.166	8303
534.233	3652
534.300	5519
534.368	4562
534.435	4075
534.503	4078
534.570	4729
534.637	4084
534.705	5806
534.772	6268
534.840	9625
534.907	45363
534.974	70703
535.041	10251
535.109	4145
535.176	2810
535.243	3657
535.310	3343
535.378	2472
535.445	3337
535.512	3147
535.579	3192
535.646	2175
535.714	3607
535.781	5960
535.848	5652
535.915	5630
535.982	4904
536.049	4496
536.116	6044
536.183	4177
536.250	4308
536.317	4900
536.384	4856
536.451	7354
536.518	8195
536.585	4773
536.652	7386
536.719	10149
536.786	6567
536.853	5635
536.920	9767
536.987	12471
537.053	12645
537.120	48635
537.187	53583
537.254	5887
537.321	3950
537.388	4996
537.454	3053
537.521	2939
537.588	3421
537.654	4890
537.721	6045
537.788	7047
537.855	4776
537.921	4545
537.988	3578
538.055	5348
538.121	3867
538.188	4567
538.254	7335
538.321	13360
538.388	8973
538.454	5089
538.521	4845
538.587	4027
538.654	3647
538.720	3939
538.787	3772
538.853	4630
538.920	4805
538.986	3952
539.053	3902
539.119	5502
539.185	4499
539.252	5969
539.318	8477
539.385	7575
539.451	7194
539.517	8723
539.583	8305
539.650	12330
539.716	40712
539.782	13156
539.849	5995
539.915	5955
539.981	5116
540.047	6813
540.114	6487
540.180	7075
540.246	6208
540.312	7984
540.378	13721
540.444	15837
540.510	13857
540.576	46558
540.643	16656
540.709	4516
540.775	5470
540.841	4811
540.907	5044
540.973	7817
541.039	9637
541.105	9727
541.171	6812
541.237	5078
541.303	6310
541.369	7120
541.435	8059
541.500	12993
541.566	7513
541.632	4800
541.698	3802
541.764	4926
541.830	3865
541.896	3816
541.961	5266
542.027	5294
542.093	5230
542.159	6460
542.224	4689
542.290	8792
542.356	12873
542.421	15066
542.487	8991
542.553	5624
542.618	6494
542.684	6094
542.750	5804
542.815	7815
542.881	9950
542.947	34150
543.012	32558
543.078	6400
543.143	5118
543.209	5760
543.274	5142
543.340	7547
543.405	13653
543.471	25800
543.536	7073
543.602	6099
543.667	3268
543.732	6513
543.798	3428
543.863	6372
543.928	4770
543.994	4612
544.059	5057
544.124	5842
544.190	4519
544.255	6110
544.320	5723
544.386	5401
544.451	8248
544.516	8731
544.581	8083
544.646	21193
544.712	41825
544.777	10096
544.842	6020
544.907	4819
544.972	5645
545.037	4817
545.102	5667
545.168	6021
545.233	6084
545.298	7493
545.363	7062
545.428	8865
545.493	13456
545.558	30541
545.623	14680
545.688	5084
545.753	5668
545.818	5861
545.883	6619
545.947	5825
546.012	5681
546.077	5516
546.142	7303
546.207	6088
546.272	8216
546.337	9317
546.401	8240
546.466	7756
546.531	6251
546.596	6863
546.661	6164
546.725	8367
546.790	6844
546.855	7412
546.919	5522
546.984	8346
547.049	9366
547.113	9797
547.178	9416
547.243	12346
547.307	13618
547.372	14690
547.436	14481
547.501	14058
547.565	14751
547.630	16204
547.695	14597
547.759	13445
547.823	13939
547.888	13903
547.952	15065
548.017	15384
548.081	17803
548.146	16369
548.210	15286
548.274	15529
548.339	15932
548.403	15031
548.468	13775
548.532	13836
548.596	13947
548.660	13255
548.725	15596
548.789	16223
548.853	17484
548.917	15509
548.982	15430
549.046	14880
549.110	11928
549.174	12623
549.238	14126
549.303	15101
549.367	16741
549.431	15502
549.495	15499
549.559	14707
549.623	16265
549.687	19237
549.751	21444
549.815	21396
549.879	21175
549.943	19099
550.007	21179
550.071	21885
550.135	21945
550.199	18403
550.263	18694
550.327	17566
550.391	17940
550.455	20357
550.519	19818
550.582	22556
550.646	25055
550.710	28102
550.774	24511
550.838	23603
550.901	23553
550.965	26381
551.029	26866
551.093	29607
551.156	31110
551.220	36626
551.284	41255
551.347	33020
551.411	28662
551.475	27781
551.538	25801
551.602	24437
551.666	23240
551.729	20812
551.793	21602
551.856	21236
551.920	21389
551.983	21043
552.047	19981
552.110	19601
552.174	20420
552.237	21369
552.301	19282
552.364	19503
552.428	17392
552.491	17879
552.554	19626
552.618	18993
552.681	20561
552.745	19337
552.808	23855
552.871	29831
552.934	24398
552.998	20904
553.061	18602
553.124	19596
553.187	19550
553.251	21147
553.314	21616
553.377	21662
553.440	28360
553.503	58417
553.567	101290
553.630	31975
553.693	21606
553.756	20840
553.819	19544
553.882	18306
553.945	18986
554.008	18850
554.071	17799
554.134	19328
554.197	17877
554.260	18065
554.323	18710
554.386	18884
554.449	19146
554.512	19565
554.575	16901
554.638	17244
554.701	17413
554.764	18507
554.827	17238
554.889	16776
554.952	15255
555.015	14890
555.078	15806
555.141	16497
555.203	15690
555.266	15189
555.329	15179
555.391	15323
555.454	15388
555.517	15529
555.580	14584
555.642	13385
555.705	12965
555.768	13000
555.830	13056
555.893	11828
555.955	11812
556.018	11761
556.080	11615
556.143	12159
556.206	12447
556.268	11746
556.330	12261
556.393	12153
556.455	11481
556.518	11237
556.580	11921
556.643	11434
556.705	10899
556.767	9688
556.830	10858
556.892	11459
556.955	13938
557.017	12068
557.079	10497
557.142	9281
557.204	10496
557.266	16590
557.328	15387
557.391	8982
557.453	8420
557.515	8482
557.577	10643
557.639	10078
557.701	8809
557.764	8147
557.826	8306
557.888	9823
557.950	9483
558.012	11078
558.074	13637
558.136	25992
558.198	74449
558.260	32543
558.322	12077
558.384	13325
558.446	13887
558.508	16998
558.570	20435
558.632	28928
558.694	42177
558.756	44239
558.818	119253
558.880	351448
558.942	129606
559.003	79627
559.065	46484
559.127	19431
559.189	18379
559.251	20825
559.312	26417
559.374	55163
559.436	211549
559.498	130932
559.559	22396
559.621	19339
559.683	19516
559.744	28687
559.806	85719
559.868	163506
559.929	35419
559.991	17320
560.052	22248
560.114	66627
560.176	51084
560.237	36908
560.299	67756
560.360	18473
560.422	8027
560.483	6442
560.545	6701
560.606	5408
560.667	5347
560.729	4831
560.790	4611
560.852	4894
560.913	4786
560.974	4123
561.036	4313
561.097	4876
561.158	5253
561.220	6719
561.281	4557
561.342	5412
561.403	7343
561.465	6511
561.526	15401
561.587	24397
561.648	7354
561.709	5536
561.771	5140
561.832	4193
561.893	4691
561.954	4820
562.015	4738
562.076	4921
562.137	5994
562.198	4726
562.259	5064
562.320	4871
562.381	5778
562.442	7525
562.503	6363
562.564	4819
562.625	4902
562.686	5378
562.747	4985
562.808	4927
562.869	3780
562.930	4551
562.991	4536
563.051	4462
563.112	4366
563.173	4578
563.234	4440
563.294	5155
563.355	5012
563.416	4903
563.477	4761
563.537	5163
563.598	5106
563.659	4522
563.720	3991
563.780	4300
563.841	4493
563.901	5372
563.962	4102
564.023	4548
564.083	4491
564.144	4878
564.204	4525
564.265	4669
564.325	4686
564.386	5027
564.446	6264
564.507	4245
564.567	4709
564.628	4394
564.688	4931
564.749	4370
564.809	5147
564.869	4590
564.930	4594
564.990	4526
565.050	4615
565.111	5397
565.171	5736
565.231	4642
565.292	5557
565.352	4270
565.412	5440
565.472	4893
565.532	5368
565.593	5187
565.653	5903
565.713	6781
565.773	6236
565.833	6370
565.893	8303
565.953	5933
566.013	5809
566.074	6510
566.134	7188
566.194	6368
566.254	7873
566.314	7594
566.374	5386
566.434	6794
566.494	7205
566.554	7164
566.614	7759
566.673	8271
566.733	8665
566.793	8569
566.853	9303
566.913	9380
566.973	9015
567.033	10810
567.092	9074
567.152	9460
567.212	9083
567.272	10390
567.331	9762
567.391	10654
567.451	11950
567.511	12620
567.570	12030
567.630	11483
567.690	9833
567.749	10460
567.809	11614
567.868	13341
567.928	14802
567.988	17637
568.047	20280
568.107	25715
568.166	34469
568.226	52476
568.285	77537
568.345	73416
568.404	57973
568.464	49702
568.523	45436
568.582	44139
568.642	48037
568.701	57348
568.761	79067
568.820	126051
568.879	137551
568.939	106092
568.998	78570
569.057	58759
569.116	46226
569.176	35965
569.235	28593
569.294	25290
569.353	20570
569.413	18280
569.472	15461
569.531	13387
569.590	12149
569.649	11922
569.708	10964
569.767	9838
569.827	9571
569.886	9413
569.945	8822
570.004	8515
570.063	7529
570.122	8345
570.181	7446
570.240	6758
570.299	7278
570.358	7433
570.417	6757
570.475	6766
570.534	6649
570.593	6789
570.652	6670
570.711	6556
570.770	5552
570.829	6208
570.887	6120
570.946	6904
571.005	5710
571.064	5712
571.122	5076
571.181	5880
571.240	5157
571.299	5105
571.357	5293
571.416	4740
571.475	4436
571.533	5584
571.592	5390
571.650	4944
571.709	4864
571.768	5103
571.826	5243
571.885	5275
571.943	4881
572.002	4556
572.060	4506
572.119	4931
572.177	3925
572.236	4237
572.294	4249
572.352	4537
572.411	4153
572.469	4757
572.528	4712
572.586	5092
572.644	4428
572.703	6108
572.761	4332
572.819	3850
572.877	3857
572.936	3475
572.994	3389
573.052	3370
573.110	3992
573.169	4828
573.227	4057
573.285	3802
573.343	4616
573.401	3753
573.459	4382
573.517	3972
573.576	4489
573.634	3863
573.692	4229
573.750	4683
573.808	3664
573.866	3132
573.924	3592
573.982	3639
574.040	3775
574.098	3511
574.155	3520
574.213	3764
574.271	2490
574.329	4144
574.387	4334
574.445	3730
574.503	3666
574.560	3301
574.618	3855
574.676	3527
574.734	3399
574.792	4215
574.849	4195
574.907	3190
574.965	3702
575.022	2479
575.080	2662
575.138	3710
575.195	4078
575.253	3272
575.311	3968
575.368	4032
575.426	3368
575.483	4002
575.541	3180
575.598	3361
575.656	3111
575.713	3743
575.771	4013
575.828	4174
575.886	2970
575.943	4318
576.001	2707
576.058	3209
576.115	3749
576.173	3328
576.230	4224
576.287	4219
576.345	3923
576.402	3923
576.459	3076
576.517	2657
576.574	3355
576.631	3163
576.688	3015
576.746	2431
576.803	3605
576.860	3744
576.917	3224
576.974	2312
577.031	3541
577.089	3740
577.146	3280
577.203	3058
577.260	3766
577.317	3586
577.374	3794
577.431	4286
577.488	3436
577.545	3707
577.602	4246
577.659	3796
577.716	3842
577.773	5981
577.830	3891
577.886	3948
577.943	4027
578.000	3383
578.057	3383
578.114	3330
578.171	4864
578.227	5456
578.284	5942
578.341	5131
578.398	4639
578.454	4254
578.511	3555
578.568	4391
578.625	3687
578.681	3763
578.738	3853
578.794	4044
578.851	4337
578.908	3671
578.964	4268
579.021	4616
579.077	4080
579.134	4083
579.190	3579
579.247	3927
579.303	3684
579.360	3692
579.416	3880
579.473	4306
579.529	3235
579.586	4570
579.642	3746
579.698	3941
579.755	5097
579.811	4821
579.867	4974
579.924	4637
579.980	3601
580.036	5506
580.093	6361
580.149	8405
580.205	10225
580.261	7616
580.317	6294
580.374	5554
580.430	5036
580.486	4954
580.542	4124
580.598	4802
580.619	4704
580.654	4539
580.692	4589
580.710	4622
580.765	4981
580.767	4998
580.823	5049
580.838	4804
580.879	4174
580.911	4579
580.935	4888
580.984	4418
580.991	4357
581.047	5753
581.057	5377
581.103	3725
581.130	4158
581.159	4647
581.203	5307
581.215	5485
581.270	4660
581.276	4714
581.326	5234
581.349	5027
581.382	4747
581.422	4964
581.438	5054
581.494	3781
581.494	3778
581.550	3786
581.567	4002
581.606	4487
581.640	4617
581.661	4706
581.713	5992
581.717	6096
581.773	4816
581.786	4798
581.829	4821
581.859	4505
581.885	4173
581.932	4679
581.940	4805
581.996	4962
582.004	4999
582.052	5102
582.077	4871
582.107	4583
582.150	5177
582.163	5379
582.219	4930
582.223	4925
582.274	4951
582.296	4903
582.330	4748
582.368	4856
582.386	4955
582.441	4667
582.441	4667
582.497	4711
582.514	4974
582.552	5780
582.587	6022
582.608	6046
582.659	5369
582.663	5323
582.719	5499
582.732	5369
582.774	5014
582.805	5336
582.830	5644
582.877	5583
582.885	5554
582.941	5234
582.950	5298
582.996	5609
583.023	6041
583.052	6574
583.095	6299
583.107	6210
583.162	6580
583.168	6668
583.218	7631
583.240	7508
583.273	7251
583.313	6999
583.328	6848
583.384	6613
583.385	6573
583.439	5647
583.458	5592
583.494	5453
583.531	5469
583.549	5506
583.603	5927
583.605	5931
583.660	5242
583.676	5296
583.715	5622
583.748	5917
583.770	6082
583.820	5987
583.825	5992
583.881	6400
583.893	6303
583.936	5926
583.965	5688
583.991	5359
584.038	6343
584.046	6523
584.101	5866
584.110	5875
584.156	6047
584.183	6013
584.211	5997
584.255	6405
584.266	6497
584.321	6536
584.328	6528
584.376	6326
584.400	6528
584.431	6928
584.472	6497
584.486	6274
584.541	6974
584.545	6986
584.596	7264
584.617	7182
584.651	7046
584.689	7129
584.706	7166
584.761	7291
584.762	7291
584.816	6804
584.834	7103
584.871	7903
584.906	8029
584.926	8070
584.978	7479
584.980	7456
585.035	8524
585.051	8560
585.090	8476
585.123	8605
585.145	8694
585.195	8827
585.200	8862
585.254	9882
585.267	10330
585.309	11698
585.340	12510
585.364	13087
585.412	12943
585.419	12896
585.473	13967
585.484	14083
585.528	14865
585.556	16503
585.583	18452
585.628	25084
585.637	27026
585.692	47641
585.700	53118
585.747	79985
585.772	68118
585.801	49184
585.845	24089
585.856	19044
585.910	13880
585.917	13473
585.965	11799
585.989	11773
586.019	11772
586.061	11340
586.074	11182
586.128	11922
586.133	11925
586.183	11864
586.205	12054
586.237	12227
586.277	12173
586.292	12253
586.346	11984
586.349	12034
586.401	12810
586.421	13043
586.455	13223
586.493	13450
586.509	13515
586.564	13450
586.565	13471
586.618	14135
586.637	14466
586.672	14965
586.709	14927
586.727	14938
586.781	16278
586.781	16266
586.835	15444
586.853	15747
586.889	16418
586.925	16517
586.944	16591
586.996	17293
586.998	17304
587.052	18286
587.068	18631
587.106	18810
587.140	18800
587.161	19083
587.212	20127
587.215	20150
587.269	21001
587.284	21444
587.323	22294
587.356	22509
587.377	22765
587.427	24193
587.431	24297
587.485	25604
587.499	26116
587.539	27061
587.571	27762
587.593	28476
587.643	30412
587.648	30556
587.702	32589
587.715	33283
587.755	35189
587.786	36640
587.810	37741
587.858	40260
587.864	40500
587.917	43626
587.930	44506
587.971	48056
588.001	50670
588.025	52774
588.073	58307
588.079	58960
588.133	65970
588.145	67736
588.187	73660
588.217	78716
588.241	83724
588.288	94076
588.295	95328
588.348	109025
588.360	112336
588.402	125029
588.431	135494
588.456	145496
588.503	167338
588.510	170579
588.564	202105
588.575	210066
588.617	244065
588.646	271366
588.671	300829
588.718	365685
588.725	377844
588.778	486997
588.789	511040
588.832	622206
588.861	695129
588.886	734030
588.932	760660
588.939	751160
588.993	640569
589.004	640335
589.047	714277
589.075	746028
589.100	704322
589.147	579422
589.154	563264
589.207	445465
589.218	425163
589.261	383787
589.290	365050
589.314	364930
589.361	379712
589.368	386583
589.421	465121
589.433	485265
589.475	588834
589.504	657389
589.528	677091
589.576	662138
589.582	655511
589.635	646338
589.647	640616
589.689	546530
589.718	459267
589.742	395773
589.790	279690
589.795	270530
589.849	203252
589.861	189689
589.902	158885
589.932	139171
589.955	128081
590.004	108794
590.009	106965
590.062	91340
590.075	87957
590.115	78785
590.146	72537
590.168	69085
590.218	62889
590.222	62279
590.275	56519
590.289	55131
590.328	51038
590.360	48145
590.381	46585
590.431	43476
590.435	43147
590.488	39242
590.503	38245
590.541	36493
590.574	35287
590.594	34553
590.645	32935
590.647	32771
590.700	30367
590.716	29593
590.753	28701
590.787	28322
590.806	27900
590.859	26734
590.859	26662
590.912	25264
590.930	24951
590.965	23944
591.001	23091
591.018	22827
591.071	22161
591.072	22198
591.124	21437
591.143	21263
591.177	20505
591.214	19769
591.230	19727
591.283	19995
591.285	20025
591.336	19067
591.356	18819
591.389	18313
591.427	17776
591.442	17639
591.495	17136
591.498	17135
591.547	16522
591.569	16290
591.600	16215
591.640	16172
591.653	16131
591.706	16091
591.711	16117
591.759	15485
591.782	15179
591.811	14797
591.853	14287
591.864	14242
591.917	14191
591.924	14205
591.969	13495
591.995	13149
592.022	13143
592.066	13236
592.075	13253
592.127	13472
592.137	13536
592.180	13362
592.208	13297
592.233	13132
592.279	12883
592.285	12845
592.338	12720
592.350	12716
592.390	12257
592.421	11949
592.443	11896
592.491	11884
592.495	11895
592.548	12392
592.562	12554
592.600	12063
592.633	11680
592.653	11368
592.704	10572
592.705	10647
592.775	11460
592.846	10806
592.916	10776
592.987	10719
593.058	10100
593.128	10697
593.199	10630
593.270	10587
593.341	10452
593.411	10408
593.482	9963
593.553	10890
593.623	10051
593.694	9780
593.764	9750
593.835	9813
593.906	9349
593.976	9605
594.047	8120
594.117	10014
594.188	10350
594.258	9360
594.329	10092
594.399	9983
594.470	10323
594.540	10545
594.611	9550
594.681	9723
594.751	8505
594.822	9743
594.892	9839
594.963	9408
595.033	10020
595.103	9032
595.174	9815
595.244	9777
595.314	10894
595.384	9604
595.455	10033
595.525	10509
595.595	11627
595.665	10533
595.736	10577
595.806	10048
595.876	10528
595.946	10209
596.016	9985
596.087	11209
596.157	10987
596.227	10490
596.297	10656
596.367	11195
596.437	11822
596.507	12767
596.577	12683
596.647	12391
596.717	12805
596.787	13481
596.857	12480
596.927	12453
596.997	13124
597.067	11991
597.137	13009
597.207	12812
597.277	12164
597.347	12145
597.417	12809
597.487	12360
597.557	11705
597.626	12003
597.696	12596
597.766	12149
597.836	12013
597.906	11804
597.975	11280
598.045	10721
598.115	11794
598.185	11909
598.254	13652
598.324	14850
598.394	15261
598.464	13864
598.533	13143
598.603	14073
598.672	12432
598.742	12942
598.812	12951
598.881	13286
598.951	13991
599.020	12898
599.090	14016
599.159	13558
599.229	13458
599.299	11772
599.368	13042
599.437	13098
599.507	12855
599.576	11804
599.646	12728
599.715	12117
599.785	11613
599.854	11010
599.924	11682
599.993	10760
600.062	11851
600.132	11386
600.201	11658
600.270	13587
600.340	14106
600.409	13942
600.478	13437
600.547	14539
600.617	13160
600.686	11077
600.755	9348
600.824	9254
600.894	9270
600.963	9128
601.032	9509
601.101	8956
601.170	8914
601.239	8796
601.308	8475
601.378	8330
601.447	9079
601.516	8525
601.585	8595
601.654	8874
601.723	9414
601.792	9488
601.861	8886
601.930	9854
601.999	9178
602.068	8819
602.137	9078
602.206	9542
602.275	9975
602.343	10214
602.412	10105
602.481	9384
602.550	9529
602.619	10432
602.688	10604
602.756	9551
602.825	9791
602.894	10244
602.963	10799
603.032	10240
603.100	10713
603.169	11123
603.238	10113
603.307	11459
603.375	10810
603.444	11362
603.513	11838
603.581	10721
603.650	12058
603.719	11494
603.787	11760
603.856	11292
603.924	11245
603.993	11327
604.061	12309
604.130	12253
604.198	13900
604.267	13128
604.335	14551
604.404	13654
604.472	13244
604.541	13259
604.609	14241
604.678	14020
604.746	14231
604.815	14064
604.883	14435
604.951	14625
605.020	15025
605.088	15443
605.156	14902
605.225	16236
605.293	15823
605.361	15368
605.429	15529
605.498	15751
605.566	16113
605.634	17200
605.702	17657
605.771	18383
605.839	18578
605.907	17648
605.975	17332
606.043	16872
606.111	16999
606.180	17268
606.248	17670
606.316	16971
606.384	16391
606.452	17146
606.520	16977
606.588	18158
606.656	17693
606.724	16947
606.792	17568
606.860	15076
606.928	13751
606.996	13200
607.064	13093
607.132	12839
607.200	13592
607.267	14262
607.335	13752
607.403	14799
607.471	14121
607.539	13886
607.607	14375
607.674	12612
607.742	12954
607.810	11900
607.878	12153
607.946	11858
608.013	14116
608.081	13609
608.149	13497
608.216	13420
608.284	15128
608.352	14647
608.419	13708
608.487	15116
608.555	12931
608.622	14816
608.690	15096
608.757	17057
608.825	17227
608.893	15719
608.960	16021
609.028	14796
609.095	14902
609.163	14869
609.230	13068
609.298	12523
609.365	13195
609.432	13804
609.500	15268
609.567	17098
609.635	19651
609.702	21200
609.769	20025
609.837	15762
609.904	13528
609.971	12384
610.039	14816
610.106	18318
610.173	28680
610.241	61948
610.308	46567
610.375	19987
610.442	14446
610.509	13615
610.577	14423
610.644	14640
610.711	14428
610.778	14539
610.845	15668
610.912	15872
610.980	17657
611.047	18027
611.114	17277
611.181	16106
611.248	14959
611.315	17041
611.382	15986
611.449	17111
611.516	18936
611.583	18444
611.650	18976
611.717	18908
611.784	18901
611.851	19213
611.918	19902
611.984	23358
612.051	31226
612.118	56576
612.185	127927
612.252	101728
612.319	29384
612.386	23478
612.452	22662
612.519	21427
612.586	19517
612.653	21111
612.719	21586
612.786	20390
612.853	19026
612.919	17704
612.986	18563
613.053	17428
613.120	15933
613.186	14834
613.253	17585
613.319	16771
613.386	16426
613.453	16599
613.519	16887
613.586	16316
613.652	17193
613.719	17370
613.785	17588
613.852	17111
613.918	15654
613.985	17191
614.051	18627
614.118	20169
614.184	21057
614.250	16285
614.317	16527
614.383	17104
614.449	16843
614.516	17296
614.582	17837
614.648	16145
614.715	16629
614.781	16436
614.847	16076
614.914	16126
614.980	15064
615.046	16160
615.112	15564
615.179	17257
615.245	17744
615.311	18736
615.377	24332
615.443	25461
615.509	20798
615.575	19085
615.642	17702
615.708	18042
615.774	19282
615.840	20501
615.906	24512
615.972	30009
616.038	48711
616.104	82544
616.170	160795
616.236	160353
616.302	42065
616.368	28061
616.434	21580
616.500	19632
616.565	20588
616.631	23717
616.697	21320
616.763	21470
616.829	27151
616.895	41595
616.961	43324
617.026	23449
617.092	18019
617.158	17724
617.224	16059
617.289	15775
617.355	15010
617.421	14351
617.487	15226
617.552	13944
617.618	13476
617.684	13454
617.749	15695
617.815	13352
617.880	13233
617.946	13457
618.012	13911
618.077	12659
618.143	13672
618.208	13606
618.274	14630
618.339	15699
618.405	12198
618.470	11676
618.536	12718
618.601	11332
618.667	10646
618.732	11598
618.798	10892
618.863	11796
618.928	9873
618.994	10858
619.059	11473
619.124	10782
619.190	10441
619.255	10246
619.320	10067
619.386	10320
619.451	10279
619.516	10712
619.581	9905
619.647	11359
619.712	11621
619.777	10337
619.842	10442
619.907	9752
619.972	10453
620.038	10712
620.103	10042
620.168	8766
620.233	10674
620.298	10124
620.363	11365
620.428	10632
620.493	11071
620.558	11249
620.623	11103
620.688	11109
620.753	11129
620.818	11237
620.883	11179
620.948	10921
621.013	10327
621.078	11470
621.143	9773
621.207	12464
621.272	10945
621.337	10761
621.402	10780
621.467	10754
621.532	10966
621.596	10377
621.661	10778
621.726	9934
621.791	10607
621.855	11086
621.920	10803
621.985	10012
622.049	10939
622.114	10492
622.179	10488
622.243	10704
622.308	11212
622.373	12884
622.437	11752
622.502	10929
622.566	10642
622.631	9219
622.695	11315
622.760	11552
622.824	10654
622.889	10929
622.953	10843
623.018	12057
623.082	12090
623.147	12152
623.211	11870
623.276	11038
623.340	10593
623.404	10121
623.469	10025
623.533	10443
623.597	9992
623.662	10313
623.726	9316
623.790	8882
623.854	8402
623.919	9125
623.983	9356
624.047	8653
624.111	9120
624.176	9316
624.240	9189
624.304	11204
624.368	9245
624.432	9933
624.496	9935
624.560	9751
624.625	10131
624.689	9804
624.753	9803
624.817	10583
624.881	9823
624.945	8782
625.009	8433
625.073	8898
625.137	9607
625.201	9786
625.265	10363
625.329	8625
625.393	9138
625.456	9837
625.520	9927
625.584	9386
625.648	10240
625.712	9782
625.776	10137
625.839	9394
625.903	7925
625.967	7218
626.031	8800
626.095	8723
626.158	9060
626.222	6700
626.286	6361
626.349	5691
626.413	5462
626.477	6505
626.540	5903
626.604	5555
626.668	6295
626.731	5682
626.795	5400
626.858	5528
626.922	5182
626.986	5812
627.049	4715
627.113	5313
627.176	5953
627.240	5294
627.303	5283
627.366	5553
627.430	5520
627.493	6514
627.557	5548
627.620	6112
627.684	5690
627.747	5629
627.810	4902
627.874	4700
627.937	4284
628.000	5867
628.064	5370
628.127	3657
628.190	4853
628.253	3963
628.317	2938
628.380	4280
628.443	3883
628.506	3181
628.569	4565
628.632	2879
628.696	3810
628.759	3198
628.822	3610
628.885	2925
628.948	4013
629.011	2918
629.074	2966
629.137	3607
629.200	2224
629.263	3460
629.326	2633
629.389	2951
629.452	3724
629.515	1993
629.578	2300
629.641	2659
629.704	2681
629.767	2901
629.830	2894
629.892	2577
629.955	2359
630.018	3512
630.081	1761
630.144	3253
630.207	1993
630.269	3705
630.332	2481
630.395	2246
630.458	2625
630.520	2836
630.583	2996
630.646	2294
630.708	3434
630.771	2043
630.834	2988
630.896	2328
630.959	1735
631.021	2475
631.084	2602
631.146	2733
631.209	2903
631.272	2364
631.334	2706
631.397	1716
631.459	2456
631.522	2516
631.584	2009
631.646	2274
631.709	3076
631.771	2665
631.834	2728
631.896	2773
631.958	1524
632.021	3529
632.083	556
632.145	2543
632.208	2314
632.270	2738
632.332	1304
632.395	1469
632.457	2720
632.519	1584
632.581	3326
632.643	1542
632.706	2527
632.768	1439
632.830	2328
632.892	1802
632.954	1991
633.016	2370
633.078	1636
633.141	2134
633.203	1894
633.265	2389
633.327	1953
633.389	2577
633.451	2297
633.513	2303
633.575	2309
633.637	1672
633.698	2017
633.760	2079
633.822	2966
633.884	2498
633.946	2009
634.008	1180
634.070	2949
634.132	2697
634.193	2880
634.255	2943
634.317	2722
634.379	3114
634.441	2156
634.502	1165
634.564	2560
634.626	2667
634.687	2353
634.749	1589
634.811	2584
634.873	1270
634.934	1886
634.996	1945
635.057	1700
635.119	1200
635.181	1984
635.242	2057
635.304	28
635.365	3184
635.427	2023
635.488	2058
635.550	1338
635.611	2190
635.673	-45
635.734	3042
635.796	1993
635.857	3007
635.918	1616
635.980	3637
636.041	828
636.102	2549
636.164	2369
636.225	3387
636.286	839
636.348	2249
636.409	1572
636.470	1488
636.531	1707
636.593	1353
636.654	2584
636.715	1264
636.776	2112
636.838	642
636.899	1614
636.960	1111
637.021	1643
637.082	830
637.143	1847
637.204	1086
637.265	1388
637.326	1588
637.387	1707
637.448	531
637.509	2688
637.570	2151
637.631	1464
637.692	866
637.753	479
637.814	1177
637.875	1142
637.936	2069
637.997	1696
638.058	1499
638.119	1705
638.179	1704
638.240	976
638.301	1467
638.362	667
638.423	790
638.483	1924
638.544	455
638.605	1862
638.666	-571
638.726	1773
638.787	1777
638.848	1298
638.908	1622
638.969	1471
639.030	1408
639.090	100
639.151	1073
639.211	1420
639.272	2392
639.332	2293
639.393	1019
639.453	388
639.514	1252
639.574	1375
639.635	90
639.695	1503
639.756	884
639.816	1295
639.877	976
639.937	2068
639.997	1687
640.058	780
640.118	-303
640.178	857
640.239	437
640.299	468
640.359	588
640.420	1742
640.480	1628
640.540	1284
640.600	532
640.661	1804
640.721	411
640.781	2442
640.841	857
640.901	1666
640.961	1304
641.021	1411
641.082	591
641.142	943
641.202	1867
641.262	-268
641.322	1280
641.382	1162
641.442	501
641.502	836
641.562	933
641.622	763
641.682	551
641.742	1979
641.802	1428
641.861	1260
641.921	340
641.981	1700
642.041	905
642.101	662
642.161	135
642.221	1183
642.280	1230
642.340	224
642.400	-111
642.460	1711
642.519	900
642.579	511
642.639	793
642.698	-1447
642.758	2187
642.818	1330
642.877	-95
642.937	592
642.997	923
643.056	1804
643.116	-423
643.175	1921
643.235	867
643.294	760
643.354	585
643.414	822
643.473	1351
643.532	1090
643.592	2032
643.651	4761
643.711	8886
643.770	16665
643.830	37830
643.889	93316
643.948	30392
644.008	4309
644.067	1492
644.126	1389
644.186	1444
644.245	1151
644.304	-67
644.363	2353
644.423	-143
644.482	1100
644.541	835
644.600	-253
644.659	858
644.719	1079
644.778	2281
644.837	3827
644.896	7590
644.955	18798
645.014	8096
645.073	2441
645.132	673
645.191	1758
645.250	685
645.309	2521
645.368	492
645.427	1969
645.486	1309
645.545	4627
645.604	400
645.663	1167
645.722	350
645.781	1117
645.840	770
645.898	1748
645.957	2642
646.016	3128
646.075	7826
646.134	14423
646.192	35819
646.251	69193
646.310	13203
646.369	2061
646.427	1871
646.486	350
646.545	1702
646.603	584
646.662	726
646.721	518
646.779	-54
646.838	-879
646.896	1205
646.955	806
647.014	1941
647.072	3721
647.131	11657
647.189	7644
647.248	-317
647.306	838
647.365	94
647.423	-899
647.481	941
647.540	-577
647.598	284
647.657	-410
647.715	1142
647.773	-277
647.832	749
647.890	-927
647.948	-996
648.007	-136
648.065	-500
648.123	-225
648.181	877
648.240	26
648.298	-120
648.356	-350
648.414	39
648.472	219
648.531	-404
648.589	-117
648.647	-64
648.705	334
648.763	-307
648.821	-347
648.879	-307
648.937	223
648.995	671
649.053	551
649.111	765
649.169	2931
649.227	4195
649.285	9967
649.343	32691
649.401	21401
649.459	2731
649.516	2388
649.574	-761
649.632	2247
649.690	2167
649.748	1599
649.806	824
649.863	3270
649.921	7829
649.979	5974
650.037	1412
650.094	-1015
650.152	-209
650.210	-894
650.268	14
650.325	584
650.383	492
650.440	-576
650.498	-48
650.556	328
650.613	42
650.671	18
650.728	-888
650.786	-29
650.843	264
650.901	-1490
650.958	249
651.016	-82
651.073	59
651.131	-483
651.188	-1188
651.246	-626
651.303	-1338
651.360	-32
651.418	-643
651.475	-166
651.532	-1013
651.590	33
651.647	-1340
651.704	-588
651.762	-508
651.819	316
651.876	-892
651.933	-1072
651.990	-180
652.048	-1665
652.105	-1406
652.162	-356
652.219	-860
652.276	-428
652.333	-1099
652.390	-1148
652.448	-1074
652.505	-207
652.562	-537
652.619	-68
652.676	-193
652.733	898
652.790	-517
652.847	-1044
652.904	-252
652.961	-1097
653.017	-713
653.074	-22
653.131	-126
653.188	-1108
653.245	-832
653.302	-657
653.359	-1458
653.415	724
653.472	-1213
653.529	-30
653.586	-653
653.642	-238
653.699	-214
653.756	-558
653.813	-449
653.869	410
653.926	-1446
653.983	-1391
654.039	-721
654.096	-1043
654.152	598
654.209	-1528
654.266	-319
654.322	-1800
654.379	-1071
654.435	-725
654.492	-474
654.548	-741
654.605	-1442
654.661	32
654.717	-534
654.774	-62
654.830	-444
654.887	-825
654.943	-402
655.000	-27
655.056	145
655.112	-850
655.168	-1202
655.225	-462
655.281	-521
655.337	-1151
655.394	-1231
655.450	-923
655.506	-1102
655.562	-506
655.618	111
655.675	-862
655.731	52
655.787	-1496
655.843	-703
655.899	-1266
655.955	-15
656.011	-1418
656.067	-1899
656.123	-787
656.179	16
656.235	770
656.291	-1948
656.347	212
656.403	-2091
656.459	-919
656.515	-1115
656.571	-583
656.627	-1395
656.683	-694
656.739	-823
656.795	-409
656.850	-1352
656.906	-466
656.962	208
657.018	-1623
657.074	-353
657.129	-1248
657.185	63
657.241	707
657.297	-409
657.352	-324
657.408	-1048
657.464	-269
657.519	-771
657.575	-1686
657.630	75
657.686	-957
657.742	-855
657.797	-640
657.853	-1622
657.908	-171
657.964	-1856
658.019	-400
658.075	-1200
658.130	-1181
658.186	-1603
658.241	-51
658.297	-2307
658.352	-1258
658.407	96
658.463	-720
658.518	-237
658.573	-755
658.629	-2123
658.684	-836
658.739	-975
658.795	-1490
658.850	-782
658.905	-1030
658.960	-1273
659.016	-1431
659.071	-1879
659.126	-936
659.181	-1408
659.236	-158
659.291	373
659.346	-1349
659.401	-469
659.457	-725
659.512	-678
659.567	1077
659.622	-1205
659.677	-871
659.732	-2277
659.787	-695
659.842	-1059
659.897	-643
659.952	-720
660.007	-621
660.061	-1480
660.116	-2009
660.171	-1049
660.226	-1151
660.281	-15
660.336	-1653
660.391	-361
660.445	-1025
660.500	-789
660.555	-857
660.610	-1633
660.664	-508
660.719	-1065
660.774	-1160
660.828	-478
660.883	-757
660.938	-1040
660.992	-1332
661.047	-1258
661.101	-1408
661.156	-941
661.211	-1950
661.265	-597
661.320	-1349
661.374	-806
661.429	-1707
661.483	-988
661.538	-1426
661.592	-974
661.647	-818
661.701	-246
661.755	-1360
661.810	-980
661.864	-1775
661.919	-604
661.973	-705
662.027	-1216
662.081	-1772
662.136	-986
662.190	-1418
662.244	-1029
662.299	-610
662.353	-1253
662.407	-1350
662.461	-1373
662.515	-394
662.569	-1098
662.624	-346
662.678	-1445
662.732	-280
662.786	-1787
662.840	-1142
662.894	-1018
662.948	-756
663.002	-878
663.056	-597
663.110	-1388
663.164	-1107
663.218	-253
663.272	-758
663.326	-725
663.380	-802
663.434	-727
663.488	-1728
663.542	-981
663.595	-999
663.649	-1467
663.703	-661
663.757	-926
663.811	-1601
663.864	-891
663.918	-1410
663.972	-1301
664.026	-1101
664.079	-1070
664.133	-1537
664.187	-1008
664.240	-1631
664.294	-1248
664.348	-745
664.401	-1558
664.455	-722
664.508	-1202
664.562	-1005
664.615	-1319
664.669	-1599
664.722	-605
664.776	-698
664.829	-933
664.883	-956
664.936	-1277
664.990	-718
665.043	-1208
665.097	-1796
665.150	-1024
665.203	-1334
665.257	-1144
665.310	-576
665.363	-1099
665.417	-1603
665.470	-1089
665.523	-1005
665.576	-987
665.630	-870
665.683	-915
665.736	-897
665.789	-1067
665.842	-1331
665.895	-990
665.949	-1281
666.002	-1408
666.055	-817
666.108	-639
666.161	-1007
666.214	-800
666.267	-815
666.320	-932
666.373	-1216
666.426	-1076
666.479	-998
666.532	-1043
666.585	-773
666.638	-719
666.691	-1396
666.744	-982
666.796	-1587
666.849	-1722
666.902	-372
666.955	-1149
667.008	-1866
667.060	-821
667.113	-1958
667.166	-1777
667.219	-847
667.271	-1326
667.324	-943
667.377	-211
667.430	-194
667.482	-1231
667.535	-720
667.587	-817
667.640	-428
667.693	-1393
667.745	-431
667.798	-293
667.850	-1873
667.903	-1595
667.955	-1836
668.008	-1234
668.060	-492
668.113	-900
668.165	-378
668.218	-1367
668.270	-1233
668.322	-1441
668.375	-644
668.427	-1146
668.479	-586
668.532	-468
668.584	-1114
668.636	-1034
668.689	-191
668.741	-1777
668.793	-1167
668.845	-1063
668.898	-1134
668.950	-1037
669.002	-1360
669.054	-1054
669.106	-1405
669.158	-553
669.211	-1771
669.263	-1774
669.315	-834
669.367	-781
669.419	-1527
669.471	-795
669.523	-1219
669.575	-911
669.627	-1021
669.679	-1172
669.731	-934
669.783	-816
669.835	-495
669.886	-1819
669.938	-271
669.990	-1008
670.042	-553
670.094	-818
670.146	-1177
670.197	-250
670.249	-20
670.301	-947
670.353	-237
670.404	415
670.456	1045
670.508	2908
670.560	6407
670.611	11809
670.663	23982
670.715	55734
670.766	116896
670.818	46671
670.869	6077
670.921	2329
670.972	853
671.024	-363
671.075	-523
671.127	-613
671.178	-1400
671.230	-1403
671.281	-633
671.333	-1061
671.384	-1318
671.436	-708
671.487	-161
671.538	-1077
671.590	-262
671.641	233
671.692	1278
671.744	5634
671.795	4528
671.846	459
671.897	-283
671.949	-1303
672.000	-477
672.051	-675
672.102	-1028
672.153	-2062
672.204	-1036
672.256	-1280
672.307	-1101
672.358	-1524
672.409	-976
672.460	-1589
672.511	-1723
672.562	-1979
672.613	-2126
672.664	-445
672.715	-1076
672.766	-1288
672.817	-1633
672.868	-1670
672.919	-1469
672.970	-699
673.021	-1269
673.071	-1219
673.122	-642
673.173	-1912
673.224	-575
673.275	-1301
673.326	-717
673.376	-902
673.427	-1633
673.478	-2010
673.528	-506
673.579	-1434
673.630	-929
673.680	-849
673.731	-1035
673.782	-1260
673.832	-1939
673.883	-1136
673.934	-1384
673.984	-1370
674.035	-889
674.085	-860
674.136	-627
674.186	-950
674.237	-1807
674.287	-1721
674.338	-1540
674.388	-1363
674.438	-1869
674.489	-1837
674.539	-788
674.589	-1139
674.640	-1632
674.690	-1177
674.740	-2073
674.791	-995
674.841	-1363
674.891	-1473
674.942	-1684
674.992	-1811
675.042	-2162
675.092	-2053
675.142	-1593
675.193	-2102
675.243	-1853
675.293	-1723
675.343	-2443
675.393	-1444
675.443	-744
675.493	-1392
675.543	-1500
675.593	-1487
675.643	-579
675.693	-1224
675.743	-1167
675.793	-1459
675.843	-1648
675.893	-1331
675.943	-1320
675.993	-1768
676.043	-1135
676.093	-1506
676.142	-1301
676.192	-869
676.242	-1684
676.292	-1538
676.341	-1848
676.391	-1354
676.441	-1925
676.491	-1695
676.540	-1059
676.590	-1063
676.640	-1108
676.689	-875
676.739	-2511
676.789	-1236
676.838	-1754
676.888	-1356
676.937	-1420
676.987	-2128
677.037	-1187
677.086	-2104
677.136	-1300
677.185	-2344
677.235	-2449
677.284	-1748
677.333	-1490
677.383	-1097
677.432	-1987
677.482	-1926
677.531	-1109
677.580	-1249
677.630	-1729
677.679	-2016
677.728	-1567
677.778	-782
677.827	-1438
677.876	-1856
677.925	-1783
677.975	-1761
678.024	-1092
678.073	-1920
678.122	-1855
678.171	-1552
678.220	-1714
678.269	-2133
678.319	-1169
678.368	-1940
678.417	-1634
678.466	-1916
678.515	-1713
678.564	-2258
678.613	-1990
678.662	-1696
678.711	-1541
678.760	-1677
678.809	-1676
678.857	-1443
678.906	-1644
678.955	-1751
679.004	-1053
679.053	-1865
679.102	-2538
679.151	-1543
679.199	-1264
679.248	-1356
679.297	-1512
679.346	-1896
679.394	-2247
679.443	-2168
679.492	-1689
679.540	-1671
679.589	-717
679.638	-2032
679.686	-1296
679.735	-1631
679.784	-1411
679.832	-1983
679.881	-2202
679.929	-2120
679.978	-1875
680.026	-1741
680.075	-1964
680.123	-2277
680.172	-2327
680.220	-1964
680.268	-1487
680.317	-1904
680.365	-1155
680.414	-1916
680.462	-1469
680.510	-1290
680.559	-1207
680.607	-1814
680.655	-865
680.703	-1955
680.752	-1707
680.800	-1794
680.848	-1921
680.896	-1317
680.945	-2177
680.993	-2363
681.041	-1332
681.089	-2009
681.137	-1838
681.185	-1212
681.233	-2068
681.258	-1776
681.281	-1507
681.329	-1910
681.377	-1649
681.380	-1646
681.425	-1720
681.473	-1453
681.502	-1656
681.521	-1817
681.569	-1887
681.617	-1653
681.624	-1635
681.665	-1549
681.713	-1756
681.745	-1781
681.761	-1812
681.809	-2024
681.857	-1359
681.867	-1292
681.904	-1072
681.952	-1833
681.989	-1404
682.000	-1287
682.048	-2134
682.096	-1999
682.111	-1817
682.143	-1462
682.191	-1366
682.233	-378
682.239	-235
682.286	-1488
682.334	-2093
682.354	-1870
682.382	-1592
682.430	-970
682.476	-1873
682.477	-1899
682.525	-1133
682.572	-1294
682.598	-1694
682.620	-2050
682.667	-346
682.715	-1545
682.720	-1503
682.763	-1214
682.810	-1265
682.841	-1590
682.857	-1743
682.905	-1081
682.952	-1214
682.963	-1272
683.000	-1561
683.047	-1262
683.085	-586
683.095	-390
683.142	-652
683.190	-1459
683.206	-1240
683.237	-933
683.284	-811
683.328	-566
683.332	-544
683.379	-1253
683.426	-831
683.449	-1278
683.473	-1755
683.521	-1197
683.568	-1040
683.571	-1055
683.615	-1328
683.662	-617
683.693	-908
683.709	-1077
683.757	-1106
683.804	-409
683.814	-496
683.851	-858
683.898	-552
683.936	-656
683.945	-681
683.992	-300
684.039	-1259
684.057	-1150
684.086	-916
684.133	-1053
684.179	-953
684.180	-960
684.227	-786
684.274	-45
684.300	-714
684.321	-1247
684.368	-855
684.415	-574
684.422	-538
684.462	-330
684.509	-1190
684.543	-1252
684.556	-1285
684.603	-328
684.649	-1065
684.665	-1016
684.696	-890
684.743	-460
684.786	-798
684.790	-832
684.837	-435
684.883	-121
684.908	-184
684.930	-255
684.977	-60
685.023	-211
685.029	-227
685.070	-412
685.117	-40
685.150	-178
685.164	-222
685.210	-951
685.257	-562
685.272	-510
685.303	-436
685.350	-171
685.393	-118
685.396	-111
685.443	-466
685.490	-38
685.514	-135
685.536	-236
685.583	-372
685.629	487
685.636	374
685.675	-379
685.722	-220
685.757	-415
685.768	-467
685.815	-225
685.861	-311
685.878	-318
685.908	-348
685.954	-330
686.000	-598
686.000	-603
686.047	-107
686.093	172
686.121	366
686.139	473
686.185	36
686.232	-790
686.242	-542
686.278	286
686.324	340
686.363	181
686.370	149
686.416	289
686.463	335
686.484	349
686.509	367
686.555	-188
686.601	16
686.606	59
686.647	362
686.693	37
686.727	-286
686.739	-364
686.785	150
686.831	-439
686.848	-357
686.877	-231
686.923	-142
686.969	80
686.969	81
687.015	390
687.061	101
687.090	400
687.107	510
687.153	323
687.199	342
687.211	319
687.245	362
687.291	316
687.332	906
687.336	955
687.382	110
687.428	-250
687.453	81
687.474	409
687.520	127
687.565	797
687.574	715
687.611	289
687.657	347
687.695	291
687.702	356
687.748	908
687.794	1671
687.816	1675
687.839	1326
687.885	1033
687.931	499
687.937	443
687.976	347
688.022	658
688.058	1091
688.067	1179
688.113	-37
688.158	516
688.179	435
688.204	460
688.249	815
688.295	915
688.300	931
688.340	925
688.386	761
688.421	601
688.431	578
688.477	1024
688.522	847
688.542	705
688.567	491
688.613	943
688.658	765
688.663	745
688.703	662
688.749	523
688.784	716
688.794	747
688.839	935
688.884	727
688.905	686
688.930	747
688.975	813
689.020	1010
689.026	970
689.065	599
689.110	519
689.146	769
689.155	848
689.201	612
689.246	954
689.267	1020
689.291	1106
689.336	866
689.381	681
689.388	762
689.426	1151
689.471	1154
689.509	1161
689.516	1167
689.561	957
689.606	1062
689.630	1032
689.651	950
689.696	951
689.741	589
689.750	667
689.785	1216
689.830	1051
689.871	1271
689.875	1260
689.920	955
689.965	524
689.992	356
690.010	417
690.054	967
690.099	1038
690.112	1179
690.144	1362
690.189	990
690.233	1126
690.233	1131
690.278	840
690.323	694
690.354	955
690.367	1092
690.412	1158
690.457	952
690.474	1108
690.501	1326
690.546	932
690.590	1028
690.595	1029
690.635	1187
690.680	1376
690.716	1192
690.724	1190
690.769	1806
690.813	2101
690.836	2233
690.857	2406
690.902	2683
690.946	3324
690.957	3525
690.991	5196
691.035	6793
691.077	8621
691.080	8636
691.124	7942
691.168	7882
691.198	7159
691.213	6337
691.257	4633
691.301	3078
691.318	2515
691.346	2650
691.390	2226
691.434	2014
691.439	2015
691.478	1955
691.522	1380
691.559	1331
691.567	1406
691.611	1858
691.655	2078
691.680	2150
691.699	2062
691.743	1798
691.787	1640
691.800	1566
691.831	1437
691.875	1431
691.919	1414
691.921	1394
691.964	1254
692.008	1752
692.041	1681
692.052	1614
692.096	1855
692.139	1810
692.162	1734
692.183	1639
692.227	1521
692.271	1028
692.282	1069
692.315	1417
692.359	1183
692.402	1662
692.403	1672
692.447	1591
692.490	1528
692.523	1437
692.534	1435
692.578	1651
692.622	1625
692.643	1616
692.666	1563
692.709	1724
692.753	1255
692.763	1245
692.797	1481
692.840	2168
692.884	2127
692.884	2133
692.928	1985
692.971	2403
693.004	2056
693.015	1941
693.059	1938
693.102	2115
693.124	1991
693.146	1865
693.189	1734
693.233	1756
693.245	1682
693.276	1761
693.320	2063
693.363	2443
693.365	2434
693.407	2390
693.450	2579
693.485	3029
693.493	3172
693.537	3322
693.580	3480
693.605	3871
693.624	4584
693.667	5761
693.710	7276
693.725	7783
693.753	10326
693.797	13986
693.840	18237
693.845	18674
693.883	18130
693.926	16759
693.966	15760
693.970	15411
694.013	11739
694.056	8025
694.086	5354
694.099	5096
694.142	4301
694.185	3516
694.206	3165
694.229	3199
694.272	3193
694.315	3061
694.326	3089
694.358	3115
694.401	2934
694.444	3007
694.446	2973
694.487	2616
694.530	2658
694.566	2677
694.573	2682
694.616	2401
694.659	2572
694.686	2402
694.702	2363
694.745	2361
694.787	2506
694.806	2422
694.830	2346
694.873	2259
694.916	2314
694.926	2308
694.959	2674
695.002	3079
695.044	3669
695.046	3679
695.087	3422
695.130	2933
695.166	2486
695.172	2505
695.215	2731
695.258	2947
695.286	3164
695.301	3121
695.343	2672
695.386	2290
695.406	2206
695.428	2375
695.471	2504
695.514	2545
695.526	2578
695.556	2685
695.599	2903
695.641	2889
695.646	2898
695.684	2833
695.726	2620
695.766	2564
695.769	2577
695.811	2350
695.854	2265
695.886	2289
695.896	2374
695.938	2554
695.981	2804
696.005	2838
696.023	2826
696.065	2772
696.108	2892
696.125	2899
696.150	2941
696.192	2953
696.235	3023
696.245	3013
696.277	3034
696.319	3206
696.361	3227
696.365	3213
696.404	3198
696.446	3301
696.485	3260
696.488	3275
696.530	3382
696.572	3467
696.604	3509
696.614	3487
696.656	3412
696.698	3202
696.724	3081
696.740	3075
696.783	3100
696.825	3066
696.844	3028
696.867	3231
696.909	3653
696.951	4057
696.964	4170
696.992	3974
697.034	3591
697.076	3192
697.083	3123
697.118	3164
697.160	3246
697.202	3205
697.203	3193
697.244	3284
697.286	3455
697.323	3389
697.327	3377
697.369	3274
697.411	3153
697.442	3080
697.453	3131
697.494	3231
697.536	3248
697.562	3362
697.578	3417
697.620	3457
697.661	3410
697.682	3448
697.703	3459
697.744	3338
697.786	3231
697.801	3203
697.828	3477
697.869	3797
697.911	4179
697.921	4251
697.952	4023
697.994	3736
698.035	3374
698.040	3327
698.077	3288
698.118	3163
698.160	3067
698.160	3055
698.201	3234
698.243	3443
698.279	3632
698.284	3642
698.325	3616
698.367	3532
698.399	3456
698.408	3451
698.449	3399
698.491	3337
698.518	3273
698.532	3337
698.573	3488
698.614	3654
698.638	3735
698.656	3777
698.697	3843
698.738	3893
698.757	3910
698.779	3985
698.820	4101
698.862	4205
698.877	4232
698.903	4279
698.944	4325
698.985	4372
698.996	4369
699.026	4170
699.067	3874
699.116	3509
699.235	3695
699.354	3954
699.474	3832
699.593	3595
699.713	3139
699.832	4703
699.951	4534
700.070	4516
700.190	3824
700.309	2972
700.428	3731
700.547	3149
700.667	3858
700.786	3329
700.905	3021
701.024	4245
701.143	4028
701.262	4082
701.381	3992
701.500	3856
701.619	4011
701.738	3321
701.857	4009
701.976	3842
702.095	3562
702.214	3546
702.333	3634
702.452	3521
702.571	3410
702.690	4045
702.809	3884
702.928	3492
703.047	3342
703.165	3427
703.284	3549
703.403	3222
703.522	4603
703.640	3837
703.759	3328
703.878	3675
703.997	3612
704.115	3258
704.234	2756
704.353	3631
704.471	2906
704.590	3087
704.708	2684
704.827	3449
704.946	2535
705.064	2813
705.183	2969
705.301	3883
705.420	3462
705.538	3996
705.656	3052
705.775	3653
705.893	5468
706.012	8816
706.130	3423
706.249	2850
706.367	3303
706.485	3790
706.604	3324
706.722	3898
706.840	3256
706.958	5405
707.077	3499
707.195	2523
707.313	3126
707.431	3571
707.549	2433
707.668	3281
707.786	2927
707.904	2560
708.022	2782
708.140	3341
708.258	2240
708.376	3021
708.494	2897
708.612	2904
708.730	2967
708.848	3734
708.966	3170
709.084	2909
709.202	2905
709.320	2559
709.438	2565
709.556	2847
709.674	2526
709.791	2899
709.909	2764
710.027	3062
710.145	1799
710.263	2799
710.380	2523
710.498	2953
710.616	3048
710.733	2838
710.851	2425
710.969	2609
711.086	2337
711.204	2680
711.322	2429
711.439	3171
711.557	2371
711.674	3334
711.792	2612
711.909	2271
712.027	2579
712.144	2722
712.262	3010
712.379	3258
712.497	2368
712.614	3050
712.732	2735
712.849	3327
712.966	2006
713.084	3522
713.201	2742
713.318	3041
713.436	2329
713.553	2699
713.670	3236
713.787	2697
713.905	2453
714.022	2902
714.139	2620
714.256	3765
714.373	4340
714.490	6952
714.608	15256
714.725	69644
714.842	100864
714.959	7257
715.076	3771
715.193	3042
715.310	2842
715.427	3403
715.544	1811
715.661	2333
715.778	2342
715.895	3569
716.011	1980
716.128	2205
716.245	2064
716.362	3114
716.479	2091
716.596	3000
716.713	2488
716.829	2388
716.946	1471
717.063	2682
717.180	2576
717.296	2592
717.413	2335
717.530	1747
717.646	2138
717.763	2686
717.880	1692
717.996	2188
718.113	2740
718.229	3087
718.346	2046
718.462	2318
718.579	1836
718.695	3765
718.812	3338
718.928	2632
719.045	1927
719.161	1818
719.277	2469
719.394	2583
719.510	1694
719.626	2438
719.743	2177
719.859	3769
719.975	4690
720.092	17225
720.208	51827
720.324	9257
720.440	2780
720.557	2540
720.673	2969
720.789	2983
720.905	2683
721.021	2506
721.137	1496
721.253	2807
721.369	1863
721.486	2100
721.602	2861
721.718	2086
721.834	1966
721.950	1534
722.066	1931
722.181	1471
722.297	2073
722.413	2245
722.529	2159
722.645	2568
722.761	1385
722.877	1999
722.993	2274
723.108	2019
723.224	2725
723.340	2125
723.456	2334
723.571	2203
723.687	1566
723.803	2652
723.918	1402
724.034	1750
724.150	1915
724.265	2197
724.381	919
724.497	2483
724.612	1994
724.728	1161
724.843	2150
724.959	1794
725.074	1763
725.190	2611
725.305	1679
725.421	1456
725.536	1797
725.651	1876
725.767	2101
725.882	1923
725.997	976
726.113	1816
726.228	1886
726.343	1668
726.459	1882
726.574	1492
726.689	1892
726.804	2023
726.920	1614
727.035	2008
727.150	1414
727.265	1836
727.380	2026
727.495	2066
727.610	1951
727.725	1223
727.841	1966
727.956	3847
728.071	3775
728.186	1335
728.301	2032
728.416	1368
728.531	1635
728.645	1593
728.760	1668
728.875	1846
728.990	1423
729.105	1608
729.220	1229
729.335	1431
729.449	1383
729.564	1958
729.679	1570
729.794	1946
729.908	1829
730.023	1860
730.138	1242
730.253	1253
730.367	1007
730.482	1726
730.596	1653
730.711	1539
730.826	1832
730.940	2201
731.055	1785
731.169	1163
731.284	973
731.398	1937
731.513	1923
731.627	1780
731.742	1412
731.856	2232
731.970	1708
732.085	1811
732.199	2688
732.313	3381
732.428	6720
732.542	22698
732.656	19057
732.771	3094
732.885	1470
732.999	1898
733.113	1655
733.227	1886
733.342	1213
733.456	2438
733.570	1627
733.684	1567
733.798	1621
733.912	2384
734.026	1199
734.140	1617
734.254	1938
734.368	1351
734.482	1781
734.596	1629
734.710	1269
734.824	2431
734.938	870
735.052	1162
735.166	1401
735.280	2018
735.393	1459
735.507	1959
735.621	1628
735.735	2258
735.849	1588
735.962	2017
736.076	1358
736.190	1382
736.303	1696
736.417	2545
736.531	2589
736.644	1506
736.758	1769
736.872	790
736.985	1553
737.099	1809
737.212	1315
737.326	1364
737.439	1668
737.553	1181
737.666	949
737.780	892
737.893	1466
738.007	1334
738.120	1435
738.233	1079
738.347	1510
738.460	1939
738.573	1015
738.687	1062
738.800	1622
738.913	1787
739.026	1066
739.140	1234
739.253	1571
739.366	1091
739.479	1696
739.592	1096
739.705	1774
739.818	1641
739.932	1408
740.045	1396
740.158	1796
740.271	1710
740.384	1426
740.497	2523
740.610	1296
740.723	1215
740.836	1669
740.949	1612
741.062	1751
741.174	2222
741.287	1194
741.400	1664
741.513	1283
741.626	1492
741.739	1335
741.851	1459
741.964	1055
742.077	1177
742.189	922
742.302	1387
742.415	2023
742.527	1220
742.640	1172
742.753	1410
742.865	1057
742.978	1841
743.090	1313
743.203	1239
743.316	1615
743.428	932
743.541	1191
743.653	1195
743.766	813
743.878	671
743.990	898
744.103	1980
744.215	1268
744.327	1258
744.440	2078
744.552	1550
744.664	770
744.777	1804
744.889	415
745.001	916
745.113	940
745.226	897
745.338	2014
745.450	2009
745.562	1204
745.674	1122
745.786	1175
745.898	1049
746.010	1183
746.122	678
746.234	648
746.347	1244
746.459	1310
746.570	809
746.682	190
746.794	1108
746.906	1211
747.018	1104
747.130	895
747.242	1664
747.354	1056
747.466	1536
747.577	1075
747.689	1170
747.801	1381
747.913	1079
748.024	962
748.136	616
748.248	1151
748.359	1267
748.471	1326
748.583	709
748.694	1274
748.806	1477
748.918	365
749.029	1651
749.141	1095
749.252	1512
749.364	1101
749.475	1336
749.587	532
749.698	1337
749.809	1427
749.921	881
750.032	1748
750.144	948
750.255	1504
750.366	904
750.478	773
750.589	771
750.700	741
750.811	1263
750.923	1547
751.034	2418
751.145	2490
751.256	1429
751.367	1547
751.479	1013
751.590	931
751.701	1319
751.812	645
751.923	1011
752.034	1049
752.145	1932
752.256	1116
752.367	953
752.478	544
752.589	1989
752.700	1254
752.811	676
752.922	520
753.032	-31
753.143	1154
753.254	664
753.365	1697
753.476	799
753.586	1036
753.697	1158
753.808	840
753.919	1539
754.029	99
754.140	1178
754.251	687
754.361	476
754.472	1255
754.582	837
754.693	802
754.804	1548
754.914	683
755.025	871
755.135	1042
755.246	24
755.356	252
755.466	1757
755.577	1217
755.687	1328
755.798	443
755.908	1469
756.018	1341
756.129	1301
756.239	824
756.349	881
756.460	1042
756.570	1908
756.680	1025
756.790	391
756.900	952
757.011	850
757.121	1271
757.231	1855
757.341	735
757.451	785
757.561	759
757.671	931
757.781	818
757.891	1561
758.001	1496
758.111	1858
758.221	1297
758.331	1650
758.441	1536
758.551	1564
758.661	984
758.771	1668
758.880	1560
758.990	354
759.100	1325
759.210	1355
759.320	667
759.429	1491
759.539	1093
759.649	1397
759.758	1680
759.868	1904
759.978	1611
760.087	1650
760.197	1510
760.307	2194
760.416	1292
760.526	1140
760.635	905
760.745	1412
760.854	1199
760.964	1127
761.073	2251
761.182	1628
761.292	1111
761.401	2552
761.511	938
761.620	1253
761.729	1346
761.839	1040
761.948	1451
762.057	1844
762.166	1502
762.276	271
762.385	1821
762.494	1318
762.603	1417
762.712	2261
762.822	1577
762.931	1754
763.040	1430
763.149	1948
763.258	1752
763.367	2394
763.476	1584
763.585	2553
763.694	2541
763.803	2619
763.912	2331
764.021	2320
764.130	1823
764.238	3380
764.347	2905
764.456	3242
764.565	3889
764.674	3600
764.783	3414
764.891	4148
765.000	5909
765.109	6158
765.217	5720
765.326	7641
765.435	8826
765.543	10967
765.652	13055
765.761	16948
765.869	24145
765.978	36129
766.086	58876
766.195	104469
766.303	195421
766.412	306343
766.520	289787
766.629	194683
766.737	95388
766.846	52827
766.954	35996
767.062	25335
767.171	19013
767.279	14461
767.387	11000
767.496	9436
767.604	7799
767.712	7812
767.820	6343
767.928	6359
768.037	5117
768.145	5336
768.253	6139
768.361	5034
768.469	4411
768.577	5412
768.685	5017
768.793	5347
768.901	5649
769.009	7504
769.117	8176
769.225	10870
769.333	14074
769.441	23589
769.549	41145
769.657	82945
769.765	182968
769.873	271889
769.981	192143
770.088	77032
770.196	36020
770.304	22194
770.412	15718
770.519	11845
770.627	8697
770.735	7147
770.842	6068
770.950	5437
771.058	4268
771.165	4786
771.273	4522
771.380	3697
771.488	2910
771.595	2887
771.703	2755
771.810	3295
771.918	2716
772.025	2881
772.133	2480
772.240	2268
772.348	2443
772.455	1792
772.562	2146
772.670	2265
772.777	2387
772.884	1657
772.991	1156
773.099	2235
773.206	1310
773.313	1456
773.420	1602
773.528	716
773.635	1038
773.742	2903
773.849	1633
773.956	1027
774.063	1173
774.170	1023
774.277	2292
774.384	1250
774.491	508
774.598	1640
774.705	545
774.812	1338
774.919	1033
775.026	1320
775.133	894
775.239	1329
775.346	1450
775.453	668
775.560	1190
775.667	1070
775.773	192
775.880	1350
775.987	127
776.093	1445
776.200	1034
776.307	1575
776.413	1305
776.520	894
776.627	1654
776.733	1393
776.840	-278
776.946	1666
777.053	1230
777.159	1270
777.266	-636
777.372	2005
777.478	1381
777.585	1190
777.691	739
777.798	960
777.904	1282
778.010	1320
778.117	1575
778.223	314
778.329	874
778.435	1047
778.542	1123
778.648	1276
778.754	73
778.860	704
778.966	-310
779.072	1288
779.178	891
779.284	664
779.391	-8
779.497	516
779.603	2319
779.708	1203
779.815	4470
779.920	14940
780.026	35209
780.132	6459
780.238	953
780.344	1153
780.450	1582
780.556	1094
780.661	269
780.767	454
780.873	504
780.979	766
781.085	-575
781.190	799
781.296	957
781.402	239
781.507	200
781.613	560
781.719	299
781.824	1051
781.930	466
782.035	1315
782.141	383
782.246	827
782.352	467
782.457	933
782.563	-52
782.668	680
782.773	530
782.879	261
782.984	319
783.090	1176
783.195	533
783.300	919
783.405	578
783.511	385
783.616	1158
783.721	-468
783.826	444
783.932	1153
784.037	113
784.142	1445
784.247	277
784.352	38
784.457	383
784.562	1303
784.667	133
784.772	834
784.877	42
784.982	237
785.087	68
785.192	1053
785.297	328
785.402	872
785.507	-57
785.611	700
785.716	801
785.821	698
785.926	100
786.031	174
786.135	14
786.240	13
786.345	-18
786.450	319
786.554	-559
786.659	-989
786.763	-783
786.868	540
786.973	1156
787.077	-455
787.182	168
787.286	558
787.391	-33
787.495	413
787.600	48
787.704	-184
787.809	515
787.913	726
788.017	-154
788.122	553
788.226	221
788.330	-551
788.435	-119
788.539	191
788.643	121
788.747	687
788.852	-533
788.956	-47
789.060	371
789.164	737
789.268	-36
789.372	278
789.476	543
789.580	-2
789.684	105
789.788	777
789.892	-195
789.996	909
790.100	-137
790.204	162
790.308	661
790.412	468
790.516	-130
790.620	269
790.724	-197
790.828	740
790.931	-371
791.035	1290
791.139	37
791.242	-476
791.346	243
791.450	130
791.554	-618
791.657	-467
791.761	-205
791.864	344
791.968	-436
792.072	162
792.175	-458
792.279	492
792.382	323
792.486	433
792.589	-333
792.693	83
792.796	-251
792.899	1048
793.003	252
793.106	-782
793.209	33
793.313	997
793.416	-788
793.519	465
793.623	226
793.726	101
793.829	-703
793.932	176
794.035	-64
794.138	658
794.242	164
794.345	659
794.448	265
794.551	1452
794.654	7846
794.757	17953
794.860	3942
794.963	228
795.066	195
795.169	349
795.272	-210
795.375	-27
795.477	456
795.580	-147
795.683	-263
795.786	-208
795.889	-594
795.991	745
796.094	-721
796.197	-738
796.300	22
796.402	339
796.505	-1249
796.608	-565
796.710	12
796.813	2
796.915	-52
797.018	-52
797.120	361
797.223	-586
797.326	491
797.428	-259
797.530	-155
797.633	92
797.735	-84
797.838	-523
797.940	479
798.042	-558
798.145	-42
798.247	52
798.349	-1114
798.452	300
798.554	-520
798.656	-748
798.758	302
798.860	-331
798.962	-812
799.065	-621
799.167	-810
799.269	950
799.371	-554
799.473	100
799.575	-400
799.677	80
799.779	694
799.881	-243
799.983	632
800.085	382
800.187	-110
800.289	-582
800.390	-556
800.492	563
800.594	625
800.696	-398
800.798	-89
800.899	-164
801.001	-829
801.103	-215
801.205	-1215
801.306	-337
801.408	-1532
801.509	22
801.611	126
801.713	792
801.814	-231
801.916	-398
802.017	-329
802.119	-411
802.220	83
802.322	-1494
802.423	1360
802.525	-1240
802.626	-793
802.727	-79
802.829	-310
802.930	-1488
803.031	1057
803.133	-503
803.234	-14
803.335	238
803.436	-1014
803.538	-408
803.639	-862
803.740	323
803.841	-938
803.942	188
804.043	114
804.144	-508
804.245	56
804.346	-288
804.447	-748
804.548	-939
804.649	616
804.750	59
804.851	-112
804.952	-189
805.053	-495
805.154	-1037
805.255	23
805.355	-469
805.456	-455
805.557	-547
805.658	-1290
805.758	46
805.859	-713
805.960	-263
806.061	-475
806.161	-208
806.262	-122
806.362	-800
806.463	-241
806.564	494
806.664	-377
806.765	-407
806.865	-911
806.966	-585
807.066	-1222
807.166	199
807.267	405
807.367	113
807.468	-223
807.568	-1098
807.668	-229
807.769	870
807.869	-686
807.969	-1009
808.069	-395
808.170	-149
808.270	-1364
808.370	-51
808.470	306
808.570	-1003
808.670	-484
808.770	-252
808.870	-622
808.970	2
809.070	-890
809.170	-846
809.271	528
809.370	-174
809.470	-687
809.570	-653
809.670	-599
809.770	-307
809.870	-219
809.970	-289
810.070	-935
810.169	-404
810.269	-1524
810.369	483
810.469	-1022
810.568	-742
810.668	-420
810.768	-387
810.867	-370
810.967	-624
811.066	-634
811.166	-40
811.265	-197
811.365	-690
811.464	-507
811.564	480
811.663	202
811.763	-1191
811.862	118
811.962	76
812.061	-637
812.160	-258
812.260	-749
812.359	-477
812.458	-562
812.557	-62
812.657	-419
812.756	24
812.855	-384
812.954	27
813.053	695
813.153	-366
813.252	-704
813.351	218
813.450	262
813.549	-830
813.648	-446
813.747	-335
813.846	-259
813.945	-326
814.044	-711
814.143	-106
814.242	-127
814.341	-614
814.439	334
814.538	170
814.637	-219
814.736	143
814.835	223
814.933	-316
815.032	-339
815.131	-42
815.229	354
815.328	170
815.427	-516
815.525	185
815.624	-49
815.722	554
815.821	-231
815.919	495
816.018	-272
816.116	504
816.215	-749
816.313	201
816.412	-204
816.510	-653
816.609	1499
816.707	667
816.805	48
816.904	327
817.002	858
817.100	2007
817.198	2025
817.296	1405
817.395	1365
817.493	2145
817.591	2395
817.689	3151
817.787	3664
817.885	7314
817.983	12627
818.081	26394
818.179	61605
818.277	152439
818.375	155409
818.473	47251
818.571	17813
818.669	10664
818.767	9585
818.865	8157
818.963	10900
819.061	14240
819.158	24800
819.256	50583
819.354	110219
819.452	230269
819.549	178999
819.647	59772
819.745	24199
819.842	13850
819.940	8766
820.038	6169
820.135	4909
820.233	4702
820.330	2836
820.428	2878
820.525	2752
820.623	1990
820.720	1327
820.818	1637
820.915	647
821.012	1108
821.110	-275
821.207	1185
821.304	-12
821.402	-175
821.499	312
821.596	495
821.693	-23
821.791	531
821.888	21
821.985	773
822.082	193
822.179	438
822.276	-1424
822.373	-20
822.470	-568
822.567	-271
822.664	-3
822.761	412
822.858	-1062
822.955	103
823.052	988
823.149	-123
823.246	-243
823.343	-18
823.440	-65
823.536	-664
823.633	-644
823.730	-283
823.827	-591
823.923	-1
824.020	801
824.117	-20
824.213	-1373
824.310	481
824.407	-298
824.503	169
824.600	501
824.696	-235
824.793	-560
824.889	-724
824.986	-314
825.082	-332
825.179	-195
825.275	-651
825.371	-243
825.468	-880
825.564	-1473
825.660	-185
825.757	187
825.853	312
825.949	-1172
826.045	759
826.142	-1153
826.238	-99
826.334	-157
826.430	-1034
826.526	-221
826.622	-584
826.718	-547
826.814	-1045
826.910	4
827.006	-253
827.102	-1234
827.198	286
827.294	-1346
827.390	-253
827.486	-454
827.582	-1149
827.678	-857
827.774	176
827.869	-822
827.965	621
828.061	-1742
828.157	-384
828.252	-618
828.348	-897
828.444	695
828.539	-493
828.635	-1647
828.731	-173
828.826	-1464
828.922	-40
829.017	-77
829.113	-10
829.208	-214
829.304	-1210
829.399	-958
829.495	-623
829.590	255
829.685	-983
829.781	-917
829.876	-582
829.971	-94
830.066	-134
830.162	-297
830.257	-546
830.352	-870
830.447	283
830.543	-254
830.638	-1629
830.733	385
830.828	-546
830.923	-180
831.018	-219
831.113	-417
831.208	-1538
831.303	-657
831.398	-61
831.493	-615
831.588	-479
831.683	-1174
831.778	133
831.873	-1429
831.967	249
832.062	-1138
832.157	-1401
832.252	220
832.346	-488
832.441	-597
832.536	-260
832.631	269
832.725	419
832.820	-713
832.914	-958
833.009	-1120
833.104	-376
833.198	-442
833.293	-642
833.387	-1511
833.482	-368
833.576	-1050
833.670	174
833.765	-532
833.859	-1062
833.954	-561
834.048	-727
834.142	-900
834.237	-1412
834.331	-632
834.425	-224
834.519	-1099
834.613	680
834.708	-1296
834.802	-670
834.896	-1098
834.990	-313
835.084	-604
835.178	-105
835.272	-743
835.366	-1116
835.460	-996
835.554	-362
835.648	-1403
835.742	283
835.836	-209
835.930	-1274
836.024	-102
836.117	295
836.211	-1209
836.305	-59
836.399	-516
836.493	-1444
836.586	100
836.680	-732
836.774	-921
836.867	893
836.961	-1121
837.055	-1161
837.148	-873
837.242	-179
837.335	-1183
837.429	16
837.522	-1352
837.616	-865
837.709	-622
837.803	-631
837.896	-746
837.989	-817
838.083	-1048
838.176	-582
838.269	-784
838.363	43
838.456	-746
838.549	-143
838.642	-1030
838.735	308
838.829	436
838.922	-957
839.015	-930
839.108	-734
839.201	-1093
839.294	-666
839.387	-247
839.480	-1631
839.573	-742
839.666	-1232
839.759	-411
839.852	-251
839.945	-664
840.038	-917
840.131	-1418
840.223	-428
840.316	14
840.409	-955
840.502	-1283
840.594	345
840.687	-2022
840.780	-902
840.873	-1118
840.965	-881
841.058	-823
841.150	40
841.243	-1939
841.336	-888
841.428	-744
841.521	-1376
841.613	-1725
841.706	-273
841.798	-855
841.890	-587
841.983	-1389
842.075	-660
842.167	-92
842.260	-810
842.352	-996
842.444	-1415
842.537	-486
842.629	-361
842.721	-586
842.813	-815
842.905	-628
842.997	-49
843.090	-948
843.182	-1046
843.274	-1429
843.366	-251
843.458	-51
843.550	-407
843.642	-1008
843.734	-585
843.826	-1028
843.918	-718
844.009	-409
844.101	-667
844.193	-1284
844.285	-619
844.377	-595
844.469	-915
844.560	-1599
844.652	-477
844.744	-338
844.835	-215
844.927	-1292
845.019	-1303
845.110	-1760
845.202	-24
845.293	-1229
845.385	-693
845.476	-942
845.568	-146
845.659	-1652
845.751	168
845.842	-1468
845.934	-1378
846.025	-1275
846.116	-119
846.208	-991
846.299	-358
846.390	-769
846.482	-643
846.573	-1037
846.664	-550
846.755	-1440
846.846	-684
846.937	-2154
847.029	-935
847.120	-1760
847.211	-1504
847.302	497
847.393	-1497
847.484	-491
847.575	-455
847.666	-958
847.757	-866
847.847	-319
847.938	-930
848.029	-962
848.120	-1183
848.211	-498
848.302	-1197
848.392	-1569
848.483	-208
848.574	-1234
848.664	-1245
848.755	-1048
848.846	-1303
848.936	-1311
849.027	-1359
849.118	-677
849.208	-952
849.299	-469
849.389	-431
849.480	-592
849.570	780
849.661	1534
849.751	5313
849.841	1281
849.932	-904
850.022	-1007
850.112	-834
850.203	-1609
850.293	-649
850.383	-1287
850.474	-1248
850.564	-1892
850.654	-558
850.744	-1271
850.834	-273
850.924	-1599
851.014	-1099
851.104	-1135
851.194	-107
851.284	-351
851.374	-1140
851.464	-1277
851.554	-1079
851.644	-1022
851.734	-677
851.824	-946
851.914	-694
852.004	-1021
852.094	-1345
852.183	-950
852.273	-930
852.363	-870
852.452	-719
852.542	-1336
852.632	-1217
852.721	-552
852.811	-1927
852.901	-872
852.990	-896
853.080	-785
853.169	-1024
853.259	-1195
853.348	-1165
853.438	-1113
853.527	-1218
853.617	-381
853.706	544
853.795	1194
853.885	3806
853.974	9449
854.063	17607
854.152	32619
854.242	14861
854.331	424
854.420	-533
854.509	175
854.598	-765
854.687	-1040
854.777	-825
854.866	-1198
854.955	-628
855.044	-719
855.133	-744
855.222	-974
855.311	-1376
855.400	-448
855.488	-743
855.577	-1223
855.666	-569
855.755	-847
855.844	-793
855.933	-1468
856.021	-279
856.110	-476
856.199	-1672
856.288	-1266
856.376	-1622
856.465	-397
856.554	-917
856.642	-2236
856.731	-730
856.819	-1204
856.908	-1616
856.996	-783
857.085	-1378
857.173	-799
857.262	-1253
857.350	-1433
857.438	-451
857.527	-894
857.615	-801
857.703	-1153
857.792	-1076
857.880	-1998
857.968	-1662
858.056	-1058
858.145	-928
858.233	-342
858.321	-1346
858.409	-432
858.497	-1441
858.585	-1185
858.673	-495
858.761	-1364
858.849	-390
858.937	-1270
859.025	-586
859.113	-444
859.201	-1450
859.289	-916
859.377	-1570
859.465	-440
859.552	-910
859.640	-1271
859.728	-1234
859.816	-1240
859.903	-897
859.991	-1925
860.079	-1326
860.166	-1229
860.254	-1054
860.342	-847
860.429	-1627
860.517	-1154
860.604	-169
860.692	-814
860.779	-871
860.867	-904
860.954	-1548
861.042	-949
861.129	-1414
861.216	-1447
861.304	-1698
861.391	-1449
861.478	-880
861.565	-746
861.653	-756
861.740	-1641
861.827	-1376
861.914	-616
862.001	-1160
862.089	-1563
862.176	-769
862.263	-2134
862.350	-1162
862.437	-1309
862.524	-1626
862.611	-1426
862.698	-607
862.785	-1032
862.871	-72
862.958	-1627
863.045	-1748
863.132	-910
863.219	-641
863.306	-1596
863.392	-687
863.479	-847
863.566	-1101
863.652	-868
863.739	-1600
863.826	-719
863.912	-1217
863.999	-2064
864.086	-1761
864.172	-661
864.259	-869
864.345	-659
864.432	-958
864.518	-1273
864.604	-1770
864.691	-1625
864.777	-390
864.863	-1123
864.950	-538
865.036	-1475
865.122	-776
865.209	-691
865.295	-1105
865.381	-1465
865.467	-945
865.553	-228
865.639	-941
865.726	-397
865.812	1913
865.898	3069
865.984	6480
866.070	12711
866.156	16945
866.242	3419
866.328	203
866.414	-1153
866.499	-267
866.585	-1088
866.671	-809
866.757	-322
866.843	-1059
866.928	-1864
867.014	-611
867.100	-760
867.186	-762
867.271	-1502
867.357	-892
867.442	-1406
867.528	-834
867.614	-777
867.699	-519
867.785	-347
867.870	-2035
867.956	-1211
868.041	-208
868.127	-898
868.212	-794
868.297	-875
868.383	-1582
868.468	-336
868.553	-468
868.639	-480
868.724	745
868.809	142
868.894	-851
868.979	-1218
869.065	-178
869.150	-1730
869.235	-754
869.320	-241
869.405	-790
869.490	-1874
869.575	-651
869.660	-1174
869.745	44
869.830	-2215
869.915	-1373
870.000	-1228
870.085	-933
870.169	-614
870.254	-750
870.339	-1481
870.424	-1511
870.509	-1191
870.593	-949
870.678	-1357
870.763	-697
870.847	-604
870.932	-982
871.016	-1586
871.101	-312
871.186	-1264
871.270	-790
871.355	-1253
871.439	-832
871.523	-1165
871.608	-1058
871.692	-1647
871.777	-941
871.861	-1385
871.945	-920
872.030	-766
872.114	-1254
872.198	-1245
872.282	-897
872.367	-1340
872.451	-1156
872.535	-879
872.619	-200
872.703	-1340
872.787	-785
872.871	-568
872.955	-1362
873.039	-1871
873.123	-506
873.207	-1216
873.291	-460
873.375	-1434
873.459	-1353
873.543	-1134
873.627	-310
873.711	-598
873.794	-411
873.878	-982
873.962	-1469
874.045	-1706
874.129	-1777
874.137	-1775
874.213	-1752
874.245	-1405
874.296	-849
874.352	-1275
874.380	-1480
874.460	-976
874.464	-958
874.547	-1396
874.568	-1139
874.631	-379
874.676	-800
874.714	-1136
874.784	-391
874.798	-254
874.881	108
874.892	-78
874.965	-1319
874.999	-975
875.048	-507
875.107	-1018
875.131	-1235
875.215	-951
875.215	-951
875.298	-1121
875.323	-1027
875.381	-753
875.430	-778
875.465	-793
875.538	-813
875.548	-823
875.631	-882
875.646	-947
875.714	-1276
875.753	-1327
875.798	-1364
875.861	-1304
875.881	-1280
875.964	-749
875.968	-742
876.047	-642
876.076	-787
876.130	-1061
876.183	-1161
876.213	-1222
876.291	-299
876.296	-231
876.379	-674
876.398	-782
876.462	-1272
876.506	-1276
876.545	-1201
876.613	-308
876.628	-116
876.711	-800
876.721	-806
876.794	-893
876.828	-749
876.877	-544
876.935	-1016
876.960	-1194
877.043	-990
877.043	-986
877.125	-8
877.150	-80
877.208	-192
877.258	-116
877.291	-117
877.365	-1096
877.374	-1186
877.456	-441
877.472	-404
877.539	-406
877.579	-243
877.622	-49
877.687	-495
877.704	-596
877.787	-389
877.794	-384
877.869	-557
877.901	-820
877.952	-1103
878.008	-551
878.034	-258
878.115	-653
878.117	-666
878.199	-608
878.222	-790
878.282	-1034
878.329	-754
878.364	-631
878.437	-271
878.447	-188
878.529	-904
878.544	-712
878.611	171
878.651	-85
878.694	-527
878.758	-630
878.776	-609
878.858	-603
878.865	-584
878.941	-308
878.972	-486
879.023	-895
879.078	-872
879.105	-715
879.185	-106
879.187	-98
879.269	-370
879.292	-443
879.351	-552
879.399	-289
879.433	-203
879.506	259
879.516	358
879.598	-540
879.613	-538
879.680	-634
879.720	-493
879.762	-335
879.827	-488
879.844	-538
879.926	124
879.933	76
880.007	-42
880.040	-50
880.089	-298
880.147	-415
880.171	-394
880.253	-31
880.254	-34
880.335	-43
880.360	197
880.417	1077
880.467	1292
880.499	1567
880.574	3027
880.580	3017
880.662	1151
880.680	913
880.744	379
880.787	-31
880.825	-129
880.893	-210
880.907	-237
880.989	-262
881.000	-257
881.070	-88
881.106	-248
881.152	-490
881.213	-298
881.233	-197
881.315	-465
881.319	-458
881.396	15
881.426	268
881.478	251
881.532	-6
881.559	53
881.639	-73
881.641	-74
881.722	291
881.745	219
881.803	20
881.852	153
881.885	258
881.958	138
881.966	108
882.047	159
882.064	43
882.129	-96
882.171	208
882.210	434
882.277	299
882.291	211
882.372	36
882.383	25
882.454	113
882.489	-197
882.535	-301
882.596	-48
882.616	-65
882.697	232
882.702	215
882.778	233
882.808	310
882.859	339
882.914	58
882.940	-85
883.020	-13
883.021	-4
883.102	531
883.127	491
883.183	-37
883.233	-194
883.264	-219
883.339	-54
883.345	-6
883.426	54
883.445	154
883.507	48
883.551	-127
883.587	62
883.657	350
883.668	327
883.749	116
883.763	99
883.830	-169
883.869	-276
883.910	14
883.975	277
883.991	260
884.072	78
884.081	98
884.152	567
884.187	521
884.233	461
884.292	615
884.314	506
884.394	275
884.398	244
884.475	260
884.504	235
884.555	-72
884.610	-346
884.636	-219
884.716	227
884.716	235
884.797	627
884.821	609
884.877	392
884.927	276
884.958	334
885.033	487
885.038	495
885.118	458
885.139	426
885.199	213
885.244	186
885.279	176
885.350	-175
885.359	-133
885.439	687
885.456	727
885.520	539
885.561	699
885.600	645
885.667	143
885.680	191
885.760	766
885.773	832
885.840	593
885.878	474
885.920	635
885.984	740
886.000	760
886.080	890
886.089	890
886.160	748
886.195	712
886.240	675
886.300	658
886.320	782
886.400	1264
886.406	1283
886.480	999
886.511	848
886.560	1120
886.616	1401
886.640	1279
886.720	992
886.722	977
886.800	1153
886.827	1162
886.879	816
886.932	511
886.959	605
887.038	877
887.039	886
887.119	910
887.143	928
887.198	619
887.248	351
887.278	381
887.354	359
887.358	364
887.437	296
887.459	329
887.517	1010
887.564	1414
887.596	1225
887.669	866
887.676	875
887.755	959
887.774	930
887.835	818
887.880	806
887.914	943
887.985	1159
887.994	1197
888.073	1395
888.090	1446
888.153	718
888.195	219
888.232	601
888.300	1293
888.311	1246
888.391	784
888.405	706
888.470	716
888.510	673
888.549	644
888.615	714
888.628	748
888.708	746
888.720	768
888.787	789
888.825	725
888.866	804
888.930	951
888.945	950
889.024	888
889.035	880
889.103	1133
889.140	1228
889.182	1133
889.245	1054
889.261	1067
889.340	983
889.349	978
889.419	1045
889.454	1042
889.498	723
889.559	280
889.577	415
889.656	990
889.664	1043
889.735	1238
889.768	1320
889.814	1396
889.873	1485
889.978	1983
890.083	1827
890.187	1499
890.292	1110
890.397	948
890.501	1501
890.606	1199
890.710	1063
890.815	875
890.919	1442
891.024	1387
891.128	988
891.233	1392
891.337	1532
891.442	808
891.546	1009
891.650	857
891.755	706
891.859	1605
891.963	1603
892.068	1338
892.172	923
892.276	709
892.380	1479
892.484	1047
892.589	1827
892.693	1164
892.797	1222
892.901	822
893.005	1175
893.109	1199
893.213	1397
893.317	1315
893.421	1301
893.525	961
893.629	603
893.733	1215
893.837	989
893.941	1074
894.045	1242
894.148	1345
894.252	1058
894.356	1563
894.460	1042
894.564	1369
894.667	757
894.771	881
894.875	568
894.978	1018
895.082	921
895.186	356
895.289	1057
895.393	1494
895.496	969
895.600	999
895.703	1056
895.807	987
895.910	334
896.014	869
896.117	340
896.221	804
896.324	1039
896.427	1183
896.531	598
896.634	890
896.737	1301
896.840	1516
896.944	138
897.047	874
897.150	1943
897.253	482
897.356	420
897.460	1211
897.563	937
897.666	756
897.769	767
897.872	373
897.975	254
898.078	1189
898.181	437
898.284	876
898.387	537
898.490	1771
898.593	916
898.695	846
898.798	896
898.901	1322
899.004	88
899.107	1585
899.209	844
899.312	506
899.415	1545
899.518	721
899.620	656
899.723	1271
899.826	1031
899.928	1399
900.031	1090
900.133	521
900.236	682
900.338	511
900.441	316
900.543	1313
900.646	1846
900.748	1581
900.851	1556
900.953	522
901.055	449
901.158	1541
901.260	1042
901.362	898
901.465	-102
901.567	823
901.669	178
901.771	356
901.873	12
901.976	1227
902.078	500
902.180	-54
902.282	353
902.384	579
902.486	323
902.588	800
902.690	1017
902.792	476
902.894	1439
902.996	1004
903.098	813
903.200	577
903.302	1378
903.404	460
903.505	184
903.607	1368
903.709	803
903.811	162
903.913	778
904.014	825
904.116	339
904.218	478
904.319	986
904.421	1493
904.523	694
904.624	556
904.726	627
904.827	502
904.929	-230
905.030	856
905.132	481
905.233	404
905.335	967
905.436	617
905.537	1090
905.639	528
905.740	53
905.841	855
905.943	783
906.044	1621
906.145	354
906.247	-331
906.348	1249
906.449	1107
906.550	1057
906.651	1297
906.752	1066
906.854	781
906.955	776
907.056	295
907.157	106
907.258	892
907.359	663
907.460	777
907.561	261
907.662	1009
907.762	822
907.863	-106
907.964	530
908.065	740
908.166	185
908.267	603
908.367	-9
908.468	473
908.569	808
908.670	414
908.770	1198
908.871	803
908.971	439
909.072	1109
909.173	603
909.273	696
909.374	-125
909.474	561
909.575	568
909.675	424
909.776	411
909.876	1183
909.977	653
910.077	818
910.177	419
910.278	633
910.378	675
910.478	282
910.579	795
910.679	825
910.779	191
910.879	1066
910.980	451
911.080	338
911.180	553
911.280	228
911.380	212
911.480	360
911.580	-52
911.680	467
911.780	1254
911.880	692
911.980	108
912.080	196
912.180	-209
912.280	528
912.380	962
912.480	577
912.580	-101
912.679	344
912.779	974
912.879	1233
912.979	-19
913.078	840
913.178	450
913.278	700
913.377	683
913.477	1230
913.577	56
913.676	598
913.776	1148
913.875	372
913.975	612
914.074	1117
914.174	635
914.273	173
914.373	1553
914.472	803
914.572	552
914.671	201
914.770	397
914.870	549
914.969	341
915.068	181
915.167	873
915.267	201
915.366	1227
915.465	172
915.564	1079
915.663	235
915.763	204
915.862	512
915.961	186
916.060	1223
916.159	780
916.258	-142
916.357	361
916.456	810
916.555	-94
916.654	445
916.752	-149
916.851	-75
916.950	696
917.049	840
917.148	1308
917.247	927
917.345	432
917.444	487
917.543	468
917.642	682
917.740	224
917.839	341
917.937	630
918.036	842
918.135	967
918.233	204
918.332	12
918.430	811
918.529	484
918.627	411
918.726	-194
918.824	499
918.923	53
919.021	458
919.119	183
919.218	-204
919.316	301
919.414	1226
919.512	-90
919.611	452
919.709	309
919.807	775
919.905	703
920.003	596
920.102	828
920.200	-389
920.298	1168
920.396	71
920.494	386
920.592	583
920.690	374
920.788	922
920.886	-401
920.984	546
921.082	-16
921.180	1349
921.277	708
921.375	1010
921.473	779
921.571	1170
921.669	1102
921.766	1084
921.864	293
921.962	828
922.060	869
922.157	906
922.255	-205
922.352	429
922.450	1898
922.548	44
922.645	1283
922.743	678
922.840	1763
922.938	1357
923.035	1896
923.133	1419
923.230	1546
923.327	2759
923.425	1352
923.522	2605
923.619	1550
923.717	1611
923.814	1808
923.911	2068
924.008	1553
924.106	1355
924.203	1119
924.300	1798
924.397	1339
924.494	1581
924.591	624
924.688	1196
924.786	948
924.883	1253
924.979	1173
925.077	1983
925.173	1658
925.270	1239
925.367	1505
925.464	2022
925.561	1863
925.658	1790
925.755	1079
925.852	1414
925.948	1763
926.045	1279
926.142	1196
926.239	1668
926.335	1449
926.432	1188
926.529	1510
926.625	2205
926.722	1050
926.818	1432
926.915	1835
927.011	1318
927.108	1473
927.204	1462
927.301	1217
927.397	2053
927.494	1914
927.590	397
927.687	978
927.783	1688
927.879	1471
927.976	1328
928.072	1111
928.168	965
928.264	1170
928.361	726
928.457	772
928.553	1559
928.649	824
928.745	1655
928.841	884
928.937	1505
929.033	1514
929.129	831
929.225	1289
929.321	1520
929.417	353
929.513	863
929.609	566
929.705	1801
929.801	1031
929.897	1169
929.993	1014
930.089	1303
930.184	1189
930.280	679
930.376	1054
930.471	1108
930.567	1499
930.663	1276
930.758	188
930.854	1002
930.950	1247
931.045	1148
931.141	793
931.236	1080
931.332	816
931.427	655
931.523	1022
931.618	1143
931.714	-236
931.809	1599
931.905	1484
932.000	1214
932.095	893
932.191	549
932.286	378
932.381	868
932.476	567
932.572	1136
932.667	552
932.762	851
932.857	1306
932.952	1610
933.047	569
933.142	541
933.237	741
933.332	1538
933.427	1104
933.522	1235
933.617	116
933.712	1254
933.807	355
933.902	1146
933.997	1167
934.092	17
934.187	1080
934.282	512
934.376	220
934.471	818
934.566	360
934.661	375
934.755	1026
934.850	225
934.945	1218
935.039	501
935.134	1100
935.228	1030
935.323	733
935.417	546
935.512	343
935.606	631
935.701	578
935.795	669
935.890	1288
935.984	15
936.079	-315
936.173	667
936.267	1170
936.362	-62
936.456	729
936.550	787
936.644	834
936.738	-64
936.833	854
936.927	888
937.021	887
937.115	642
937.209	207
937.303	561
937.397	-42
937.491	731
937.585	985
937.679	963
937.773	742
937.867	779
937.961	753
938.055	1204
938.149	990
938.243	152
938.337	123
938.430	534
938.524	-122
938.618	330
938.712	608
938.805	-172
938.899	285
938.993	1291
939.086	-315
939.180	531
939.274	-179
939.367	919
939.461	332
939.554	955
939.648	-116
939.741	488
939.835	-41
939.928	879
940.022	818
940.115	-49
940.208	701
940.302	550
940.395	493
940.488	75
940.582	332
940.675	472
940.768	122
940.861	591
940.954	1051
941.048	278
941.141	-55
941.234	173
941.327	864
941.420	1501
941.513	117
941.606	91
941.699	563
941.792	395
941.885	990
941.978	614
942.071	316
942.164	-231
942.257	442
942.349	351
942.442	214
942.535	-299
942.628	806
942.721	384
942.813	-541
942.906	-46
942.999	383
943.091	327
943.184	566
943.277	-601
943.369	420
943.462	-67
943.554	352
943.647	-116
943.739	-316
943.832	-559
943.924	-959
944.017	966
944.109	33
944.201	340
944.294	-970
944.386	254
944.478	-417
944.571	488
944.663	-29
944.755	-277
944.847	634
944.940	-389
945.032	-185
945.124	5
945.216	730
945.308	269
945.400	651
945.492	96
945.584	-229
945.676	139
945.768	-767
945.860	354
945.952	-367
946.044	19
946.136	-474
946.228	130
946.320	-192
946.412	-74
946.503	-77
946.595	857
946.687	-55
946.779	-83
946.870	-132
946.962	463
947.054	90
947.145	400
947.237	-189
947.329	-69
947.420	146
947.512	151
947.603	-1132
947.695	-321
947.786	-325
947.878	166
947.969	-228
948.061	63
948.152	628
948.243	290
948.335	-1005
948.426	-347
948.517	-51
948.609	18
948.700	-233
948.791	41
948.882	-723
948.973	-783
949.065	-205
949.156	-279
949.247	58
949.338	-230
949.429	-664
949.520	551
949.611	-809
949.702	174
949.793	-190
949.884	-889
949.975	-9
950.066	-873
950.157	-762
950.247	381
950.338	222
950.429	-646
950.520	657
950.611	-338
950.701	284
950.792	53
950.883	-841
950.973	-369
951.064	-792
951.155	-75
951.245	-619
951.336	-706
951.427	-1125
951.517	396
951.608	-549
951.698	-413
951.788	5
951.879	-283
951.969	-195
952.060	16
952.150	303
952.240	-381
952.331	-1761
952.421	725
952.511	-1166
952.602	-71
952.692	-1066
952.782	-547
952.872	-1195
952.962	-444
953.052	-967
953.143	-113
953.233	-52
953.323	131
953.413	-976
953.503	-352
953.593	-747
953.683	-373
953.773	-909
953.863	77
953.953	456
954.042	34
954.132	-718
954.222	-609
954.312	-841
954.402	23
954.492	-269
954.581	-145
954.671	-781
954.761	-1066
954.850	308
954.940	-491
955.030	-424
955.119	-83
955.209	-720
955.298	-279
955.388	-103
955.477	51
955.567	-118
955.656	-64
955.746	241
955.835	-913
955.925	-333
956.014	304
956.103	-1077
956.193	-198
956.282	-419
956.371	0
956.461	-434
956.550	-1111
956.639	-880
956.728	-358
956.817	-949
956.906	-609
956.995	154
957.085	-654
957.174	-95
957.263	-526
957.352	-726
957.441	-656
957.530	-779
957.619	-316
957.708	-208
957.796	-442
957.885	-105
957.974	-1022
958.063	480
958.152	-374
958.241	-527
958.329	-596
958.418	-554
958.507	-243
958.596	388
958.684	-649
958.773	-54
958.861	-286
958.950	-470
959.039	618
959.127	-500
959.216	611
959.304	136
959.393	440
959.481	-141
959.570	481
959.658	-22
959.746	-122
959.835	-671
959.923	-327
960.011	-238
960.100	388
960.188	465
960.276	-619
960.365	44
960.453	-377
960.541	-752
960.629	-184
960.717	-623
960.805	17
960.893	711
960.981	-653
961.069	-188
961.158	-622
961.245	598
961.333	-127
961.421	-294
961.509	-256
961.597	-6
961.685	194
961.773	-354
961.861	-280
961.949	-542
962.036	-936
962.124	12
962.212	-1114
962.299	-862
962.387	-1303
962.475	261
962.562	-1121
962.650	-174
962.738	-596
962.825	-335
962.913	-141
963.000	-405
963.088	-838
963.175	-265
963.263	-1216
963.350	-244
963.438	-935
963.525	-825
963.612	-151
963.700	-192
963.787	569
963.874	-288
963.962	223
964.049	-796
964.136	-707
964.223	-838
964.310	-132
964.398	-401
964.485	-580
964.572	-759
964.659	274
964.746	-104
964.833	-678
964.920	-549
965.007	30
965.094	-462
965.181	-262
965.268	-354
965.355	-353
965.441	-893
965.528	-1034
965.615	-243
965.702	-369
965.789	-357
965.875	-430
965.962	-1183
966.049	-918
966.136	111
966.222	-795
966.309	-1030
966.395	-549
966.482	-241
966.569	-674
966.655	-526
966.742	-880
966.828	-349
966.915	235
967.001	-544
967.087	-564
967.174	-564
967.260	-860
967.347	-753
967.433	-529
967.519	222
967.605	29
967.692	-127
967.778	-760
967.864	-1000
967.950	92
968.036	-455
968.123	-631
968.209	-812
968.295	-1057
968.381	38
968.467	-561
968.553	-1271
968.639	108
968.725	-685
968.811	-86
968.897	-322
968.983	-590
969.069	-849
969.154	-247
969.240	-553
969.326	-936
969.412	-1114
969.497	-299
969.583	-948
969.669	-177
969.755	-779
969.840	-654
969.926	-379
970.012	-1076
970.097	30
970.183	-179
970.268	-187
970.354	-228
970.439	-1152
970.525	143
970.610	-566
970.696	-106
970.781	-66
970.866	-1688
970.952	-931
971.037	-632
971.122	-785
971.208	-216
971.293	-491
971.378	-1117
971.463	-644
971.549	286
971.634	-1172
971.719	-815
971.804	-1264
971.889	442
971.974	-726
972.059	-621
972.144	-1449
972.229	-553
972.314	-53
972.399	-99
972.484	-490
972.569	-343
972.654	-739
972.739	317
972.824	-209
972.908	-241
972.993	-1063
973.078	-128
973.163	-1161
973.247	-349
973.332	-1846
973.417	590
973.501	-1141
973.586	-236
973.671	-380
973.755	-91
973.840	-605
973.924	56
974.009	133
974.093	-1302
974.178	-676
974.262	277
974.346	-1401
974.431	-35
974.515	-368
974.600	-334
974.684	-528
974.768	-273
974.852	-904
974.937	-1448
975.021	-400
975.105	-591
975.189	-264
975.273	-882
975.358	-686
975.442	-1099
975.526	-152
975.610	-735
975.694	-1177
975.778	525
975.862	-168
975.946	-1760
976.030	-78
976.114	-745
976.198	-767
976.281	-926
976.365	-143
976.449	-924
976.533	-97
976.617	-1496
976.700	38
976.784	-857
976.868	-1223
976.951	206
977.035	-802
977.119	155
977.202	-217
977.286	-238
977.369	-480
977.453	6
977.536	-386
977.620	-974
977.703	81
977.787	-1534
977.870	-93
977.953	18
978.037	-1141
978.120	277
978.203	-1782
978.287	-518
978.370	-449
978.453	-520
978.536	-964
978.620	-1
978.703	-651
978.786	-193
978.869	-803
978.952	-1349
979.035	-49
979.118	-155
979.201	-1113
979.284	-932
979.367	-1308
979.450	439
979.533	-951
979.616	-1203
979.699	-607
979.782	-952
979.865	-163
979.948	-1235
980.030	-934
980.113	142
980.196	-1328
980.279	-143
980.361	-1054
980.444	-523
980.526	-901
980.609	-716
980.692	-912
980.774	37
980.857	-874
980.939	251
981.022	-272
981.104	-664
981.187	-1855
981.269	-413
981.352	-571
981.434	-1278
981.516	-1116
981.599	68
981.681	-1112
981.763	-971
981.846	-1280
981.928	-420
982.010	-1075
982.092	-898
982.174	804
982.256	-624
982.339	-544
982.421	-393
982.503	-227
982.585	-993
982.667	-866
982.749	-962
982.831	-609
982.913	-1483
982.995	160
983.077	-636
983.158	-247
983.240	-1038
983.322	-1027
983.404	-918
983.486	-574
983.568	-1152
983.649	-534
983.731	-809
983.813	-1214
983.894	149
983.976	-434
984.058	-198
984.139	-544
984.221	-1008
984.302	135
984.384	-732
984.465	-1575
984.547	-770
984.628	-1038
984.710	-578
984.791	-1472
984.872	-2152
984.954	-1276
985.035	-607
985.116	-1187
985.198	-578
985.279	180
985.360	-820
985.441	-1040
985.522	-546
985.604	-1270
985.685	-2230
985.766	35
985.847	-109
985.928	-1685
986.009	-1047
986.090	-899
986.171	-45
986.252	-1007
986.333	-720
986.414	-564
986.495	-464
986.576	-1336
986.656	-379
986.737	-626
986.818	-168
986.899	-489
986.980	-1159
987.060	-511
987.141	-1450
987.222	-674
987.302	-611
987.383	406
987.464	-229
987.544	-397
987.625	-912
987.705	-587
987.786	-177
987.866	-798
987.947	-1009
988.027	-912
988.108	-1272
988.188	-621
988.268	-954
988.349	-922
988.429	-1162
988.509	-1194
988.589	-1175
988.670	-1904
988.750	-788
988.830	-661
988.910	30
988.990	-1015
989.070	-1145
989.151	-590
989.231	-1786
989.311	-646
989.391	-509
989.471	-1068
989.551	-89
989.631	-454
989.711	-553
989.791	-1379
989.870	-1107
989.950	-310
990.030	-891
990.110	-184
990.190	-1712
990.269	-1324
990.349	-1486
990.429	-1318
990.509	-217
990.588	-1802
990.668	-603
990.747	-1091
990.827	-527
990.907	-966
990.986	-1834
991.066	-1499
991.145	-990
991.225	-224
991.304	-522
991.383	-1569
991.463	-1580
991.542	-1034
991.622	-980
991.701	-645
991.780	-1041
991.859	-779
991.939	-1509
992.018	-1099
992.097	-811
992.176	-484
992.256	-1134
992.335	-1422
992.414	-950
992.493	-1416
992.572	-2226
992.651	-607
992.730	-874
992.809	-586
992.888	-1117
992.967	-1140
993.046	-476
993.125	-1871
993.203	-985
993.282	-1638
993.361	-1100
993.440	-1611
993.519	-1430
993.597	-1195
993.676	-1157
993.755	-396
993.834	-1209
993.912	-2121
993.991	-960
994.069	-1583
994.148	-537
994.226	-1192
994.305	-717
994.384	-1821
994.462	-787
994.540	-1960
994.619	-1127
994.697	-528
994.776	-1291
994.854	-1422
994.932	-1284
995.011	-1224
995.089	-1272
995.167	-1572
995.245	-1189
995.324	-1479
995.402	-665
995.480	-684
995.558	-1181
995.636	-1428
995.714	-1441
995.792	-324
995.870	-1499
995.948	-1682
996.026	-947
996.104	-1978
996.182	-1456
996.260	-1783
996.338	-979
996.416	-1565
996.494	-1068
996.572	-797
996.649	-1369
996.727	-1655
996.805	-825
996.883	-1578
996.960	-1070
997.038	-1119
997.116	-646
997.193	-2243
997.271	-173
997.348	-1149
997.426	-1230
997.504	-1707
997.581	-1062
997.658	-951
997.736	-2236
997.813	-1935
997.891	-1067
997.968	-1966
998.046	-1114
998.123	-1493
998.200	-1714
998.277	-2288
998.355	-969
998.432	-1629
998.509	-1247
998.586	-849
998.663	-1176
998.741	-1924
998.818	-2045
998.895	-1609
998.972	-1201
999.049	-1777
999.126	-1870
999.203	-816
999.280	-1506
999.357	-1849
999.434	-844
999.511	-1531
999.587	-819
999.664	-1440
999.741	-1118
999.818	-778
999.895	-2059
999.971	-1710
1000.048	-1639
1000.125	-981
1000.202	-1846
1000.278	-1390
1000.355	-1452
1000.431	-1533
1000.508	-1515
1000.584	-1377
1000.661	-504
1000.738	-1416
1000.814	-1674
1000.890	-953
1000.967	-390
1001.043	-1277
1001.120	-1103
1001.196	-1373
1001.272	-2017
1001.349	-1536
1001.425	-62
1001.501	-1527
1001.577	-1426
1001.654	-1672
1001.730	-1338
1001.806	-1024
1001.882	-2211
1001.958	-1025
1002.034	-1642
1002.110	-873
1002.186	-2006
1002.262	-1873
1002.338	-1762
1002.414	-833
1002.490	-1610
1002.566	-1163
1002.642	-1755
1002.718	-881
1002.794	-1299
1002.870	-1005
1002.945	-1769
1003.021	-2057
1003.097	-1534
1003.173	-1034
1003.248	-2079
1003.324	-2568
1003.400	-1358
1003.475	-1664
1003.551	-1768
1003.626	-1777
1003.702	-1253
1003.777	-1808
1003.853	-1724
1003.928	-1703
1004.004	-1608
1004.079	-871
1004.155	-1902
1004.230	-2651
1004.305	199
1004.381	-1395
1004.456	-1145
1004.531	-1058
1004.607	-1041
1004.682	-1692
1004.757	-1270
1004.832	-1801
1004.907	-1919
1004.982	-1468
1005.057	-1197
1005.133	-1819
1005.208	-1487
1005.283	-1233
1005.358	-1010
1005.433	-2316
1005.508	-1252
1005.583	-2060
1005.657	-1909
1005.732	-1319
1005.807	-1354
1005.882	-1697
1005.957	-1179
1006.032	-1103
1006.106	-923
1006.181	-1513
1006.256	-1563
1006.331	-2943
1006.405	-1907
1006.480	-2508
1006.554	-1012
1006.629	-1452
1006.704	-1749
1006.778	-1332
1006.853	-1780
1006.927	-1848
1007.002	-2288
1007.076	-1925
1007.150	-1492
1007.225	-1312
1007.299	-772
1007.373	-1853
1007.448	-1709
1007.522	-1724
1007.596	-1365
1007.671	-1693
1007.745	-2211
1007.819	-1638
1007.893	-1359
1007.967	-1536
1008.041	-2561
1008.115	-2001
1008.190	-3016
1008.264	-1455
1008.338	-2670
1008.412	-1700
1008.486	-1861
1008.560	-1691
1008.633	-2411
1008.707	-957
1008.781	-1407
1008.855	-2204
1008.929	-1534
1009.003	-1909
1009.076	-1238
1009.150	-2284
1009.224	-2097
1009.298	-2056
1009.371	-1168
1009.445	-1383
1009.519	-1903
1009.592	-2565
1009.666	-1906
1009.739	-1780
1009.813	-1539
1009.886	-88
1009.960	-2478
1010.033	-2016
1010.107	-1383
1010.180	-2143
1010.253	-630
1010.327	-3084
1010.400	-2215
1010.473	-2499
1010.547	-834
1010.620	-1876
1010.693	-1961
1010.766	-1624
1010.840	-1815
1010.913	-1888
1010.986	-1665
1011.059	-2240
1011.132	-2304
1011.205	-1591
1011.278	-1598
1011.351	-1611
1011.424	-1745
1011.497	-2032
1011.570	-1357
1011.643	-1315
1011.716	-1748
1011.789	-2465
1011.862	-1939
1011.934	-1415
1012.007	-2637
1012.080	-1221
1012.153	-1369
1012.225	-1593
1012.298	-1445
1012.371	-1918
1012.443	-1718
1012.516	-2263
1012.588	-1112
1012.661	-1853
1012.733	-2783
1012.806	-1614
1012.879	-2043
1012.951	-1377
1013.023	-1947
1013.096	-2188
1013.168	-2357
1013.241	-1316
1013.313	-1297
1013.385	-1488
1013.458	-2009
1013.530	-1275
1013.602	-2621
1013.674	-1552
1013.746	-1589
1013.819	-1556
1013.891	-1503
1013.963	-2251
1014.035	-1742
1014.107	-796
1014.179	-1373
1014.251	-2049
1014.323	-1071
1014.395	-1722
1014.467	-1941
1014.539	-1154
1014.611	-1928
1014.683	-2229
1014.754	-1495
1014.826	-2363
1014.898	-1110
1014.970	-2803
1015.042	-900
1015.113	-1394
1015.185	-1924
1015.257	-2341
1015.328	-1797
1015.400	-2115
1015.471	-1504
1015.543	-2626
1015.615	-1551
1015.686	-1889
1015.757	-2299
1015.829	-1673
1015.901	-1906
1015.972	-1699
1016.043	-1657
1016.115	-2003
1016.186	-1885
1016.257	-1734
1016.328	-1604
1016.400	-1247
1016.471	-1552
1016.542	-1682
1016.613	-1486
1016.685	-1952
1016.756	-2004
1016.827	-1941
1016.898	-2114
1016.969	-1827
1017.040	-2014
1017.111	-2167
1017.182	-2357
1017.253	-1879
1017.324	-1812
1017.395	-2410
1017.466	-1626
1017.537	-2312
1017.608	-1441
1017.678	-1113
1017.749	-1449
1017.820	-2765
1017.891	-1402
1017.961	-2334
1018.032	-1293
1018.103	-2210
1018.173	-2014
1018.244	-2436
1018.315	-2321
1018.385	-1803
1018.456	-1547
1018.526	-2395
1018.597	-1992
1018.667	-1551
1018.738	-2353
1018.808	-1619
1018.878	-1882
1018.949	-1931
1019.019	-1260
1019.089	-2672
1019.160	-1646
1019.230	-2039
1019.300	-1604
1019.371	-2124
1019.441	-1216
1019.511	-1683
1019.581	-2205
1019.651	-2080
1019.721	-2131
1019.791	-2841
1019.861	-2058
1019.931	-1237
1020.001	-2552
1020.071	-2332
1020.141	-2486
1020.211	-2202
1020.281	-2501
1020.351	-2201
1020.421	-1640
1020.491	-1596
1020.560	-2264
1020.630	-2294
1020.700	-2486
1020.770	-2631
1020.839	-2417
1020.909	-1764
1020.979	-2392
1021.048	-1843
1021.118	-2636
1021.187	-1282
1021.257	-2199
1021.326	-1422
1021.396	-1899
1021.465	-1942
1021.535	-1600
1021.604	-2220
1021.674	-2050
1021.743	-1444
1021.812	-1992
1021.882	-2285
1021.951	-1237
1022.020	-1661
1022.089	-1882
1022.159	-1860
1022.228	-1613
1022.297	-2707
1022.366	-1928
1022.435	-2010
1022.504	-1874
1022.573	-2164
1022.642	-1813
1022.711	-2226
1022.781	-2587
1022.849	-2234
1022.918	-1958
1022.987	-2273
1023.056	-2151
1023.125	-1525
1023.194	-1959
1023.263	-1190
1023.331	-1821
1023.400	-2603
1023.469	-2650
1023.538	-1445
1023.606	-2112
1023.675	-1449
1023.744	-1887
1023.812	-2377
1023.881	-1779
1023.949	-2273
1024.018	-1790
1024.086	-1846
1024.155	-2072
1024.223	-2906
1024.292	-2044
1024.360	-1985
1024.429	-1965
1024.497	-1676
1024.565	-1746
1024.634	-2501
1024.702	-1879
1024.770	-2229
1024.838	-2375
1024.907	-1796
1024.975	-2083
1025.043	-1760
1025.111	-2406
1025.179	-1975
1025.247	-1951
1025.315	-1905
1025.383	-2457
1025.451	-1948
1025.519	-2326
1025.587	-2597
1025.655	-2776
1025.723	-2646
1025.791	-1967
1025.859	-1911
1025.927	-1194
1025.995	-2872
1026.062	-2144
1026.130	-1600
1026.198	-2450
1026.266	-2371
1026.333	-1415
1026.401	-1839
1026.469	-1877
1026.536	-2049
1026.604	-2409
1026.671	-2642
1026.739	-1544
1026.806	-2297
1026.874	-2365
1026.941	-2205
1027.009	-2044
1027.076	-2514
1027.144	-1359
1027.211	-2616
1027.278	-1807
1027.345	-2089
1027.413	-1377
1027.480	-2009
1027.547	-2570
1027.614	-2322
1027.682	-2023
1027.749	-2695
1027.816	-2330
1027.883	-2507
1027.950	-1453
1028.017	-2346
1028.084	-1043
1028.151	-3003
1028.218	-2314
1028.285	-1968
1028.352	-1750
1028.419	-2643
1028.486	-1844
1028.553	-3197
1028.619	-2895
1028.686	-1970
1028.753	-1770
1028.820	-2356
1028.886	-1684
1028.953	-1946
1029.020	-1696
1029.086	-2511
1029.153	-1741
1029.220	-2313
1029.286	-2173
1029.353	-2176
1029.419	-2511
1029.486	-2014
1029.552	-2491
1029.619	-2254
1029.685	-1931
1029.751	-2537
1029.818	-1142
1029.884	-2543
1029.951	-857
1030.017	-1753
1030.083	-1681
1030.149	-2216
1030.216	-2382
1030.282	-1955
1030.348	-1747
1030.414	-2038
1030.480	-2399
1030.546	-2703
1030.612	-1952
1030.678	-2509
1030.744	-2207
1030.810	-2413
1030.876	-1525
1030.942	-1517
1031.008	-2372
1031.074	-2351
1031.140	-2782
1031.206	-1268
1031.272	-2297
1031.337	-1932
1031.403	-2533
1031.469	-2249
1031.534	-2795
1031.600	-1851
1031.666	-2104
1031.731	-2364
1031.797	-1988
1031.863	-1672
1031.928	-2083
1031.994	-1954
1032.059	-1667
1032.125	-1856
1032.190	-1835
1032.256	-2353
1032.321	-1937
1032.386	-2396
1032.452	-1342
1032.517	-1900
1032.582	-2172
1032.647	-2398
1032.713	-1881
1032.778	-1860
1032.843	-2438
1032.908	-2604
1032.974	-1336
1033.039	-1852
1033.104	-1054
1033.169	-2717
1033.234	-1912
1033.299	-2142
1033.364	-1998
1033.429	-2208
1033.494	-2132
1033.559	-1663
1033.624	-2102
1033.688	-1740
1033.753	-2308
1033.818	-2031
1033.883	-1470
1033.948	-1645
1034.013	-2155
1034.077	-1204
1034.142	-1388
1034.207	-1136
1034.271	-1525
1034.336	-1349
1034.400	-1205
1034.465	-1994
1034.530	-1275
1034.594	-1735
1034.658	-1429
1034.723	-2278
1034.787	-2108
1034.852	-2590
1034.916	-1793
1034.981	-1861
1035.045	-2433
1035.109	-2180
1035.173	-2416
1035.238	-2459
1035.302	-2213
1035.366	-2871
1035.430	-1685
1035.495	-2066
1035.559	-1660
1035.623	-2247
1035.687	-2446
1035.751	-3075
1035.815	-1678
1035.879	-2359
1035.943	-1669
1036.007	-1580
1036.071	-1398
1036.135	-1849
1036.198	-1172
1036.262	-1843
1036.326	-2146
1036.390	-1823
1036.454	-1422
1036.517	-1705
1036.581	-2030
1036.645	-1428
1036.709	-1286
1036.772	-2097
1036.836	-2251
1036.900	-1847
1036.963	-2384
1037.026	-2292
1037.090	-2275
1037.154	-2415
1037.217	-2272
1037.280	-2421
1037.344	-1525
1037.407	-2156
1037.471	-2298
1037.534	-2256
1037.597	-1929
1037.661	-2933
1037.724	-1646
1037.787	-2739
1037.850	-1842
1037.913	-2005
1037.977	-1452
1038.040	-2228
1038.103	-1568
1038.166	-2393
1038.229	-1798
1038.292	-1761
1038.355	-2262
1038.418	-1555
1038.481	-2051
1038.544	-2395
1038.607	-2225
1038.670	-2320
1038.732	-2635
1038.795	-2460
1038.858	-2202
1038.921	-2119
1038.984	-2300
1039.046	-1491
1039.109	-2287
1039.172	-1468
1039.234	-2068
1039.297	-2117
1039.360	-2078
1039.422	-1804
1039.485	-1924
1039.547	-2897
1039.610	-2227
1039.672	-2535
1039.734	-2444
1039.797	-2803
1039.859	-2177
1039.922	-2575
1039.984	-2543
1040.046	-1259
1040.109	-2171
1040.171	-2443
1040.233	-1973
1040.295	-2378
1040.358	-1605
1040.420	-2313
1040.482	-3001
1040.544	-2382
1040.606	-1420
1040.668	-1462
1040.730	-2633
1040.792	-1804
1040.854	-1794
1040.916	-1961
1040.978	-2338
1041.040	-1747
1041.102	-1194
1041.164	-2124
1041.225	-2473
1041.287	-2023
1041.349	-1913
1041.411	-1876
1041.472	-1959
1041.534	-2982
1041.596	-2071
1041.657	-2253
1041.719	-2045
1041.781	-2664
1041.842	-2144
1041.904	-1555
1041.965	-2266
1042.027	-2633
1042.088	-2428
1042.150	-2576
1042.211	-1771
1042.272	-1908
1042.334	-2547
1042.395	-2151
1042.456	-1930
1042.518	-2414
1042.579	-2301
1042.640	-1593
1042.701	-1868
1042.763	-2769
1042.824	-2017
1042.885	-2337
1042.946	-2082
1043.007	-2464
1043.068	-2402
1043.129	-1663
1043.190	-2738
1043.251	-1652
1043.312	-1785
1043.373	-1529
1043.434	-2372
1043.495	-1954
1043.556	-2063
1043.616	-1744
1043.677	-2304
1043.738	-2540
1043.799	-2259
1043.859	-2033
1043.920	-1809
1043.981	-2317
1044.041	-2049
1044.102	-2118
1044.162	-1883
1044.223	-2611
1044.284	-3036
1044.344	-1445
1044.405	-2002
1044.465	-2627
1044.525	-2123
1044.586	-2936
1044.646	-1307
1044.707	-1691
1044.767	-1783
1044.827	-2061
1044.887	-1643
1044.948	-2370
1045.008	-1993
1045.068	-1783
1045.128	-1968
1045.188	-2011
1045.249	-2648
1045.309	-2986
1045.369	-1843
1045.429	-1859
1045.489	-1995
1045.549	-2592
1045.609	-1599
1045.669	-2142
1045.729	-2088
1045.789	-2093
1045.848	-1531
1045.908	-2278
1045.968	-1199
1046.028	-1990
1046.088	-1398
1046.147	-1666
1046.207	-2443
1046.267	-2017
1046.326	-1305
1046.386	-1760
1046.446	-1919
1046.505	-1600
1046.565	-1068
1046.624	-1104
1046.684	-1449
1046.743	-1609
1046.803	-580
1046.862	637
1046.922	0
