'Start Wavelength	183.907
'End Wavelength	1046.922
'Gate Delay	5.000
'Gate Width (ms)	1.050
'Laser Output Level	0.000
'X Position	0.000
'Y Position	0.000
'Z Position	0.000
'Grid Point Number	1.000
'Shot Number	100.000
183.907	912.000
183.977	1235.000
184.047	7
184.116	787
184.186	202
184.256	394
184.325	-353
184.395	-604
184.465	1213
184.534	259
184.604	-352
184.674	42
184.743	-627
184.813	509
184.883	-144
184.952	27
185.022	1017
185.092	119
185.161	368
185.231	16
185.301	123
185.370	244
185.440	-121
185.509	66
185.579	301
185.649	289
185.718	829
185.788	773
185.857	-272
185.927	-74
185.996	-213
186.066	262
186.136	-178
186.205	-311
186.275	288
186.344	611
186.414	-234
186.483	582
186.553	1000
186.622	1087
186.692	815
186.761	-23
186.831	106
186.900	-648
186.970	693
187.039	849
187.109	865
187.178	276
187.248	81
187.317	1202
187.387	481
187.456	249
187.526	722
187.595	614
187.664	-274
187.734	382
187.803	76
187.873	463
187.942	607
188.012	276
188.081	345
188.150	699
188.220	1397
188.289	1197
188.358	1207
188.428	1167
188.497	-62
188.567	1221
188.636	89
188.705	181
188.775	-158
188.844	411
188.913	793
188.983	706
189.052	396
189.121	1213
189.191	471
189.260	1076
189.329	670
189.399	745
189.468	129
189.537	626
189.606	808
189.676	438
189.745	-455
189.814	1634
189.883	386
189.953	868
190.022	607
190.091	1782
190.161	2786
190.230	1359
190.299	339
190.368	310
190.437	-352
190.507	84
190.576	815
190.645	582
190.714	647
190.783	310
190.853	825
190.922	1066
190.991	549
191.060	1364
191.129	-59
191.198	1221
191.268	369
191.337	398
191.406	456
191.475	729
191.544	77
191.613	1294
191.682	348
191.752	926
191.821	225
191.890	500
191.959	435
192.028	667
192.097	-13
192.166	448
192.235	-527
192.304	343
192.373	175
192.442	787
192.511	253
192.580	789
192.650	303
192.719	-10
192.788	315
192.857	529
192.926	81
192.995	708
193.064	-25
193.133	1580
193.202	381
193.271	355
193.340	-177
193.409	670
193.478	1001
193.547	1334
193.615	1305
193.684	1629
193.753	692
193.822	764
193.891	-71
193.960	1638
194.029	298
194.098	1036
194.167	804
194.236	901
194.305	744
194.374	186
194.443	261
194.512	1193
194.580	682
194.649	1111
194.718	1533
194.787	1024
194.856	615
194.925	1273
194.994	602
195.062	1661
195.131	1363
195.200	1336
195.269	1610
195.338	681
195.407	610
195.475	978
195.544	1092
195.613	1017
195.682	774
195.751	2091
195.819	874
195.888	1352
195.957	1580
196.026	1899
196.094	1808
196.163	2088
196.232	1210
196.301	736
196.369	1802
196.438	878
196.507	1020
196.576	108
196.644	370
196.713	-132
196.782	305
196.850	904
196.919	916
196.988	1372
197.056	-345
197.125	355
197.194	836
197.262	539
197.331	1333
197.400	952
197.468	455
197.537	-137
197.606	488
197.674	1672
197.743	2877
197.812	1688
197.880	2050
197.949	1958
198.017	3052
198.086	2000
198.155	1116
198.223	790
198.292	2707
198.360	1362
198.429	1330
198.497	1299
198.566	1355
198.635	3055
198.703	1222
198.772	1684
198.840	2798
198.909	4036
198.977	708
199.046	326
199.114	902
199.183	1817
199.251	658
199.320	280
199.388	522
199.457	1097
199.525	1298
199.594	1074
199.662	722
199.731	424
199.799	1117
199.867	1318
199.936	1112
200.004	1128
200.073	1261
200.141	605
200.210	-127
200.278	227
200.346	971
200.415	1440
200.483	756
200.552	1098
200.620	84
200.688	787
200.757	1064
200.825	806
200.893	805
200.962	699
201.030	840
201.098	690
201.167	887
201.235	610
201.303	421
201.372	1476
201.440	428
201.508	1539
201.577	1027
201.645	1567
201.713	1017
201.781	1286
201.850	1942
201.918	1147
201.986	1193
202.055	1083
202.123	584
202.191	615
202.259	418
202.327	898
202.396	604
202.464	2479
202.532	1536
202.600	6481
202.669	4234
202.737	1230
202.805	683
202.873	363
202.941	924
203.009	982
203.078	113
203.146	737
203.214	730
203.282	525
203.350	1247
203.418	918
203.487	909
203.555	653
203.623	757
203.691	910
203.759	291
203.827	34
203.895	1149
203.963	927
204.031	-520
204.099	887
204.168	723
204.236	1620
204.304	1352
204.372	1301
204.440	1486
204.508	-85
204.576	154
204.644	597
204.712	786
204.780	754
204.848	1368
204.916	242
204.984	300
205.052	842
205.120	1521
205.188	1253
205.256	702
205.324	1227
205.392	773
205.460	968
205.528	566
205.596	1284
205.664	502
205.732	1160
205.799	3167
205.867	6464
205.935	1802
206.003	1019
206.071	1231
206.139	635
206.207	1545
206.275	820
206.343	715
206.411	666
206.478	562
206.546	1354
206.614	1125
206.682	691
206.750	564
206.818	1092
206.885	1704
206.953	-258
207.021	1525
207.089	995
207.157	1132
207.225	1266
207.292	1551
207.360	934
207.428	484
207.496	774
207.563	593
207.631	899
207.699	314
207.767	1093
207.834	984
207.902	547
207.970	782
208.038	1233
208.105	853
208.173	1127
208.241	1406
208.309	877
208.376	1341
208.444	3344
208.512	1735
208.579	167
208.647	1982
208.715	1337
208.782	518
208.850	732
208.918	694
208.985	1463
209.053	1143
209.120	1655
209.188	670
209.256	1088
209.323	687
209.391	1739
209.459	2917
209.526	1437
209.594	764
209.661	1007
209.729	1439
209.796	1632
209.864	1016
209.932	1194
209.999	2876
210.067	1560
210.134	1808
210.202	1420
210.269	2485
210.337	2154
210.404	1445
210.472	597
210.539	925
210.607	813
210.674	2077
210.742	2385
210.809	1400
210.877	1773
210.944	3281
211.012	1714
211.079	2737
211.146	1612
211.214	1158
211.281	2046
211.349	2303
211.416	2129
211.484	2440
211.551	1418
211.618	1376
211.686	1368
211.753	693
211.821	1436
211.888	979
211.955	1156
212.023	1145
212.090	1770
212.157	1472
212.225	1710
212.292	3345
212.359	7346
212.427	17572
212.494	8676
212.561	3066
212.629	2563
212.696	1078
212.763	2225
212.831	2191
212.898	1189
212.965	386
213.032	2485
213.100	2907
213.167	2870
213.234	2343
213.301	2078
213.369	2565
213.436	1981
213.503	1177
213.570	2755
213.638	1814
213.705	1113
213.772	825
213.839	1626
213.906	3116
213.973	3069
214.041	1460
214.108	2355
214.175	2620
214.242	1783
214.309	1804
214.376	2211
214.444	2369
214.511	2626
214.578	1858
214.645	2300
214.712	2656
214.779	2211
214.846	1649
214.913	2562
214.980	2009
215.048	2964
215.115	3899
215.182	3042
215.249	2628
215.316	2034
215.383	2245
215.450	2458
215.517	2196
215.584	2631
215.651	1927
215.718	1749
215.785	3133
215.852	3257
215.919	3578
215.986	3866
216.053	2185
216.120	1827
216.187	3020
216.254	3395
216.321	2733
216.388	2918
216.455	2580
216.522	3299
216.589	3953
216.656	6333
216.722	6040
216.789	3215
216.856	2813
216.923	2524
216.990	2408
217.057	3000
217.124	3237
217.191	3019
217.258	2752
217.324	4150
217.391	2989
217.458	2231
217.525	2242
217.592	2205
217.659	1206
217.725	3332
217.792	4528
217.859	5336
217.926	1911
217.993	2110
218.059	2741
218.126	1351
218.193	1627
218.260	1622
218.327	1584
218.393	3214
218.460	1875
218.527	1713
218.594	2301
218.660	5317
218.727	5506
218.794	1981
218.860	2586
218.927	2157
218.994	2200
219.061	1728
219.127	3191
219.194	5348
219.261	2563
219.327	1834
219.394	1947
219.461	1310
219.527	2807
219.594	2858
219.661	2293
219.727	1797
219.794	2233
219.860	1401
219.927	1423
219.994	4047
220.060	6515
220.127	4186
220.193	2877
220.260	1808
220.326	2267
220.393	2563
220.460	4395
220.526	3328
220.593	1936
220.659	4222
220.726	3139
220.792	8273
220.859	5917
220.925	5679
220.992	6965
221.058	9567
221.125	12263
221.191	9304
221.258	3361
221.324	2734
221.391	3462
221.457	1882
221.524	2018
221.590	4203
221.657	11698
221.723	8639
221.789	6655
221.856	8198
221.922	3899
221.989	3819
222.055	3785
222.121	2175
222.188	4635
222.254	2913
222.321	2855
222.387	2730
222.453	1988
222.520	2440
222.586	1690
222.652	3039
222.719	1280
222.785	2569
222.851	1796
222.918	2653
222.984	2160
223.050	3105
223.116	1108
223.183	2323
223.249	1442
223.315	1298
223.382	2102
223.448	2768
223.514	777
223.580	1464
223.647	1854
223.713	1566
223.779	2398
223.845	2615
223.911	2265
223.978	2043
224.044	2138
224.110	2791
224.176	1068
224.242	1135
224.309	1379
224.375	1531
224.441	2485
224.507	2217
224.573	1745
224.639	2975
224.705	1137
224.772	1800
224.838	1783
224.904	3570
224.970	2739
225.036	2188
225.102	2862
225.168	2745
225.234	2336
225.300	2001
225.366	1703
225.432	2609
225.499	3037
225.565	2408
225.631	2581
225.697	2937
225.763	3026
225.829	2995
225.895	3840
225.961	5796
226.027	5676
226.093	4200
226.159	4454
226.225	4545
226.291	6832
226.357	11621
226.423	7973
226.489	6757
226.554	4608
226.620	3556
226.686	5500
226.752	9377
226.818	6988
226.884	13977
226.950	13020
227.016	5853
227.082	4382
227.148	4684
227.214	5780
227.279	5020
227.345	3721
227.411	4972
227.477	3611
227.543	7766
227.609	8452
227.674	6007
227.740	4982
227.806	4349
227.872	3174
227.938	3475
228.003	6761
228.069	3761
228.135	1515
228.201	3135
228.267	3282
228.332	3783
228.398	4925
228.464	4255
228.530	2065
228.595	2558
228.661	2041
228.727	6128
228.792	5375
228.858	2874
228.924	1813
228.990	5075
229.055	4620
229.121	6554
229.187	3070
229.252	3869
229.318	2627
229.384	3667
229.449	4848
229.515	1271
229.581	1278
229.646	3922
229.712	4465
229.777	7566
229.843	8344
229.909	5553
229.974	6494
230.040	6433
230.105	5096
230.171	5131
230.236	6239
230.302	10055
230.368	8455
230.433	5176
230.499	5350
230.564	5433
230.630	3715
230.695	4697
230.761	3591
230.826	2095
230.892	5739
230.957	3854
231.023	2661
231.088	4630
231.154	3374
231.219	4120
231.284	5214
231.350	5548
231.415	2926
231.481	4033
231.546	3247
231.612	3499
231.677	2144
231.742	2201
231.808	4220
231.873	1761
231.939	1243
232.004	6962
232.069	7013
232.135	3941
232.200	2920
232.265	3084
232.331	3102
232.396	2965
232.461	1528
232.527	2597
232.592	2682
232.657	3641
232.723	7352
232.788	6068
232.853	3494
232.918	4011
232.984	2483
233.049	2837
233.114	6569
233.179	6496
233.245	8575
233.310	11111
233.375	3468
233.440	4160
233.506	3088
233.571	2368
233.636	2812
233.701	3101
233.766	6793
233.832	9843
233.897	4960
233.962	5095
234.027	7159
234.092	5225
234.157	4583
234.222	4838
234.288	6541
234.353	19061
234.418	20497
234.483	12441
234.548	9278
234.613	7767
234.678	6740
234.743	7542
234.808	22406
234.873	13785
234.938	7079
235.004	5126
235.069	5698
235.134	4941
235.199	4481
235.264	4481
235.329	2973
235.394	4920
235.459	6696
235.524	6843
235.589	4978
235.654	3881
235.719	2660
235.784	4346
235.849	4753
235.913	12252
235.978	13485
236.043	16090
236.108	7035
236.173	5738
236.238	6739
236.303	4237
236.368	3633
236.433	7522
236.498	12535
236.563	6924
236.627	8331
236.692	21749
236.757	17158
236.822	10525
236.887	11621
236.952	8264
237.017	5312
237.081	7779
237.146	7379
237.211	8340
237.276	19886
237.341	40160
237.405	22225
237.470	11409
237.535	10573
237.600	6955
237.664	6587
237.729	4260
237.794	5423
237.859	8419
237.923	9782
237.988	6829
238.053	10009
238.118	11694
238.182	23880
238.247	24136
238.312	14248
238.376	11044
238.441	8253
238.506	7758
238.570	3201
238.635	5302
238.700	3623
238.764	4875
238.829	11641
238.893	15531
238.958	7979
239.023	7582
239.087	4474
239.152	5581
239.216	4186
239.281	4578
239.346	4394
239.410	5090
239.475	5160
239.539	25080
239.604	19821
239.668	6315
239.733	4108
239.797	7104
239.862	13695
239.926	21460
239.991	10433
240.055	5305
240.120	4931
240.184	5340
240.249	4899
240.313	4476
240.378	5206
240.442	15743
240.507	24019
240.571	8908
240.635	11566
240.700	17060
240.764	6863
240.829	4882
240.893	3412
240.957	5008
241.022	14299
241.086	25917
241.151	14474
241.215	5803
241.279	8082
241.344	15208
241.408	8551
241.472	6936
241.537	7329
241.601	6415
241.665	4854
241.730	4941
241.794	6478
241.858	5494
241.922	6285
241.987	6410
242.051	4973
242.115	4453
242.179	5023
242.244	4310
242.308	5856
242.372	6373
242.436	8425
242.501	6921
242.565	4490
242.629	4622
242.693	5277
242.757	4358
242.822	4820
242.886	6476
242.950	6081
243.014	6126
243.078	7468
243.142	7624
243.206	5287
243.271	8176
243.335	6210
243.399	8206
243.463	22917
243.527	59134
243.591	21893
243.655	11951
243.719	7949
243.783	8856
243.847	11825
243.911	14041
243.975	20449
244.040	15889
244.104	8780
244.168	6136
244.232	11104
244.296	15033
244.360	14157
244.424	9818
244.488	8416
244.552	8109
244.615	5205
244.679	6414
244.743	8096
244.807	8813
244.871	6487
244.935	6350
244.999	4321
245.063	5776
245.127	7281
245.191	11289
245.255	10400
245.319	9960
245.383	8639
245.446	7704
245.510	5579
245.574	7465
245.638	8033
245.702	6235
245.766	14765
245.829	10684
245.893	8313
245.957	7314
246.021	8167
246.085	9006
246.149	9683
246.212	20482
246.276	29031
246.340	15334
246.404	12544
246.467	10725
246.531	15393
246.595	10782
246.659	11612
246.722	9991
246.786	13716
246.850	12722
246.913	14901
246.977	7942
247.041	8717
247.104	9290
247.168	8780
247.232	19787
247.295	37480
247.359	21501
247.423	10117
247.486	19171
247.550	12553
247.614	11273
247.677	14955
247.741	9595
247.804	8092
247.868	10306
247.932	16687
247.995	37516
248.059	17035
248.122	8884
248.186	11212
248.249	18444
248.313	54376
248.376	59288
248.440	40937
248.503	17521
248.567	15402
248.630	20418
248.694	28060
248.757	33089
248.821	59750
248.884	41787
248.948	36454
249.011	50590
249.075	68074
249.138	62394
249.202	28697
249.265	18553
249.328	25196
249.392	18380
249.455	15195
249.519	10879
249.582	15186
249.645	22219
249.709	17182
249.772	11390
249.835	10881
249.899	13939
249.962	10930
250.025	10549
250.089	23709
250.152	36165
250.215	19656
250.279	15159
250.342	14523
250.405	13154
250.468	11709
250.532	14682
250.595	21669
250.658	57537
250.721	92494
250.785	40453
250.848	23746
250.911	14669
250.974	13036
251.038	17666
251.101	35837
251.164	22288
251.227	22466
251.290	19653
251.354	23194
251.417	78500
251.480	79802
251.543	54437
251.606	134815
251.669	108830
251.732	47476
251.795	50228
251.859	48870
251.922	91695
251.985	59373
252.048	24976
252.111	20700
252.174	20572
252.237	36451
252.300	70485
252.363	70851
252.426	120220
252.489	59396
252.552	36330
252.615	24968
252.678	26786
252.741	52814
252.804	61716
252.867	119159
252.930	85161
252.993	51017
253.056	32174
253.119	26261
253.182	19655
253.245	29784
253.308	25189
253.371	28037
253.434	27032
253.497	23295
253.559	38991
253.622	29555
253.685	40831
253.748	45613
253.811	20533
253.874	26493
253.937	26279
254.000	18160
254.062	28498
254.125	41386
254.188	36352
254.251	33341
254.314	17871
254.376	29903
254.439	36695
254.502	34114
254.565	29198
254.628	49826
254.690	37578
254.753	22156
254.816	18680
254.878	18992
254.941	29450
255.004	29729
255.067	16798
255.129	18420
255.192	10920
255.255	9012
255.317	12912
255.380	8781
255.443	7447
255.505	7189
255.568	7426
255.631	7377
255.693	9641
255.756	7239
255.819	8202
255.881	6581
255.944	5921
256.006	7331
256.069	6268
256.132	5954
256.194	9506
256.257	27508
256.319	20406
256.382	19269
256.444	10310
256.507	7934
256.569	6515
256.632	6780
256.694	12180
256.757	14483
256.819	31941
256.882	17179
256.944	10343
257.007	11634
257.069	14718
257.132	10287
257.194	7293
257.257	7232
257.319	8216
257.381	6995
257.444	12525
257.506	38093
257.569	51099
257.631	51922
257.693	27434
257.756	13869
257.818	14518
257.880	9056
257.943	8300
258.005	7586
258.067	6856
258.130	7924
258.192	10137
258.254	25741
258.317	15318
258.379	9405
258.441	21455
258.503	20302
258.566	26461
258.628	36364
258.690	10531
258.753	11012
258.815	22873
258.877	12763
258.939	7690
259.001	7893
259.064	7383
259.126	11138
259.188	16332
259.250	10154
259.312	13921
259.375	36236
259.437	24836
259.499	9090
259.561	9441
259.623	10537
259.685	8616
259.747	9814
259.809	26122
259.872	46962
259.934	65568
259.996	63149
260.058	19703
260.120	10303
260.182	8799
260.244	6772
260.306	7036
260.368	8380
260.430	8004
260.492	16222
260.554	33833
260.616	28631
260.678	36343
260.740	51558
260.802	16046
260.864	13759
260.926	11071
260.988	11617
261.050	11130
261.112	20813
261.174	49757
261.236	40432
261.298	14926
261.359	24561
261.421	36217
261.483	11935
261.545	10152
261.607	6887
261.669	8089
261.731	15587
261.793	39548
261.854	19446
261.916	12623
261.978	9939
262.040	12423
262.102	9687
262.164	18023
262.225	15242
262.287	9531
262.349	20407
262.411	17977
262.472	9514
262.534	16978
262.596	36796
262.658	12977
262.719	8658
262.781	11773
262.843	33981
262.904	15803
262.966	11932
263.028	13754
263.090	48577
263.151	119323
263.213	44433
263.275	27732
263.336	13689
263.398	10175
263.459	7678
263.521	8140
263.583	19413
263.644	15708
263.706	6396
263.767	5509
263.829	5731
263.891	4837
263.952	5177
264.014	4379
264.075	9218
264.137	21833
264.198	12860
264.260	5897
264.321	5781
264.383	14219
264.444	33014
264.506	11569
264.567	8185
264.629	12545
264.690	24828
264.752	12842
264.813	9034
264.875	5625
264.936	6546
264.998	5980
265.059	5046
265.120	5290
265.182	7189
265.243	13939
265.305	13792
265.366	5942
265.427	5025
265.489	5414
265.550	3841
265.611	8119
265.673	7320
265.734	5611
265.795	3263
265.857	3868
265.918	3712
265.979	6681
266.040	22365
266.102	20295
266.163	10701
266.224	13705
266.286	8256
266.347	5228
266.408	6715
266.469	8900
266.530	7125
266.592	5577
266.653	13848
266.714	24487
266.775	8876
266.836	7236
266.898	5397
266.959	10354
267.020	8892
267.081	8002
267.142	5328
267.203	5670
267.264	5639
267.326	8962
267.387	5931
267.448	5411
267.509	7452
267.570	6594
267.631	4775
267.692	4369
267.753	6254
267.814	4860
267.875	11673
267.936	25284
267.997	13038
268.058	12252
268.119	8399
268.180	9126
268.241	6632
268.302	6254
268.363	5032
268.424	7367
268.485	7380
268.546	5700
268.607	3537
268.668	4628
268.729	3481
268.790	5838
268.851	6878
268.912	17051
268.972	22796
269.033	13411
269.094	6486
269.155	5619
269.216	5142
269.277	7476
269.338	5796
269.398	5123
269.459	7975
269.520	11428
269.581	15422
269.642	20325
269.702	11550
269.763	8379
269.824	6826
269.885	9760
269.945	16466
270.006	7286
270.067	4967
270.128	5645
270.188	4766
270.249	6596
270.310	3876
270.370	5331
270.431	6259
270.492	4161
270.553	6173
270.613	15402
270.674	27811
270.734	13395
270.795	8369
270.856	12082
270.916	10979
270.977	7260
271.038	8278
271.098	10311
271.159	14697
271.219	15788
271.280	6171
271.340	6530
271.401	8485
271.462	23057
271.522	13672
271.583	7709
271.643	8073
271.704	8119
271.764	9551
271.825	20659
271.885	57476
271.946	76241
272.006	28614
272.066	36030
272.127	57157
272.187	20325
272.248	12380
272.308	13415
272.369	36680
272.429	24326
272.489	22437
272.550	23946
272.610	24212
272.671	20419
272.731	17601
272.791	30762
272.852	18446
272.912	16148
272.972	8874
273.033	8859
273.093	16410
273.153	15994
273.214	11457
273.274	12126
273.334	31173
273.394	60458
273.455	32606
273.515	27913
273.575	55578
273.635	27430
273.696	36045
273.756	61476
273.816	29668
273.876	18720
273.936	33404
273.997	58158
274.057	17795
274.117	13590
274.177	19431
274.237	70397
274.297	64466
274.358	52367
274.418	46910
274.478	40884
274.538	18508
274.598	14886
274.658	49219
274.718	65377
274.778	26944
274.838	14622
274.898	29596
274.958	87658
275.018	63706
275.078	40948
275.138	20976
275.198	12823
275.258	9192
275.318	13798
275.378	24631
275.438	26832
275.498	17147
275.558	35800
275.618	71040
275.678	43226
275.738	30177
275.798	24576
275.858	13597
275.918	8360
275.978	10115
276.038	10553
276.098	8756
276.157	17543
276.217	47959
276.277	24660
276.337	19074
276.397	11548
276.457	14500
276.517	9235
276.576	7858
276.636	7082
276.696	14144
276.756	29906
276.815	22743
276.875	12179
276.935	13988
276.995	13619
277.055	8023
277.114	8328
277.174	10641
277.234	35941
277.293	18635
277.353	11276
277.413	7858
277.472	9234
277.532	11252
277.592	11650
277.651	31741
277.711	60351
277.771	23094
277.830	68369
277.890	61090
277.950	40730
278.009	101587
278.069	44242
278.128	44101
278.188	66723
278.248	31130
278.307	65970
278.367	43542
278.426	16310
278.486	11668
278.545	8830
278.605	8335
278.664	8429
278.724	9769
278.783	21759
278.843	52940
278.902	20648
278.962	14441
279.021	16479
279.081	26080
279.140	27082
279.199	18245
279.259	15596
279.318	16714
279.378	22300
279.437	39525
279.496	117766
279.556	288866
279.615	251327
279.675	85819
279.734	51158
279.793	73104
279.853	96500
279.912	38137
279.971	24601
280.031	22607
280.090	33576
280.149	56767
280.208	56643
280.268	197784
280.327	216717
280.386	67948
280.445	45897
280.505	42584
280.564	22046
280.623	18628
280.682	23825
280.742	34335
280.801	14182
280.860	11212
280.919	10632
280.978	10117
281.037	9926
281.097	8341
281.156	9627
281.215	8047
281.274	10661
281.333	34759
281.392	28855
281.451	9700
281.510	8020
281.569	8076
281.628	7252
281.688	6685
281.747	8925
281.806	9101
281.865	7600
281.924	6389
281.983	8177
282.042	4625
282.101	6104
282.160	6465
282.219	6111
282.278	7719
282.337	24436
282.396	19393
282.454	8372
282.513	10565
282.572	36634
282.631	23262
282.690	9112
282.749	7905
282.808	11025
282.867	10447
282.926	10242
282.985	6871
283.043	5471
283.102	6461
283.161	9347
283.220	16514
283.279	37574
283.338	13731
283.396	9363
283.455	9704
283.514	10696
283.573	17233
283.631	13503
283.690	9650
283.749	9233
283.808	18583
283.866	22759
283.925	10112
283.984	8935
284.043	13625
284.101	14699
284.160	9875
284.219	13665
284.277	12812
284.336	18926
284.395	50317
284.453	42062
284.512	19409
284.570	27087
284.629	24262
284.688	23831
284.746	26550
284.805	32085
284.863	42288
284.922	52319
284.981	58126
285.039	79158
285.098	126976
285.156	224931
285.215	246945
285.273	242552
285.332	241422
285.390	156765
285.449	101100
285.507	70404
285.566	52839
285.624	41377
285.683	31564
285.741	25492
285.799	21297
285.858	20962
285.916	18190
285.975	14252
286.033	12389
286.091	12267
286.150	10493
286.208	11075
286.267	12445
286.325	12730
286.383	20059
286.442	15965
286.500	9023
286.558	8206
286.616	7593
286.675	11638
286.733	11254
286.791	10334
286.850	11298
286.908	14637
286.966	23706
287.024	11539
287.083	7544
287.141	6840
287.199	6936
287.257	13351
287.315	9869
287.374	10313
287.432	21651
287.490	14798
287.548	10224
287.606	7997
287.664	7496
287.723	11750
287.781	15325
287.839	8945
287.897	9382
287.955	10391
288.013	14414
288.071	32701
288.129	106604
288.187	276791
288.245	132352
288.303	45185
288.361	27201
288.419	22536
288.477	15833
288.535	11421
288.593	8937
288.651	8107
288.709	6100
288.767	7045
288.825	7745
288.883	5562
288.941	6500
288.999	6208
289.057	5168
289.115	6411
289.173	7142
289.231	7466
289.289	7275
289.346	6527
289.404	8291
289.462	13887
289.520	15123
289.578	7617
289.636	3866
289.694	4652
289.751	4458
289.809	4642
289.867	5439
289.925	7054
289.983	9111
290.040	4382
290.098	3940
290.156	6652
290.214	8213
290.271	5683
290.329	3992
290.387	3413
290.444	3594
290.502	2896
290.560	4178
290.617	4769
290.675	4927
290.733	4930
290.790	6748
290.848	5064
290.906	6411
290.963	6317
291.021	5591
291.078	4820
291.136	6603
291.194	17590
291.251	39127
291.309	12731
291.366	5378
291.424	6173
291.481	6387
291.539	6953
291.596	6992
291.654	4258
291.711	4657
291.769	6398
291.826	15651
291.884	10357
291.941	5189
291.999	6010
292.056	7419
292.114	8191
292.171	5419
292.228	6035
292.286	8313
292.343	17387
292.401	21640
292.458	13973
292.515	8993
292.573	11914
292.630	11128
292.687	10222
292.745	7524
292.802	10425
292.859	23847
292.917	42931
292.974	27526
293.031	10336
293.089	7429
293.146	6324
293.203	5683
293.260	5225
293.318	9312
293.375	11726
293.432	7155
293.489	5642
293.546	5788
293.604	10162
293.661	27835
293.718	61456
293.775	34632
293.832	20616
293.889	17489
293.947	18729
294.004	14052
294.061	13237
294.118	21005
294.175	39625
294.232	46793
294.289	20933
294.346	10496
294.403	9504
294.460	9597
294.517	8394
294.574	6118
294.631	5621
294.688	8280
294.745	20654
294.802	62422
294.859	69439
294.916	33865
294.973	24362
295.030	19174
295.087	16075
295.144	9605
295.201	9133
295.258	8122
295.315	9994
295.372	25458
295.429	48477
295.486	22012
295.542	13752
295.599	25437
295.656	46303
295.713	33364
295.770	43668
295.827	18470
295.883	10654
295.940	10142
295.997	19454
296.054	20029
296.111	9795
296.167	6889
296.224	5210
296.281	5513
296.338	5046
296.394	5463
296.451	7573
296.508	21181
296.564	40993
296.621	29579
296.678	50427
296.734	75456
296.791	30870
296.848	16178
296.904	18613
296.961	40762
297.018	53737
297.074	40759
297.131	16910
297.187	13286
297.244	18162
297.301	45857
297.357	82063
297.414	33109
297.470	14295
297.527	10768
297.583	9041
297.640	10261
297.696	8318
297.753	6081
297.809	5368
297.866	4566
297.922	4750
297.979	5531
298.035	6655
298.092	12303
298.148	29915
298.204	30860
298.261	17149
298.317	25646
298.374	61520
298.430	39845
298.486	22011
298.543	17309
298.599	16187
298.656	18805
298.712	26318
298.768	54073
298.824	37022
298.881	14690
298.937	9036
298.993	9064
299.050	11839
299.106	10300
299.162	8649
299.218	9541
299.275	7623
299.331	9077
299.387	16506
299.443	52241
299.500	59496
299.556	24521
299.612	13962
299.668	13618
299.724	13791
299.780	14303
299.837	10578
299.893	16476
299.949	46949
300.005	59752
300.061	48649
300.117	76318
300.173	40301
300.229	20522
300.285	26843
300.341	31498
300.397	16533
300.453	10778
300.510	9771
300.566	9858
300.622	11967
300.678	24428
300.734	51299
300.790	48257
300.845	55181
300.901	36618
300.957	50026
301.013	41853
301.069	18128
301.125	13473
301.181	15398
301.237	11422
301.293	7619
301.349	8341
301.405	9011
301.461	8823
301.516	13411
301.572	12625
301.628	21503
301.684	19649
301.740	24099
301.796	41165
301.851	28161
301.907	43413
301.963	45785
302.019	58022
302.074	140233
302.130	148767
302.186	73259
302.242	32010
302.297	21280
302.353	21357
302.409	35749
302.464	34390
302.520	27744
302.576	59473
302.631	70057
302.687	44384
302.743	18980
302.798	11836
302.854	9162
302.910	10568
302.965	12312
303.021	25550
303.076	24644
303.132	29926
303.187	36864
303.243	18755
303.299	10932
303.354	7732
303.410	8037
303.465	7141
303.521	6911
303.576	8016
303.632	10813
303.687	17162
303.743	45959
303.798	42970
303.853	18163
303.909	10478
303.964	10353
304.020	16393
304.075	27770
304.130	23922
304.186	44532
304.241	45228
304.297	36260
304.352	19510
304.358	18785
304.407	12902
304.449	12786
304.463	12752
304.518	14369
304.539	13479
304.573	12041
304.629	10455
304.630	10582
304.684	16909
304.720	30649
304.739	37426
304.794	57376
304.811	49606
304.850	30503
304.902	15921
304.905	15017
304.960	10264
304.992	9456
305.015	8973
305.071	9483
305.083	9389
305.126	8880
305.173	7155
305.181	6911
305.236	6982
305.264	7326
305.292	7811
305.347	11094
305.354	11363
305.402	12604
305.445	11865
305.457	11763
305.512	14430
305.535	15502
305.567	16762
305.622	15737
305.626	16054
305.678	25598
305.716	44083
305.733	50182
305.788	63387
305.807	56403
305.843	44634
305.897	52744
305.898	52792
305.953	54231
305.988	37745
306.008	28968
306.063	19948
306.078	18332
306.118	14562
306.168	10405
306.173	10112
306.228	9132
306.259	8333
306.283	7891
306.338	7493
306.349	7577
306.393	7898
306.440	8382
306.448	8594
306.503	10268
306.530	11896
306.558	19164
306.613	42365
306.620	45882
306.668	60166
306.711	68984
306.723	68535
306.778	52409
306.801	40555
306.833	28303
306.888	15829
306.892	15181
306.943	11252
306.982	10396
306.997	10373
307.052	10217
307.072	10528
307.107	13269
307.162	18442
307.163	18511
307.217	31228
307.253	39068
307.272	39233
307.327	38314
307.343	35539
307.381	29261
307.434	24025
307.436	24885
307.491	49352
307.524	70442
307.546	71853
307.600	64954
307.614	57495
307.655	36125
307.704	18071
307.710	17865
307.765	23915
307.795	29459
307.819	36711
307.874	59699
307.885	61225
307.929	43773
307.975	22586
307.984	21491
308.038	20683
308.065	21591
308.093	33350
308.148	62959
308.156	69960
308.202	110011
308.246	140678
308.257	138131
308.312	81411
308.336	64022
308.366	56366
308.421	46556
308.426	44873
308.475	28120
308.517	18317
308.530	17262
308.585	16275
308.607	15955
308.639	17521
308.694	21964
308.697	22273
308.748	50712
308.787	77024
308.803	74464
308.857	55484
308.877	45497
308.912	36972
308.967	30374
308.967	30269
309.021	39722
309.058	47971
309.076	57468
309.130	93140
309.148	104814
309.185	151292
309.238	221590
309.239	222494
309.293	265479
309.328	263887
309.348	231460
309.402	119810
309.418	91351
309.457	68128
309.508	46894
309.511	46964
309.566	55766
309.598	63020
309.620	83906
309.674	145595
309.688	161612
309.729	153221
309.778	121437
309.783	118127
309.837	76635
309.868	56565
309.892	65400
309.946	92869
309.959	101100
310.001	128395
310.049	154430
310.055	149090
310.109	88846
310.139	54478
310.163	44745
310.218	29586
310.229	26997
310.272	23389
310.319	19946
310.326	19835
310.381	19105
310.409	19099
310.435	19057
310.489	18614
310.499	18585
310.543	20086
310.589	21457
310.598	21605
310.652	22559
310.679	22603
310.706	19599
310.760	13503
310.769	12545
310.814	10971
310.859	9629
310.868	9982
310.923	11409
310.948	12398
310.977	15273
311.031	20748
311.038	21446
311.085	20120
311.128	18363
311.139	18139
311.193	16879
311.218	16243
311.247	15109
311.301	13022
311.308	12723
311.356	14256
311.398	15675
311.410	15393
311.464	13764
311.488	12991
311.518	13169
311.572	13430
311.578	13445
311.626	20102
311.668	25983
311.680	26644
311.734	28920
311.758	29866
311.788	29541
311.842	28857
311.847	28687
311.896	35908
311.937	42072
311.950	41696
312.004	39407
312.027	38215
312.058	31514
312.112	19381
312.117	18123
312.165	17180
312.207	16307
312.297	30976
312.386	24491
312.476	20560
312.566	44473
312.656	20877
312.745	13391
312.835	17570
312.925	21126
313.015	20458
313.104	25089
313.194	14117
313.284	14512
313.374	21662
313.463	19050
313.553	14513
313.643	13268
313.732	12127
313.822	12167
313.912	15965
314.001	20071
314.091	23109
314.180	36644
314.270	27142
314.360	32829
314.449	25671
314.539	15052
314.628	14528
314.718	21074
314.808	30491
314.897	14234
314.987	14621
315.076	21142
315.166	29071
315.255	30119
315.345	27375
315.434	30944
315.524	25809
315.613	29913
315.703	32663
315.792	37547
315.881	79841
315.971	38167
316.060	54990
316.150	97736
316.239	97963
316.328	34541
316.418	14965
316.507	15037
316.597	23081
316.686	21532
316.775	37837
316.865	95433
316.954	21223
317.043	12412
317.133	14821
317.222	12953
317.311	14049
317.400	13846
317.490	22248
317.579	26437
317.668	17469
317.757	26369
317.847	48182
317.936	136523
318.025	78429
318.114	43126
318.203	32690
318.293	45096
318.382	91847
318.471	67061
318.560	81042
318.649	138166
318.738	36208
318.828	29697
318.917	32871
319.006	37572
319.095	98016
319.184	173247
319.273	109693
319.362	64908
319.451	26271
319.540	23345
319.629	51229
319.718	88158
319.807	40257
319.896	62425
319.985	207692
320.074	91401
320.163	33983
320.252	64806
320.341	49297
320.430	43266
320.519	49508
320.608	31348
320.697	25113
320.786	25440
320.875	30381
320.964	40829
321.053	61875
321.142	87945
321.230	96063
321.319	69857
321.408	165196
321.497	74243
321.586	67405
321.675	93030
321.764	89234
321.852	58465
321.941	97608
322.030	64415
322.119	68780
322.207	164511
322.296	138878
322.385	71526
322.474	66738
322.562	179896
322.651	106519
322.740	77209
322.829	120847
322.917	139675
323.006	72043
323.095	57955
323.183	47096
323.272	64507
323.361	92301
323.449	247425
323.538	96380
323.626	194527
323.715	124681
323.804	56813
323.892	190680
323.981	121518
324.069	39405
324.158	104478
324.246	102273
324.335	39257
324.424	62131
324.512	23235
324.601	29251
324.689	37868
324.778	58799
324.866	97317
324.954	28890
325.043	26949
325.131	60631
325.220	106447
325.308	124524
325.397	86454
325.485	53377
325.574	17717
325.662	17748
325.750	19232
325.839	17051
325.927	14992
326.015	25978
326.104	44913
326.192	66633
326.280	18559
326.369	19085
326.457	26781
326.545	47464
326.634	21624
326.722	13112
326.810	15083
326.898	13996
326.987	18939
327.075	47496
327.163	57728
327.251	28191
327.340	21072
327.428	25716
327.516	13464
327.604	16992
327.692	21250
327.781	26724
327.869	52001
327.957	31032
328.045	24433
328.133	13467
328.221	25788
328.309	18468
328.397	14247
328.485	21405
328.574	27624
328.662	91209
328.750	63358
328.838	30204
328.926	15478
329.014	12823
329.102	24173
329.190	67624
329.278	43391
329.366	11634
329.454	12014
329.542	13024
329.630	11267
329.718	13272
329.806	18480
329.893	17064
329.981	16998
330.069	9722
330.157	13965
330.245	30817
330.333	18627
330.421	15119
330.509	28657
330.597	112890
330.684	81888
330.772	33652
330.860	56336
330.948	70455
331.036	28270
331.123	11774
331.211	13425
331.299	23495
331.387	51801
331.475	98937
331.562	33164
331.650	15008
331.738	21783
331.825	36617
331.913	14561
332.001	13230
332.089	23372
332.176	58377
332.264	118046
332.352	96452
332.439	30331
332.527	22953
332.614	19926
332.702	30799
332.790	18635
332.877	54417
332.965	120741
333.052	32242
333.140	32095
333.228	78097
333.315	22636
333.403	22456
333.490	79070
333.578	69133
333.665	79511
333.753	37631
333.840	17044
333.928	25499
334.015	81752
334.103	85890
334.190	217583
334.278	65804
334.365	36431
334.452	23743
334.540	15295
334.627	25880
334.715	40487
334.802	65577
334.889	304947
334.977	271047
335.064	40279
335.151	21236
335.239	23229
335.326	32179
335.413	95078
335.501	133071
335.588	25528
335.675	19069
335.762	27288
335.850	53934
335.937	30598
336.024	71248
336.111	299447
336.199	134704
336.286	28272
336.373	14288
336.460	12036
336.547	13233
336.635	21413
336.722	18336
336.809	17560
336.896	28370
336.983	78447
337.070	174059
337.157	211677
337.245	195964
337.332	139517
337.419	25588
337.506	16732
337.593	22191
337.680	59904
337.767	182896
337.854	61008
337.941	80122
338.028	107448
338.115	36518
338.202	41269
338.289	65581
338.376	212973
338.463	72519
338.550	106706
338.637	111376
338.724	55168
338.811	94151
338.898	20898
338.984	15653
339.071	23676
339.158	23265
339.245	64113
339.332	41183
339.419	63727
339.506	62206
339.593	11519
339.679	13168
339.766	13140
339.853	20894
339.940	44229
340.027	16852
340.113	16426
340.200	24927
340.287	19174
340.374	23248
340.460	39682
340.547	19101
340.634	28284
340.720	98793
340.807	56461
340.894	11903
340.980	15822
341.067	13863
341.154	17625
341.240	24639
341.327	53999
341.414	18349
341.500	18821
341.587	15475
341.674	14515
341.760	37855
341.847	46730
341.933	15684
342.020	6751
342.106	8012
342.193	16081
342.279	31086
342.366	22384
342.452	39501
342.539	22149
342.625	48279
342.712	107603
342.798	47835
342.885	22120
342.971	8720
343.058	7721
343.144	9089
343.230	9379
343.317	11060
343.403	9495
343.490	7874
343.576	8239
343.662	11130
343.749	14482
343.835	18669
343.921	30317
344.008	127046
344.094	269728
344.180	70961
344.267	36547
344.353	93368
344.439	125864
344.525	61053
344.612	21735
344.698	19216
344.784	13918
344.870	10121
344.957	12135
345.043	22893
345.129	17476
345.215	39597
345.301	21417
345.387	13861
345.474	8918
345.560	11031
345.646	18691
345.732	15252
345.818	15110
345.904	15118
345.990	19494
346.076	21826
346.162	49460
346.249	17366
346.335	10736
346.421	12550
346.507	34896
346.593	112192
346.679	33390
346.765	15352
346.851	13396
346.937	14069
347.023	10598
347.108	14746
347.194	11711
347.280	11609
347.366	15836
347.452	39230
347.538	136717
347.624	109650
347.710	112834
347.796	25415
347.882	14757
347.967	12522
348.053	24577
348.139	16572
348.225	10475
348.311	12098
348.397	9675
348.482	15620
348.568	19539
348.654	9130
348.740	10763
348.825	12423
348.911	22047
348.997	68498
349.083	132515
349.168	33191
349.254	13183
349.340	14925
349.425	9927
349.511	18242
349.597	22373
349.682	37524
349.768	96108
349.854	46256
349.939	16175
350.025	11215
350.110	8532
350.196	7859
350.282	7108
350.367	8979
350.453	30414
350.538	32571
350.624	21138
350.709	20178
350.795	10658
350.880	12741
350.966	14405
351.051	29040
351.137	22768
351.222	12766
351.308	34583
351.393	94165
351.479	25559
351.564	10601
351.649	11971
351.735	10053
351.820	8164
351.906	11333
351.991	19103
352.076	60870
352.162	88812
352.247	22781
352.332	16378
352.418	31997
352.503	37728
352.588	143660
352.673	129642
352.759	32749
352.844	15658
352.929	18460
353.014	27588
353.100	18053
353.185	36168
353.270	50921
353.355	47764
353.441	14366
353.526	19685
353.611	42092
353.696	48726
353.781	27514
353.866	12907
353.952	15496
354.037	41322
354.122	94370
354.207	84225
354.292	31371
354.377	13352
354.462	11994
354.547	19608
354.632	18789
354.717	32661
354.802	43662
354.887	16354
354.972	10135
355.057	7869
355.142	9055
355.227	14800
355.312	26286
355.397	58183
355.482	140372
355.567	67361
355.652	50517
355.737	50374
355.822	107172
355.907	88213
355.991	17885
356.076	11686
356.161	10395
356.246	8321
356.331	11831
356.416	26892
356.501	149413
356.585	157362
356.670	32522
356.755	21230
356.840	33560
356.924	135480
357.009	407633
357.094	164764
357.179	49305
357.263	34711
357.348	33556
357.433	36460
357.517	30738
357.602	23911
357.687	18257
357.771	31509
357.856	73643
357.941	45923
358.025	89262
358.110	344753
358.195	173181
358.279	35806
358.364	28904
358.448	95940
358.533	229582
358.617	174464
358.702	160516
358.787	65063
358.871	44881
358.956	37861
359.040	12093
359.125	10325
359.209	11828
359.294	35208
359.378	58309
359.462	36724
359.547	24489
359.631	20616
359.716	11726
359.800	13489
359.885	28121
359.969	17171
360.053	11158
360.138	12409
360.222	22581
360.306	44040
360.391	33212
360.475	52163
360.559	113458
360.644	99556
360.728	72995
360.812	88688
360.896	223570
360.981	130929
361.065	87803
361.149	22538
361.233	23302
361.318	19271
361.402	23369
361.486	18868
361.570	12702
361.654	20225
361.739	50077
361.823	162880
361.907	221227
361.991	47865
362.075	34976
362.159	80675
362.243	55001
362.327	43957
362.411	46614
362.495	34629
362.580	18618
362.664	11735
362.748	10404
362.832	12437
362.916	18361
363.000	60215
363.084	191089
363.168	263773
363.252	75955
363.336	33979
363.420	48329
363.503	142621
363.587	163547
363.671	35807
363.755	29754
363.839	43077
363.923	18686
364.007	42263
364.091	51538
364.175	56702
364.258	202857
364.342	131453
364.426	122835
364.510	76890
364.594	51301
364.677	54100
364.761	192194
364.845	136288
364.929	70584
365.013	60837
365.096	47920
365.180	56861
365.264	58766
365.347	206483
365.431	105220
365.515	40611
365.598	20167
365.682	15501
365.766	40015
365.849	50784
365.933	25661
366.017	34895
366.100	30236
366.184	13636
366.267	15317
366.351	11382
366.435	10488
366.518	8634
366.602	8162
366.685	11708
366.769	16876
366.852	35452
366.936	63434
367.019	32000
367.103	27915
367.186	56644
367.270	16003
367.353	9476
367.436	11502
367.520	10170
367.603	16632
367.687	27670
367.770	51790
367.853	26397
367.937	63400
368.020	102926
368.104	33780
368.187	37749
368.270	55834
368.353	47358
368.437	70320
368.520	177953
368.603	103622
368.687	88859
368.770	152916
368.853	44615
368.936	56429
369.020	62369
369.103	21341
369.186	14578
369.269	16334
369.352	34480
369.436	56756
369.519	34001
369.602	17106
369.685	16412
369.768	22296
369.851	15995
369.934	12131
370.018	18900
370.101	48142
370.184	35553
370.267	27507
370.350	46126
370.433	69690
370.516	113638
370.599	132155
370.682	58024
370.765	110448
370.848	111402
370.931	176358
371.014	79792
371.097	21553
371.180	14802
371.263	9126
371.346	7624
371.429	9274
371.511	12919
371.594	29911
371.677	49888
371.760	59183
371.843	37405
371.926	129753
372.009	283213
372.091	103777
372.174	80153
372.257	145239
372.340	61364
372.423	79281
372.505	98885
372.588	39358
372.671	64152
372.754	175762
372.836	87951
372.919	72277
373.002	147601
373.085	51234
373.167	37938
373.250	86570
373.332	153080
373.415	196689
373.498	389163
373.580	157912
373.663	190201
373.746	246925
373.828	73047
373.911	38204
373.993	39687
374.076	138006
374.159	139046
374.241	64194
374.324	160343
374.406	106696
374.489	112420
374.571	302173
374.654	131968
374.736	70331
374.819	193926
374.901	275939
374.983	276916
375.066	55597
375.148	27207
375.231	101891
375.313	206078
375.395	96350
375.478	23445
375.560	15452
375.643	22076
375.725	69717
375.807	250791
375.890	242657
375.972	156805
376.054	84071
376.136	148116
376.219	59920
376.301	72747
376.383	206954
376.465	82793
376.548	74863
376.630	74414
376.712	181215
376.794	83536
376.877	14643
376.959	10961
377.041	15101
377.123	43562
377.205	52263
377.287	11291
377.369	9750
377.452	11979
377.534	10448
377.616	12312
377.698	12265
377.780	8995
377.862	14092
377.944	12638
378.026	8069
378.108	8155
378.190	9258
378.272	9380
378.354	6808
378.436	7245
378.518	24606
378.600	95160
378.682	69685
378.764	111257
378.846	86657
378.928	36372
379.010	50554
379.091	24215
379.173	11906
379.255	10141
379.337	19353
379.419	56059
379.501	150262
379.583	63388
379.664	22430
379.746	50192
379.828	121514
379.910	150972
379.991	123014
380.073	25534
380.155	21061
380.237	15306
380.318	11070
380.400	12871
380.482	32448
380.564	53992
380.645	56079
380.727	51170
380.809	28027
380.890	20839
380.972	16692
381.053	14114
381.135	17934
381.217	41818
381.298	126145
381.380	65338
381.461	53645
381.543	184567
381.624	218254
381.706	49515
381.787	35130
381.869	34713
381.951	82565
382.032	291999
382.113	200270
382.195	63331
382.276	40758
382.358	76099
382.439	171438
382.521	177375
382.602	269511
382.684	136233
382.765	262926
382.846	323750
382.928	506161
383.009	278299
383.090	180303
383.172	586843
383.253	845081
383.334	319507
383.416	281378
383.497	147309
383.578	87607
383.659	163260
383.741	493236
383.822	1084768
383.903	594907
383.984	233379
384.066	340661
384.147	213916
384.228	55467
384.309	46784
384.390	36204
384.471	25884
384.553	30895
384.634	45992
384.715	45842
384.796	22256
384.877	27065
384.958	101061
385.039	127534
385.120	51717
385.201	24929
385.282	41225
385.363	45278
385.444	32625
385.525	46907
385.606	131944
385.687	105249
385.768	40346
385.849	53935
385.930	146054
386.011	229298
386.092	69492
386.173	24540
386.254	22334
386.335	24841
386.416	23939
386.496	74948
386.577	123558
386.658	60381
386.739	40604
386.820	41216
386.901	34945
386.981	27358
387.062	15820
387.143	29195
387.224	110327
387.304	108268
387.385	47925
387.466	37866
387.547	48478
387.627	27643
387.708	42694
387.789	174856
387.869	203624
387.950	54628
388.031	15077
388.111	20091
388.192	68170
388.273	107986
388.353	57504
388.434	23510
388.514	37539
388.595	142554
388.676	195847
388.756	111216
388.837	120569
388.917	73584
388.998	19474
389.078	17272
389.159	14311
389.239	14743
389.320	27731
389.400	25004
389.480	47651
389.561	116576
389.641	52982
389.722	25814
389.802	47390
389.883	52297
389.963	121735
390.043	98591
390.124	48258
390.204	48134
390.284	133962
390.365	86060
390.445	105638
390.525	196689
390.605	150656
390.686	68057
390.766	26629
390.846	13869
390.927	10860
391.007	14355
391.087	18732
391.167	20747
391.247	16107
391.328	38391
391.408	57201
391.488	37209
391.568	11519
391.648	20543
391.728	28878
391.808	27797
391.888	31228
391.969	60461
392.049	101558
392.129	53728
392.209	51227
392.289	111661
392.369	66561
392.449	84753
392.529	50507
392.609	36037
392.689	37838
392.769	108422
392.849	92084
392.929	77077
393.009	178907
393.089	116967
393.169	85391
393.248	247308
393.328	802565
393.408	841144
393.488	259914
393.568	83808
393.648	42306
393.728	28071
393.807	20214
393.887	17326
393.967	14605
394.047	17981
394.127	20698
394.206	24178
394.286	54173
394.366	253596
394.446	267860
394.525	54967
394.605	17690
394.685	29853
394.764	100262
394.844	169303
394.924	108303
395.003	30943
395.083	21565
395.163	17541
395.242	16091
395.322	16805
395.402	9621
395.481	16385
395.561	58219
395.640	177472
395.720	119941
395.799	160439
395.879	114141
395.958	29953
396.038	69137
396.117	325200
396.197	357583
396.276	127794
396.356	68681
396.435	72741
396.515	41168
396.594	48287
396.673	84617
396.753	256417
396.832	742863
396.912	599486
396.991	176025
397.070	49526
397.150	29257
397.229	19096
397.308	23203
397.388	38133
397.467	19559
397.546	11754
397.625	10816
397.705	18340
397.784	22867
397.863	11621
397.942	7839
398.022	10809
398.101	49384
398.180	160144
398.259	95409
398.338	26860
398.417	18837
398.497	15387
398.576	15445
398.655	9737
398.734	7743
398.813	9603
398.892	43174
398.971	159989
399.050	79738
399.129	12302
399.208	6758
399.287	8245
399.366	6758
399.445	8733
399.524	9380
399.603	9609
399.682	23002
399.761	57970
399.840	165694
399.919	125995
399.998	21143
400.077	7738
400.156	7628
400.235	13876
400.313	11168
400.392	17336
400.471	65483
400.550	106316
400.629	31704
400.708	16930
400.786	20512
400.865	56534
400.944	63706
401.023	26523
401.102	6009
401.180	6455
401.259	10490
401.338	16621
401.416	19824
401.495	19266
401.574	15074
401.652	13283
401.731	20302
401.810	22482
401.888	9726
401.967	5759
402.046	9361
402.124	17574
402.203	27678
402.281	14386
402.360	20129
402.438	67737
402.517	51127
402.596	18880
402.674	20247
402.753	11365
402.831	8132
402.910	11199
402.988	46564
403.066	148050
403.145	80244
403.223	46730
403.302	120060
403.380	89227
403.459	96131
403.537	41814
403.615	19694
403.694	5965
403.772	4484
403.850	5168
403.929	4472
404.007	8057
404.085	23190
404.164	27995
404.242	9058
404.320	8373
404.398	16347
404.477	49046
404.555	219479
404.633	186964
404.711	29664
404.789	10448
404.868	12002
404.946	8310
405.024	3749
405.102	4571
405.180	3730
405.258	4926
405.336	7432
405.415	8672
405.493	27341
405.571	25050
405.649	7022
405.727	8553
405.805	15957
405.883	16097
405.961	17192
406.039	26431
406.117	10571
406.195	15514
406.273	58445
406.351	205785
406.429	126549
406.507	34523
406.585	13617
406.663	12190
406.740	17738
406.818	16723
406.896	8193
406.974	9231
407.052	20804
407.130	124100
407.208	169036
407.285	33862
407.363	8459
407.441	9458
407.519	7374
407.596	10037
407.674	19928
407.752	30636
407.830	57633
407.907	42428
407.985	15343
408.063	7298
408.141	6082
408.218	19862
408.296	23255
408.373	14563
408.451	13258
408.529	12834
408.606	5156
408.684	3495
408.762	2736
408.839	1693
408.917	2834
408.994	3694
409.072	4952
409.149	4688
409.227	10381
409.304	13260
409.382	6925
409.459	7594
409.537	12755
409.614	12490
409.692	7002
409.769	7895
409.846	14969
409.924	21065
410.001	17118
410.079	10323
410.156	7455
410.233	6633
410.311	4420
410.388	5667
410.465	9463
410.543	12045
410.620	5954
410.697	9224
410.775	11990
410.852	5038
410.929	11600
411.006	17428
411.083	9598
411.161	28649
411.238	32328
411.315	18965
411.392	6937
411.469	13738
411.547	16332
411.624	8487
411.701	6700
411.778	10800
411.855	27283
411.932	14021
412.009	7082
412.086	6980
412.163	10391
412.240	14653
412.317	18878
412.394	17689
412.471	5284
412.548	5176
412.625	7039
412.702	12716
412.779	26989
412.856	15179
412.933	4879
413.010	4695
413.087	11603
413.164	66788
413.241	93616
413.318	24218
413.395	15515
413.471	25386
413.548	10171
413.625	6821
413.702	14681
413.779	10843
413.855	2613
413.932	3513
414.009	3647
414.086	3942
414.162	4492
414.239	13202
414.316	62483
414.393	134382
414.469	44990
414.546	6148
414.623	4950
414.699	5950
414.776	9007
414.853	6637
414.929	7086
415.006	8615
415.082	13094
415.159	9788
415.236	5554
415.312	6788
415.389	18206
415.465	27966
415.542	12319
415.618	8948
415.695	15945
415.771	11641
415.848	10560
415.924	10515
416.000	8968
416.077	5304
416.153	3345
416.230	975
416.306	3619
416.383	5852
416.459	4072
416.535	2821
416.612	3433
416.688	4332
416.764	4796
416.841	5654
416.917	6312
416.993	6046
417.069	9337
417.146	13194
417.222	12910
417.298	9448
417.374	6466
417.451	7718
417.527	11197
417.603	13504
417.679	9404
417.755	7580
417.831	3979
417.908	3675
417.984	3700
418.060	4273
418.136	20500
418.212	29836
418.288	10264
418.364	5698
418.440	6850
418.516	13905
418.592	24235
418.668	41276
418.744	55802
418.820	39714
418.896	10819
418.972	4543
419.048	6275
419.124	23754
419.200	17524
419.276	4998
419.352	1027
419.428	2899
419.504	7278
419.579	10331
419.655	7029
419.731	7616
419.807	33804
419.883	62006
419.959	37956
420.034	11030
420.110	20797
420.186	81673
420.262	61770
420.337	14706
420.413	11814
420.489	4837
420.565	3962
420.640	4889
420.716	6064
420.792	3697
420.867	4964
420.943	5263
421.019	15346
421.094	12671
421.170	5275
421.245	3666
421.321	4115
421.397	5514
421.472	6024
421.548	13485
421.623	15673
421.699	9420
421.774	10004
421.850	8823
421.925	18827
422.001	15367
422.076	9032
422.152	11297
422.227	22213
422.302	20405
422.378	25490
422.453	47569
422.529	104388
422.604	284657
422.679	434372
422.755	313935
422.830	117921
422.905	45406
422.981	24701
423.056	16577
423.131	12411
423.207	11156
423.282	14076
423.357	33588
423.432	22038
423.508	21934
423.583	53374
423.658	36545
423.733	12956
423.808	17034
423.883	18053
423.959	14961
424.034	9518
424.109	6728
424.184	4432
424.259	4143
424.334	3816
424.409	3679
424.484	4249
424.559	7438
424.634	6195
424.709	11704
424.784	13452
424.859	8681
424.934	16394
425.009	67481
425.084	105567
425.159	38042
425.234	7607
425.309	5125
425.384	17393
425.459	30152
425.534	10387
425.609	9373
425.683	5891
425.758	4723
425.833	7052
425.908	11005
425.983	39887
426.058	114471
426.132	48865
426.207	13628
426.282	23449
426.357	23205
426.431	6619
426.506	6044
426.581	8981
426.655	7387
426.730	5043
426.805	5838
426.879	7067
426.954	7522
427.029	19268
427.103	89515
427.178	188565
427.253	80188
427.327	13968
427.402	22360
427.476	52326
427.551	23292
427.625	12069
427.700	11257
427.774	7187
427.849	10775
427.923	6255
427.998	5896
428.072	8518
428.147	20781
428.221	59895
428.296	129952
428.370	58596
428.444	16537
428.519	27871
428.593	58185
428.667	46311
428.742	58136
428.816	45208
428.890	107098
428.965	145586
429.039	65741
429.113	68515
429.188	24540
429.262	7308
429.336	16003
429.410	55530
429.485	36818
429.559	47353
429.633	36879
429.707	10374
429.781	26610
429.855	135912
429.930	194660
430.004	133548
430.078	202656
430.152	149560
430.226	140557
430.300	129167
430.374	23903
430.448	13504
430.522	55197
430.596	165161
430.670	90075
430.744	150900
430.818	223622
430.892	51652
430.966	12460
431.040	6725
431.114	3978
431.188	5557
431.262	6839
431.336	8033
431.410	24695
431.484	74336
431.557	42368
431.631	6461
431.705	5406
431.779	20797
431.853	94707
431.927	66988
432.000	10399
432.074	5960
432.148	12496
432.222	10717
432.295	4501
432.369	4806
432.443	12689
432.516	78306
432.590	180308
432.664	69588
432.737	11758
432.811	3994
432.885	2116
432.958	2794
433.032	2860
433.106	1958
433.179	1657
433.253	2225
433.326	2480
433.400	1844
433.473	2214
433.547	2331
433.620	4090
433.694	13868
433.767	16116
433.841	7035
433.914	3185
433.988	3113
434.061	3898
434.134	3554
434.208	1440
434.281	1664
434.355	2736
434.428	4239
434.501	3272
434.575	3775
434.648	6242
434.721	2613
434.795	1495
434.868	1912
434.941	1580
435.014	1826
435.088	3417
435.161	6754
435.234	14836
435.307	17811
435.381	8251
435.454	5992
435.527	7373
435.600	6414
435.673	5171
435.746	3002
435.819	3013
435.892	2667
435.966	2524
436.039	4160
436.112	4482
436.185	1680
436.258	1361
436.331	432
436.404	1358
436.477	1059
436.550	1983
436.623	1538
436.696	2591
436.769	4829
436.842	4726
436.915	5911
436.987	11889
437.060	4297
437.133	1982
437.206	2136
437.279	4463
437.352	2004
437.425	2423
437.498	4323
437.570	14824
437.643	13868
437.716	3575
437.789	2477
437.861	13345
437.934	38997
438.007	17308
438.080	2991
438.152	4715
438.225	12761
438.298	85732
438.370	225813
438.443	102568
438.516	34993
438.588	7982
438.661	3310
438.734	3887
438.806	7246
438.879	8052
438.951	11253
439.024	20341
439.096	7795
439.169	3534
439.241	2538
439.314	3684
439.386	12018
439.459	20777
439.531	32019
439.604	10597
439.676	3327
439.749	1622
439.821	1230
439.893	2195
439.966	4629
440.038	7539
440.110	8724
440.183	4557
440.255	2793
440.327	7484
440.400	44035
440.472	167802
440.544	104487
440.617	18295
440.689	13854
440.761	21947
440.833	32848
440.905	21107
440.978	3893
441.050	2245
441.122	2366
441.194	2749
441.266	2771
441.338	2631
441.411	9756
441.483	62674
441.555	91004
441.627	21997
441.699	18182
441.771	18982
441.843	5737
441.915	3354
441.987	2101
442.059	2915
442.131	6396
442.203	14332
442.275	15697
442.347	11636
442.419	10702
442.491	43963
442.563	116261
442.635	64901
442.706	65500
442.778	49312
442.850	8335
442.922	4199
442.994	8374
443.066	14905
443.137	10488
443.209	6259
443.281	8245
443.353	21484
443.425	64653
443.496	195804
443.568	192972
443.640	75884
443.711	19269
443.783	8439
443.855	6347
443.926	3776
443.998	7395
444.070	12496
444.141	9180
444.213	15147
444.285	19044
444.356	19655
444.428	17685
444.499	6133
444.571	2275
444.642	3112
444.714	5616
444.785	14265
444.857	20165
444.928	50588
445.000	26821
445.071	33995
445.143	39149
445.214	18371
445.285	28152
445.357	85099
445.428	146170
445.500	310761
445.571	219839
445.642	109311
445.714	65645
445.785	76052
445.856	23041
445.928	20195
445.999	17221
446.070	12849
446.141	13629
446.213	19847
446.284	10672
446.355	12532
446.426	8172
446.497	7844
446.569	17545
446.640	26318
446.711	17318
446.782	7146
446.853	15700
446.924	14068
446.995	9568
447.066	8855
447.138	21163
447.209	9579
447.280	1545
447.351	2443
447.422	2635
447.493	8606
447.564	10750
447.635	15870
447.706	6711
447.777	2998
447.847	1720
447.918	3667
447.989	10398
448.060	13926
448.131	34620
448.202	29952
448.273	20029
448.344	8341
448.414	4409
448.485	4250
448.556	3317
448.627	2399
448.698	1900
448.768	1979
448.839	5687
448.910	19414
448.981	15153
449.051	5843
449.122	3260
449.193	2815
449.263	2644
449.334	2580
449.405	5595
449.475	19792
449.546	14687
449.616	20906
449.687	14968
449.758	4390
449.828	2948
449.899	2643
449.969	2244
450.040	2977
450.110	7371
450.181	10770
450.251	3999
450.322	2868
450.392	4395
450.463	3678
450.533	2325
450.604	3204
450.674	2875
450.744	2644
450.815	2986
450.885	2852
450.955	2243
451.026	2226
451.096	3692
451.166	6201
451.237	20447
451.307	52765
451.377	16539
451.447	4355
451.518	2587
451.588	3335
451.658	3627
451.728	10500
451.799	52503
451.869	55335
451.939	11200
452.009	3473
452.079	3198
452.149	3901
452.219	13360
452.289	61497
452.360	40455
452.430	7383
452.500	7028
452.570	9570
452.640	11875
452.710	40114
452.780	60454
452.850	36795
452.920	36027
452.990	12146
453.060	6271
453.129	12260
453.199	15779
453.269	47457
453.339	100983
453.409	154562
453.479	164363
453.549	244446
453.619	277852
453.688	102105
453.758	15686
453.828	5483
453.898	5325
453.968	5729
454.037	4798
454.087	3922
454.107	3558
454.168	3126
454.177	3056
454.247	2788
454.249	2796
454.316	2907
454.330	3510
454.386	5817
454.411	15088
454.456	30554
454.492	36824
454.525	42530
454.574	20332
454.595	10707
454.655	5135
454.665	4278
454.734	6193
454.736	6452
454.804	15764
454.817	22873
454.873	51840
454.898	54729
454.943	59730
454.979	40852
455.013	23870
455.060	12285
455.082	7464
455.141	8955
455.152	8992
455.221	33651
455.222	34031
455.291	61576
455.303	54135
455.360	21157
455.384	18090
455.430	13347
455.465	16903
455.499	19665
455.546	39138
455.569	47756
455.627	31086
455.638	28194
455.707	6151
455.708	6149
455.777	3973
455.789	3984
455.846	4033
455.869	3629
455.916	2858
455.950	3759
455.985	4580
456.031	4944
456.054	5090
456.112	3012
456.124	2646
456.193	3589
456.193	3576
456.262	4597
456.274	5231
456.332	8082
456.355	9316
456.401	11328
456.436	8426
456.470	5587
456.516	3685
456.540	2836
456.597	2932
456.609	2918
456.678	2425
456.678	2413
456.747	2228
456.759	2155
456.817	1943
456.840	2299
456.886	2778
456.920	2831
456.955	3054
457.001	3230
457.024	3551
457.082	4812
457.093	4974
457.162	10247
457.163	10280
457.232	16260
457.243	14854
457.301	7109
457.324	5112
457.370	2446
457.405	2435
457.439	2237
457.485	2400
457.508	2636
457.566	4120
457.577	4409
457.646	4492
457.647	4514
457.715	7161
457.727	7804
457.784	10767
457.808	13645
457.853	18028
457.889	21159
457.922	21916
457.969	15432
457.991	15012
458.050	17704
458.060	17980
458.129	29162
458.130	29474
458.198	32449
458.211	29352
458.267	16817
458.292	12016
458.336	7011
458.372	6822
458.405	8631
458.453	11802
458.474	14719
458.533	28047
458.543	29295
458.611	51156
458.614	51383
458.680	36104
458.694	29335
458.749	13508
458.775	10168
458.818	6355
458.855	5783
458.887	5374
458.936	4517
458.955	4174
459.016	4758
459.024	4866
459.093	5333
459.097	5339
459.162	5804
459.177	6228
459.230	7458
459.257	7968
459.299	8666
459.338	8789
459.368	8944
459.418	10088
459.437	9652
459.499	6757
459.505	6670
459.574	5300
459.579	5286
459.643	4610
459.659	4374
459.711	4410
459.740	4666
459.780	5211
459.820	5592
459.849	5389
459.900	6158
459.917	6556
459.981	7214
459.986	7186
460.054	5747
460.061	5603
460.123	5204
460.141	5483
460.191	7017
460.222	7960
460.260	9102
460.302	11271
460.328	10804
460.382	7525
460.397	7290
460.462	5436
460.465	5383
460.534	5891
460.543	5971
460.602	10489
460.623	12445
460.671	17480
460.703	22494
460.739	22370
460.783	20205
460.808	18023
460.864	8036
460.876	7153
460.944	5474
460.945	5452
461.013	5850
461.024	5799
461.081	6365
461.104	7103
461.150	7408
461.184	6834
461.218	6497
461.264	5808
461.286	5758
461.345	6231
461.355	6145
461.423	6241
461.425	6207
461.491	5755
461.505	5975
461.559	11886
461.585	14685
461.628	23665
461.665	34176
461.696	38812
461.745	54034
461.764	52002
461.825	19832
461.832	18455
461.901	9022
461.905	8992
461.969	7924
461.985	7660
462.037	7425
462.065	6916
462.105	6664
462.145	7039
462.173	10598
462.225	17749
462.241	19529
462.305	31609
462.310	31242
462.378	23118
462.385	20793
462.446	9740
462.465	8316
462.514	7401
462.545	7592
462.582	7563
462.625	7358
462.650	7010
462.705	6280
462.718	6447
462.785	7232
462.786	7294
462.854	11272
462.865	12204
462.922	16547
462.945	18405
462.990	15917
463.025	11044
463.058	8356
463.104	5884
463.126	5665
463.184	6293
463.194	6456
463.262	7494
463.264	7542
463.330	7533
463.344	7432
463.398	8237
463.424	8608
463.466	8574
463.504	8883
463.533	9259
463.583	9294
463.601	9376
463.663	9674
463.669	9958
463.737	13721
463.743	14122
463.805	21232
463.823	23152
463.873	33763
463.903	41278
463.940	44615
463.982	51450
464.008	45227
464.062	20840
464.076	18627
464.142	8558
464.144	8410
464.211	7361
464.221	7381
464.279	7840
464.301	8019
464.347	8750
464.381	9335
464.414	10641
464.461	12439
464.482	13228
464.540	16143
464.550	15957
464.617	12805
464.620	12690
464.685	11538
464.699	11416
464.753	11616
464.779	11698
464.820	11600
464.859	11159
464.888	11063
464.938	11224
464.956	11694
465.018	13867
465.023	13679
465.091	10440
465.098	10043
465.158	9909
465.177	10050
465.226	10636
465.257	10908
465.293	10339
465.336	9753
465.361	11127
465.416	14090
465.428	15202
465.495	21768
465.496	21889
465.563	36389
465.575	39082
465.631	48206
465.654	52806
465.698	35151
465.734	16854
465.765	12977
465.813	8261
465.833	7801
465.893	7945
465.900	7915
465.968	7706
465.972	7680
466.035	7581
466.052	7527
466.102	7833
466.131	8058
466.170	7977
466.210	7795
466.237	8126
466.290	8844
466.304	8834
466.369	8510
466.372	8554
466.439	9682
466.449	9812
466.506	11349
466.528	11931
466.573	17597
466.607	21834
466.641	35215
466.687	53888
466.708	60249
466.766	78711
466.775	72733
466.842	26114
466.845	23852
466.909	14239
466.925	12256
466.977	11744
467.004	11600
467.044	11191
467.083	10775
467.111	11118
467.163	11738
467.178	11965
467.242	12830
467.245	12863
467.312	13206
467.321	13236
467.379	12994
467.400	12872
467.446	15169
467.480	16793
467.559	14655
467.638	11618
467.717	11908
467.796	16010
467.875	18389
467.955	15899
468.034	23640
468.113	61873
468.192	92054
468.271	24437
468.350	13096
468.429	14825
468.508	16492
468.588	13322
468.667	12653
468.746	12514
468.825	12088
468.904	11538
468.983	14475
469.062	24201
469.141	31588
469.220	13396
469.299	11200
469.378	10817
469.456	11520
469.535	11539
469.614	11544
469.693	12957
469.772	18895
469.851	27050
469.930	19332
470.009	13215
470.088	13946
470.166	19439
470.245	33628
470.324	43030
470.403	24901
470.482	15460
470.560	13095
470.639	14995
470.718	18928
470.797	13265
470.875	16293
470.954	23069
471.033	25676
471.111	10309
471.190	8259
471.269	9645
471.347	8940
471.426	11139
471.505	12047
471.583	12380
471.662	10088
471.740	10242
471.819	9489
471.898	10975
471.976	10210
472.055	10336
472.133	12111
472.212	17248
472.290	18722
472.369	10550
472.447	9895
472.526	9444
472.604	10743
472.683	11979
472.761	14072
472.839	12422
472.918	10405
472.996	11573
473.075	14402
473.153	13456
473.231	10743
473.310	13976
473.388	14094
473.466	11553
473.545	13500
473.623	20509
473.701	20879
473.780	11531
473.858	9881
473.936	13504
474.014	11069
474.093	13831
474.171	18738
474.249	28430
474.327	19690
474.405	10236
474.484	10697
474.562	10255
474.640	10321
474.718	11593
474.796	10217
474.874	9567
474.952	8405
475.030	9224
475.108	9519
475.187	10126
475.265	13257
475.343	25381
475.421	30017
475.499	11765
475.577	11355
475.655	16447
475.733	33817
475.811	59942
475.889	55673
475.966	39199
476.044	12826
476.122	20302
476.200	26760
476.278	21465
476.356	12172
476.434	14268
476.512	18695
476.590	27116
476.667	22181
476.745	12465
476.823	13491
476.901	12167
476.979	12726
477.056	11486
477.134	12230
477.212	12490
477.290	12613
477.367	10450
477.445	10739
477.523	11323
477.601	11999
477.678	11522
477.756	14965
477.834	16759
477.911	12312
477.989	12537
478.066	12021
478.144	14536
478.222	19605
478.299	35864
478.377	32328
478.454	11446
478.532	11438
478.609	13016
478.687	13552
478.764	10311
478.842	12076
478.919	14728
478.997	14184
479.074	10752
479.152	13626
479.229	18404
479.307	13446
479.384	10625
479.461	9219
479.539	11676
479.616	14121
479.694	11888
479.771	12941
479.848	13332
479.926	18877
480.003	21841
480.080	11063
480.157	10763
480.235	10745
480.312	10850
480.389	13181
480.467	22295
480.544	28775
480.621	15210
480.698	14414
480.775	17182
480.853	16703
480.930	12668
481.007	13315
481.084	13927
481.161	15202
481.238	14768
481.315	12047
481.392	10597
481.470	11156
481.547	11935
481.624	12378
481.701	11830
481.778	12368
481.855	13864
481.932	21557
482.009	36335
482.086	27071
482.163	14998
482.240	23556
482.317	46969
482.393	35532
482.470	13629
482.547	13314
482.624	12142
482.701	14100
482.778	13262
482.855	11459
482.932	11385
483.009	10003
483.085	12891
483.162	15093
483.239	14814
483.316	11916
483.393	13512
483.469	11586
483.546	13470
483.623	15188
483.699	12221
483.776	12108
483.853	14611
483.930	18518
484.006	51194
484.083	87809
484.160	32879
484.236	24498
484.313	22336
484.389	18476
484.466	17470
484.543	16494
484.619	16623
484.696	19666
484.772	20938
484.849	23811
484.925	17953
485.002	16660
485.078	19541
485.155	21585
485.231	17490
485.308	16275
485.384	17121
485.461	22495
485.537	46121
485.614	59738
485.690	20154
485.766	16713
485.843	19617
485.919	33239
485.995	38409
486.072	16608
486.148	15162
486.224	15055
486.301	17073
486.377	22919
486.453	23610
486.530	18965
486.606	19823
486.682	21623
486.758	34772
486.835	46647
486.911	34312
486.987	62381
487.063	79590
487.139	104368
487.215	67260
487.292	25668
487.368	18089
487.444	21637
487.520	30343
487.596	27268
487.672	34118
487.748	96316
487.824	148045
487.900	46193
487.976	21399
488.052	24444
488.128	33845
488.204	26409
488.280	19718
488.356	22500
488.432	55173
488.508	93211
488.584	32217
488.660	19820
488.736	19151
488.812	20051
488.888	26439
488.964	36301
489.039	98735
489.115	164178
489.191	93183
489.267	19900
489.343	18407
489.418	15160
489.494	12905
489.570	12488
489.646	14835
489.722	14026
489.797	15538
489.873	26369
489.949	66698
490.024	59732
490.100	17062
490.176	13738
490.251	23241
490.327	32368
490.403	17950
490.478	13909
490.554	12405
490.629	12589
490.705	12508
490.781	14810
490.856	14692
490.932	17248
491.007	19707
491.083	16838
491.158	14907
491.234	20388
491.309	50331
491.385	56744
491.460	17356
491.536	18163
491.611	16318
491.686	20613
491.762	28333
491.837	67087
491.913	112029
491.988	154513
492.063	208506
492.139	53537
492.214	29025
492.289	14182
492.365	13811
492.440	16540
492.515	18355
492.590	16575
492.666	13751
492.741	19417
492.816	30921
492.891	17128
492.967	11939
493.042	10438
493.117	11120
493.192	11439
493.267	14662
493.342	19904
493.418	22326
493.493	12262
493.568	11454
493.643	12157
493.718	16643
493.793	29409
493.868	34880
493.943	22457
494.018	14340
494.093	13222
494.168	13893
494.243	12085
494.318	11451
494.393	11743
494.468	11204
494.543	12004
494.618	15598
494.693	13806
494.768	12404
494.842	12935
494.917	11472
494.992	13211
495.067	11445
495.142	11257
495.217	13172
495.292	14484
495.366	17281
495.441	23662
495.516	31407
495.591	38847
495.665	140337
495.740	357557
495.815	154146
495.890	24520
495.964	18293
496.039	19105
496.114	17103
496.188	18436
496.263	19391
496.338	17841
496.412	19220
496.487	23282
496.561	25906
496.636	26542
496.710	18834
496.785	21114
496.860	23995
496.934	18876
497.009	20308
497.083	16929
497.158	17597
497.232	21855
497.307	28037
497.381	21459
497.455	25825
497.530	33930
497.604	22356
497.679	23082
497.753	36517
497.827	45916
497.902	38680
497.976	41761
498.050	96068
498.125	411232
498.199	466963
498.273	71707
498.348	44136
498.422	34163
498.496	34371
498.570	33637
498.645	22568
498.719	22407
498.793	30881
498.867	48878
498.941	63442
499.016	161515
499.090	479858
499.164	195288
499.238	24147
499.312	21232
499.386	28501
499.460	26859
499.534	24778
499.609	29391
499.683	43560
499.757	40663
499.831	71544
499.905	307962
499.979	325086
500.053	56655
500.127	53974
500.201	41640
500.275	28003
500.349	25955
500.422	28532
500.496	44091
500.570	87295
500.644	186891
500.718	352632
500.792	94409
500.866	23036
500.940	29345
501.013	27493
501.087	26237
501.161	48714
501.235	60753
501.309	103851
501.382	300322
501.456	294057
501.530	66795
501.603	105785
501.677	49000
501.751	18692
501.825	23833
501.898	40264
501.972	123416
502.046	89802
502.119	25507
502.193	53820
502.266	137566
502.340	74289
502.413	55765
502.487	120691
502.561	73526
502.634	25284
502.708	20194
502.781	18273
502.855	15437
502.928	13330
503.002	14271
503.075	13340
503.149	15283
503.222	14895
503.295	16762
503.369	21409
503.442	26081
503.516	82354
503.589	231119
503.662	161491
503.736	48334
503.809	105094
503.882	91827
503.956	121242
504.029	125596
504.102	75751
504.175	95018
504.249	31965
504.322	20698
504.395	19751
504.468	15080
504.542	14798
504.615	12395
504.688	11783
504.761	10850
504.834	17056
504.907	21125
504.980	35940
505.053	19219
505.127	21824
505.200	28099
505.273	22052
505.346	15385
505.419	12237
505.492	11159
505.565	9892
505.638	9841
505.711	10044
505.784	10167
505.857	9543
505.930	12768
506.003	11711
506.076	13744
506.149	16698
506.221	21559
506.294	19425
506.367	43411
506.440	164755
506.513	102991
506.586	23156
506.659	14490
506.731	12887
506.804	14928
506.877	25045
506.950	16558
507.022	11588
507.095	13762
507.168	21759
507.241	13669
507.313	10201
507.386	11830
507.459	21142
507.531	14417
507.604	11514
507.677	11108
507.749	8702
507.822	13383
507.894	22969
507.967	23538
508.040	10956
508.112	10935
508.185	12339
508.257	12080
508.330	21776
508.402	12489
508.475	10941
508.547	12522
508.620	12468
508.692	21150
508.765	14183
508.837	9060
508.909	8705
508.982	9094
509.054	13153
509.127	9369
509.199	9088
509.271	8005
509.344	8345
509.416	8346
509.488	9569
509.560	10167
509.633	10143
509.705	14117
509.777	12015
509.849	19541
509.922	13793
509.994	8685
510.066	10241
510.138	6969
510.210	13057
510.283	11748
510.355	12235
510.427	11021
510.499	10443
510.571	10154
510.643	10497
510.715	22565
510.787	20936
510.859	13199
510.931	15038
511.003	22897
511.076	21506
511.148	10071
511.219	9205
511.291	17683
511.363	24330
511.435	10317
511.507	7704
511.579	9377
511.651	9420
511.723	8633
511.795	9102
511.867	9428
511.939	12330
512.010	28323
512.082	25913
512.154	11294
512.226	10934
512.298	13141
512.369	20934
512.441	15845
512.513	18221
512.585	13138
512.656	13323
512.728	15890
512.800	11546
512.871	10996
512.943	10931
513.015	8039
513.086	10545
513.158	13440
513.230	11911
513.301	22176
513.373	30665
513.444	13843
513.516	10661
513.588	10354
513.659	13709
513.731	19381
513.802	16269
513.874	34607
513.945	72904
514.016	23124
514.088	11592
514.159	12857
514.231	18848
514.302	19926
514.374	13262
514.445	12792
514.516	32137
514.588	25496
514.659	14205
514.730	30108
514.802	24874
514.873	12216
514.944	13411
515.016	12789
515.087	17687
515.158	21270
515.229	32194
515.301	11039
515.372	12679
515.443	9285
515.514	9021
515.585	7932
515.656	10959
515.728	9902
515.799	9920
515.870	11615
515.941	12673
516.012	11567
516.083	14541
516.154	17567
516.225	31503
516.296	29426
516.367	24818
516.438	30292
516.509	42501
516.580	58306
516.651	176843
516.722	711336
516.793	346339
516.864	63581
516.935	58473
517.006	63814
517.077	86016
517.148	182904
517.219	657782
517.289	1117487
517.360	300536
517.431	96935
517.502	29291
517.573	25726
517.643	23726
517.714	24069
517.785	27354
517.856	29344
517.926	36779
517.997	47142
518.068	59663
518.138	78925
518.209	112597
518.280	385332
518.350	1424824
518.421	665889
518.492	80977
518.562	39850
518.633	34961
518.703	29126
518.774	41732
518.845	92955
518.915	103224
518.986	38520
519.056	34115
519.127	59701
519.197	87625
519.268	187757
519.338	132304
519.408	33489
519.479	42404
519.549	32167
519.620	20603
519.690	14157
519.760	14449
519.831	17180
519.901	18010
519.971	14859
520.042	15839
520.112	18732
520.182	22840
520.253	26800
520.323	18782
520.393	28091
520.463	49066
520.534	31171
520.604	73162
520.674	31464
520.744	29243
520.814	78469
520.885	68343
520.955	51605
521.025	205395
521.095	96340
521.165	18590
521.235	15534
521.305	14540
521.375	13180
521.445	15397
521.515	21317
521.585	25693
521.655	25489
521.725	20097
521.795	16688
521.865	11254
521.935	20542
522.005	20168
522.075	12632
522.145	13767
522.215	15229
522.285	23924
522.355	29910
522.424	60455
522.494	54897
522.564	29222
522.634	52986
522.704	171197
522.774	74018
522.843	18038
522.913	15459
522.983	21983
523.053	17008
523.122	16693
523.192	22935
523.262	88574
523.331	94456
523.401	19619
523.471	11620
523.540	12958
523.610	9299
523.680	11171
523.749	10538
523.819	14578
523.888	15422
523.958	10890
524.027	12098
524.097	14872
524.166	12798
524.236	14366
524.305	15689
524.375	12260
524.444	11147
524.514	12851
524.583	11513
524.653	15480
524.722	19195
524.791	12774
524.861	13494
524.930	10708
524.999	12713
525.069	19868
525.138	14865
525.207	18081
525.277	14255
525.346	14239
525.415	12432
525.484	12680
525.554	16481
525.623	16020
525.692	12979
525.761	14712
525.830	16498
525.900	17612
525.969	24870
526.038	34898
526.107	54324
526.176	165613
526.245	148207
526.314	58189
526.383	94213
526.452	124857
526.522	191404
526.591	232328
526.660	100452
526.729	51680
526.797	47454
526.867	89278
526.935	410038
527.004	578149
527.073	309567
527.142	36758
527.211	19316
527.280	19847
527.349	22145
527.418	10633
527.487	13219
527.555	11338
527.624	10971
527.693	9555
527.762	11230
527.831	10627
527.899	10651
527.968	11246
528.037	11042
528.106	15939
528.174	29066
528.243	22898
528.312	31093
528.380	45816
528.449	15609
528.518	11849
528.586	8676
528.655	9322
528.723	8996
528.792	8704
528.861	10692
528.929	9151
528.998	10777
529.066	8221
529.135	9353
529.203	8504
529.272	8901
529.340	10452
529.409	11729
529.477	9042
529.545	13340
529.614	17378
529.682	15325
529.751	20168
529.819	20487
529.887	14988
529.956	10052
530.024	11550
530.092	9629
530.161	12831
530.229	22372
530.297	12552
530.365	10823
530.434	9481
530.502	7636
530.570	10281
530.638	7749
530.707	10835
530.775	13013
530.843	10053
530.911	9260
530.979	9087
531.047	8863
531.115	10485
531.183	9574
531.252	10092
531.320	10326
531.388	9305
531.456	10975
531.524	8309
531.592	10372
531.660	13861
531.728	9899
531.796	8825
531.864	10691
531.932	11069
532.000	10897
532.067	11710
532.135	12565
532.203	14713
532.271	15637
532.339	24664
532.407	73980
532.475	48008
532.542	22015
532.610	22395
532.678	28016
532.746	107781
532.814	324136
532.881	94511
532.949	19038
533.017	13945
533.084	11766
533.152	10986
533.220	11263
533.287	14279
533.355	11169
533.423	11494
533.490	9757
533.558	10949
533.625	10693
533.693	12866
533.761	11706
533.828	12895
533.896	12564
533.963	23579
534.031	30474
534.098	46081
534.166	22975
534.233	11682
534.300	12092
534.368	11605
534.435	11560
534.503	11495
534.570	15980
534.637	12920
534.705	13637
534.772	15623
534.840	21406
534.907	73997
534.974	107107
535.041	21016
535.109	16194
535.176	11633
535.243	11376
535.310	12058
535.378	11477
535.445	10989
535.512	10264
535.579	10499
535.646	10141
535.714	10904
535.781	12272
535.848	11594
535.915	12471
535.982	11409
536.049	11304
536.116	14154
536.183	11283
536.250	12773
536.317	13075
536.384	16596
536.451	23445
536.518	26294
536.585	17228
536.652	21100
536.719	32309
536.786	28322
536.853	19867
536.920	28865
536.987	46693
537.053	43624
537.120	153965
537.187	152748
537.254	20834
537.321	14345
537.388	14628
537.454	11733
537.521	11431
537.588	11843
537.654	12503
537.721	13399
537.788	14610
537.855	12151
537.921	12565
537.988	12733
538.055	12793
538.121	12983
538.188	14516
538.254	19858
538.321	46808
538.388	31604
538.454	15116
538.521	12507
538.587	11647
538.654	11231
538.720	12199
538.787	12384
538.853	13665
538.920	17701
538.986	17451
539.053	15653
539.119	16019
539.185	15478
539.252	17646
539.318	28750
539.385	20337
539.451	16469
539.517	17203
539.583	19874
539.650	42462
539.716	129725
539.782	42602
539.849	15180
539.915	16349
539.981	15503
540.047	19484
540.114	17913
540.180	17475
540.246	17609
540.312	23347
540.378	44982
540.444	51488
540.510	45174
540.576	141849
540.643	52715
540.709	16994
540.775	16087
540.841	14756
540.907	19841
540.973	30338
541.039	26449
541.105	29214
541.171	16904
541.237	13411
541.303	16096
541.369	18469
541.435	20795
541.500	42317
541.566	29332
541.632	14541
541.698	12463
541.764	13159
541.830	12947
541.896	12152
541.961	14511
542.027	14076
542.093	13565
542.159	14793
542.224	15600
542.290	21256
542.356	37731
542.421	52616
542.487	22737
542.553	15792
542.618	16872
542.684	16917
542.750	17344
542.815	19628
542.881	29688
542.947	117460
543.012	100217
543.078	17757
543.143	14698
543.209	16346
543.274	17044
543.340	18832
543.405	42846
543.471	78732
543.536	22025
543.602	14305
543.667	12442
543.732	13906
543.798	12504
543.863	13261
543.928	11971
543.994	12110
544.059	13538
544.124	13485
544.190	13404
544.255	14865
544.320	14119
544.386	15179
544.451	22745
544.516	27364
544.581	24702
544.646	68428
544.712	125185
544.777	27607
544.842	19886
544.907	19619
544.972	18313
545.037	17126
545.102	19110
545.168	20444
545.233	20667
545.298	21778
545.363	22571
545.428	26085
545.493	43687
545.558	105373
545.623	48426
545.688	20716
545.753	19518
545.818	18582
545.883	19466
545.947	18362
546.012	21821
546.077	22046
546.142	21061
546.207	20952
546.272	27096
546.337	29281
546.401	22092
546.466	20747
546.531	19899
546.596	23086
546.661	22227
546.725	21919
546.790	21819
546.855	22539
546.919	22969
546.984	25551
547.049	27957
547.113	31988
547.178	30487
547.243	33141
547.307	37638
547.372	43759
547.436	45487
547.501	40767
547.565	42423
547.630	45880
547.695	45638
547.759	46111
547.823	43172
547.888	39666
547.952	39162
548.017	40737
548.081	44356
548.146	52727
548.210	48345
548.274	44217
548.339	43356
548.403	40189
548.468	39098
548.532	37404
548.596	38902
548.660	39197
548.725	43952
548.789	48655
548.853	50198
548.917	43560
548.982	49216
549.046	49402
549.110	36027
549.174	36451
549.238	38836
549.303	41741
549.367	44371
549.431	42676
549.495	40832
549.559	39424
549.623	45570
549.687	51490
549.751	62623
549.815	59263
549.879	57521
549.943	53145
550.007	57713
550.071	57310
550.135	61420
550.199	54040
550.263	50525
550.327	49057
550.391	57659
550.455	53605
550.519	53959
550.582	58300
550.646	71996
550.710	76513
550.774	63890
550.838	63689
550.901	64677
550.965	68658
551.029	70114
551.093	76365
551.156	83775
551.220	113836
551.284	138101
551.347	89903
551.411	109850
551.475	125842
551.538	70955
551.602	62956
551.666	60305
551.729	56014
551.793	54485
551.856	53653
551.920	53368
551.983	53436
552.047	54117
552.110	52035
552.174	53432
552.237	54650
552.301	52706
552.364	50575
552.428	50155
552.491	50213
552.554	53303
552.618	53851
552.681	56946
552.745	57859
552.808	82318
552.871	109666
552.934	69774
552.998	55723
553.061	54735
553.124	50238
553.187	48603
553.251	50509
553.314	52590
553.377	49792
553.440	51552
553.503	56280
553.567	58106
553.630	52146
553.693	53309
553.756	54312
553.819	51929
553.882	50474
553.945	50686
554.008	50133
554.071	49379
554.134	51123
554.197	48421
554.260	47887
554.323	49439
554.386	50548
554.449	51091
554.512	51003
554.575	48466
554.638	50277
554.701	49456
554.764	47826
554.827	46327
554.889	43851
554.952	41020
555.015	40821
555.078	41899
555.141	42811
555.203	42005
555.266	42590
555.329	44012
555.391	41733
555.454	41853
555.517	41722
555.580	38362
555.642	36987
555.705	36936
555.768	35540
555.830	36808
555.893	34211
555.955	34392
556.018	34479
556.080	34955
556.143	34031
556.206	35634
556.268	36152
556.330	36168
556.393	35435
556.455	34078
556.518	41624
556.580	44984
556.643	31158
556.705	30707
556.767	29917
556.830	32483
556.892	33189
556.955	46919
557.017	38507
557.079	30326
557.142	29433
557.204	31947
557.266	53920
557.328	49724
557.391	29074
557.453	26844
557.515	26424
557.577	32389
557.639	32720
557.701	26283
557.764	25632
557.826	27016
557.888	28511
557.950	29195
558.012	28759
558.074	33151
558.136	56096
558.198	135147
558.260	63875
558.322	32574
558.384	33275
558.446	36981
558.508	41047
558.570	49616
558.632	72449
558.694	105825
558.756	87736
558.818	218800
558.880	595485
558.942	209603
559.003	144697
559.065	84225
559.127	39434
559.189	39120
559.251	43099
559.312	52167
559.374	106510
559.436	375830
559.498	212368
559.559	44974
559.621	39923
559.683	42840
559.744	63903
559.806	177424
559.868	288572
559.929	69309
559.991	41711
560.052	52356
560.114	131257
560.176	95559
560.237	76743
560.299	135101
560.360	43504
560.422	25848
560.483	25128
560.545	23989
560.606	22847
560.667	22261
560.729	22503
560.790	21751
560.852	21078
560.913	20202
560.974	21688
561.036	21642
561.097	21242
561.158	22065
561.220	22687
561.281	22718
561.342	23678
561.403	27056
561.465	31187
561.526	67380
561.587	94240
561.648	30510
561.709	22006
561.771	22027
561.832	21744
561.893	20513
561.954	21624
562.015	21631
562.076	21307
562.137	21672
562.198	21440
562.259	21377
562.320	22172
562.381	24084
562.442	33387
562.503	28869
562.564	21232
562.625	20960
562.686	20306
562.747	23515
562.808	22500
562.869	21338
562.930	25563
562.991	26031
563.051	23517
563.112	22593
563.173	21719
563.234	21111
563.294	20104
563.355	20675
563.416	21623
563.477	20906
563.537	21456
563.598	22494
563.659	22127
563.720	22362
563.780	22051
563.841	23525
563.901	21017
563.962	21721
564.023	21088
564.083	21821
564.144	22457
564.204	22918
564.265	22607
564.325	24345
564.386	40176
564.446	39954
564.507	21485
564.567	19930
564.628	21266
564.688	20272
564.749	20765
564.809	22120
564.869	27104
564.930	21709
564.990	20166
565.050	19358
565.111	19824
565.171	19686
565.231	19116
565.292	18978
565.352	18396
565.412	20336
565.472	20111
565.532	22184
565.593	20447
565.653	19426
565.713	20719
565.773	21111
565.833	24663
565.893	31924
565.953	21641
566.013	19281
566.074	21244
566.134	26244
566.194	39179
566.254	41540
566.314	28613
566.374	20580
566.434	20698
566.494	20160
566.554	20127
566.614	18964
566.673	20177
566.733	20696
566.793	21656
566.853	21540
566.913	20296
566.973	21657
567.033	22358
567.092	24102
567.152	22220
567.212	22261
567.272	21573
567.331	22904
567.391	21223
567.451	23195
567.511	27985
567.570	30598
567.630	20322
567.690	20255
567.749	19521
567.809	20373
567.868	21676
567.928	21588
567.988	22262
568.047	21383
568.107	20981
568.166	21659
568.226	25241
568.285	30553
568.345	25871
568.404	23118
568.464	21420
568.523	21781
568.582	22684
568.642	24066
568.701	25209
568.761	28660
568.820	39398
568.879	35623
568.939	33880
568.998	25984
569.057	21244
569.116	20259
569.176	19420
569.235	19007
569.294	17876
569.353	18755
569.413	18140
569.472	19449
569.531	18503
569.590	18562
569.649	19233
569.708	18583
569.767	20042
569.827	25320
569.886	22951
569.945	18652
570.004	18381
570.063	20258
570.122	20491
570.181	21668
570.240	23325
570.299	24650
570.358	24648
570.417	20113
570.475	19103
570.534	20151
570.593	20326
570.652	21901
570.711	21906
570.770	20137
570.829	21759
570.887	21240
570.946	24039
571.005	19896
571.064	17955
571.122	22875
571.181	22949
571.240	19342
571.299	18606
571.357	19983
571.416	19680
571.475	22349
571.533	23786
571.592	18649
571.650	20469
571.709	18396
571.768	18832
571.826	18189
571.885	17678
571.943	17262
572.002	17954
572.060	18629
572.119	16489
572.177	16660
572.236	15671
572.294	16057
572.352	16360
572.411	16730
572.469	15920
572.528	17281
572.586	16910
572.644	18872
572.703	25119
572.761	19259
572.819	16640
572.877	16621
572.936	15027
572.994	16138
573.052	16292
573.110	17748
573.169	16917
573.227	15310
573.285	15968
573.343	15359
573.401	15738
573.459	15566
573.517	14577
573.576	16124
573.634	15887
573.692	17807
573.750	15614
573.808	15843
573.866	16713
573.924	21022
573.982	21457
574.040	16375
574.098	15379
574.155	15706
574.213	14513
574.271	14944
574.329	15462
574.387	15099
574.445	13618
574.503	13670
574.560	13773
574.618	14566
574.676	13119
574.734	14462
574.792	15037
574.849	13854
574.907	13690
574.965	13232
575.022	12875
575.080	13906
575.138	13421
575.195	14956
575.253	15261
575.311	15532
575.368	13952
575.426	13615
575.483	14101
575.541	14195
575.598	13243
575.656	14676
575.713	13979
575.771	13754
575.828	13437
575.886	13004
575.943	15262
576.001	15863
576.058	15370
576.115	16403
576.173	18335
576.230	22237
576.287	24108
576.345	19978
576.402	15166
576.459	15317
576.517	16430
576.574	19755
576.631	19473
576.688	15782
576.746	15080
576.803	16089
576.860	14565
576.917	13599
576.974	14913
577.031	14343
577.089	14530
577.146	16035
577.203	15403
577.260	16028
577.317	16501
577.374	19259
577.431	18345
577.488	15893
577.545	15416
577.602	14329
577.659	14200
577.716	13993
577.773	12645
577.830	12993
577.886	14407
577.943	12834
578.000	13766
578.057	15608
578.114	15254
578.171	14135
578.227	13013
578.284	13798
578.341	15104
578.398	14992
578.454	16627
578.511	18240
578.568	20749
578.625	17340
578.681	14914
578.738	13076
578.794	14160
578.851	14068
578.908	15044
578.964	16371
579.021	16257
579.077	15775
579.134	16031
579.190	15357
579.247	13488
579.303	13983
579.360	13569
579.416	13167
579.473	13440
579.529	13472
579.586	13572
579.642	13749
579.698	14530
579.755	15068
579.811	14056
579.867	14245
579.924	14013
579.980	12505
580.036	13799
580.093	14528
580.149	13775
580.205	14419
580.261	14716
580.317	15139
580.374	16185
580.430	19550
580.486	18140
580.542	15952
580.598	14547
580.619	14844
580.654	15356
580.692	14899
580.710	14669
580.765	15112
580.767	15123
580.823	15060
580.838	15012
580.879	14819
580.911	15021
580.935	15166
580.984	14017
580.991	13870
581.047	15493
581.057	15503
581.103	15489
581.130	15349
581.159	15203
581.203	15624
581.215	15721
581.270	16409
581.276	16326
581.326	15453
581.349	15646
581.382	15916
581.422	16539
581.438	16801
581.494	16296
581.494	16305
581.550	16401
581.567	16922
581.606	17867
581.640	17832
581.661	17809
581.713	17103
581.717	17043
581.773	16989
581.786	16951
581.829	16845
581.859	17280
581.885	17696
581.932	17162
581.940	17023
581.996	18378
582.004	18275
582.052	17563
582.077	17354
582.107	17231
582.150	17397
582.163	17425
582.219	18138
582.223	18206
582.274	19212
582.296	19467
582.330	19674
582.368	19855
582.386	19783
582.441	18943
582.441	18933
582.497	18486
582.514	18305
582.552	18161
582.587	18342
582.608	18391
582.659	18312
582.663	18310
582.719	18652
582.732	18730
582.774	19000
582.805	19149
582.830	19180
582.877	20196
582.885	20335
582.941	18929
582.950	18971
582.996	19328
583.023	19387
583.052	19560
583.095	20053
583.107	20227
583.162	21354
583.168	21402
583.218	21029
583.240	20806
583.273	20606
583.313	20833
583.328	21038
583.384	20824
583.385	20869
583.439	22101
583.458	22042
583.494	21410
583.531	20870
583.549	20915
583.603	21016
583.605	21009
583.660	21600
583.676	21621
583.715	22145
583.748	22943
583.770	23504
583.820	23829
583.825	23793
583.881	22706
583.893	22690
583.936	22852
583.965	23075
583.991	23254
584.038	22978
584.046	23087
584.101	24210
584.110	24318
584.156	23694
584.183	23703
584.211	23875
584.255	23803
584.266	23860
584.321	23003
584.328	23081
584.376	24348
584.400	24504
584.431	24341
584.472	23730
584.486	23631
584.541	24148
584.545	24191
584.596	25491
584.617	25807
584.651	27096
584.689	28274
584.706	28200
584.761	27821
584.762	27789
584.816	27697
584.834	27687
584.871	28135
584.906	28433
584.926	28526
584.978	29427
584.980	29524
585.035	30537
585.051	30967
585.090	31897
585.123	32900
585.145	33813
585.195	34509
585.200	34628
585.254	36575
585.267	37189
585.309	38802
585.340	39620
585.364	40747
585.412	43182
585.419	43659
585.473	47004
585.484	48010
585.528	55548
585.556	61665
585.583	76645
585.628	109947
585.637	123535
585.692	232970
585.700	252452
585.747	316434
585.772	283842
585.801	188358
585.845	77994
585.856	67396
585.910	49112
585.917	47085
585.965	44381
585.989	42736
586.019	41252
586.061	41090
586.074	41494
586.128	41862
586.133	41965
586.183	46178
586.205	47644
586.237	48332
586.277	48150
586.292	47684
586.346	45573
586.349	45416
586.401	45689
586.421	45771
586.455	50210
586.493	55565
586.509	64784
586.564	97215
586.565	97872
586.618	156169
586.637	171184
586.672	127807
586.709	77294
586.727	67926
586.781	49755
586.781	49846
586.835	46754
586.853	45768
586.889	44842
586.925	43435
586.944	43587
586.996	44781
586.998	44914
587.052	46762
587.068	46958
587.106	47191
587.140	46608
587.161	46706
587.212	47726
587.215	47942
587.269	50183
587.284	50544
587.323	50121
587.356	49484
587.377	49903
587.427	51143
587.431	51360
587.485	52039
587.499	52037
587.539	52471
587.571	52992
587.593	53617
587.643	54308
587.648	54693
587.702	58209
587.715	58759
587.755	60346
587.786	61405
587.810	60687
587.858	57840
587.864	58262
587.917	62195
587.930	62997
587.971	68916
588.001	72744
588.025	71559
588.073	67848
588.079	67833
588.133	66695
588.145	66414
588.187	69838
588.217	71680
588.241	74087
588.288	79044
588.295	80005
588.348	87112
588.360	88545
588.402	94221
588.431	97680
588.456	102557
588.503	112224
588.510	113841
588.564	126399
588.575	128880
588.617	142473
588.646	152495
588.671	167069
588.718	195458
588.725	204902
588.778	283491
588.789	302178
588.832	483012
588.861	619441
588.886	831321
588.932	1270142
588.939	1298780
588.993	1437100
589.004	1433234
589.047	975446
589.075	661776
589.100	507349
589.147	272252
589.154	262885
589.207	205562
589.218	194728
589.261	187553
589.290	184137
589.314	192097
589.361	210047
589.368	221127
589.421	317575
589.433	340889
589.475	587985
589.504	776697
589.528	957367
589.576	1307116
589.582	1273079
589.635	812326
589.647	707685
589.689	404757
589.718	219412
589.742	191122
589.790	144359
589.795	146144
589.849	162715
589.861	166813
589.902	185379
589.932	196659
589.955	166824
590.004	100626
590.009	99595
590.062	87682
590.075	84404
590.115	82292
590.146	80470
590.168	81218
590.218	82360
590.222	82920
590.275	86593
590.289	87184
590.328	87081
590.360	86377
590.381	84707
590.431	79701
590.435	80051
590.488	81680
590.503	81821
590.541	83242
590.574	84010
590.594	83327
590.645	80387
590.647	80613
590.700	79147
590.716	78420
590.753	78115
590.787	77288
590.806	77680
590.859	77731
590.859	78003
590.912	77597
590.930	77258
590.965	79032
591.001	80155
591.018	80130
591.071	79082
591.072	78789
591.124	79935
591.143	79988
591.177	82366
591.214	84539
591.230	85937
591.283	89154
591.285	88959
591.336	94779
591.356	96608
591.389	96241
591.427	94773
591.442	92992
591.495	85085
591.498	84195
591.547	83403
591.569	82569
591.600	83489
591.640	84007
591.653	84925
591.706	87401
591.711	87355
591.759	99068
591.782	104455
591.811	112045
591.853	122098
591.864	118035
591.917	94822
591.924	91098
591.969	89255
591.995	87712
592.022	91720
592.066	97388
592.075	101238
592.127	122558
592.137	126036
592.180	145170
592.208	156592
592.233	137862
592.279	100497
592.285	100034
592.338	92958
592.350	90997
592.390	89929
592.421	88502
592.443	89560
592.491	90769
592.495	91207
592.548	92309
592.562	92254
592.600	92369
592.633	91790
592.653	92146
592.704	91625
592.705	92182
592.775	93514
592.846	95447
592.916	100132
592.987	108774
593.058	102727
593.128	92964
593.199	89880
593.270	88798
593.341	89615
593.411	93733
593.482	95239
593.553	91588
593.623	90385
593.694	96379
593.764	111382
593.835	93750
593.906	91276
593.976	94252
594.047	106428
594.117	133411
594.188	135704
594.258	91644
594.329	89457
594.399	91530
594.470	88785
594.540	89824
594.611	90325
594.681	91030
594.751	92951
594.822	96973
594.892	101362
594.963	106179
595.033	105452
595.103	108067
595.174	126213
595.244	207250
595.314	264275
595.384	119315
595.455	105894
595.525	108440
595.595	108059
595.665	111663
595.736	110353
595.806	107510
595.876	106099
595.946	106016
596.016	105534
596.087	109129
596.157	108562
596.227	108037
596.297	116314
596.367	121258
596.437	140041
596.507	200950
596.577	257050
596.647	136649
596.717	121177
596.787	121650
596.857	118523
596.927	119702
596.997	119305
597.067	120263
597.137	122269
597.207	122797
597.277	123896
597.347	122053
597.417	120601
597.487	120231
597.557	125903
597.626	131456
597.696	143829
597.766	183465
597.836	251394
597.906	145816
597.975	117153
598.045	117498
598.115	116071
598.185	122484
598.254	131036
598.324	138030
598.394	142299
598.464	140925
598.533	131698
598.603	122782
598.672	127006
598.742	127350
598.812	123822
598.881	126218
598.951	122199
599.020	121055
599.090	120085
599.159	124331
599.229	120173
599.299	116556
599.368	120905
599.437	117459
599.507	119933
599.576	125360
599.646	115756
599.715	115465
599.785	119629
599.854	133613
599.924	149012
599.993	133391
600.062	116521
600.132	116875
600.201	124076
600.270	139878
600.340	133253
600.409	125334
600.478	126306
600.547	128165
600.617	126458
600.686	114082
600.755	111295
600.824	114279
600.894	108173
600.963	99116
601.032	98534
601.101	99765
601.170	96630
601.239	101990
601.308	110822
601.378	101347
601.447	96754
601.516	95564
601.585	101855
601.654	115611
601.723	103562
601.792	101705
601.861	103505
601.930	109780
601.999	117253
602.068	105706
602.137	120397
602.206	114072
602.275	108219
602.343	129427
602.412	129400
602.481	103445
602.550	100058
602.619	102016
602.688	105481
602.756	105254
602.825	101418
602.894	100927
602.963	104331
603.032	106562
603.100	103275
603.169	102889
603.238	106249
603.307	102644
603.375	102475
603.444	105552
603.513	105549
603.581	106035
603.650	106122
603.719	104821
603.787	106188
603.856	111196
603.924	116841
603.993	116914
604.061	114204
604.130	117700
604.198	121037
604.267	119782
604.335	117237
604.404	119806
604.472	120000
604.541	122392
604.609	121943
604.678	119538
604.746	121670
604.815	123315
604.883	126091
604.951	124491
605.020	124778
605.088	130704
605.156	132173
605.225	131020
605.293	130808
605.361	132876
605.429	132845
605.498	138476
605.566	144665
605.634	142617
605.702	148410
605.771	150666
605.839	149686
605.907	145857
605.975	140309
606.043	139547
606.111	140014
606.180	139582
606.248	139699
606.316	141476
606.384	153714
606.452	182977
606.520	189524
606.588	156913
606.656	140385
606.724	142708
606.792	133457
606.860	123937
606.928	115828
606.996	112740
607.064	110640
607.132	113120
607.200	117983
607.267	121983
607.335	121234
607.403	123651
607.471	121366
607.539	118555
607.607	119014
607.674	111515
607.742	117175
607.810	122332
607.878	115967
607.946	111832
608.013	116009
608.081	123103
608.149	123893
608.216	119504
608.284	124679
608.352	124136
608.419	137979
608.487	187993
608.555	140860
608.622	118170
608.690	123396
608.757	132563
608.825	138557
608.893	143050
608.960	162370
609.028	185001
609.095	211754
609.163	142387
609.230	126279
609.298	117692
609.365	110789
609.432	117127
609.500	126868
609.567	142242
609.635	157970
609.702	163553
609.769	164011
609.837	157993
609.904	127260
609.971	116710
610.039	129467
610.106	169333
610.173	307348
610.241	658729
610.308	380060
610.375	158036
610.442	125074
610.509	115034
610.577	114035
610.644	117001
610.711	119825
610.778	121144
610.845	124469
610.912	130600
610.980	135313
611.047	136897
611.114	140536
611.181	131581
611.248	126918
611.315	134539
611.382	134482
611.449	137119
611.516	140055
611.583	142379
611.650	143551
611.717	145490
611.784	148908
611.851	158170
611.918	180494
611.984	196430
612.051	281162
612.118	550101
612.185	1299970
612.252	782839
612.319	219347
612.386	179427
612.452	171616
612.519	183216
612.586	240957
612.653	188014
612.719	163486
612.786	157159
612.853	144058
612.919	141029
612.986	141349
613.053	135721
613.120	128739
613.186	124799
613.253	128230
613.319	125789
613.386	129077
613.453	137514
613.519	150403
613.586	173305
613.652	221999
613.719	189341
613.785	171027
613.852	135203
613.918	129392
613.985	131023
614.051	134871
614.118	143652
614.184	141471
614.250	126608
614.317	131095
614.383	128671
614.449	128631
614.516	132005
614.582	140527
614.648	131994
614.715	128258
614.781	129028
614.847	133533
614.914	139722
614.980	136863
615.046	127636
615.112	127332
615.179	128232
615.245	128313
615.311	129818
615.377	132624
615.443	135064
615.509	136825
615.575	140574
615.642	140929
615.708	149855
615.774	156840
615.840	166604
615.906	183458
615.972	216988
616.038	325115
616.104	677209
616.170	1566990
616.236	1272321
616.302	329566
616.368	244674
616.434	189760
616.500	179121
616.565	193687
616.631	230625
616.697	191006
616.763	198638
616.829	284573
616.895	480625
616.961	446706
617.026	217086
617.092	157568
617.158	152604
617.224	146951
617.289	142929
617.355	141576
617.421	145486
617.487	141898
617.552	131881
617.618	129227
617.684	131158
617.749	131376
617.815	125302
617.880	122324
617.946	123791
618.012	127688
618.077	127135
618.143	123140
618.208	125205
618.274	133791
618.339	137361
618.405	121027
618.470	123637
618.536	129848
618.601	143008
618.667	130092
618.732	119929
618.798	118309
618.863	117157
618.928	117098
618.994	125389
619.059	138296
619.124	181822
619.190	137538
619.255	120145
619.320	122541
619.386	118481
619.451	112847
619.516	111817
619.581	113290
619.647	116387
619.712	115773
619.777	112481
619.842	117723
619.907	123034
619.972	119858
620.038	121741
620.103	114512
620.168	110209
620.233	111772
620.298	112547
620.363	111660
620.428	115024
620.493	117516
620.558	114164
620.623	114960
620.688	114797
620.753	112656
620.818	114731
620.883	117019
620.948	116570
621.013	117746
621.078	120454
621.143	124559
621.207	130805
621.272	131699
621.337	138629
621.402	149850
621.467	194068
621.532	198165
621.596	155299
621.661	136894
621.726	128157
621.791	130734
621.855	137622
621.920	147928
621.985	164784
622.049	187561
622.114	174255
622.179	146359
622.243	149567
622.308	144131
622.373	148646
622.437	148958
622.502	138223
622.566	137704
622.631	140691
622.695	140064
622.760	141912
622.824	137550
622.889	144375
622.953	158347
623.018	215723
623.082	202291
623.147	145234
623.211	141304
623.276	145660
623.340	132652
623.404	127876
623.469	129070
623.533	128869
623.597	128092
623.662	127670
623.726	123307
623.790	118573
623.854	120950
623.919	122870
623.983	122471
624.047	124549
624.111	122208
624.176	125112
624.240	141718
624.304	150279
624.368	124364
624.432	123191
624.496	128343
624.560	139665
624.625	152316
624.689	127163
624.753	123825
624.817	123596
624.881	121567
624.945	113631
625.009	114723
625.073	118938
625.137	134631
625.201	158273
625.265	150753
625.329	121137
625.393	129679
625.456	124533
625.520	128701
625.584	147789
625.648	183572
625.712	293119
625.776	675287
625.839	726403
625.903	263229
625.967	156309
626.031	268280
626.095	425460
626.158	153085
626.222	102838
626.286	97139
626.349	97634
626.413	95970
626.477	106033
626.540	94835
626.604	96420
626.668	91718
626.731	91892
626.795	101897
626.858	101494
626.922	93463
626.986	90808
627.049	89152
627.113	92050
627.176	86943
627.240	86335
627.303	88759
627.366	91022
627.430	91104
627.493	91389
627.557	93243
627.620	89774
627.684	91242
627.747	92011
627.810	87095
627.874	84664
627.937	81084
628.000	87828
628.064	86242
628.127	76831
628.190	78602
628.253	81170
628.317	77468
628.380	76491
628.443	79077
628.506	81805
628.569	72550
628.632	71767
628.696	70470
628.759	72275
628.822	70112
628.885	69082
628.948	69530
629.011	71332
629.074	71550
629.137	67872
629.200	71810
629.263	79282
629.326	65932
629.389	66469
629.452	70333
629.515	73721
629.578	71125
629.641	76968
629.704	73070
629.767	72953
629.830	64610
629.892	65559
629.955	66276
630.018	71712
630.081	80726
630.144	96525
630.207	77094
630.269	79458
630.332	91372
630.395	75208
630.458	61089
630.520	63852
630.583	61109
630.646	59724
630.708	59071
630.771	60373
630.834	59384
630.896	58909
630.959	58467
631.021	59127
631.084	64936
631.146	74716
631.209	88353
631.272	62127
631.334	58416
631.397	59086
631.459	58008
631.522	62199
631.584	61923
631.646	62258
631.709	69988
631.771	92620
631.834	69024
631.896	57106
631.958	53478
632.021	55447
632.083	56670
632.145	59310
632.208	57693
632.270	58002
632.332	54435
632.395	55597
632.457	58214
632.519	55649
632.581	53929
632.643	52943
632.706	54169
632.768	52437
632.830	51270
632.892	52137
632.954	55044
633.016	56512
633.078	50666
633.141	50947
633.203	52721
633.265	52868
633.327	51327
633.389	51671
633.451	63241
633.513	76590
633.575	78321
633.637	74942
633.698	64772
633.760	55074
633.822	53105
633.884	54758
633.946	51855
634.008	53553
634.070	52605
634.132	53324
634.193	57054
634.255	58534
634.317	56434
634.379	58812
634.441	57174
634.502	53851
634.564	50596
634.626	48116
634.687	48413
634.749	48784
634.811	47516
634.873	45039
634.934	47697
634.996	47423
635.057	47413
635.119	48523
635.181	49684
635.242	49892
635.304	45944
635.365	49780
635.427	49112
635.488	51541
635.550	46954
635.611	47853
635.673	47665
635.734	53848
635.796	51929
635.857	56557
635.918	53219
635.980	57170
636.041	58127
636.102	60486
636.164	57813
636.225	56432
636.286	54794
636.348	51871
636.409	49677
636.470	48236
636.531	49848
636.593	64039
636.654	55384
636.715	42492
636.776	41555
636.838	41741
636.899	45207
636.960	43113
637.021	41123
637.082	42474
637.143	43717
637.204	39224
637.265	38836
637.326	40159
637.387	38621
637.448	38787
637.509	39912
637.570	39349
637.631	39191
637.692	37886
637.753	36464
637.814	38472
637.875	38474
637.936	40280
637.997	38937
638.058	44976
638.119	46059
638.179	41045
638.240	39152
638.301	39556
638.362	38541
638.423	40987
638.483	40175
638.544	36039
638.605	38269
638.666	34788
638.726	37710
638.787	36177
638.848	36302
638.908	35676
638.969	36621
639.030	37930
639.090	35250
639.151	38459
639.211	42345
639.272	55266
639.332	90592
639.393	49628
639.453	39206
639.514	39654
639.574	35823
639.635	34293
639.695	37411
639.756	36907
639.816	40200
639.877	50600
639.937	84541
639.997	105669
640.058	42094
640.118	34810
640.178	34119
640.239	32488
640.299	32059
640.359	31900
640.420	32717
640.480	35196
640.540	35490
640.600	37386
640.661	37442
640.721	39509
640.781	47553
640.841	34948
640.901	35374
640.961	37315
641.021	39292
641.082	47266
641.142	67470
641.202	43485
641.262	32753
641.322	32523
641.382	31295
641.442	33801
641.502	32563
641.562	34396
641.622	31358
641.682	34589
641.742	34234
641.802	36587
641.861	39813
641.921	41173
641.981	43573
642.041	42125
642.101	53362
642.161	37662
642.221	30988
642.280	30854
642.340	30059
642.400	29386
642.460	31366
642.519	30833
642.579	29974
642.639	33051
642.698	29085
642.758	32014
642.818	31389
642.877	31631
642.937	35740
642.997	42458
643.056	60765
643.116	37427
643.175	32277
643.235	30607
643.294	30749
643.354	33000
643.414	33454
643.473	36855
643.532	40096
643.592	48026
643.651	67528
643.711	106456
643.770	203529
643.830	482938
643.889	956813
643.948	219679
644.008	52835
644.067	40982
644.126	34211
644.186	33122
644.245	31035
644.304	27569
644.363	30149
644.423	27831
644.482	29712
644.541	28802
644.600	28391
644.659	34343
644.719	37980
644.778	50462
644.837	71595
644.896	128034
644.955	270832
645.014	93872
645.073	37686
645.132	33762
645.191	34492
645.250	29264
645.309	33604
645.368	30291
645.427	35473
645.486	47237
645.545	66638
645.604	32388
645.663	28256
645.722	29354
645.781	29168
645.840	29967
645.898	35941
645.957	45625
646.016	59015
646.075	100071
646.134	188215
646.192	496970
646.251	678823
646.310	104739
646.369	42075
646.427	37108
646.486	31193
646.545	29124
646.603	27853
646.662	27157
646.721	27038
646.779	25315
646.838	27346
646.896	31469
646.955	35610
647.014	46046
647.072	74727
647.131	175075
647.189	83194
647.248	28083
647.306	24855
647.365	25590
647.423	22795
647.481	25421
647.540	22655
647.598	24650
647.657	22548
647.715	24811
647.773	22773
647.832	24559
647.890	23702
647.948	24626
648.007	25145
648.065	22630
648.123	23720
648.181	26429
648.240	23430
648.298	21836
648.356	24491
648.414	25155
648.472	24801
648.531	24376
648.589	24413
648.647	22884
648.705	23419
648.763	23958
648.821	24358
648.879	23879
648.937	26406
648.995	27936
649.053	30536
649.111	41211
649.169	56004
649.227	87817
649.285	167701
649.343	457746
649.401	218381
649.459	119570
649.516	70741
649.574	33118
649.632	36771
649.690	37569
649.748	39204
649.806	39577
649.863	57223
649.921	127653
649.979	82124
650.037	26329
650.094	21809
650.152	22716
650.210	21113
650.268	22358
650.325	21352
650.383	20823
650.440	20419
650.498	22317
650.556	22101
650.613	18674
650.671	21317
650.728	22835
650.786	27436
650.843	23537
650.901	19916
650.958	20350
651.016	18989
651.073	19582
651.131	19807
651.188	21151
651.246	22006
651.303	18998
651.360	19987
651.418	19572
651.475	20017
651.532	17741
651.590	18959
651.647	19648
651.704	20288
651.762	20667
651.819	21153
651.876	19635
651.933	19015
651.990	19570
652.048	17307
652.105	19824
652.162	19214
652.219	17466
652.276	17409
652.333	18412
652.390	16538
652.448	17378
652.505	17931
652.562	17367
652.619	18205
652.676	18062
652.733	17978
652.790	16818
652.847	15608
652.904	17023
652.961	16750
653.017	16738
653.074	19178
653.131	19707
653.188	15981
653.245	17851
653.302	18483
653.359	17367
653.415	17799
653.472	16737
653.529	17454
653.586	17130
653.642	17559
653.699	16815
653.756	16084
653.813	16517
653.869	15730
653.926	15941
653.983	16684
654.039	16089
654.096	17285
654.152	18667
654.209	17853
654.266	20258
654.322	19430
654.379	23447
654.435	26130
654.492	28277
654.548	42551
654.605	67614
654.661	27793
654.717	19670
654.774	22446
654.830	21558
654.887	20715
654.943	20521
655.000	19665
655.056	19682
655.112	21396
655.168	20271
655.225	22292
655.281	27905
655.337	38935
655.394	72185
655.450	47267
655.506	40707
655.562	74844
655.618	51220
655.675	20477
655.731	19505
655.787	19081
655.843	18856
655.899	18341
655.955	19739
656.011	20081
656.067	17676
656.123	18542
656.179	20677
656.235	21213
656.291	17673
656.347	21136
656.403	21932
656.459	23199
656.515	28389
656.571	28037
656.627	22591
656.683	20763
656.739	19476
656.795	19162
656.850	22141
656.906	25323
656.962	20899
657.018	16952
657.074	18771
657.129	20343
657.185	22682
657.241	28622
657.297	23043
657.352	18726
657.408	18500
657.464	23954
657.519	20547
657.575	15710
657.630	17569
657.686	16597
657.742	17929
657.797	17904
657.853	18820
657.908	19949
657.964	16517
658.019	17300
658.075	19026
658.130	18418
658.186	16829
658.241	16380
658.297	16234
658.352	15725
658.407	18140
658.463	17236
658.518	18352
658.573	17207
658.629	15472
658.684	15922
658.739	15599
658.795	14813
658.850	16153
658.905	16949
658.960	16617
659.016	15728
659.071	17497
659.126	19467
659.181	21221
659.236	34539
659.291	35535
659.346	22618
659.401	21061
659.457	17911
659.512	17056
659.567	17857
659.622	17920
659.677	18301
659.732	18435
659.787	19194
659.842	26408
659.897	34013
659.952	19450
660.007	16656
660.061	18687
660.116	17383
660.171	17106
660.226	16252
660.281	17608
660.336	15909
660.391	17279
660.445	16147
660.500	17226
660.555	18044
660.610	17306
660.664	16665
660.719	16156
660.774	16797
660.828	16893
660.883	18042
660.938	18200
660.992	16765
661.047	16781
661.101	15979
661.156	16622
661.211	16203
661.265	16474
661.320	16662
661.374	16856
661.429	16306
661.483	17211
661.538	16212
661.592	16627
661.647	16364
661.701	16047
661.755	16446
661.810	17439
661.864	17238
661.919	15586
661.973	18244
662.027	17056
662.081	15739
662.136	17245
662.190	19575
662.244	20393
662.299	18220
662.353	16663
662.407	16471
662.461	19679
662.515	18687
662.569	19003
662.624	18649
662.678	18425
662.732	17843
662.786	18925
662.840	19900
662.894	19089
662.948	17240
663.002	17027
663.056	16956
663.110	15120
663.164	17256
663.218	16676
663.272	17922
663.326	20165
663.380	20370
663.434	20722
663.488	18054
663.542	18568
663.595	17799
663.649	18481
663.703	17503
663.757	17156
663.811	17539
663.864	17192
663.918	18007
663.972	17356
664.026	15812
664.079	17088
664.133	17908
664.187	15957
664.240	16038
664.294	16100
664.348	16910
664.401	17352
664.455	15719
664.508	16331
664.562	16351
664.615	16726
664.669	15670
664.722	16282
664.776	16480
664.829	17273
664.883	17664
664.936	18497
664.990	19009
665.043	19321
665.097	22380
665.150	22859
665.203	19831
665.257	20047
665.310	19493
665.363	19781
665.417	20561
665.470	19818
665.523	19628
665.576	20350
665.630	19520
665.683	18899
665.736	20026
665.789	19563
665.842	18688
665.895	19993
665.949	18359
666.002	17741
666.055	19837
666.108	20079
666.161	19397
666.214	21137
666.267	21554
666.320	24246
666.373	20977
666.426	20967
666.479	21511
666.532	24596
666.585	30359
666.638	33077
666.691	28814
666.744	30703
666.796	31329
666.849	27531
666.902	20589
666.955	19073
667.008	18188
667.060	16235
667.113	16935
667.166	17669
667.219	17613
667.271	18774
667.324	18081
667.377	17980
667.430	17220
667.482	18531
667.535	18687
667.587	20185
667.640	22470
667.693	28381
667.745	40585
667.798	39822
667.850	23027
667.903	20864
667.955	20817
668.008	19547
668.060	25315
668.113	22404
668.165	23068
668.218	21920
668.270	20565
668.322	21347
668.375	20475
668.427	20723
668.479	19183
668.532	21349
668.584	21393
668.636	20448
668.689	20782
668.741	20839
668.793	20460
668.845	20144
668.898	21779
668.950	20136
669.002	21349
669.054	21229
669.106	21362
669.158	21170
669.211	19922
669.263	19097
669.315	20932
669.367	20547
669.419	21780
669.471	21437
669.523	19422
669.575	20612
669.627	21623
669.679	20176
669.731	19011
669.783	19413
669.835	19244
669.886	20212
669.938	19935
669.990	19602
670.042	18809
670.094	19988
670.146	19212
670.197	19910
670.249	19757
670.301	20999
670.353	22176
670.404	23627
670.456	28553
670.508	35123
670.560	48312
670.611	72577
670.663	116226
670.715	267032
670.766	391447
670.818	103292
670.869	31500
670.921	24016
670.972	22971
671.024	21505
671.075	20997
671.127	20820
671.178	19170
671.230	20191
671.281	19797
671.333	21357
671.384	23196
671.436	24441
671.487	26543
671.538	28588
671.590	33093
671.641	44625
671.692	59342
671.744	91766
671.795	62482
671.846	33324
671.897	27979
671.949	25588
672.000	22505
672.051	23137
672.102	22384
672.153	21687
672.204	21632
672.256	22229
672.307	21296
672.358	22014
672.409	22006
672.460	21049
672.511	20418
672.562	21020
672.613	19913
672.664	19306
672.715	20391
672.766	20150
672.817	19269
672.868	19593
672.919	19336
672.970	19258
673.021	20302
673.071	19054
673.122	19618
673.173	19666
673.224	19659
673.275	19616
673.326	18600
673.376	19279
673.427	18746
673.478	18866
673.528	19050
673.579	18025
673.630	18865
673.680	19962
673.731	18287
673.782	17090
673.832	19630
673.883	20371
673.934	18518
673.984	18860
674.035	19149
674.085	18745
674.136	21294
674.186	24604
674.237	31653
674.287	46530
674.338	25030
674.388	20228
674.438	19523
674.489	21552
674.539	21501
674.589	21566
674.640	20528
674.690	19241
674.740	20720
674.791	23332
674.841	21817
674.891	20833
674.942	19439
674.992	19644
675.042	17605
675.092	17274
675.142	18109
675.193	17897
675.243	17881
675.293	18983
675.343	18941
675.393	19232
675.443	19433
675.493	16675
675.543	18320
675.593	18748
675.643	17472
675.693	18025
675.743	18727
675.793	17158
675.843	17151
675.893	18806
675.943	17571
675.993	16653
676.043	18234
676.093	16771
676.142	16815
676.192	18443
676.242	16604
676.292	17086
676.341	19856
676.391	20026
676.441	15525
676.491	16629
676.540	15593
676.590	16926
676.640	16707
676.689	16723
676.739	15850
676.789	14635
676.838	15554
676.888	15992
676.937	16243
676.987	15381
677.037	14708
677.086	14532
677.136	16039
677.185	15708
677.235	13519
677.284	15237
677.333	14790
677.383	14771
677.432	14188
677.482	14592
677.531	15832
677.580	15827
677.630	14580
677.679	13697
677.728	15623
677.778	14228
677.827	13745
677.876	14382
677.925	13522
677.975	14620
678.024	14435
678.073	15539
678.122	17027
678.171	16573
678.220	17059
678.269	19362
678.319	19082
678.368	16852
678.417	18129
678.466	17546
678.515	18292
678.564	17276
678.613	16136
678.662	16711
678.711	17637
678.760	16701
678.809	14993
678.857	17120
678.906	16537
678.955	16043
679.004	16243
679.053	16481
679.102	16628
679.151	17337
679.199	14866
679.248	15086
679.297	17271
679.346	18091
679.394	16780
679.443	15631
679.492	15306
679.540	15882
679.589	16975
679.638	15363
679.686	13511
679.735	15289
679.784	15124
679.832	16855
679.881	14387
679.929	13829
679.978	13537
680.026	14224
680.075	14834
680.123	14552
680.172	13848
680.220	13374
680.268	14854
680.317	13960
680.365	13837
680.414	13483
680.462	14855
680.510	14954
680.559	13140
680.607	12724
680.655	13253
680.703	13963
680.752	14024
680.800	12982
680.848	13524
680.896	12552
680.945	13025
680.993	14131
681.041	13519
681.089	12701
681.137	12002
681.185	12207
681.233	13953
681.258	13822
681.281	13637
681.329	12567
681.377	11821
681.380	11968
681.425	13542
681.473	15990
681.502	15522
681.521	15076
681.569	15003
681.617	13996
681.624	14187
681.665	14947
681.713	14401
681.745	14521
681.761	14489
681.809	14842
681.857	15271
681.867	15293
681.904	15124
681.952	14920
681.989	15488
682.000	15577
682.048	15941
682.096	14417
682.111	14426
682.143	14257
682.191	14633
682.233	15795
682.239	15900
682.286	14939
682.334	14996
682.354	15236
682.382	15459
682.430	16503
682.476	15329
682.477	15249
682.525	15854
682.572	15376
682.598	15022
682.620	14662
682.667	15392
682.715	17585
682.720	17584
682.763	17031
682.810	17375
682.841	16754
682.857	16324
682.905	15617
682.952	17066
682.963	17111
683.000	17048
683.047	17413
683.085	17038
683.095	16876
683.142	16359
683.190	16561
683.206	16360
683.237	15853
683.284	17019
683.328	17094
683.332	17058
683.379	16196
683.426	16215
683.449	16793
683.473	17312
683.521	17210
683.568	17405
683.571	17363
683.615	16167
683.662	17118
683.693	16822
683.709	16586
683.757	17188
683.804	17800
683.814	17822
683.851	17785
683.898	17486
683.936	17940
683.945	18021
683.992	19134
684.039	19824
684.057	19900
684.086	19941
684.133	19310
684.179	20473
684.180	20456
684.227	19842
684.274	19417
684.300	19554
684.321	19708
684.368	18701
684.415	19924
684.422	19769
684.462	18349
684.509	18579
684.543	18165
684.556	18051
684.603	18881
684.649	18580
684.665	18807
684.696	19232
684.743	19540
684.786	20311
684.790	20395
684.837	20581
684.883	22971
684.908	23565
684.930	23699
684.977	24096
685.023	22754
685.029	22638
685.070	21148
685.117	21307
685.150	22043
685.164	22559
685.210	23763
685.257	24386
685.272	24163
685.303	23304
685.350	23429
685.393	25169
685.396	25312
685.443	26075
685.490	27155
685.514	27102
685.536	26524
685.583	25358
685.629	25093
685.636	24918
685.675	24013
685.722	23855
685.757	24644
685.768	24957
685.815	24830
685.861	24951
685.878	25002
685.908	25139
685.954	25426
686.000	27785
686.000	27828
686.047	30129
686.093	36534
686.121	35434
686.139	33323
686.185	29202
686.232	26848
686.242	26424
686.278	25570
686.324	23736
686.363	23039
686.370	23029
686.416	23112
686.463	24654
686.484	23926
686.509	23127
686.555	24102
686.601	23782
686.606	23765
686.647	23604
686.693	23981
686.727	24163
686.739	24201
686.785	24438
686.831	24578
686.848	24203
686.877	23339
686.923	23290
686.969	23176
686.969	23177
687.015	24020
687.061	25228
687.090	25230
687.107	24917
687.153	24360
687.199	23865
687.211	23646
687.245	23762
687.291	25898
687.332	27693
687.336	27825
687.382	27836
687.428	26132
687.453	25872
687.474	25201
687.520	24570
687.565	24424
687.574	24129
687.611	23849
687.657	24007
687.695	24877
687.702	25085
687.748	25153
687.794	26067
687.816	25972
687.839	25310
687.885	24662
687.931	23672
687.937	23637
687.976	24491
688.022	25404
688.058	26370
688.067	26481
688.113	25996
688.158	25310
688.179	25130
688.204	25103
688.249	25927
688.295	26719
688.300	26742
688.340	27317
688.386	27700
688.421	27355
688.431	27149
688.477	27107
688.522	27183
688.542	27090
688.567	26860
688.613	26951
688.658	26030
688.663	26011
688.703	26459
688.749	27019
688.784	26697
688.794	26575
688.839	27240
688.884	25993
688.905	26030
688.930	26092
688.975	26029
689.020	26666
689.026	26599
689.065	26363
689.110	26073
689.146	26203
689.155	26221
689.201	25694
689.246	25283
689.267	25544
689.291	26247
689.336	26904
689.381	27244
689.388	27311
689.426	27145
689.471	26353
689.509	26186
689.516	26180
689.561	25514
689.606	25872
689.630	25601
689.651	25648
689.696	25832
689.741	26515
689.750	26575
689.785	26601
689.830	25907
689.871	25716
689.875	25723
689.920	25602
689.965	25447
689.992	25307
690.010	25330
690.054	25606
690.099	25608
690.112	25725
690.144	26093
690.189	25535
690.233	25234
690.233	25259
690.278	25487
690.323	25254
690.354	25339
690.367	25606
690.412	26142
690.457	26299
690.474	26585
690.501	26457
690.546	25659
690.590	25064
690.595	24938
690.635	24761
690.680	24919
690.716	25017
690.724	25089
690.769	25606
690.813	26242
690.836	25778
690.857	25422
690.902	25797
690.946	26000
690.957	26183
690.991	27400
691.035	28034
691.077	29048
691.080	29132
691.124	29417
691.168	30846
691.198	30842
691.213	30709
691.257	31554
691.301	31189
691.318	30993
691.346	29856
691.390	28034
691.434	26398
691.439	26205
691.478	26843
691.522	27823
691.559	28281
691.567	28393
691.611	28965
691.655	29300
691.680	29528
691.699	29459
691.743	29142
691.787	28908
691.800	28793
691.831	29286
691.875	29834
691.919	30835
691.921	30806
691.964	31318
692.008	32033
692.041	32355
692.052	32299
692.096	31983
692.139	31547
692.162	31144
692.183	30845
692.227	31101
692.271	30678
692.282	30535
692.315	30625
692.359	30571
692.402	30803
692.403	30851
692.447	30393
692.490	30434
692.523	30329
692.534	30600
692.578	31553
692.622	31929
692.643	32189
692.666	31668
692.709	30199
692.753	29182
692.763	28875
692.797	28985
692.840	29127
692.884	29352
692.884	29406
692.928	29962
692.971	30263
693.004	30471
693.015	30535
693.059	30853
693.102	30705
693.124	30868
693.146	31172
693.189	31046
693.233	31527
693.245	31531
693.276	32031
693.320	32486
693.363	32665
693.365	32638
693.407	32763
693.450	32414
693.485	32059
693.493	32158
693.537	32754
693.580	32933
693.605	33144
693.624	33029
693.667	32280
693.710	31432
693.725	31341
693.753	32728
693.797	34247
693.840	35721
693.845	35888
693.883	35256
693.926	33774
693.966	32689
693.970	32603
694.013	30967
694.056	29596
694.086	28742
694.099	29373
694.142	30962
694.185	32289
694.206	32915
694.229	33199
694.272	33733
694.315	34535
694.326	34468
694.358	34273
694.401	34090
694.444	34680
694.446	34611
694.487	34544
694.530	34507
694.566	34313
694.573	34047
694.616	31864
694.659	30007
694.686	28751
694.702	28713
694.745	28447
694.787	27736
694.806	27659
694.830	28095
694.873	28403
694.916	28731
694.926	28752
694.959	28910
695.002	29009
695.044	29289
695.046	29243
695.087	30074
695.130	30471
695.166	31067
695.172	31187
695.215	31406
695.258	31578
695.286	31669
695.301	31729
695.343	31736
695.386	31600
695.406	31445
695.428	30950
695.471	30092
695.514	29253
695.526	28915
695.556	29396
695.599	30086
695.641	30580
695.646	30592
695.684	30382
695.726	29946
695.766	29577
695.769	29658
695.811	29665
695.854	30071
695.886	30044
695.896	29974
695.938	29649
695.981	29059
696.005	28751
696.023	29054
696.065	29587
696.108	30347
696.125	30495
696.150	30660
696.192	30866
696.235	31078
696.245	31048
696.277	30497
696.319	29591
696.361	29050
696.365	28915
696.404	29200
696.446	29603
696.485	29707
696.488	29800
696.530	30259
696.572	30581
696.604	31040
696.614	31018
696.656	30292
696.698	29595
696.724	29140
696.740	29186
696.783	29152
696.825	29136
696.844	29052
696.867	29429
696.909	29950
696.951	30434
696.964	30566
696.992	30283
697.034	29526
697.076	28959
697.083	28797
697.118	29434
697.160	30090
697.202	30658
697.203	30603
697.244	30435
697.286	30175
697.323	29865
697.327	29908
697.369	29604
697.411	29448
697.442	29187
697.453	29539
697.494	30708
697.536	31916
697.562	32517
697.578	32592
697.620	32677
697.661	32798
697.682	32722
697.703	33295
697.744	34385
697.786	35585
697.801	35862
697.828	35823
697.869	35637
697.911	35442
697.921	35319
697.952	34270
697.994	32799
698.035	31385
698.040	31119
698.077	30587
698.118	29981
698.160	29393
698.160	29318
698.201	30029
698.243	30630
698.279	31145
698.284	31278
698.325	31757
698.367	32281
698.399	32586
698.408	32351
698.449	30906
698.491	29459
698.518	28440
698.532	28923
698.573	30161
698.614	31406
698.638	32041
698.656	31985
698.697	31666
698.738	31337
698.757	31114
698.779	31747
698.820	32788
698.862	33841
698.877	34150
698.903	34536
698.944	35013
698.985	35496
698.996	35545
699.026	34668
699.067	33333
699.116	31663
699.235	32472
699.354	30640
699.474	32336
699.593	37522
699.713	34975
699.832	32724
699.951	33579
700.070	30686
700.190	30621
700.309	31677
700.428	34714
700.547	31862
700.667	30944
700.786	36128
700.905	29201
701.024	33661
701.143	30822
701.262	26542
701.381	27269
701.500	30493
701.619	33070
701.738	27804
701.857	26702
701.976	24801
702.095	26067
702.214	30763
702.333	30539
702.452	28495
702.571	26041
702.690	27092
702.809	25175
702.928	25359
703.047	27058
703.165	24716
703.284	24575
703.403	26063
703.522	30833
703.640	29554
703.759	37588
703.878	52204
703.997	27936
704.115	25988
704.234	24166
704.353	24648
704.471	23309
704.590	22784
704.708	22293
704.827	22620
704.946	25344
705.064	28491
705.183	24534
705.301	33700
705.420	51314
705.538	43957
705.656	35148
705.775	32288
705.893	36810
706.012	39174
706.130	36145
706.249	37090
706.367	38551
706.485	40988
706.604	37618
706.722	39311
706.840	46462
706.958	41451
707.077	36123
707.195	33551
707.313	32795
707.431	31668
707.549	32832
707.668	33827
707.786	34238
707.904	31451
708.022	30771
708.140	30744
708.258	30062
708.376	31905
708.494	31465
708.612	37419
708.730	56641
708.848	52165
708.966	46617
709.084	43504
709.202	40804
709.320	43205
709.438	43560
709.556	44096
709.674	42716
709.791	41566
709.909	40574
710.027	40472
710.145	39819
710.263	42389
710.380	41106
710.498	39014
710.616	41170
710.733	40381
710.851	42801
710.969	42725
711.086	40119
711.204	39206
711.322	39580
711.439	39745
711.557	41722
711.674	38514
711.792	38111
711.909	37345
712.027	34604
712.144	36153
712.262	36921
712.379	43891
712.497	64522
712.614	63261
712.732	52005
712.849	48494
712.966	54224
713.084	65874
713.201	54255
713.318	51448
713.436	49579
713.553	50560
713.670	51428
713.787	56870
713.905	55761
714.022	48829
714.139	48822
714.256	52279
714.373	58316
714.490	75348
714.608	143086
714.725	513405
714.842	470724
714.959	66002
715.076	48155
715.193	44661
715.310	42908
715.427	42077
715.544	40365
715.661	42132
715.778	41307
715.895	47653
716.011	45221
716.128	41458
716.245	41288
716.362	48082
716.479	48311
716.596	39506
716.713	40066
716.829	39639
716.946	38341
717.063	36615
717.180	36101
717.296	35210
717.413	36630
717.530	36885
717.646	37052
717.763	35504
717.880	33896
717.996	34791
718.113	35524
718.229	36111
718.346	31656
718.462	36501
718.579	44885
718.695	70698
718.812	54345
718.928	53338
719.045	37077
719.161	32203
719.277	30668
719.394	30949
719.510	33265
719.626	33292
719.743	41822
719.859	41556
719.975	57085
720.092	160951
720.208	318576
720.324	56651
720.440	35027
720.557	41474
720.673	58938
720.789	84146
720.905	169635
721.021	54602
721.137	31958
721.253	32717
721.369	33520
721.486	39332
721.602	54107
721.718	30861
721.834	26700
721.950	30009
722.066	27154
722.181	26809
722.297	29423
722.413	26748
722.529	27195
722.645	25738
722.761	25166
722.877	25391
722.993	25054
723.108	28673
723.224	25065
723.340	26392
723.456	23457
723.571	25985
723.687	23364
723.803	25075
723.918	24166
724.034	25361
724.150	25512
724.265	30808
724.381	66642
724.497	78715
724.612	25017
724.728	22908
724.843	23904
724.959	29905
725.074	62312
725.190	67064
725.305	27168
725.421	24661
725.536	20388
725.651	20614
725.767	19376
725.882	19239
725.997	19830
726.113	21505
726.228	19356
726.343	19995
726.459	17231
726.574	22352
726.689	18861
726.804	20435
726.920	20107
727.035	20940
727.150	20839
727.265	19649
727.380	20625
727.495	19085
727.610	16294
727.725	18489
727.841	18127
727.956	19756
728.071	23054
728.186	18129
728.301	17073
728.416	20128
728.531	17512
728.645	16052
728.760	18807
728.875	19376
728.990	17658
729.105	18437
729.220	18268
729.335	18321
729.449	15965
729.564	14774
729.679	14658
729.794	16391
729.908	19563
730.023	17591
730.138	14063
730.253	15769
730.367	14342
730.482	14307
730.596	15795
730.711	17355
730.826	15545
730.940	15663
731.055	17939
731.169	14942
731.284	14343
731.398	15151
731.513	18944
731.627	17683
731.742	20906
731.856	22758
731.970	14998
732.085	17749
732.199	21089
732.313	29221
732.428	62067
732.542	179796
732.656	97320
732.771	23183
732.885	17537
732.999	17547
733.113	19000
733.227	18134
733.342	14996
733.456	16157
733.570	14050
733.684	15338
733.798	14728
733.912	14411
734.026	12188
734.140	15011
734.254	17393
734.368	35309
734.482	39557
734.596	14290
734.710	13163
734.824	13316
734.938	12306
735.052	13542
735.166	18103
735.280	14797
735.393	12475
735.507	14264
735.621	21491
735.735	42904
735.849	17299
735.962	13218
736.076	14842
736.190	15137
736.303	23839
736.417	29564
736.531	13486
736.644	14452
736.758	11168
736.872	11628
736.985	10902
737.099	11038
737.212	10512
737.326	11066
737.439	11238
737.553	11228
737.666	11117
737.780	10566
737.893	10265
738.007	10090
738.120	10244
738.233	10836
738.347	9739
738.460	10690
738.573	12414
738.687	13105
738.800	11629
738.913	17355
739.026	12615
739.140	11376
739.253	9866
739.366	10839
739.479	9830
739.592	10191
739.705	9564
739.818	9249
739.932	9528
740.045	10385
740.158	10749
740.271	10753
740.384	9201
740.497	9440
740.610	10164
740.723	10634
740.836	10903
740.949	11117
741.062	17014
741.174	13919
741.287	10603
741.400	9090
741.513	8864
741.626	11006
741.739	10461
741.851	10115
741.964	9482
742.077	10594
742.189	10087
742.302	10830
742.415	9265
742.527	9532
742.640	9400
742.753	8778
742.865	7034
742.978	9894
743.090	8727
743.203	9780
743.316	7873
743.428	7822
743.541	8262
743.653	8143
743.766	8076
743.878	9511
743.990	14637
744.103	13036
744.215	9063
744.327	9710
744.440	11760
744.552	21694
744.664	9744
744.777	8201
744.889	7459
745.001	8188
745.113	7892
745.226	7432
745.338	7606
745.450	8949
745.562	7359
745.674	6853
745.786	6883
745.898	7444
746.010	6506
746.122	7415
746.234	7256
746.347	7358
746.459	6706
746.570	7213
746.682	7336
746.794	8444
746.906	7238
747.018	7644
747.130	6916
747.242	6742
747.354	6785
747.466	9175
747.577	6859
747.689	7360
747.801	6806
747.913	6098
748.024	5891
748.136	6756
748.248	5974
748.359	6968
748.471	5661
748.583	6655
748.694	6626
748.806	8069
748.918	12113
749.029	8968
749.141	8300
749.252	9283
749.364	10401
749.475	26183
749.587	15884
749.698	6375
749.809	6377
749.921	6954
750.032	5333
750.144	5766
750.255	5361
750.366	5306
750.478	5629
750.589	7717
750.700	7100
750.811	8340
750.923	10923
751.034	28082
751.145	23802
751.256	6867
751.367	5594
751.479	6139
751.590	5393
751.701	5963
751.812	4957
751.923	5356
752.034	5573
752.145	5795
752.256	5680
752.367	5811
752.478	5884
752.589	6214
752.700	5187
752.811	5796
752.922	5491
753.032	7839
753.143	9204
753.254	5472
753.365	5392
753.476	6111
753.586	4512
753.697	6187
753.808	4876
753.919	4984
754.029	4354
754.140	5348
754.251	5732
754.361	5562
754.472	5052
754.582	5945
754.693	5892
754.804	5741
754.914	4845
755.025	4717
755.135	4198
755.246	5517
755.356	5201
755.466	4955
755.577	5182
755.687	5298
755.798	4979
755.908	5034
756.018	4560
756.129	5266
756.239	4645
756.349	5167
756.460	5333
756.570	6351
756.680	4932
756.790	7527
756.900	7752
757.011	5388
757.121	4966
757.231	5084
757.341	5284
757.451	5324
757.561	4467
757.671	4367
757.781	3426
757.891	5202
758.001	6129
758.111	5782
758.221	6342
758.331	7893
758.441	7532
758.551	12998
758.661	10075
758.771	6956
758.880	6739
758.990	6875
759.100	6265
759.210	5999
759.320	6435
759.429	7279
759.539	6699
759.649	6803
759.758	6554
759.868	6381
759.978	6041
760.087	7378
760.197	7544
760.307	7506
760.416	7116
760.526	7285
760.635	6972
760.745	7413
760.854	6912
760.964	8507
761.073	7826
761.182	7703
761.292	6845
761.401	8789
761.511	6287
761.620	6095
761.729	6732
761.839	6827
761.948	7154
762.057	7745
762.166	6163
762.276	5001
762.385	7652
762.494	5763
762.603	5771
762.712	6362
762.822	7062
762.931	6850
763.040	4960
763.149	5576
763.258	5711
763.367	6386
763.476	6327
763.585	6320
763.694	6100
763.803	6782
763.912	7748
764.021	7465
764.130	5413
764.238	7253
764.347	6159
764.456	6330
764.565	6032
764.674	6678
764.783	6153
764.891	6455
765.000	6778
765.109	7419
765.217	6561
765.326	10168
765.435	11408
765.543	9903
765.652	8981
765.761	9987
765.869	13475
765.978	20480
766.086	33018
766.195	62786
766.303	174700
766.412	545036
766.520	413723
766.629	83462
766.737	32244
766.846	20488
766.954	16391
767.062	14458
767.171	12601
767.279	11706
767.387	9256
767.496	9685
767.604	8672
767.712	9075
767.820	8535
767.928	9739
768.037	8061
768.145	9654
768.253	8724
768.361	8590
768.469	8253
768.577	7586
768.685	8458
768.793	8685
768.901	8313
769.009	8775
769.117	8890
769.225	9916
769.333	13305
769.441	17289
769.549	27903
769.657	62714
769.765	219184
769.873	455751
769.981	120310
770.088	27026
770.196	15368
770.304	12488
770.412	10638
770.519	11342
770.627	9765
770.735	9534
770.842	9279
770.950	9463
771.058	8824
771.165	8723
771.273	8373
771.380	8930
771.488	8901
771.595	9324
771.703	7930
771.810	9856
771.918	8505
772.025	9110
772.133	8263
772.240	8675
772.348	9726
772.455	9413
772.562	7921
772.670	8007
772.777	8270
772.884	8237
772.991	8281
773.099	8363
773.206	7663
773.313	8599
773.420	7714
773.528	8005
773.635	7034
773.742	7825
773.849	7246
773.956	7570
774.063	7076
774.170	7404
774.277	8923
774.384	7557
774.491	7241
774.598	8783
774.705	8470
774.812	12081
774.919	8852
775.026	9034
775.133	8705
775.239	8031
775.346	7524
775.453	8138
775.560	6538
775.667	8071
775.773	7099
775.880	8715
775.987	7253
776.093	7816
776.200	7595
776.307	7843
776.413	7499
776.520	8047
776.627	7597
776.733	8110
776.840	6387
776.946	9533
777.053	7915
777.159	8711
777.266	6959
777.372	10063
777.478	8242
777.585	8002
777.691	6412
777.798	7784
777.904	8555
778.010	13184
778.117	10999
778.223	8106
778.329	7236
778.435	6418
778.542	7172
778.648	6499
778.754	6541
778.860	7483
778.966	7766
779.072	8006
779.178	6612
779.284	6423
779.391	6491
779.497	6399
779.603	7786
779.708	5879
779.815	7343
779.920	12612
780.026	16909
780.132	8071
780.238	5571
780.344	6539
780.450	7343
780.556	5984
780.661	5346
780.767	7156
780.873	5282
780.979	6990
781.085	5819
781.190	5666
781.296	5185
781.402	6136
781.507	5841
781.613	6084
781.719	4877
781.824	5260
781.930	5425
782.035	6525
782.141	5790
782.246	5945
782.352	5462
782.457	5211
782.563	5619
782.668	5919
782.773	6326
782.879	6670
782.984	7137
783.090	8328
783.195	12474
783.300	8839
783.405	6513
783.511	6483
783.616	6303
783.721	6502
783.826	5101
783.932	7042
784.037	5591
784.142	6480
784.247	5563
784.352	5959
784.457	5310
784.562	5361
784.667	5183
784.772	6508
784.877	4988
784.982	6158
785.087	5329
785.192	6452
785.297	5908
785.402	5841
785.507	4288
785.611	5877
785.716	5821
785.821	5802
785.926	3922
786.031	5100
786.135	5782
786.240	5150
786.345	3585
786.450	5134
786.554	5021
786.659	5353
786.763	3112
786.868	5723
786.973	5834
787.077	4037
787.182	5567
787.286	4722
787.391	4495
787.495	3823
787.600	3780
787.704	4099
787.809	4304
787.913	3796
788.017	5010
788.122	4515
788.226	4423
788.330	4456
788.435	4104
788.539	5615
788.643	3779
788.747	4873
788.852	5133
788.956	4203
789.060	4022
789.164	3231
789.268	3055
789.372	4384
789.476	3800
789.580	4605
789.684	3964
789.788	4211
789.892	4488
789.996	5581
790.100	4195
790.204	5801
790.308	5293
790.412	4104
790.516	4151
790.620	3801
790.724	4913
790.828	4211
790.931	4029
791.035	5416
791.139	3758
791.242	5103
791.346	4635
791.450	4323
791.554	3434
791.657	3547
791.761	4821
791.864	5463
791.968	3832
792.072	4450
792.175	3881
792.279	3880
792.382	4276
792.486	4966
792.589	5006
792.693	4754
792.796	2990
792.899	5057
793.003	3689
793.106	2857
793.209	3794
793.313	4896
793.416	2299
793.519	5729
793.623	8733
793.726	12894
793.829	5695
793.932	4313
794.035	3600
794.138	5100
794.242	4559
794.345	6940
794.448	6730
794.551	11261
794.654	10398
794.757	9860
794.860	7734
794.963	6483
795.066	3060
795.169	4182
795.272	2271
795.375	3934
795.477	2129
795.580	3750
795.683	2098
795.786	2926
795.889	1981
795.991	5028
796.094	5082
796.197	4315
796.300	4306
796.402	3058
796.505	2322
796.608	3273
796.710	2800
796.813	4307
796.915	1966
797.018	3359
797.120	2773
797.223	1932
797.326	3562
797.428	2839
797.530	3000
797.633	3697
797.735	5069
797.838	13024
797.940	8750
798.042	3282
798.145	2845
798.247	3973
798.349	1706
798.452	3455
798.554	2262
798.656	2057
798.758	4177
798.860	2522
798.962	2690
799.065	2792
799.167	1957
799.269	4196
799.371	3964
799.473	5319
799.575	5921
799.677	7935
799.779	6360
799.881	8976
799.983	5406
800.085	3303
800.187	2581
800.289	3080
800.390	2785
800.492	2688
800.594	2840
800.696	2825
800.798	2101
800.899	2470
801.001	2568
801.103	2791
801.205	1929
801.306	3402
801.408	1679
801.509	2803
801.611	1660
801.713	1895
801.814	1363
801.916	1964
802.017	1699
802.119	1868
802.220	2801
802.322	2036
802.423	7761
802.525	3285
802.626	2216
802.727	2866
802.829	2878
802.930	1375
803.031	3431
803.133	1965
803.234	771
803.335	2445
803.436	587
803.538	2285
803.639	698
803.740	3029
803.841	814
803.942	2319
804.043	1952
804.144	1769
804.245	1742
804.346	1578
804.447	1937
804.548	5978
804.649	6013
804.750	1975
804.851	1388
804.952	966
805.053	1627
805.154	990
805.255	2055
805.355	1612
805.456	1000
805.557	1251
805.658	400
805.758	2437
805.859	1657
805.960	1399
806.061	1027
806.161	998
806.262	2165
806.362	1902
806.463	1949
806.564	2619
806.664	1526
806.765	5469
806.865	3443
806.966	2655
807.066	1312
807.166	2642
807.267	2132
807.367	1317
807.468	2035
807.568	1166
807.668	1660
807.769	1919
807.869	1734
807.969	1834
808.069	1814
808.170	1828
808.270	1356
808.370	2694
808.470	4290
808.570	2678
808.670	1879
808.770	1887
808.870	756
808.970	1425
809.070	-98
809.170	1086
809.271	1273
809.370	1928
809.470	1301
809.570	384
809.670	1037
809.770	1351
809.870	2043
809.970	1521
810.070	38
810.169	2413
810.269	123
810.369	3113
810.469	1450
810.568	675
810.668	1460
810.768	899
810.867	1605
810.967	1348
811.066	1282
811.166	1433
811.265	1249
811.365	833
811.464	970
811.564	2089
811.663	2003
811.763	524
811.862	1549
811.962	2111
812.061	445
812.160	1415
812.260	1509
812.359	1125
812.458	698
812.557	2546
812.657	2367
812.756	2325
812.855	277
812.954	1250
813.053	2004
813.153	1893
813.252	579
813.351	1337
813.450	939
813.549	698
813.648	645
813.747	645
813.846	1002
813.945	763
814.044	916
814.143	1521
814.242	1683
814.341	1271
814.439	1314
814.538	1099
814.637	1055
814.736	986
814.835	1494
814.933	1380
815.032	1261
815.131	1528
815.229	1893
815.328	3047
815.427	1511
815.525	2582
815.624	1974
815.722	2212
815.821	2088
815.919	2667
816.018	1360
816.116	3491
816.215	1719
816.313	2646
816.412	1396
816.510	2428
816.609	3345
816.707	2581
816.805	1898
816.904	2359
817.002	2643
817.100	4424
817.198	3319
817.296	3423
817.395	3087
817.493	3913
817.591	2731
817.689	3852
817.787	3925
817.885	6118
817.983	9486
818.081	18656
818.179	44104
818.277	118430
818.375	91260
818.473	20425
818.571	8751
818.669	7720
818.767	5801
818.865	6126
818.963	6896
819.061	9887
819.158	15832
819.256	39031
819.354	92402
819.452	220093
819.549	124913
819.647	28531
819.745	11078
819.842	8828
819.940	6306
820.038	4886
820.135	3338
820.233	4884
820.330	2466
820.428	2705
820.525	3698
820.623	3280
820.720	2819
820.818	3801
820.915	2172
821.012	2036
821.110	982
821.207	2989
821.304	2138
821.402	3122
821.499	2407
821.596	2872
821.693	2514
821.791	3752
821.888	6471
821.985	14274
822.082	9325
822.179	3411
822.276	1746
822.373	1599
822.470	1844
822.567	2660
822.664	616
822.761	2013
822.858	478
822.955	2100
823.052	2258
823.149	1796
823.246	1875
823.343	1544
823.440	1616
823.536	1773
823.633	1434
823.730	1929
823.827	1234
823.923	2424
824.020	2127
824.117	1833
824.213	1205
824.310	1449
824.407	914
824.503	2033
824.600	1631
824.696	1791
824.793	2219
824.889	2352
824.986	1138
825.082	355
825.179	1751
825.275	1535
825.371	307
825.468	1871
825.564	326
825.660	1345
825.757	1632
825.853	2396
825.949	227
826.045	1335
826.142	1064
826.238	1568
826.334	1335
826.430	1641
826.526	1251
826.622	817
826.718	1358
826.814	756
826.910	1384
827.006	362
827.102	343
827.198	2151
827.294	561
827.390	1566
827.486	438
827.582	495
827.678	-367
827.774	2351
827.869	-33
827.965	2155
828.061	322
828.157	1124
828.252	782
828.348	348
828.444	1528
828.539	378
828.635	571
828.731	1077
828.826	731
828.922	1642
829.017	935
829.113	1889
829.208	801
829.304	1026
829.399	2157
829.495	1212
829.590	1579
829.685	885
829.781	1241
829.876	1728
829.971	272
830.066	647
830.162	583
830.257	902
830.352	1237
830.447	1923
830.543	2098
830.638	1665
830.733	1639
830.828	1424
830.923	1265
831.018	2118
831.113	1750
831.208	1803
831.303	1257
831.398	1146
831.493	428
831.588	1324
831.683	-885
831.778	621
831.873	1195
831.967	2352
832.062	157
832.157	581
832.252	1589
832.346	1781
832.441	2654
832.536	4979
832.631	12024
832.725	9111
832.820	1036
832.914	1625
833.009	1350
833.104	2646
833.198	3180
833.293	2509
833.387	2135
833.482	1335
833.576	303
833.670	2504
833.765	1337
833.859	2418
833.954	2799
834.048	816
834.142	540
834.237	983
834.331	1363
834.425	1265
834.519	-83
834.613	1281
834.708	739
834.802	1316
834.896	615
834.990	1120
835.084	495
835.178	1175
835.272	1977
835.366	894
835.460	1649
835.554	892
835.648	398
835.742	1112
835.836	344
835.930	390
836.024	1337
836.117	2580
836.211	2130
836.305	4363
836.399	6403
836.493	1610
836.586	1214
836.680	-71
836.774	30
836.867	1980
836.961	-1128
837.055	-350
837.148	773
837.242	537
837.335	71
837.429	888
837.522	1496
837.616	3442
837.709	7306
837.803	5646
837.896	1172
837.989	2657
838.083	5061
838.176	11451
838.269	8532
838.363	2317
838.456	1297
838.549	4779
838.642	7031
838.735	14043
838.829	5414
838.922	2007
839.015	1075
839.108	211
839.201	1001
839.294	1390
839.387	1373
839.480	1734
839.573	2797
839.666	6208
839.759	1658
839.852	167
839.945	894
840.038	712
840.131	1337
840.223	1062
840.316	727
840.409	697
840.502	-414
840.594	1508
840.687	166
840.780	543
840.873	933
840.965	2107
841.058	4268
841.150	10326
841.243	5834
841.336	1372
841.428	804
841.521	962
841.613	897
841.706	2384
841.798	318
841.890	1113
841.983	-488
842.075	1129
842.167	1350
842.260	909
842.352	4363
842.444	5915
842.537	12072
842.629	17012
842.721	3317
842.813	1596
842.905	237
842.997	2056
843.090	2319
843.182	6678
843.274	12187
843.366	27363
843.458	51098
843.550	30397
843.642	3737
843.734	2691
843.826	2848
843.918	3381
844.009	834
844.101	794
844.193	301
844.285	590
844.377	394
844.469	1594
844.560	479
844.652	1688
844.744	542
844.835	1579
844.927	1303
845.019	3076
845.110	1815
845.202	1722
845.293	347
845.385	697
845.476	356
845.568	1717
845.659	1234
845.751	1898
845.842	-447
845.934	217
846.025	-323
846.116	981
846.208	370
846.299	723
846.390	1768
846.482	892
846.573	2049
846.664	3991
846.755	6948
846.846	5307
846.937	-287
847.029	1163
847.120	194
847.211	510
847.302	615
847.393	281
847.484	290
847.575	637
847.666	441
847.757	237
847.847	336
847.938	1524
848.029	43
848.120	-165
848.211	1339
848.302	661
848.392	-565
848.483	1243
848.574	-914
848.664	-102
848.755	1286
848.846	1127
848.936	232
849.027	870
849.118	333
849.208	974
849.299	1880
849.389	3772
849.480	8114
849.570	17753
849.661	32306
849.751	53500
849.841	18301
849.932	2734
850.022	1132
850.112	1260
850.203	715
850.293	1225
850.383	200
850.474	693
850.564	-359
850.654	1306
850.744	385
850.834	1044
850.924	696
851.014	759
851.104	630
851.194	589
851.284	2022
851.374	2752
851.464	1542
851.554	1908
851.644	2214
851.734	5825
851.824	3206
851.914	171
852.004	1038
852.094	462
852.183	785
852.273	920
852.363	452
852.452	1841
852.542	1492
852.632	379
852.721	490
852.811	180
852.901	922
852.990	585
853.080	1280
853.169	1258
853.259	771
853.348	2251
853.438	1977
853.527	4413
853.617	4620
853.706	10684
853.795	18864
853.885	44782
853.974	84261
854.063	156465
854.152	235876
854.242	88207
854.331	16716
854.420	7213
854.509	4282
854.598	4520
854.687	3625
854.777	4307
854.866	1337
854.955	1570
855.044	78
855.133	1383
855.222	828
855.311	636
855.400	307
855.488	829
855.577	-109
855.666	890
855.755	1221
855.844	563
855.933	419
856.021	1330
856.110	212
856.199	167
856.288	105
856.376	192
856.465	301
856.554	939
856.642	-40
856.731	1086
856.819	789
856.908	1158
856.996	161
857.085	631
857.173	-270
857.262	543
857.350	602
857.438	58
857.527	55
857.615	914
857.703	1116
857.792	921
857.880	-419
857.968	812
858.056	447
858.145	529
858.233	631
858.321	1441
858.409	1058
858.497	-323
858.585	-510
858.673	750
858.761	-214
858.849	709
858.937	459
859.025	1147
859.113	366
859.201	277
859.289	445
859.377	263
859.465	-286
859.552	1043
859.640	-218
859.728	979
859.816	631
859.903	575
859.991	-216
860.079	857
860.166	-399
860.254	-723
860.342	-13
860.429	781
860.517	-625
860.604	-211
860.692	879
860.779	-104
860.867	75
860.954	-170
861.042	809
861.129	1851
861.216	-170
861.304	76
861.391	343
861.478	483
861.565	225
861.653	1438
861.740	-344
861.827	-134
861.914	-59
862.001	269
862.089	260
862.176	746
862.263	-646
862.350	665
862.437	-664
862.524	-435
862.611	-414
862.698	1040
862.785	988
862.871	626
862.958	69
863.045	-247
863.132	-716
863.219	-40
863.306	-786
863.392	712
863.479	-647
863.566	32
863.652	329
863.739	-868
863.826	227
863.912	756
863.999	-426
864.086	294
864.172	-547
864.259	524
864.345	-150
864.432	1116
864.518	-343
864.604	183
864.691	-97
864.777	1119
864.863	693
864.950	1776
865.036	874
865.122	3138
865.209	2143
865.295	1961
865.381	1653
865.467	3717
865.553	4093
865.639	5806
865.726	10819
865.812	23952
865.898	45256
865.984	68126
866.070	126325
866.156	134227
866.242	33878
866.328	8938
866.414	3707
866.499	3882
866.585	2777
866.671	2053
866.757	2806
866.843	2912
866.928	1635
867.014	1836
867.100	1397
867.186	2398
867.271	3333
867.357	5317
867.442	5642
867.528	3024
867.614	180
867.699	1456
867.785	1542
867.870	1062
867.956	1715
868.041	2282
868.127	2126
868.212	3700
868.297	1416
868.383	2885
868.468	3339
868.553	6737
868.639	8232
868.724	17346
868.809	14494
868.894	3139
868.979	1713
869.065	1432
869.150	505
869.235	895
869.320	438
869.405	1118
869.490	651
869.575	653
869.660	360
869.745	1555
869.830	495
869.915	1513
870.000	148
870.085	650
870.169	1006
870.254	482
870.339	-191
870.424	-132
870.509	385
870.593	1274
870.678	-281
870.763	1334
870.847	1201
870.932	1053
871.016	724
871.101	313
871.186	416
871.270	1490
871.355	-748
871.439	834
871.523	-118
871.608	245
871.692	-408
871.777	1070
871.861	-467
871.945	278
872.030	1037
872.114	1591
872.198	63
872.282	379
872.367	-681
872.451	104
872.535	513
872.619	1262
872.703	-187
872.787	1381
872.871	-128
872.955	-569
873.039	-353
873.123	1319
873.207	1175
873.291	347
873.375	128
873.459	1298
873.543	-136
873.627	593
873.711	-134
873.794	401
873.878	-821
873.962	25
874.045	-7
874.129	-129
874.137	-79
874.213	426
874.245	493
874.296	597
874.352	-260
874.380	-679
874.460	521
874.464	569
874.547	216
874.568	558
874.631	1552
874.676	905
874.714	377
874.784	798
874.798	879
874.881	403
874.892	491
874.965	1079
874.999	608
875.048	-27
875.107	129
875.131	192
875.215	43
875.215	44
875.298	868
875.323	751
875.381	419
875.430	1086
875.465	1575
875.538	385
875.548	213
875.631	76
875.646	-10
875.714	-368
875.753	53
875.798	540
875.861	273
875.881	184
875.964	545
875.968	512
876.047	-30
876.076	76
876.130	256
876.183	244
876.213	231
876.291	1277
876.296	1346
876.379	142
876.398	180
876.462	341
876.506	3
876.545	-288
876.613	640
876.628	827
876.711	-833
876.721	-742
876.794	18
876.828	-98
876.877	-300
876.935	267
876.960	519
877.043	-321
877.043	-319
877.125	314
877.150	381
877.208	647
877.258	530
877.291	343
877.365	-525
877.374	-601
877.456	291
877.472	238
877.539	-104
877.579	204
877.622	593
877.687	261
877.704	155
877.787	911
877.794	860
877.869	191
877.901	185
877.952	320
878.008	464
878.034	498
878.115	209
878.117	204
878.199	187
878.222	221
878.282	470
878.329	481
878.364	334
878.437	412
878.447	430
878.529	-212
878.544	-150
878.611	377
878.651	357
878.694	318
878.758	686
878.776	739
878.858	579
878.865	557
878.941	272
878.972	198
879.023	232
879.078	581
879.105	856
879.185	1177
879.187	1171
879.269	936
879.292	616
879.351	11
879.399	4
879.433	-11
879.506	595
879.516	697
879.598	856
879.613	754
879.680	203
879.720	375
879.762	564
879.827	464
879.844	443
879.926	602
879.933	618
880.007	726
880.040	1063
880.089	1638
880.147	2427
880.171	2883
880.253	5682
880.254	5700
880.335	8089
880.360	8945
880.417	12244
880.467	18072
880.499	21997
880.574	25907
880.580	25578
880.662	8666
880.680	6551
880.744	2031
880.787	1008
880.825	680
880.893	699
880.907	734
880.989	827
881.000	792
881.070	525
881.106	366
881.152	208
881.213	547
881.233	670
881.315	531
881.319	528
881.396	495
881.426	380
881.478	191
881.532	568
881.559	893
881.639	929
881.641	913
881.722	631
881.745	447
881.803	382
881.852	454
881.885	655
881.958	1097
881.966	1116
882.047	1426
882.064	1484
882.129	1521
882.171	1906
882.210	2903
882.277	4211
882.291	4218
882.372	2378
882.383	2232
882.454	1179
882.489	838
882.535	696
882.596	418
882.616	309
882.697	384
882.702	352
882.778	554
882.808	809
882.859	650
882.914	214
882.940	290
883.020	1099
883.021	1105
883.102	994
883.127	900
883.183	1073
883.233	1016
883.264	668
883.339	626
883.345	656
883.426	-23
883.445	62
883.507	579
883.551	751
883.587	733
883.657	553
883.668	590
883.749	716
883.763	809
883.830	831
883.869	521
883.910	35
883.975	-180
883.991	-21
884.072	210
884.081	300
884.152	830
884.187	704
884.233	445
884.292	602
884.314	660
884.394	427
884.398	446
884.475	609
884.504	300
884.555	210
884.610	817
884.636	999
884.716	768
884.716	770
884.797	713
884.821	553
884.877	365
884.927	491
884.958	584
885.033	729
885.038	710
885.118	86
885.139	-92
885.199	-58
885.244	153
885.279	419
885.350	918
885.359	898
885.439	596
885.456	462
885.520	458
885.561	829
885.600	870
885.667	442
885.680	482
885.760	884
885.773	949
885.840	1196
885.878	1254
885.920	931
885.984	441
886.000	389
886.080	389
886.089	364
886.160	760
886.195	997
886.240	956
886.300	689
886.320	750
886.400	1258
886.406	1276
886.480	1120
886.511	1179
886.560	1720
886.616	2066
886.640	1781
886.720	793
886.722	764
886.800	208
886.827	104
886.879	825
886.932	1503
886.959	1580
887.038	1751
887.039	1749
887.119	911
887.143	696
887.198	1053
887.248	1397
887.278	1301
887.354	840
887.358	845
887.437	878
887.459	933
887.517	1382
887.564	1626
887.596	1290
887.669	621
887.676	663
887.755	971
887.774	1084
887.835	1022
887.880	913
887.914	771
887.985	489
887.994	530
888.073	772
888.090	862
888.153	1148
888.195	1268
888.232	1267
888.300	1264
888.311	1238
888.391	898
888.405	854
888.470	1115
888.510	1226
888.549	1278
888.615	1419
888.628	1400
888.708	1207
888.720	1176
888.787	1059
888.825	914
888.866	957
888.930	1093
888.945	1204
889.024	1765
889.035	1836
889.103	1423
889.140	1144
889.182	1394
889.245	1838
889.261	1827
889.340	1676
889.349	1656
889.419	1524
889.454	1448
889.498	1573
889.559	1747
889.577	1628
889.656	1077
889.664	1022
889.735	1102
889.768	1134
889.814	1396
889.873	1738
889.978	995
890.083	913
890.187	1618
890.292	1364
890.397	1204
890.501	2020
890.606	1785
890.710	1508
890.815	1887
890.919	1635
891.024	869
891.128	1327
891.233	1230
891.337	990
891.442	896
891.546	751
891.650	1146
891.755	1353
891.859	2891
891.963	1245
892.068	1306
892.172	961
892.276	1063
892.380	1186
892.484	1063
892.589	1020
892.693	1140
892.797	1385
892.901	1332
893.005	943
893.109	1998
893.213	1533
893.317	1338
893.421	937
893.525	760
893.629	734
893.733	1258
893.837	1226
893.941	1039
894.045	1722
894.148	415
894.252	1474
894.356	902
894.460	1539
894.564	2255
894.667	621
894.771	1147
894.875	1594
894.978	1179
895.082	1095
895.186	1751
895.289	896
895.393	938
895.496	1296
895.600	646
895.703	302
895.807	274
895.910	1805
896.014	1026
896.117	1231
896.221	792
896.324	1225
896.427	1134
896.531	634
896.634	1223
896.737	1643
896.840	616
896.944	856
897.047	1365
897.150	1156
897.253	761
897.356	1191
897.460	622
897.563	1188
897.666	2146
897.769	582
897.872	1689
897.975	239
898.078	1187
898.181	1072
898.284	1175
898.387	2480
898.490	720
898.593	1154
898.695	784
898.798	779
898.901	1383
899.004	560
899.107	1445
899.209	1216
899.312	1667
899.415	699
899.518	1462
899.620	803
899.723	1809
899.826	2414
899.928	3280
900.031	889
900.133	1338
900.236	838
900.338	1098
900.441	610
900.543	997
900.646	958
900.748	2241
900.851	1338
900.953	867
901.055	1030
901.158	1522
901.260	467
901.362	1017
901.465	616
901.567	880
901.669	249
901.771	1447
901.873	1173
901.976	359
902.078	1177
902.180	1028
902.282	1131
902.384	1261
902.486	925
902.588	1600
902.690	837
902.792	766
902.894	1469
902.996	766
903.098	936
903.200	784
903.302	1044
903.404	683
903.505	211
903.607	982
903.709	1857
903.811	1278
903.913	1407
904.014	542
904.116	680
904.218	1103
904.319	1301
904.421	2052
904.523	1157
904.624	1273
904.726	634
904.827	1172
904.929	951
905.030	1708
905.132	1952
905.233	1164
905.335	647
905.436	824
905.537	1351
905.639	1302
905.740	296
905.841	963
905.943	1051
906.044	1732
906.145	984
906.247	982
906.348	1329
906.449	723
906.550	1158
906.651	555
906.752	1333
906.854	545
906.955	1275
907.056	1080
907.157	1909
907.258	2091
907.359	1383
907.460	1302
907.561	662
907.662	1615
907.762	1350
907.863	1428
907.964	1433
908.065	681
908.166	-6
908.267	1169
908.367	418
908.468	1066
908.569	686
908.670	1234
908.770	1921
908.871	2055
908.971	1659
909.072	1586
909.173	1107
909.273	1370
909.374	1217
909.474	1009
909.575	714
909.675	838
909.776	736
909.876	1251
909.977	1135
910.077	1775
910.177	665
910.278	1372
910.378	803
910.478	1289
910.579	922
910.679	1559
910.779	1050
910.879	1345
910.980	904
911.080	630
911.180	1042
911.280	1184
911.380	1253
911.480	1466
911.580	1000
911.680	1379
911.780	1121
911.880	1770
911.980	582
912.080	1778
912.180	1374
912.280	1102
912.380	857
912.480	1264
912.580	611
912.679	757
912.779	1533
912.879	1445
912.979	1042
913.078	510
913.178	1062
913.278	1001
913.377	316
913.477	1097
913.577	448
913.676	1047
913.776	1143
913.875	1423
913.975	420
914.074	781
914.174	608
914.273	486
914.373	1655
914.472	1029
914.572	884
914.671	979
914.770	480
914.870	411
914.969	906
915.068	615
915.167	1422
915.267	1074
915.366	960
915.465	1240
915.564	1497
915.663	952
915.763	572
915.862	1284
915.961	801
916.060	540
916.159	356
916.258	691
916.357	866
916.456	685
916.555	757
916.654	630
916.752	993
916.851	1139
916.950	1182
917.049	1252
917.148	872
917.247	656
917.345	582
917.444	1285
917.543	1398
917.642	1161
917.740	850
917.839	685
917.937	303
918.036	1356
918.135	1028
918.233	907
918.332	667
918.430	505
918.529	755
918.627	1268
918.726	1115
918.824	995
918.923	747
919.021	1049
919.119	621
919.218	1890
919.316	432
919.414	1227
919.512	221
919.611	746
919.709	73
919.807	884
919.905	912
920.003	1204
920.102	1873
920.200	453
920.298	1406
920.396	503
920.494	1040
920.592	1728
920.690	1715
920.788	1870
920.886	595
920.984	1089
921.082	620
921.180	1243
921.277	1263
921.375	1648
921.473	2020
921.571	2441
921.669	966
921.766	1103
921.864	1509
921.962	2082
922.060	1629
922.157	808
922.255	904
922.352	1362
922.450	1731
922.548	1015
922.645	1872
922.743	1601
922.840	2981
922.938	3849
923.035	2756
923.133	3223
923.230	3453
923.327	3853
923.425	3239
923.522	3563
923.619	2996
923.717	3565
923.814	2983
923.911	3396
924.008	3523
924.106	2625
924.203	3525
924.300	2970
924.397	3033
924.494	3274
924.591	3548
924.688	3338
924.786	2841
924.883	3281
924.979	2603
925.077	3166
925.173	2958
925.270	2953
925.367	2943
925.464	3602
925.561	2873
925.658	4709
925.755	2572
925.852	3823
925.948	3269
926.045	3247
926.142	2345
926.239	3069
926.335	2676
926.432	3252
926.529	3145
926.625	3310
926.722	2639
926.818	3150
926.915	2620
927.011	2332
927.108	2882
927.204	3694
927.301	2592
927.397	2479
927.494	3242
927.590	2401
927.687	2395
927.783	3505
927.879	1967
927.976	2969
928.072	2225
928.168	3102
928.264	2593
928.361	2905
928.457	2568
928.553	3078
928.649	2299
928.745	2489
928.841	2116
928.937	2330
929.033	2959
929.129	2198
929.225	2603
929.321	2265
929.417	1927
929.513	2658
929.609	2543
929.705	2638
929.801	3481
929.897	1722
929.993	1947
930.089	2267
930.184	1855
930.280	2102
930.376	3217
930.471	1357
930.567	2207
930.663	1804
930.758	2127
930.854	3210
930.950	2481
931.045	1980
931.141	2007
931.236	3159
931.332	1596
931.427	1811
931.523	1868
931.618	1900
931.714	1509
931.809	2442
931.905	2144
932.000	1938
932.095	1346
932.191	3187
932.286	3482
932.381	1414
932.476	1115
932.572	2189
932.667	1272
932.762	2388
932.857	2437
932.952	2752
933.047	2092
933.142	1584
933.237	1628
933.332	2309
933.427	2523
933.522	2177
933.617	2110
933.712	2259
933.807	2739
933.902	2109
933.997	2611
934.092	1824
934.187	1815
934.282	1874
934.376	1537
934.471	2477
934.566	961
934.661	1352
934.755	1113
934.850	1802
934.945	1603
935.039	1877
935.134	1497
935.228	1530
935.323	2309
935.417	1312
935.512	1806
935.606	366
935.701	1202
935.795	1921
935.890	1709
935.984	2002
936.079	1805
936.173	2762
936.267	1201
936.362	1530
936.456	1276
936.550	1929
936.644	870
936.738	1584
936.833	1763
936.927	1246
937.021	1120
937.115	1409
937.209	1322
937.303	2568
937.397	1045
937.491	2446
937.585	1969
937.679	1746
937.773	1385
937.867	726
937.961	1368
938.055	2331
938.149	2063
938.243	1744
938.337	504
938.430	1922
938.524	1765
938.618	1765
938.712	1989
938.805	1815
938.899	1309
938.993	1231
939.086	945
939.180	1251
939.274	1295
939.367	1381
939.461	1351
939.554	1567
939.648	1104
939.741	1574
939.835	1862
939.928	1168
940.022	2001
940.115	1759
940.208	1728
940.302	2621
940.395	1202
940.488	852
940.582	1562
940.675	622
940.768	660
940.861	1529
940.954	2161
941.048	871
941.141	581
941.234	1703
941.327	1129
941.420	2431
941.513	1669
941.606	815
941.699	1560
941.792	2066
941.885	1526
941.978	1161
942.071	636
942.164	1084
942.257	1229
942.349	2275
942.442	1968
942.535	661
942.628	1386
942.721	807
942.813	497
942.906	1264
942.999	1580
943.091	808
943.184	529
943.277	659
943.369	1593
943.462	273
943.554	1257
943.647	429
943.739	1880
943.832	1120
943.924	-180
944.017	512
944.109	301
944.201	979
944.294	823
944.386	954
944.478	827
944.571	741
944.663	1632
944.755	1538
944.847	635
944.940	1835
945.032	-1086
945.124	684
945.216	1248
945.308	598
945.400	1128
945.492	1271
945.584	1431
945.676	2091
945.768	718
945.860	1550
945.952	798
946.044	1179
946.136	346
946.228	494
946.320	614
946.412	182
946.503	1237
946.595	1983
946.687	219
946.779	460
946.870	807
946.962	600
947.054	1021
947.145	1808
947.237	488
947.329	211
947.420	833
947.512	1292
947.603	714
947.695	814
947.786	-132
947.878	238
947.969	932
948.061	136
948.152	21
948.243	-253
948.335	944
948.426	579
948.517	-82
948.609	934
948.700	478
948.791	874
948.882	451
948.973	390
949.065	790
949.156	850
949.247	335
949.338	1073
949.429	210
949.520	207
949.611	500
949.702	976
949.793	593
949.884	281
949.975	685
950.066	73
950.157	264
950.247	682
950.338	103
950.429	763
950.520	316
950.611	1059
950.701	476
950.792	1025
950.883	654
950.973	707
951.064	647
951.155	1020
951.245	466
951.336	484
951.427	525
951.517	1443
951.608	888
951.698	525
951.788	765
951.879	-102
951.969	-550
952.060	275
952.150	-530
952.240	622
952.331	-393
952.421	1996
952.511	-745
952.602	239
952.692	8
952.782	416
952.872	196
952.962	1004
953.052	-105
953.143	-17
953.233	646
953.323	838
953.413	-106
953.503	216
953.593	693
953.683	311
953.773	-705
953.863	55
953.953	580
954.042	197
954.132	277
954.222	-109
954.312	111
954.402	741
954.492	668
954.581	969
954.671	239
954.761	94
954.850	1356
954.940	-273
955.030	-20
955.119	-540
955.209	-131
955.298	-288
955.388	124
955.477	927
955.567	-334
955.656	252
955.746	790
955.835	-261
955.925	-824
956.014	-479
956.103	-175
956.193	298
956.282	867
956.371	311
956.461	-786
956.550	-159
956.639	763
956.728	17
956.817	258
956.906	499
956.995	455
957.085	-213
957.174	577
957.263	41
957.352	-343
957.441	-87
957.530	-431
957.619	585
957.708	-414
957.796	-120
957.885	251
957.974	-626
958.063	865
958.152	-411
958.241	587
958.329	-403
958.418	-233
958.507	-249
958.596	531
958.684	-570
958.773	220
958.861	-595
958.950	79
959.039	36
959.127	285
959.216	755
959.304	41
959.393	63
959.481	-209
959.570	-427
959.658	-342
959.746	870
959.835	803
959.923	1139
960.011	24
960.100	669
960.188	370
960.276	461
960.365	-829
960.453	-197
960.541	-719
960.629	210
960.717	-196
960.805	-777
960.893	-750
960.981	-257
961.069	537
961.158	-39
961.245	674
961.333	293
961.421	-493
961.509	385
961.597	312
961.685	-312
961.773	-617
961.861	-462
961.949	255
962.036	-419
962.124	20
962.212	478
962.299	-1025
962.387	-552
962.475	-451
962.562	-448
962.650	-90
962.738	171
962.825	535
962.913	580
963.000	-643
963.088	-24
963.175	-540
963.263	-371
963.350	-23
963.438	452
963.525	36
963.612	1224
963.700	1871
963.787	9035
963.874	3660
963.962	289
964.049	-367
964.136	162
964.223	-263
964.310	539
964.398	-36
964.485	-618
964.572	-337
964.659	1209
964.746	738
964.833	-455
964.920	-603
965.007	-288
965.094	35
965.181	-417
965.268	292
965.355	567
965.441	152
965.528	-1566
965.615	-122
965.702	-96
965.789	-969
965.875	-833
965.962	-7
966.049	-207
966.136	105
966.222	-1173
966.309	-287
966.395	-1290
966.482	237
966.569	-188
966.655	-461
966.742	301
966.828	33
966.915	-475
967.001	-383
967.087	-1135
967.174	183
967.260	293
967.347	78
967.433	1809
967.519	5520
967.605	865
967.692	-612
967.778	-212
967.864	-980
967.950	203
968.036	-1091
968.123	517
968.209	-465
968.295	-1486
968.381	705
968.467	338
968.553	-1436
968.639	149
968.725	-1010
968.811	987
968.897	117
968.983	731
969.069	-681
969.154	27
969.240	124
969.326	-873
969.412	-598
969.497	-708
969.583	-1052
969.669	387
969.755	324
969.840	-216
969.926	582
970.012	-146
970.097	615
970.183	-532
970.268	3
970.354	1150
970.439	655
970.525	3479
970.610	-7
970.696	986
970.781	-127
970.866	-1284
970.952	831
971.037	-281
971.122	-410
971.208	-235
971.293	-612
971.378	-1003
971.463	212
971.549	260
971.634	-875
971.719	-71
971.804	10
971.889	-181
971.974	-54
972.059	-589
972.144	-472
972.229	-634
972.314	-392
972.399	-125
972.484	-136
972.569	162
972.654	-583
972.739	1326
972.824	864
972.908	919
972.993	-655
973.078	-935
973.163	-1240
973.247	-446
973.332	-1772
973.417	191
973.501	-109
973.586	-292
973.671	-295
973.755	-439
973.840	234
973.924	290
974.009	-104
974.093	-777
974.178	528
974.262	798
974.346	753
974.431	-433
974.515	-101
974.600	33
974.684	311
974.768	-753
974.852	470
974.937	-870
975.021	660
975.105	-306
975.189	-230
975.273	320
975.358	-834
975.442	-1287
975.526	1247
975.610	-821
975.694	-1047
975.778	1072
975.862	-586
975.946	-1402
976.030	1143
976.114	-467
976.198	777
976.281	-468
976.365	410
976.449	-1573
976.533	-203
976.617	-621
976.700	-978
976.784	-382
976.868	-984
976.951	-171
977.035	-173
977.119	-793
977.202	-381
977.286	-156
977.369	-306
977.453	-782
977.536	-185
977.620	-72
977.703	322
977.787	-1374
977.870	130
977.953	310
978.037	-1022
978.120	148
978.203	266
978.287	2027
978.370	172
978.453	-708
978.536	-216
978.620	516
978.703	824
978.786	426
978.869	-562
978.952	-840
979.035	559
979.118	-86
979.201	-970
979.284	36
979.367	-482
979.450	-55
979.533	-909
979.616	-266
979.699	-673
979.782	669
979.865	-127
979.948	131
980.030	-347
980.113	-396
980.196	-365
980.279	125
980.361	-688
980.444	755
980.526	517
980.609	-411
980.692	-331
980.774	-157
980.857	-1300
980.939	723
981.022	-499
981.104	-206
981.187	-1019
981.269	-108
981.352	-414
981.434	-491
981.516	-1279
981.599	149
981.681	630
981.763	-357
981.846	-379
981.928	-580
982.010	247
982.092	-1377
982.174	9
982.256	-241
982.339	-803
982.421	-36
982.503	249
982.585	-853
982.667	-1130
982.749	-505
982.831	-937
982.913	-1083
982.995	657
983.077	-660
983.158	187
983.240	-635
983.322	398
983.404	128
983.486	-154
983.568	-503
983.649	-27
983.731	413
983.813	-1113
983.894	169
983.976	-1108
984.058	-1009
984.139	909
984.221	-526
984.302	431
984.384	-215
984.465	-1797
984.547	-871
984.628	-947
984.710	658
984.791	-775
984.872	-414
984.954	-341
985.035	-609
985.116	-701
985.198	-778
985.279	478
985.360	-840
985.441	-426
985.522	-136
985.604	-239
985.685	-1745
985.766	224
985.847	375
985.928	-737
986.009	-703
986.090	-517
986.171	623
986.252	-652
986.333	119
986.414	-987
986.495	170
986.576	-755
986.656	554
986.737	-130
986.818	-247
986.899	-532
986.980	-646
987.060	-224
987.141	-362
987.222	-159
987.302	335
987.383	-338
987.464	-1032
987.544	-651
987.625	-289
987.705	407
987.786	478
987.866	-33
987.947	-313
988.027	-448
988.108	-721
988.188	123
988.268	-455
988.349	-549
988.429	-136
988.509	393
988.589	-781
988.670	-1525
988.750	1391
988.830	30
988.910	731
988.990	-134
989.070	-294
989.151	-89
989.231	-1294
989.311	473
989.391	-588
989.471	-324
989.551	-892
989.631	-303
989.711	827
989.791	-749
989.870	-961
989.950	127
990.030	-672
990.110	-127
990.190	-1044
990.269	-597
990.349	-1435
990.429	-714
990.509	199
990.588	-1176
990.668	199
990.747	-926
990.827	-599
990.907	-427
990.986	-901
991.066	-808
991.145	-1818
991.225	-503
991.304	-1316
991.383	-332
991.463	10
991.542	-466
991.622	-1161
991.701	-1185
991.780	-810
991.859	-907
991.939	-458
992.018	-178
992.097	-121
992.176	-827
992.256	-455
992.335	-1096
992.414	-110
992.493	-878
992.572	-750
992.651	231
992.730	-680
992.809	-282
992.888	-754
992.967	-761
993.046	-873
993.125	-955
993.203	-1012
993.282	-979
993.361	-584
993.440	-494
993.519	-2327
993.597	-959
993.676	-1836
993.755	-493
993.834	-1151
993.912	-1260
993.991	-104
994.069	-1298
994.148	-1060
994.226	-842
994.305	-711
994.384	-894
994.462	677
994.540	-1007
994.619	-1272
994.697	-70
994.776	-1534
994.854	210
994.932	-1596
995.011	-671
995.089	-860
995.167	-989
995.245	-375
995.324	-1754
995.402	-439
995.480	-1599
995.558	-1221
995.636	-2155
995.714	-774
995.792	-1062
995.870	-583
995.948	-689
996.026	-54
996.104	-1573
996.182	-778
996.260	-1069
996.338	-1285
996.416	-440
996.494	-1552
996.572	-553
996.649	-549
996.727	-1360
996.805	-953
996.883	-1690
996.960	-1349
997.038	-325
997.116	-803
997.193	-1695
997.271	-1454
997.348	-1173
997.426	-1398
997.504	-1530
997.581	-691
997.658	-1064
997.736	-1881
997.813	-1485
997.891	-230
997.968	-1712
998.046	-737
998.123	-2241
998.200	-424
998.277	-2147
998.355	-232
998.432	-2011
998.509	-407
998.586	-1132
998.663	-1382
998.741	-1237
998.818	-828
998.895	-1653
998.972	-594
999.049	-1533
999.126	-1540
999.203	-1225
999.280	-1647
999.357	-1677
999.434	-968
999.511	-1463
999.587	-1401
999.664	-2054
999.741	-899
999.818	-834
999.895	-1021
999.971	-971
1000.048	-1116
1000.125	-572
1000.202	-2129
1000.278	-931
1000.355	-1866
1000.431	-115
1000.508	-1477
1000.584	-1598
1000.661	-1780
1000.738	-1462
1000.814	-992
1000.890	-922
1000.967	-1283
1001.043	-2410
1001.120	-2000
1001.196	-2119
1001.272	-1927
1001.349	-1159
1001.425	-265
1001.501	-1418
1001.577	-1438
1001.654	-1873
1001.730	-1831
1001.806	-1762
1001.882	-1951
1001.958	-540
1002.034	-1025
1002.110	-2451
1002.186	-1435
1002.262	-2259
1002.338	-2090
1002.414	-1280
1002.490	-1833
1002.566	-1985
1002.642	-2046
1002.718	-515
1002.794	-1703
1002.870	-1199
1002.945	-1540
1003.021	-1964
1003.097	-1533
1003.173	-682
1003.248	-1612
1003.324	-2021
1003.400	-916
1003.475	-2385
1003.551	-1177
1003.626	-916
1003.702	-2180
1003.777	-1905
1003.853	-2640
1003.928	-2023
1004.004	-1422
1004.079	-1308
1004.155	-1407
1004.230	-2160
1004.305	-657
1004.381	-2163
1004.456	-1481
1004.531	-2166
1004.607	-1204
1004.682	-1242
1004.757	-1241
1004.832	-1541
1004.907	-1461
1004.982	-1925
1005.057	-1663
1005.133	-1732
1005.208	-1613
1005.283	-1481
1005.358	-1428
1005.433	-2277
1005.508	-1087
1005.583	-2252
1005.657	-1984
1005.732	-1107
1005.807	-2105
1005.882	-2179
1005.957	-1528
1006.032	-1235
1006.106	-1492
1006.181	-2040
1006.256	-1000
1006.331	-1534
1006.405	-1446
1006.480	-1370
1006.554	-1576
1006.629	-1757
1006.704	-2715
1006.778	-1428
1006.853	-1259
1006.927	-2351
1007.002	-1519
1007.076	-725
1007.150	-2523
1007.225	-2091
1007.299	-1420
1007.373	-1693
1007.448	-330
1007.522	-856
1007.596	-1282
1007.671	-2023
1007.745	-1204
1007.819	-2911
1007.893	-1820
1007.967	-1131
1008.041	-2211
1008.115	-595
1008.190	-2005
1008.264	-1082
1008.338	-2224
1008.412	-2409
1008.486	-1025
1008.560	-1701
1008.633	-2392
1008.707	-1557
1008.781	-657
1008.855	-2755
1008.929	-1630
1009.003	-2035
1009.076	-2016
1009.150	-1815
1009.224	-2392
1009.298	-1756
1009.371	-1923
1009.445	-1696
1009.519	-2322
1009.592	-1868
1009.666	-1169
1009.739	-2094
1009.813	-2193
1009.886	-1456
1009.960	-2900
1010.033	-1007
1010.107	-1418
1010.180	-2966
1010.253	-2178
1010.327	-2155
1010.400	-1677
1010.473	-1500
1010.547	-292
1010.620	-1193
1010.693	-800
1010.766	-2280
1010.840	-2044
1010.913	-2315
1010.986	-2175
1011.059	-2027
1011.132	-2069
1011.205	-1086
1011.278	-1758
1011.351	-1529
1011.424	-1960
1011.497	-2408
1011.570	-2135
1011.643	-1969
1011.716	-1961
1011.789	-1583
1011.862	-1832
1011.934	-1378
1012.007	-3248
1012.080	-1151
1012.153	-1568
1012.225	-1665
1012.298	-2615
1012.371	-2037
1012.443	-2286
1012.516	-2128
1012.588	-974
1012.661	-1634
1012.733	-2215
1012.806	-1706
1012.879	-1858
1012.951	-2075
1013.023	-2443
1013.096	-1009
1013.168	-1967
1013.241	-1406
1013.313	-1952
1013.385	-2825
1013.458	-1790
1013.530	-1658
1013.602	-2882
1013.674	-1704
1013.746	-2293
1013.819	-2148
1013.891	-1571
1013.963	-1716
1014.035	-2430
1014.107	-1790
1014.179	-2318
1014.251	-3375
1014.323	-1934
1014.395	-1083
1014.467	-1169
1014.539	-1337
1014.611	-2578
1014.683	-1296
1014.754	-2093
1014.826	-2742
1014.898	-1394
1014.970	-2517
1015.042	-1647
1015.113	-1799
1015.185	-1984
1015.257	-1777
1015.328	-1826
1015.400	-1953
1015.471	-1564
1015.543	-1782
1015.615	-1729
1015.686	-2100
1015.757	-2225
1015.829	-1602
1015.901	-1893
1015.972	-2394
1016.043	-2425
1016.115	-1320
1016.186	-2320
1016.257	-2126
1016.328	-1925
1016.400	-1533
1016.471	-2089
1016.542	-2141
1016.613	-2542
1016.685	-1726
1016.756	-1758
1016.827	-2751
1016.898	-2724
1016.969	-580
1017.040	-1986
1017.111	-2697
1017.182	-1691
1017.253	-1527
1017.324	-1708
1017.395	-2012
1017.466	-1718
1017.537	-2334
1017.608	-2044
1017.678	-1934
1017.749	-2871
1017.820	-2690
1017.891	-2598
1017.961	-2060
1018.032	-1716
1018.103	-2243
1018.173	-1266
1018.244	-2704
1018.315	-2268
1018.385	-1922
1018.456	-2841
1018.526	-2259
1018.597	-2130
1018.667	-1766
1018.738	-2106
1018.808	-2874
1018.878	-1548
1018.949	-2532
1019.019	-2166
1019.089	-1849
1019.160	-2011
1019.230	-2503
1019.300	-1384
1019.371	-3389
1019.441	-2413
1019.511	-2252
1019.581	-2133
1019.651	-1328
1019.721	-1595
1019.791	-2095
1019.861	-2462
1019.931	-2887
1020.001	-2308
1020.071	-1910
1020.141	-1991
1020.211	-1966
1020.281	-2408
1020.351	-1527
1020.421	-1915
1020.491	-1449
1020.560	-2527
1020.630	-2446
1020.700	-2812
1020.770	-3138
1020.839	-3038
1020.909	-2341
1020.979	-1451
1021.048	-2443
1021.118	-2911
1021.187	-1940
1021.257	-2726
1021.326	-1849
1021.396	-2479
1021.465	-2029
1021.535	-2124
1021.604	-2619
1021.674	-1677
1021.743	-2637
1021.812	-1919
1021.882	-2551
1021.951	-2120
1022.020	-3178
1022.089	-1319
1022.159	-2288
1022.228	-2040
1022.297	-2612
1022.366	-2811
1022.435	-2478
1022.504	-1958
1022.573	-2722
1022.642	-1631
1022.711	-2450
1022.781	-2408
1022.849	-2197
1022.918	-2916
1022.987	-2124
1023.056	-2248
1023.125	-2699
1023.194	-3115
1023.263	-1352
1023.331	-2287
1023.400	-1925
1023.469	-2484
1023.538	-2030
1023.606	-2709
1023.675	-1593
1023.744	-2723
1023.812	-2342
1023.881	-1992
1023.949	-1901
1024.018	-2583
1024.086	-3216
1024.155	-1696
1024.223	-3219
1024.292	-2583
1024.360	-2529
1024.429	-2327
1024.497	-2879
1024.565	-2140
1024.634	-2592
1024.702	-2314
1024.770	-1975
1024.838	-2293
1024.907	-2939
1024.975	-3001
1025.043	-2416
1025.111	-2789
1025.179	-2076
1025.247	-2852
1025.315	-3114
1025.383	-2480
1025.451	-3067
1025.519	-2658
1025.587	-2615
1025.655	-3112
1025.723	-2781
1025.791	-2582
1025.859	-2716
1025.927	-2241
1025.995	-2421
1026.062	-2698
1026.130	-2636
1026.198	-3076
1026.266	-2372
1026.333	-1544
1026.401	-2376
1026.469	-1841
1026.536	-2584
1026.604	-2211
1026.671	-2808
1026.739	-2575
1026.806	-2820
1026.874	-2889
1026.941	-3048
1027.009	-2553
1027.076	-2040
1027.144	-2376
1027.211	-3320
1027.278	-2850
1027.345	-2301
1027.413	-2933
1027.480	-2432
1027.547	-2053
1027.614	-2622
1027.682	-1894
1027.749	-3039
1027.816	-1703
1027.883	-2101
1027.950	-2800
1028.017	-3283
1028.084	-2450
1028.151	-2490
1028.218	-1816
1028.285	-3016
1028.352	-2802
1028.419	-2670
1028.486	-2308
1028.553	-2478
1028.619	-2701
1028.686	-2670
1028.753	-2813
1028.820	-2686
1028.886	-2468
1028.953	-2789
1029.020	-2473
1029.086	-2804
1029.153	-2175
1029.220	-2463
1029.286	-1926
1029.353	-2676
1029.419	-3084
1029.486	-2945
1029.552	-2870
1029.619	-2535
1029.685	-2604
1029.751	-2735
1029.818	-1207
1029.884	-2601
1029.951	-1789
1030.017	-2971
1030.083	-3648
1030.149	-3099
1030.216	-2458
1030.282	-2754
1030.348	-2317
1030.414	-3209
1030.480	-2540
1030.546	-2719
1030.612	-2645
1030.678	-2103
1030.744	-2455
1030.810	-2990
1030.876	-2114
1030.942	-2170
1031.008	-1983
1031.074	-2342
1031.140	-3014
1031.206	-2352
1031.272	-2437
1031.337	-2004
1031.403	-1331
1031.469	-2499
1031.534	-1982
1031.600	-2387
1031.666	-3168
1031.731	-2729
1031.797	-2177
1031.863	-2386
1031.928	-2531
1031.994	-2869
1032.059	-3129
1032.125	-3018
1032.190	-2771
1032.256	-2818
1032.321	-2872
1032.386	-2780
1032.452	-2280
1032.517	-2887
1032.582	-2625
1032.647	-2680
1032.713	-2514
1032.778	-2781
1032.843	-3166
1032.908	-2479
1032.974	-2845
1033.039	-3187
1033.104	-2466
1033.169	-2978
1033.234	-1723
1033.299	-2257
1033.364	-1581
1033.429	-2009
1033.494	-2176
1033.559	-2398
1033.624	-2487
1033.688	-1732
1033.753	-2925
1033.818	-2802
1033.883	-3005
1033.948	-2234
1034.013	-1998
1034.077	-2647
1034.142	-934
1034.207	-1825
1034.271	-1993
1034.336	-1234
1034.400	-1105
1034.465	-2160
1034.530	-1438
1034.594	-2544
1034.658	-2743
1034.723	-2788
1034.787	-2802
1034.852	-2701
1034.916	-2226
1034.981	-2912
1035.045	-2191
1035.109	-2621
1035.173	-2128
1035.238	-2764
1035.302	-2154
1035.366	-3180
1035.430	-3067
1035.495	-2825
1035.559	-2331
1035.623	-2556
1035.687	-2911
1035.751	-2545
1035.815	-1909
1035.879	-2726
1035.943	-3463
1036.007	-2966
1036.071	-2000
1036.135	-2361
1036.198	-2661
1036.262	-3053
1036.326	-2101
1036.390	-2401
1036.454	-2229
1036.517	-1826
1036.581	-1241
1036.645	-2460
1036.709	-1188
1036.772	-2381
1036.836	-2222
1036.900	-3028
1036.963	-2844
1037.026	-2992
1037.090	-2871
1037.154	-2849
1037.217	-2554
1037.280	-2598
1037.344	-2819
1037.407	-2830
1037.471	-2609
1037.534	-2579
1037.597	-2876
1037.661	-2298
1037.724	-2443
1037.787	-2401
1037.850	-1961
1037.913	-2820
1037.977	-1447
1038.040	-3036
1038.103	-2327
1038.166	-2913
1038.229	-1525
1038.292	-2585
1038.355	-2316
1038.418	-2125
1038.481	-2084
1038.544	-2742
1038.607	-2211
1038.670	-2188
1038.732	-1675
1038.795	-2121
1038.858	-2414
1038.921	-2285
1038.984	-2555
1039.046	-2646
1039.109	-2695
1039.172	-3612
1039.234	-2324
1039.297	-2928
1039.360	-1767
1039.422	-3070
1039.485	-2260
1039.547	-2697
1039.610	-2542
1039.672	-2747
1039.734	-2452
1039.797	-2593
1039.859	-2604
1039.922	-2385
1039.984	-2685
1040.046	-2963
1040.109	-2202
1040.171	-2467
1040.233	-2103
1040.295	-2903
1040.358	-2717
1040.420	-2483
1040.482	-1993
1040.544	-2732
1040.606	-2397
1040.668	-2984
1040.730	-1820
1040.792	-2919
1040.854	-2717
1040.916	-2905
1040.978	-2245
1041.040	-1600
1041.102	-1510
1041.164	-2534
1041.225	-1664
1041.287	-2792
1041.349	-2099
1041.411	-3378
1041.472	-2252
1041.534	-2675
1041.596	-2925
1041.657	-1932
1041.719	-2019
1041.781	-2893
1041.842	-1985
1041.904	-2078
1041.965	-2543
1042.027	-2826
1042.088	-2185
1042.150	-2517
1042.211	-2388
1042.272	-1640
1042.334	-1967
1042.395	-2566
1042.456	-3100
1042.518	-3056
1042.579	-1887
1042.640	-2131
1042.701	-1986
1042.763	-2769
1042.824	-2833
1042.885	-2249
1042.946	-2410
1043.007	-2607
1043.068	-1989
1043.129	-2455
1043.190	-2524
1043.251	-1736
1043.312	-2589
1043.373	-2556
1043.434	-2262
1043.495	-2439
1043.556	-1683
1043.616	-1374
1043.677	-2505
1043.738	-2099
1043.799	-2373
1043.859	-3320
1043.920	-2282
1043.981	-2088
1044.041	-3271
1044.102	-2205
1044.162	-1679
1044.223	-2346
1044.284	-3012
1044.344	-2673
1044.405	-1977
1044.465	-3044
1044.525	-2032
1044.586	-2608
1044.646	-2765
1044.707	-2001
1044.767	-2569
1044.827	-2083
1044.887	-2514
1044.948	-2539
1045.008	-1449
1045.068	-2777
1045.128	-2174
1045.188	-1738
1045.249	-1806
1045.309	-1940
1045.369	-1516
1045.429	-1868
1045.489	-1784
1045.549	-2496
1045.609	-1940
1045.669	-2869
1045.729	-2708
1045.789	-2323
1045.848	-2342
1045.908	-2018
1045.968	-2148
1046.028	-1426
1046.088	-1760
1046.147	-1619
1046.207	-2150
1046.267	-2593
1046.326	-1707
1046.386	-1724
1046.446	-1056
1046.505	-1240
1046.565	-1278
1046.624	-1459
1046.684	-1305
1046.743	-937
1046.803	-947
1046.862	113
1046.922	0
