'Start Wavelength	183.907
'End Wavelength	1046.922
'Gate Delay	5.000
'Gate Width (ms)	1.050
'Laser Output Level	0.000
'X Position	0.000
'Y Position	0.000
'Z Position	0.000
'Grid Point Number	1.000
'Shot Number	100.000
183.907	-90.000
183.977	-1080.000
184.047	-254
184.116	414
184.186	-292
184.256	1
184.325	528
184.395	430
184.465	92
184.534	-508
184.604	31
184.674	351
184.743	-383
184.813	1000
184.883	170
184.952	630
185.022	449
185.092	-771
185.161	263
185.231	-554
185.301	177
185.370	776
185.440	-49
185.509	477
185.579	78
185.649	656
185.718	-347
185.788	73
185.857	107
185.927	964
185.996	-432
186.066	530
186.136	-314
186.205	-483
186.275	178
186.344	-131
186.414	-56
186.483	-401
186.553	252
186.622	213
186.692	-100
186.761	719
186.831	37
186.900	165
186.970	-340
187.039	598
187.109	-225
187.178	263
187.248	-185
187.317	75
187.387	-320
187.456	-245
187.526	38
187.595	-47
187.664	803
187.734	583
187.803	369
187.873	-13
187.942	704
188.012	359
188.081	-362
188.150	205
188.220	-656
188.289	601
188.358	803
188.428	915
188.497	-134
188.567	111
188.636	-537
188.705	-63
188.775	98
188.844	770
188.913	368
188.983	-22
189.052	900
189.121	167
189.191	-533
189.260	239
189.329	573
189.399	-504
189.468	-438
189.537	-236
189.606	370
189.676	513
189.745	-300
189.814	485
189.883	621
189.953	-67
190.022	-210
190.091	132
190.161	1065
190.230	505
190.299	266
190.368	9
190.437	330
190.507	76
190.576	-511
190.645	355
190.714	-96
190.783	-541
190.853	-145
190.922	219
190.991	-52
191.060	-47
191.129	-347
191.198	-87
191.268	-149
191.337	-337
191.406	327
191.475	-381
191.544	-230
191.613	573
191.682	305
191.752	439
191.821	-99
191.890	276
191.959	-274
192.028	252
192.097	109
192.166	231
192.235	107
192.304	104
192.373	-813
192.442	125
192.511	50
192.580	-110
192.650	-51
192.719	-627
192.788	115
192.857	-534
192.926	321
192.995	176
193.064	-936
193.133	-110
193.202	187
193.271	25
193.340	109
193.409	501
193.478	30
193.547	407
193.615	-412
193.684	449
193.753	-626
193.822	715
193.891	-231
193.960	4
194.029	-1043
194.098	-113
194.167	-161
194.236	249
194.305	502
194.374	869
194.443	-419
194.512	789
194.580	525
194.649	323
194.718	66
194.787	387
194.856	16
194.925	222
194.994	-618
195.062	-524
195.131	130
195.200	357
195.269	-104
195.338	463
195.407	543
195.475	268
195.544	703
195.613	-604
195.682	-16
195.751	490
195.819	-1400
195.888	8
195.957	791
196.026	511
196.094	99
196.163	148
196.232	304
196.301	-186
196.369	-132
196.438	-554
196.507	422
196.576	440
196.644	307
196.713	857
196.782	131
196.850	697
196.919	-195
196.988	360
197.056	-231
197.125	29
197.194	919
197.262	375
197.331	57
197.400	230
197.468	220
197.537	335
197.606	780
197.674	191
197.743	1008
197.812	19
197.880	1277
197.949	284
198.017	949
198.086	908
198.155	590
198.223	655
198.292	392
198.360	654
198.429	-137
198.497	77
198.566	627
198.635	1320
198.703	1256
198.772	682
198.840	795
198.909	889
198.977	398
199.046	-94
199.114	-335
199.183	-99
199.251	406
199.320	-77
199.388	-205
199.457	-20
199.525	-211
199.594	-179
199.662	-309
199.731	260
199.799	-27
199.867	760
199.936	-435
200.004	233
200.073	374
200.141	627
200.210	-98
200.278	47
200.346	40
200.415	-205
200.483	-651
200.552	319
200.620	587
200.688	-461
200.757	309
200.825	554
200.893	-771
200.962	-122
201.030	185
201.098	-288
201.167	592
201.235	459
201.303	-217
201.372	851
201.440	-498
201.508	362
201.577	131
201.645	430
201.713	364
201.781	-259
201.850	338
201.918	323
201.986	141
202.055	209
202.123	-51
202.191	-116
202.259	121
202.327	101
202.396	457
202.464	509
202.532	-864
202.600	1165
202.669	801
202.737	-164
202.805	-528
202.873	397
202.941	68
203.009	139
203.078	-737
203.146	-270
203.214	-151
203.282	210
203.350	655
203.418	-185
203.487	379
203.555	525
203.623	37
203.691	447
203.759	249
203.827	74
203.895	-84
203.963	94
204.031	82
204.099	-194
204.168	-649
204.236	-86
204.304	-30
204.372	-396
204.440	127
204.508	-7
204.576	-373
204.644	-136
204.712	-587
204.780	403
204.848	-296
204.916	438
204.984	-142
205.052	330
205.120	389
205.188	184
205.256	-73
205.324	513
205.392	-204
205.460	171
205.528	-63
205.596	372
205.664	606
205.732	536
205.799	819
205.867	2195
205.935	-298
206.003	681
206.071	-128
206.139	665
206.207	-317
206.275	-222
206.343	-523
206.411	283
206.478	1070
206.546	568
206.614	-438
206.682	-96
206.750	-76
206.818	-86
206.885	909
206.953	-350
207.021	795
207.089	-64
207.157	-1002
207.225	-45
207.292	-458
207.360	-885
207.428	573
207.496	36
207.563	60
207.631	229
207.699	293
207.767	-390
207.834	-145
207.902	456
207.970	519
208.038	-85
208.105	-488
208.173	936
208.241	-713
208.309	194
208.376	-396
208.444	844
208.512	-584
208.579	-211
208.647	527
208.715	32
208.782	-299
208.850	57
208.918	95
208.985	262
209.053	724
209.120	274
209.188	280
209.256	738
209.323	85
209.391	-635
209.459	868
209.526	554
209.594	65
209.661	77
209.729	275
209.796	-86
209.864	455
209.932	-215
209.999	317
210.067	591
210.134	494
210.202	850
210.269	573
210.337	1178
210.404	-478
210.472	41
210.539	-180
210.607	793
210.674	361
210.742	-336
210.809	564
210.877	267
210.944	239
211.012	331
211.079	1121
211.146	471
211.214	-460
211.281	221
211.349	171
211.416	80
211.484	114
211.551	272
211.618	756
211.686	-377
211.753	205
211.821	330
211.888	-555
211.955	176
212.023	645
212.090	-243
212.157	375
212.225	818
212.292	992
212.359	2146
212.427	6688
212.494	2541
212.561	485
212.629	618
212.696	-346
212.763	410
212.831	-127
212.898	480
212.965	540
213.032	499
213.100	447
213.167	-207
213.234	510
213.301	498
213.369	611
213.436	513
213.503	378
213.570	694
213.638	-6
213.705	697
213.772	-686
213.839	1095
213.906	443
213.973	971
214.041	746
214.108	532
214.175	24
214.242	-91
214.309	704
214.376	1038
214.444	-61
214.511	1120
214.578	-158
214.645	317
214.712	-92
214.779	113
214.846	441
214.913	1077
214.980	819
215.048	211
215.115	802
215.182	837
215.249	77
215.316	33
215.383	551
215.450	-39
215.517	-254
215.584	491
215.651	352
215.718	89
215.785	141
215.852	-284
215.919	767
215.986	872
216.053	205
216.120	-260
216.187	-193
216.254	663
216.321	635
216.388	-307
216.455	439
216.522	356
216.589	448
216.656	1616
216.722	1553
216.789	691
216.856	721
216.923	366
216.990	652
217.057	802
217.124	968
217.191	681
217.258	311
217.324	950
217.391	1161
217.458	253
217.525	308
217.592	735
217.659	-570
217.725	1374
217.792	1732
217.859	1754
217.926	95
217.993	-355
218.059	346
218.126	241
218.193	294
218.260	289
218.327	86
218.393	647
218.460	92
218.527	345
218.594	259
218.660	1029
218.727	2030
218.794	148
218.860	581
218.927	170
218.994	425
219.061	76
219.127	342
219.194	1294
219.261	276
219.327	836
219.394	468
219.461	-145
219.527	321
219.594	956
219.661	342
219.727	-523
219.794	672
219.860	-75
219.927	198
219.994	895
220.060	2285
220.127	761
220.193	252
220.260	147
220.326	735
220.393	1664
220.460	1786
220.526	1381
220.593	185
220.659	1699
220.726	399
220.792	3568
220.859	1883
220.925	1983
220.992	4604
221.058	3830
221.125	4272
221.191	3602
221.258	1047
221.324	415
221.391	248
221.457	309
221.524	1037
221.590	1215
221.657	3498
221.723	2156
221.789	2611
221.856	1680
221.922	1102
221.989	538
222.055	436
222.121	161
222.188	1193
222.254	537
222.321	167
222.387	-62
222.453	-517
222.520	1017
222.586	760
222.652	706
222.719	212
222.785	559
222.851	73
222.918	422
222.984	809
223.050	499
223.116	-1226
223.183	1459
223.249	149
223.315	-136
223.382	-185
223.448	427
223.514	183
223.580	-223
223.647	90
223.713	-271
223.779	163
223.845	-119
223.911	-787
223.978	-496
224.044	191
224.110	-51
224.176	-280
224.242	-353
224.309	-146
224.375	-332
224.441	-433
224.507	22
224.573	-661
224.639	200
224.705	-937
224.772	430
224.838	-359
224.904	686
224.970	172
225.036	238
225.102	150
225.168	390
225.234	755
225.300	573
225.366	155
225.432	353
225.499	1023
225.565	-60
225.631	31
225.697	558
225.763	178
225.829	126
225.895	579
225.961	1550
226.027	682
226.093	519
226.159	1372
226.225	1553
226.291	3150
226.357	5507
226.423	2177
226.489	1617
226.554	289
226.620	386
226.686	1158
226.752	2273
226.818	2094
226.884	7736
226.950	6461
227.016	1807
227.082	1305
227.148	1145
227.214	1337
227.279	637
227.345	288
227.411	30
227.477	71
227.543	1276
227.609	507
227.674	1339
227.740	310
227.806	301
227.872	551
227.938	1031
228.003	757
228.069	829
228.135	370
228.201	458
228.267	369
228.332	318
228.398	-87
228.464	1257
228.530	160
228.595	364
228.661	-433
228.727	362
228.792	92
228.858	-171
228.924	-1011
228.990	574
229.055	-330
229.121	934
229.187	741
229.252	684
229.318	-361
229.384	1101
229.449	595
229.515	-746
229.581	-486
229.646	1225
229.712	525
229.777	2244
229.843	1750
229.909	1062
229.974	1247
230.040	1135
230.105	17
230.171	-222
230.236	1143
230.302	2298
230.368	770
230.433	56
230.499	590
230.564	677
230.630	142
230.695	786
230.761	432
230.826	-912
230.892	1556
230.957	39
231.023	-510
231.088	274
231.154	-536
231.219	996
231.284	14
231.350	989
231.415	172
231.481	-315
231.546	74
231.612	279
231.677	-337
231.742	-1015
231.808	995
231.873	591
231.939	-899
232.004	2065
232.069	889
232.135	352
232.200	-238
232.265	178
232.331	-227
232.396	-455
232.461	-97
232.527	156
232.592	-522
232.657	590
232.723	187
232.788	667
232.853	893
232.918	11
232.984	-898
233.049	-553
233.114	489
233.179	1343
233.245	1559
233.310	2862
233.375	-163
233.440	-38
233.506	283
233.571	-41
233.636	-378
233.701	-113
233.766	1356
233.832	2081
233.897	596
233.962	329
234.027	1190
234.092	701
234.157	-62
234.222	-343
234.288	812
234.353	5764
234.418	4340
234.483	2510
234.548	583
234.613	605
234.678	899
234.743	803
234.808	5251
234.873	2153
234.938	1174
235.004	120
235.069	445
235.134	-112
235.199	804
235.264	-29
235.329	-550
235.394	639
235.459	1080
235.524	469
235.589	608
235.654	-109
235.719	-1388
235.784	1032
235.849	294
235.913	2666
235.978	2196
236.043	3499
236.108	864
236.173	560
236.238	979
236.303	264
236.368	522
236.433	1679
236.498	2311
236.563	1398
236.627	2369
236.692	10588
236.757	6009
236.822	2623
236.887	2056
236.952	1341
237.017	756
237.081	2119
237.146	622
237.211	3282
237.276	9588
237.341	17704
237.405	6487
237.470	2393
237.535	2493
237.600	838
237.664	833
237.729	354
237.794	1223
237.859	2416
237.923	1468
237.988	984
238.053	2149
238.118	1885
238.182	7040
238.247	6230
238.312	1843
238.376	1418
238.441	-128
238.506	1469
238.570	112
238.635	1796
238.700	354
238.764	484
238.829	2546
238.893	3193
238.958	1740
239.023	1229
239.087	719
239.152	429
239.216	-86
239.281	475
239.346	-71
239.410	965
239.475	188
239.539	7285
239.604	5211
239.668	1467
239.733	119
239.797	930
239.862	1611
239.926	4748
239.991	1713
240.055	854
240.120	524
240.184	584
240.249	-295
240.313	-237
240.378	231
240.442	4213
240.507	6461
240.571	1515
240.635	3118
240.700	3552
240.764	779
240.829	867
240.893	-666
240.957	1644
241.022	4013
241.086	7367
241.151	2341
241.215	-501
241.279	2419
241.344	2905
241.408	958
241.472	167
241.537	1427
241.601	793
241.665	244
241.730	527
241.794	616
241.858	-84
241.922	833
241.987	-112
242.051	36
242.115	21
242.179	699
242.244	-445
242.308	883
242.372	709
242.436	345
242.501	895
242.565	-604
242.629	-248
242.693	595
242.757	600
242.822	122
242.886	1080
242.950	39
243.014	53
243.078	1136
243.142	494
243.206	304
243.271	968
243.335	509
243.399	1302
243.463	6837
243.527	19278
243.591	5008
243.655	1615
243.719	-57
243.783	1456
243.847	1307
243.911	2944
243.975	3038
244.040	1095
244.104	1895
244.168	94
244.232	885
244.296	2369
244.360	2228
244.424	641
244.488	93
244.552	1083
244.615	-284
244.679	952
244.743	1324
244.807	264
244.871	1076
244.935	617
244.999	-251
245.063	246
245.127	1554
245.191	1228
245.255	1583
245.319	1287
245.383	-443
245.446	1234
245.510	562
245.574	642
245.638	921
245.702	374
245.766	2751
245.829	2218
245.893	1229
245.957	671
246.021	964
246.085	833
246.149	1128
246.212	4152
246.276	6713
246.340	3025
246.404	2226
246.467	1724
246.531	1444
246.595	1655
246.659	1488
246.722	2175
246.786	2114
246.850	2113
246.913	1938
246.977	431
247.041	588
247.104	1120
247.168	1548
247.232	4409
247.295	10218
247.359	4746
247.423	2201
247.486	3336
247.550	2424
247.614	2098
247.677	2249
247.741	1727
247.804	825
247.868	2005
247.932	3520
247.995	9125
248.059	2395
248.122	1317
248.186	2574
248.249	4601
248.313	14542
248.376	13633
248.440	8672
248.503	2700
248.567	3986
248.630	3181
248.694	4655
248.757	7536
248.821	15283
248.884	9160
248.948	7681
249.011	13063
249.075	18358
249.138	14183
249.202	5330
249.265	2890
249.328	4700
249.392	3068
249.455	3019
249.519	1677
249.582	2332
249.645	3786
249.709	1722
249.772	2283
249.835	1814
249.899	2544
249.962	2024
250.025	1931
250.089	6858
250.152	8182
250.215	2763
250.279	2131
250.342	2804
250.405	2072
250.468	1789
250.532	3036
250.595	5004
250.658	19034
250.721	28908
250.785	8700
250.848	5272
250.911	3363
250.974	3493
251.038	4909
251.101	10512
251.164	4819
251.227	5035
251.290	2984
251.354	6164
251.417	28703
251.480	21959
251.543	15628
251.606	50709
251.669	30401
251.732	10319
251.795	12267
251.859	13545
251.922	31564
251.985	15711
252.048	6753
252.111	4083
252.174	4008
252.237	9445
252.300	18647
252.363	18510
252.426	41563
252.489	14778
252.552	8716
252.615	5119
252.678	7196
252.741	14732
252.804	18166
252.867	40800
252.930	22740
252.993	11269
253.056	7444
253.119	5698
253.182	3722
253.245	6321
253.308	5239
253.371	4489
253.434	4144
253.497	5184
253.559	10815
253.622	5163
253.685	7350
253.748	6243
253.811	2522
253.874	4792
253.937	3382
254.000	3051
254.062	6268
254.125	9991
254.188	9257
254.251	6349
254.314	3406
254.376	5938
254.439	6010
254.502	5123
254.565	6913
254.628	11418
254.690	5381
254.753	3264
254.816	2927
254.878	2872
254.941	7158
255.004	7524
255.067	3428
255.129	2545
255.192	1517
255.255	1017
255.317	2001
255.380	1136
255.443	726
255.505	1244
255.568	384
255.631	1344
255.693	2091
255.756	-164
255.819	1323
255.881	618
255.944	1011
256.006	629
256.069	708
256.132	240
256.194	1689
256.257	5440
256.319	3606
256.382	2606
256.444	1448
256.507	794
256.569	545
256.632	1080
256.694	1286
256.757	5438
256.819	13707
256.882	3476
256.944	1866
257.007	1975
257.069	2113
257.132	1517
257.194	1591
257.257	1114
257.319	875
257.381	135
257.444	3510
257.506	18446
257.569	16134
257.631	9309
257.693	5042
257.756	2040
257.818	2556
257.880	1223
257.943	1259
258.005	815
258.067	796
258.130	834
258.192	1425
258.254	3507
258.317	1636
258.379	1331
258.441	4605
258.503	4538
258.566	8180
258.628	10270
258.690	1770
258.753	2267
258.815	3946
258.877	754
258.939	651
259.001	1304
259.064	1054
259.126	1449
259.188	2107
259.250	1774
259.312	1933
259.375	6354
259.437	3019
259.499	1194
259.561	1122
259.623	1832
259.685	678
259.747	1821
259.809	8532
259.872	13915
259.934	21625
259.996	16406
260.058	3848
260.120	1850
260.182	1820
260.244	2005
260.306	1206
260.368	1291
260.430	592
260.492	3129
260.554	6975
260.616	3379
260.678	9386
260.740	13686
260.802	2251
260.864	3206
260.926	1968
260.988	2062
261.050	1586
261.112	4686
261.174	16244
261.236	10912
261.298	3104
261.359	6287
261.421	9569
261.483	1476
261.545	1456
261.607	-362
261.669	994
261.731	3368
261.793	9279
261.854	1844
261.916	1792
261.978	1784
262.040	2145
262.102	2082
262.164	3374
262.225	2021
262.287	1644
262.349	3070
262.411	2838
262.472	1341
262.534	3356
262.596	8997
262.658	3046
262.719	1186
262.781	2985
262.843	7851
262.904	3701
262.966	1654
263.028	2512
263.090	16957
263.151	35761
263.213	9195
263.275	4688
263.336	2398
263.398	2275
263.459	123
263.521	1114
263.583	3705
263.644	2498
263.706	1071
263.767	-95
263.829	1480
263.891	46
263.952	348
264.014	811
264.075	1613
264.137	4954
264.198	2454
264.260	471
264.321	916
264.383	2895
264.444	7155
264.506	1379
264.567	626
264.629	3875
264.690	5038
264.752	1278
264.813	540
264.875	-14
264.936	1517
264.998	461
265.059	366
265.120	1112
265.182	285
265.243	4509
265.305	4150
265.366	749
265.427	62
265.489	908
265.550	-616
265.611	646
265.673	1015
265.734	335
265.795	451
265.857	37
265.918	-924
265.979	2302
266.040	10208
266.102	6156
266.163	2402
266.224	1562
266.286	988
266.347	255
266.408	401
266.469	1405
266.530	-429
266.592	-165
266.653	1953
266.714	3028
266.775	662
266.836	-324
266.898	-206
266.959	1094
267.020	770
267.081	1725
267.142	-4
267.203	-278
267.264	-1168
267.326	479
267.387	-4
267.448	50
267.509	429
267.570	-280
267.631	201
267.692	-543
267.753	-58
267.814	7
267.875	2145
267.936	4484
267.997	1517
268.058	1293
268.119	92
268.180	201
268.241	-757
268.302	-246
268.363	409
268.424	89
268.485	727
268.546	-436
268.607	-6
268.668	47
268.729	361
268.790	-442
268.851	591
268.912	2616
268.972	2984
269.033	1364
269.094	329
269.155	378
269.216	-153
269.277	710
269.338	-201
269.398	12
269.459	-121
269.520	1078
269.581	2331
269.642	2128
269.702	1149
269.763	828
269.824	320
269.885	877
269.945	1204
270.006	70
270.067	318
270.128	-24
270.188	153
270.249	-181
270.310	-99
270.370	395
270.431	282
270.492	338
270.553	262
270.613	1475
270.674	4650
270.734	1247
270.795	978
270.856	1969
270.916	-134
270.977	239
271.038	1088
271.098	1079
271.159	1357
271.219	1170
271.280	847
271.340	938
271.401	758
271.462	3816
271.522	514
271.583	1235
271.643	1412
271.704	1132
271.764	1262
271.825	3247
271.885	13708
271.946	17407
272.006	4763
272.066	8445
272.127	16184
272.187	3575
272.248	2146
272.308	2071
272.369	11144
272.429	6025
272.489	3837
272.550	3144
272.610	4297
272.671	2161
272.731	3161
272.791	4611
272.852	1167
272.912	1913
272.972	1559
273.033	1164
273.093	2058
273.153	2571
273.214	1891
273.274	1189
273.334	8049
273.394	14063
273.455	4708
273.515	5676
273.575	11218
273.635	4333
273.696	6766
273.756	15071
273.816	4531
273.876	3224
273.936	8173
273.997	14868
274.057	3598
274.117	3254
274.177	3675
274.237	18208
274.297	16501
274.358	11095
274.418	11674
274.478	7402
274.538	2494
274.598	3229
274.658	11481
274.718	14692
274.778	5164
274.838	2605
274.898	7014
274.958	21771
275.018	17617
275.078	9173
275.138	3977
275.198	2368
275.258	1731
275.318	1775
275.378	3369
275.438	3519
275.498	2536
275.558	11174
275.618	19334
275.678	9648
275.738	6053
275.798	3289
275.858	2678
275.918	1719
275.978	1372
276.038	1096
276.098	1798
276.157	2312
276.217	7641
276.277	3817
276.337	1639
276.397	637
276.457	1711
276.517	1405
276.576	1629
276.636	40
276.696	1274
276.756	4658
276.815	3164
276.875	1447
276.935	1694
276.995	1618
277.055	708
277.114	1339
277.174	1971
277.234	5850
277.293	2258
277.353	1190
277.413	896
277.472	246
277.532	1054
277.592	1347
277.651	2094
277.711	4018
277.771	933
277.830	7706
277.890	4945
277.950	4089
278.009	11770
278.069	4037
278.128	2285
278.188	4019
278.248	1991
278.307	3490
278.367	2390
278.426	1527
278.486	1240
278.545	832
278.605	328
278.664	339
278.724	1039
278.783	6480
278.843	14433
278.902	3379
278.962	1805
279.021	1394
279.081	1457
279.140	1110
279.199	710
279.259	1762
279.318	1219
279.378	1798
279.437	4747
279.496	18821
279.556	53209
279.615	35805
279.675	8044
279.734	5258
279.793	8051
279.853	14092
279.912	4792
279.971	2495
280.031	1408
280.090	5858
280.149	8985
280.208	7778
280.268	40024
280.327	36425
280.386	7293
280.445	5965
280.505	5967
280.564	2945
280.623	2236
280.682	4122
280.742	4914
280.801	1700
280.860	1234
280.919	1376
280.978	664
281.037	129
281.097	479
281.156	610
281.215	733
281.274	2068
281.333	9029
281.392	5564
281.451	1049
281.510	1890
281.569	661
281.628	260
281.688	598
281.747	1271
281.806	679
281.865	264
281.924	-34
281.983	317
282.042	358
282.101	356
282.160	449
282.219	244
282.278	807
282.337	4179
282.396	2452
282.454	634
282.513	1475
282.572	5683
282.631	3558
282.690	631
282.749	422
282.808	1819
282.867	470
282.926	581
282.985	971
283.043	384
283.102	-140
283.161	522
283.220	4256
283.279	7840
283.338	1687
283.396	994
283.455	609
283.514	672
283.573	1226
283.631	1062
283.690	687
283.749	1055
283.808	1509
283.866	2643
283.925	193
283.984	514
284.043	1156
284.101	1811
284.160	750
284.219	2617
284.277	857
284.336	2126
284.395	8984
284.453	7243
284.512	1851
284.570	2570
284.629	1426
284.688	736
284.746	1392
284.805	933
284.863	1349
284.922	2181
284.981	1302
285.039	1901
285.098	5134
285.156	16892
285.215	62893
285.273	50295
285.332	14512
285.390	7486
285.449	4437
285.507	3043
285.566	2423
285.624	1140
285.683	2042
285.741	384
285.799	1186
285.858	1004
285.916	880
285.975	1077
286.033	321
286.091	107
286.150	244
286.208	9
286.267	1188
286.325	750
286.383	2136
286.442	1656
286.500	-55
286.558	763
286.616	461
286.675	1029
286.733	565
286.791	645
286.850	1604
286.908	1297
286.966	2856
287.024	1185
287.083	597
287.141	824
287.199	739
287.257	1609
287.315	1110
287.374	1533
287.432	2986
287.490	1504
287.548	964
287.606	-240
287.664	576
287.723	1596
287.781	2616
287.839	543
287.897	1546
287.955	1252
288.013	2823
288.071	9016
288.129	37872
288.187	104546
288.245	36468
288.303	10549
288.361	7291
288.419	4900
288.477	2979
288.535	2192
288.593	1867
288.651	172
288.709	-312
288.767	1554
288.825	248
288.883	432
288.941	1139
288.999	502
289.057	689
289.115	1145
289.173	1009
289.231	1118
289.289	1147
289.346	1474
289.404	657
289.462	1785
289.520	2079
289.578	1215
289.636	80
289.694	378
289.751	245
289.809	123
289.867	432
289.925	1579
289.983	1259
290.040	359
290.098	335
290.156	522
290.214	1336
290.271	1018
290.329	572
290.387	242
290.444	350
290.502	-5
290.560	151
290.617	439
290.675	674
290.733	866
290.790	832
290.848	1114
290.906	1714
290.963	891
291.021	1373
291.078	909
291.136	1143
291.194	5414
291.251	10687
291.309	2603
291.366	439
291.424	831
291.481	1968
291.539	813
291.596	881
291.654	862
291.711	111
291.769	1151
291.826	2918
291.884	2281
291.941	716
291.999	1107
292.056	1246
292.114	1272
292.171	95
292.228	603
292.286	1110
292.343	3077
292.401	5147
292.458	4301
292.515	2687
292.573	2080
292.630	1816
292.687	1536
292.745	1010
292.802	2394
292.859	6959
292.917	10432
292.974	5305
293.031	1918
293.089	1043
293.146	1604
293.203	992
293.260	1151
293.318	1104
293.375	3542
293.432	1497
293.489	1421
293.546	603
293.604	2214
293.661	6447
293.718	18781
293.775	11189
293.832	4147
293.889	2928
293.947	2783
294.004	1975
294.061	1596
294.118	4404
294.175	10314
294.232	13772
294.289	5783
294.346	2346
294.403	2109
294.460	2075
294.517	1898
294.574	1039
294.631	1868
294.688	2291
294.745	6937
294.802	21366
294.859	21815
294.916	9331
294.973	4838
295.030	3492
295.087	3656
295.144	1998
295.201	2884
295.258	2597
295.315	3146
295.372	7972
295.429	14911
295.486	7067
295.542	4459
295.599	9495
295.656	18099
295.713	13245
295.770	13618
295.827	6371
295.883	3407
295.940	3548
295.997	5172
296.054	4587
296.111	2148
296.167	2417
296.224	670
296.281	1672
296.338	1547
296.394	1237
296.451	2438
296.508	7004
296.564	12750
296.621	10575
296.678	17598
296.734	25638
296.791	9813
296.848	5997
296.904	5734
296.961	10439
297.018	16659
297.074	12893
297.131	4996
297.187	3903
297.244	6963
297.301	18115
297.357	31338
297.414	11246
297.470	4283
297.527	3131
297.583	3476
297.640	2502
297.696	2598
297.753	2408
297.809	2061
297.866	804
297.922	1428
297.979	887
298.035	1944
298.092	2918
298.148	9514
298.204	9411
298.261	3938
298.317	8802
298.374	23115
298.430	13781
298.486	6104
298.543	4084
298.599	3971
298.656	3572
298.712	5502
298.768	12116
298.824	9132
298.881	4032
298.937	1785
298.993	2933
299.050	2143
299.106	2243
299.162	2470
299.218	2673
299.275	1938
299.331	2523
299.387	5739
299.443	18524
299.500	19384
299.556	7041
299.612	3910
299.668	3566
299.724	1984
299.780	3046
299.837	2594
299.893	4453
299.949	13354
300.005	16256
300.061	15176
300.117	26865
300.173	14575
300.229	6662
300.285	6387
300.341	7671
300.397	3999
300.453	2647
300.510	2375
300.566	2150
300.622	3326
300.678	5301
300.734	12445
300.790	14531
300.845	19160
300.901	11073
300.957	13793
301.013	12207
301.069	5562
301.125	3776
301.181	4034
301.237	3143
301.293	2615
301.349	2348
301.405	2049
301.461	1987
301.516	2282
301.572	2821
301.628	4775
301.684	5845
301.740	6294
301.796	10802
301.851	7665
301.907	11759
301.963	14347
302.019	21504
302.074	54023
302.130	55375
302.186	26180
302.242	11060
302.297	8051
302.353	6088
302.409	11265
302.464	10380
302.520	8351
302.576	19479
302.631	22888
302.687	13819
302.743	6892
302.798	3693
302.854	3618
302.910	4108
302.965	5023
303.021	7530
303.076	7154
303.132	7828
303.187	10087
303.243	6118
303.299	2784
303.354	2485
303.410	2430
303.465	2270
303.521	2366
303.576	3199
303.632	3991
303.687	6758
303.743	18023
303.798	16671
303.853	7638
303.909	5031
303.964	3791
304.020	4942
304.075	7731
304.130	5847
304.186	11138
304.241	12863
304.297	10734
304.352	6746
304.358	6586
304.407	5282
304.449	4712
304.463	4522
304.518	3945
304.539	4147
304.573	4476
304.629	3561
304.630	3611
304.684	6256
304.720	12673
304.739	15872
304.794	24388
304.811	21406
304.850	13620
304.902	6496
304.905	6075
304.960	3966
304.992	4074
305.015	4150
305.071	3939
305.083	3745
305.126	3077
305.173	2836
305.181	2806
305.236	2350
305.264	2560
305.292	2750
305.347	3958
305.354	4154
305.402	5404
305.445	4787
305.457	4653
305.512	4679
305.535	5178
305.567	5726
305.622	6749
305.626	6904
305.678	11980
305.716	19580
305.733	21952
305.788	26722
305.807	24435
305.843	20783
305.897	24604
305.898	24617
305.953	25134
305.988	18106
306.008	14387
306.063	9955
306.078	8955
306.118	7132
306.168	4665
306.173	4469
306.228	3926
306.259	3765
306.283	3656
306.338	3351
306.349	3347
306.393	3499
306.440	3340
306.448	3336
306.503	5140
306.530	5811
306.558	9274
306.613	20932
306.620	22982
306.668	31919
306.711	32381
306.723	31183
306.778	23121
306.801	17770
306.833	12133
306.888	6528
306.892	6265
306.943	5345
306.982	4762
306.997	4580
307.052	4665
307.072	4731
307.107	6213
307.162	9434
307.163	9488
307.217	17347
307.253	21933
307.272	22349
307.327	22876
307.343	21347
307.381	16887
307.434	11870
307.436	12275
307.491	24916
307.524	35896
307.546	36364
307.600	31331
307.614	27866
307.655	18092
307.704	8697
307.710	8547
307.765	11454
307.795	14125
307.819	19012
307.874	34555
307.885	36031
307.929	26156
307.975	12722
307.984	12020
308.038	10755
308.065	11618
308.093	20181
308.148	41007
308.156	45754
308.202	77979
308.246	104381
308.257	100730
308.312	52789
308.336	34623
308.366	27520
308.421	20814
308.426	20001
308.475	12988
308.517	8466
308.530	7902
308.585	6878
308.607	6449
308.639	7060
308.694	9673
308.697	9854
308.748	27162
308.787	43598
308.803	42422
308.857	32454
308.877	26606
308.912	19546
308.967	11678
308.967	11572
309.021	12615
309.058	13216
309.076	16159
309.130	27981
309.148	32763
309.185	69469
309.238	129159
309.239	129737
309.293	150158
309.328	143927
309.348	121007
309.402	49458
309.418	31424
309.457	21612
309.508	12802
309.511	12561
309.566	10770
309.598	9656
309.620	10967
309.674	15422
309.688	16716
309.729	15563
309.778	12958
309.783	12747
309.837	9897
309.868	8688
309.892	13303
309.946	25236
309.959	28584
310.001	41507
310.049	55617
310.055	53821
310.109	32283
310.139	19433
310.163	15660
310.218	9943
310.229	9047
310.272	8483
310.319	7342
310.326	7275
310.381	7211
310.409	7372
310.435	7421
310.489	7415
310.499	7467
310.543	8335
310.589	8870
310.598	8945
310.652	9840
310.679	10080
310.706	8757
310.760	5814
310.769	5346
310.814	4504
310.859	3892
310.868	3957
310.923	4312
310.948	4559
310.977	5299
311.031	6943
311.038	7143
311.085	7024
311.128	6853
311.139	6712
311.193	5696
311.218	5326
311.247	4985
311.301	4315
311.308	4218
311.356	4629
311.398	5281
311.410	5253
311.464	4960
311.488	4791
311.518	4463
311.572	3866
311.578	3802
311.626	5893
311.668	7860
311.680	8202
311.734	9575
311.758	10205
311.788	10344
311.842	10559
311.847	10566
311.896	13109
311.937	15366
311.950	15394
312.004	15463
312.027	15418
312.058	12223
312.112	6511
312.117	5951
312.165	5372
312.207	4903
312.297	10382
312.386	9574
312.476	6586
312.566	12246
312.656	6550
312.745	4861
312.835	6116
312.925	7260
313.015	7639
313.104	10111
313.194	4774
313.284	5684
313.374	5258
313.463	5942
313.553	4028
313.643	3832
313.732	3675
313.822	3882
313.912	5827
314.001	6190
314.091	7186
314.180	13353
314.270	8720
314.360	12735
314.449	8841
314.539	4924
314.628	4692
314.718	7119
314.808	12830
314.897	5316
314.987	5120
315.076	5801
315.166	9472
315.255	11951
315.345	8635
315.434	12412
315.524	9690
315.613	10810
315.703	9701
315.792	12126
315.881	29521
315.971	14189
316.060	19746
316.150	44764
316.239	49188
316.328	17923
316.418	5502
316.507	5398
316.597	8131
316.686	8026
316.775	15862
316.865	51532
316.954	9557
317.043	4637
317.133	3936
317.222	4561
317.311	4528
317.400	3560
317.490	6403
317.579	7937
317.668	5589
317.757	8106
317.847	15657
317.936	50818
318.025	24950
318.114	13093
318.203	11011
318.293	13799
318.382	24724
318.471	19606
318.560	27868
318.649	71894
318.738	17362
318.828	9785
318.917	11173
319.006	16027
319.095	45788
319.184	83736
319.273	46043
319.362	21118
319.451	7600
319.540	7539
319.629	13317
319.718	26559
319.807	14866
319.896	23971
319.985	98632
320.074	40340
320.163	12655
320.252	27939
320.341	20109
320.430	14515
320.519	14113
320.608	10342
320.697	7906
320.786	7755
320.875	8753
320.964	11267
321.053	15869
321.142	22563
321.230	26786
321.319	20492
321.408	48186
321.497	26540
321.586	21293
321.675	39187
321.764	37935
321.852	20998
321.941	26381
322.030	19156
322.119	21286
322.207	52011
322.296	65669
322.385	27968
322.474	22328
322.562	50847
322.651	36043
322.740	22856
322.829	40013
322.917	63735
323.006	28536
323.095	18650
323.183	19529
323.272	26925
323.361	40127
323.449	146430
323.538	55691
323.626	103095
323.715	75197
323.804	27847
323.892	100802
323.981	59879
324.069	18894
324.158	56158
324.246	62881
324.335	13104
324.424	17661
324.512	8772
324.601	11553
324.689	28958
324.778	68216
324.866	46090
324.954	13332
325.043	10943
325.131	24430
325.220	54431
325.308	64395
325.397	39413
325.485	25898
325.574	5710
325.662	3967
325.750	5582
325.839	5285
325.927	5110
326.015	8529
326.104	18126
326.192	32758
326.280	7130
326.369	6241
326.457	7101
326.545	12601
326.634	6799
326.722	4624
326.810	4281
326.898	4348
326.987	5425
327.075	13856
327.163	24011
327.251	16294
327.340	23317
327.428	36575
327.516	7303
327.604	6166
327.692	8730
327.781	10843
327.869	24017
327.957	14487
328.045	7725
328.133	5034
328.221	10571
328.309	6397
328.397	5041
328.485	7419
328.574	8588
328.662	25765
328.750	25184
328.838	13429
328.926	6073
329.014	4277
329.102	7377
329.190	23917
329.278	14937
329.366	3908
329.454	4207
329.542	4001
329.630	4309
329.718	4300
329.806	5005
329.893	5793
329.981	6480
330.069	4047
330.157	8086
330.245	20598
330.333	12587
330.421	5556
330.509	8433
330.597	30998
330.684	26289
330.772	11707
330.860	21754
330.948	26593
331.036	11104
331.123	3722
331.211	5192
331.299	7775
331.387	18562
331.475	37166
331.562	12927
331.650	5975
331.738	8430
331.825	16496
331.913	5124
332.001	4936
332.089	8989
332.176	26128
332.264	59994
332.352	51834
332.439	11015
332.527	7203
332.614	7603
332.702	15090
332.790	8076
332.877	22618
332.965	61437
333.052	10678
333.140	8585
333.228	19359
333.315	6336
333.403	9388
333.490	37300
333.578	29297
333.665	9146
333.753	6557
333.840	5627
333.928	9786
334.015	39687
334.103	45096
334.190	125004
334.278	36645
334.365	16599
334.452	9679
334.540	5661
334.627	11249
334.715	20287
334.802	31599
334.889	173019
334.977	183490
335.064	20855
335.151	7980
335.239	9156
335.326	12873
335.413	46179
335.501	77113
335.588	11330
335.675	6883
335.762	9578
335.850	20394
335.937	12012
336.024	31441
336.111	168484
336.199	74970
336.286	10989
336.373	5313
336.460	4042
336.547	5030
336.635	7690
336.722	6648
336.809	6026
336.896	9203
336.983	31122
337.070	81009
337.157	122470
337.245	113992
337.332	94291
337.419	12167
337.506	7209
337.593	8500
337.680	24639
337.767	87652
337.854	26295
337.941	32161
338.028	52404
338.115	17288
338.202	15990
338.289	30927
338.376	124352
338.463	41469
338.550	47475
338.637	57876
338.724	26500
338.811	53657
338.898	10874
338.984	5887
339.071	8109
339.158	10770
339.245	22444
339.332	13743
339.419	30701
339.506	33745
339.593	4196
339.679	4437
339.766	3149
339.853	6000
339.940	12604
340.027	5273
340.113	4191
340.200	6881
340.287	6192
340.374	6631
340.460	9654
340.547	6036
340.634	7997
340.720	30340
340.807	19610
340.894	4103
340.980	6116
341.067	4358
341.154	4223
341.240	6384
341.327	14537
341.414	4275
341.500	3185
341.587	4348
341.674	4830
341.760	8918
341.847	12751
341.933	4658
342.020	2009
342.106	2175
342.193	3793
342.279	8158
342.366	5063
342.452	11038
342.539	6240
342.625	11832
342.712	32214
342.798	14082
342.885	5532
342.971	2604
343.058	3152
343.144	2400
343.230	2931
343.317	2386
343.403	2281
343.490	1661
343.576	2729
343.662	3605
343.749	5471
343.835	11204
343.921	13043
344.008	60854
344.094	169391
344.180	40687
344.267	12618
344.353	41257
344.439	63776
344.525	20961
344.612	6064
344.698	4762
344.784	4046
344.870	2740
344.957	3430
345.043	5810
345.129	4115
345.215	9606
345.301	5225
345.387	3342
345.474	2505
345.560	2984
345.646	7068
345.732	4727
345.818	3944
345.904	3843
345.990	5633
346.076	7170
346.162	23054
346.249	5758
346.335	3293
346.421	4237
346.507	13767
346.593	62578
346.679	17111
346.765	5248
346.851	3550
346.937	3810
347.023	3273
347.108	3904
347.194	3787
347.280	3145
347.366	4567
347.452	13823
347.538	72914
347.624	53200
347.710	52436
347.796	12071
347.882	6044
347.967	5116
348.053	8669
348.139	6527
348.225	3505
348.311	3621
348.397	3315
348.482	3901
348.568	5280
348.654	2551
348.740	1770
348.825	2479
348.911	7247
348.997	30746
349.083	79391
349.168	17166
349.254	3497
349.340	3138
349.425	2705
349.511	4473
349.597	9449
349.682	12207
349.768	37358
349.854	20276
349.939	5654
350.025	3929
350.110	2577
350.196	1924
350.282	926
350.367	2610
350.453	11321
350.538	14540
350.624	6587
350.709	6395
350.795	2480
350.880	3082
350.966	5080
351.051	9795
351.137	9669
351.222	3575
351.308	8961
351.393	31510
351.479	7805
351.564	1324
351.649	3133
351.735	2473
351.820	2367
351.906	3757
351.991	7235
352.076	19958
352.162	31459
352.247	6231
352.332	3965
352.418	5388
352.503	7619
352.588	42254
352.673	38750
352.759	8711
352.844	4161
352.929	3913
353.014	6193
353.100	4821
353.185	6060
353.270	10535
353.355	12166
353.441	3359
353.526	6103
353.611	10408
353.696	12807
353.781	7000
353.866	3550
353.952	3397
354.037	9124
354.122	23858
354.207	20499
354.292	9023
354.377	3046
354.462	3283
354.547	4218
354.632	5180
354.717	8703
354.802	9633
354.887	3146
354.972	2168
355.057	2809
355.142	2298
355.227	4523
355.312	6451
355.397	13692
355.482	36302
355.567	19082
355.652	14059
355.737	15292
355.822	39922
355.907	38176
355.991	5148
356.076	2460
356.161	2879
356.246	2344
356.331	3716
356.416	8871
356.501	70052
356.585	87958
356.670	11733
356.755	6596
356.840	8211
356.924	41446
357.009	184324
357.094	77067
357.179	14594
357.263	11952
357.348	10593
357.433	10927
357.517	7579
357.602	7066
357.687	5042
357.771	5367
357.856	5032
357.941	7924
358.025	30421
358.110	169336
358.195	87818
358.279	11776
358.364	7592
358.448	26534
358.533	79110
358.617	58108
358.702	57405
358.787	22653
358.871	11362
358.956	9288
359.040	2982
359.125	1884
359.209	2744
359.294	3459
359.378	4227
359.462	8089
359.547	6751
359.631	7762
359.716	2936
359.800	3396
359.885	9106
359.969	4208
360.053	4012
360.138	5377
360.222	5574
360.306	10334
360.391	8822
360.475	9404
360.559	20855
360.644	28277
360.728	23376
360.812	35073
360.896	119701
360.981	52420
361.065	29502
361.149	7061
361.233	6537
361.318	4813
361.402	5376
361.486	6261
361.570	3395
361.654	5361
361.739	13832
361.823	64572
361.907	121968
361.991	20567
362.075	9794
362.159	20898
362.243	14781
362.327	10502
362.411	12145
362.495	10655
362.580	4966
362.664	3408
362.748	2140
362.832	3278
362.916	3487
363.000	14526
363.084	63351
363.168	135973
363.252	32247
363.336	10870
363.420	16038
363.503	67083
363.587	92189
363.671	15109
363.755	7961
363.839	11341
363.923	4254
364.007	10894
364.091	17402
364.175	23050
364.258	109007
364.342	59820
364.426	27354
364.510	18143
364.594	14757
364.677	18222
364.761	95015
364.845	76584
364.929	19875
365.013	17322
365.096	13071
365.180	17317
365.264	24619
365.347	118674
365.431	57129
365.515	14715
365.598	5414
365.682	4668
365.766	13027
365.849	19721
365.933	7735
366.017	12752
366.100	11077
366.184	4492
366.267	4958
366.351	3612
366.435	2873
366.518	1816
366.602	1622
366.685	2511
366.769	3041
366.852	9773
366.936	18923
367.019	9134
367.103	8021
367.186	22177
367.270	5144
367.353	1548
367.436	2874
367.520	2877
367.603	4332
367.687	5939
367.770	12683
367.853	8055
367.937	24616
368.020	49531
368.104	12408
368.187	10359
368.270	14011
368.353	12852
368.437	26480
368.520	97936
368.603	48179
368.687	30597
368.770	63254
368.853	15513
368.936	16404
369.020	20368
369.103	6496
369.186	3767
369.269	3903
369.352	8125
369.436	14780
369.519	9651
369.602	3134
369.685	4783
369.768	5475
369.851	5252
369.934	2971
370.018	4155
370.101	10918
370.184	10310
370.267	7933
370.350	12105
370.433	19765
370.516	47649
370.599	68338
370.682	20154
370.765	30403
370.848	36078
370.931	77051
371.014	36129
371.097	6263
371.180	4857
371.263	1767
371.346	1698
371.429	2007
371.511	2923
371.594	7056
371.677	14792
371.760	20736
371.843	11496
371.926	49032
372.009	146271
372.091	47094
372.174	29685
372.257	77613
372.340	31738
372.423	24435
372.505	35265
372.588	12784
372.671	18594
372.754	71791
372.836	40002
372.919	30281
373.002	74304
373.085	20772
373.167	10727
373.250	27094
373.332	69844
373.415	83038
373.498	200203
373.580	73845
373.663	82730
373.746	135442
373.828	29479
373.911	13052
373.993	14009
374.076	64266
374.159	74548
374.241	24692
374.324	59318
374.406	41708
374.489	48091
374.571	169178
374.654	73198
374.736	27771
374.819	101651
374.901	136676
374.983	156698
375.066	27112
375.148	10084
375.231	47185
375.313	110827
375.395	44403
375.478	9190
375.560	4507
375.643	6626
375.725	25284
375.807	128529
375.890	136837
375.972	86748
376.054	35381
376.136	82318
376.219	32724
376.301	30335
376.383	109150
376.465	44580
376.548	21718
376.630	26019
376.712	87034
376.794	44111
376.877	5095
376.959	2342
377.041	4447
377.123	15655
377.205	20725
377.287	3793
377.369	3054
377.452	3515
377.534	3774
377.616	3620
377.698	3155
377.780	1806
377.862	3202
377.944	2943
378.026	1310
378.108	2438
378.190	1208
378.272	1110
378.354	131
378.436	2161
378.518	6422
378.600	33157
378.682	22998
378.764	37968
378.846	34130
378.928	10736
379.010	12839
379.091	7482
379.173	4047
379.255	1968
379.337	4953
379.419	15928
379.501	60326
379.583	26324
379.664	6126
379.746	12424
379.828	36954
379.910	51208
379.991	49821
380.073	8452
380.155	5601
380.237	3487
380.318	1546
380.400	3728
380.482	7315
380.564	14518
380.645	11783
380.727	12014
380.809	7047
380.890	3958
380.972	3119
381.053	2505
381.135	3973
381.217	11127
381.298	41142
381.380	22745
381.461	16908
381.543	77830
381.624	112016
381.706	20716
381.787	10503
381.869	10194
381.951	27917
382.032	147184
382.113	101620
382.195	20137
382.276	11524
382.358	21460
382.439	76213
382.521	81973
382.602	145533
382.684	58081
382.765	94971
382.846	80762
382.928	46359
383.009	25710
383.090	13165
383.172	52034
383.253	102175
383.334	53034
383.416	110457
383.497	58156
383.578	13379
383.659	18246
383.741	45015
383.822	151247
383.903	87244
383.984	50422
384.066	132278
384.147	88312
384.228	15744
384.309	9941
384.390	6973
384.471	4818
384.553	5586
384.634	10485
384.715	11392
384.796	5111
384.877	6089
384.958	30987
385.039	44823
385.120	14309
385.201	5895
385.282	11013
385.363	12987
385.444	8327
385.525	11825
385.606	60416
385.687	59606
385.768	14909
385.849	16793
385.930	57294
386.011	126048
386.092	34347
386.173	7037
386.254	6818
386.335	7793
386.416	7702
386.496	21560
386.577	43021
386.658	21776
386.739	12831
386.820	14156
386.901	11572
386.981	8340
387.062	4180
387.143	6726
387.224	36864
387.304	41064
387.385	15285
387.466	10581
387.547	16288
387.627	8131
387.708	12242
387.789	64519
387.869	95462
387.950	26801
388.031	4912
388.111	5044
388.192	23383
388.273	40892
388.353	21602
388.434	7154
388.514	11939
388.595	68481
388.676	98674
388.756	41827
388.837	36214
388.917	24462
388.998	5962
389.078	5776
389.159	4443
389.239	3097
389.320	7210
389.400	5986
389.480	15197
389.561	45565
389.641	24513
389.722	6977
389.802	12049
389.883	16338
389.963	55132
390.043	48490
390.124	20634
390.204	13041
390.284	44107
390.365	31025
390.445	42794
390.525	90826
390.605	69427
390.686	22186
390.766	6829
390.846	4026
390.927	2277
391.007	2625
391.087	5172
391.167	5655
391.247	3850
391.328	15923
391.408	22787
391.488	15182
391.568	2536
391.648	4569
391.728	7539
391.808	7281
391.888	7398
391.969	19205
392.049	39307
392.129	20747
392.209	19067
392.289	48295
392.369	29680
392.449	33758
392.529	19613
392.609	9971
392.689	11699
392.769	44526
392.849	42594
392.929	27914
393.009	76405
393.089	52561
393.169	25926
393.248	70500
393.328	363651
393.408	455244
393.488	107963
393.568	24047
393.648	12505
393.728	7960
393.807	6340
393.887	5681
393.967	5020
394.047	5950
394.127	6085
394.206	9679
394.286	28410
394.366	176387
394.446	220879
394.525	42577
394.605	8681
394.685	11335
394.764	39577
394.844	73517
394.924	53236
395.003	11667
395.083	6294
395.163	5372
395.242	4203
395.322	5328
395.402	2149
395.481	6185
395.561	21875
395.640	77288
395.720	49740
395.799	79618
395.879	67832
395.958	16477
396.038	39140
396.117	225064
396.197	289112
396.276	80021
396.356	30734
396.435	29328
396.515	15098
396.594	12812
396.673	23449
396.753	82348
396.832	354769
396.912	297404
396.991	68326
397.070	16244
397.150	6789
397.229	5908
397.308	5147
397.388	9123
397.467	5355
397.546	3139
397.625	1280
397.705	5295
397.784	6748
397.863	2796
397.942	2203
398.022	3475
398.101	19510
398.180	80866
398.259	48397
398.338	10510
398.417	4917
398.497	4354
398.576	5081
398.655	2045
398.734	2268
398.813	3207
398.892	18579
398.971	85082
399.050	47349
399.129	5040
399.208	2385
399.287	2724
399.366	305
399.445	2510
399.524	2399
399.603	1682
399.682	5766
399.761	18519
399.840	83920
399.919	75369
399.998	10674
400.077	744
400.156	1413
400.235	5203
400.313	2465
400.392	3964
400.471	17896
400.550	35452
400.629	10850
400.708	4680
400.786	6106
400.865	20453
400.944	24423
401.023	10167
401.102	1933
401.180	1329
401.259	2649
401.338	4187
401.416	6528
401.495	4654
401.574	5544
401.652	3811
401.731	5755
401.810	5526
401.888	1946
401.967	173
402.046	1351
402.124	4007
402.203	7417
402.281	3753
402.360	3706
402.438	24762
402.517	21792
402.596	5821
402.674	7197
402.753	3311
402.831	2812
402.910	2872
402.988	10992
403.066	43812
403.145	26691
403.223	11299
403.302	30053
403.380	23965
403.459	22287
403.537	10160
403.615	4687
403.694	554
403.772	321
403.850	483
403.929	894
404.007	838
404.085	4269
404.164	4433
404.242	1075
404.320	2775
404.398	6187
404.477	15963
404.555	100783
404.633	102311
404.711	14025
404.789	3198
404.868	1943
404.946	1421
405.024	631
405.102	-66
405.180	578
405.258	-81
405.336	1650
405.415	1857
405.493	7941
405.571	6640
405.649	1188
405.727	1513
405.805	5542
405.883	3655
405.961	4401
406.039	8762
406.117	2898
406.195	3640
406.273	16388
406.351	88808
406.429	62340
406.507	13017
406.585	4212
406.663	2974
406.740	3341
406.818	3779
406.896	1419
406.974	2226
407.052	4622
407.130	45161
407.208	76448
407.285	16666
407.363	1999
407.441	1992
407.519	1066
407.596	2035
407.674	6664
407.752	22502
407.830	33073
407.907	16161
407.985	3884
408.063	1640
408.141	1686
408.218	6427
408.296	6564
408.373	2082
408.451	3204
408.529	2811
408.606	429
408.684	-333
408.762	323
408.839	-694
408.917	-790
408.994	438
409.072	-600
409.149	-184
409.227	1774
409.304	1430
409.382	164
409.459	408
409.537	1736
409.614	2171
409.692	44
409.769	-537
409.846	2573
409.924	4671
410.001	2544
410.079	694
410.156	1879
410.233	1253
410.311	365
410.388	113
410.465	1528
410.543	1993
410.620	905
410.697	651
410.775	2214
410.852	-970
410.929	2106
411.006	4284
411.083	1592
411.161	6506
411.238	9974
411.315	6249
411.392	1140
411.469	2633
411.547	3992
411.624	893
411.701	357
411.778	1839
411.855	5328
411.932	3519
412.009	1495
412.086	1440
412.163	2005
412.240	4042
412.317	5324
412.394	5565
412.471	965
412.548	291
412.625	1241
412.702	2706
412.779	7048
412.856	3704
412.933	988
413.010	785
413.087	2266
413.164	16419
413.241	29083
413.318	6411
413.395	2656
413.471	5795
413.548	2529
413.625	1490
413.702	2460
413.779	3806
413.855	442
413.932	-85
414.009	-320
414.086	642
414.162	503
414.239	2255
414.316	16650
414.393	43151
414.469	16757
414.546	573
414.623	502
414.699	285
414.776	1594
414.853	493
414.929	1954
415.006	1573
415.082	3761
415.159	2536
415.236	1156
415.312	744
415.389	3933
415.465	5559
415.542	2654
415.618	1021
415.695	3402
415.771	2194
415.848	1796
415.924	2197
416.000	2614
416.077	874
416.153	-724
416.230	-1113
416.306	-557
416.383	1196
416.459	1369
416.535	-541
416.612	123
416.688	-5
416.764	164
416.841	40
416.917	563
416.993	1485
417.069	1979
417.146	2923
417.222	3546
417.298	1016
417.374	699
417.451	2266
417.527	1865
417.603	1669
417.679	1374
417.755	582
417.831	-433
417.908	-177
417.984	-139
418.060	578
418.136	3716
418.212	6584
418.288	2049
418.364	1368
418.440	569
418.516	2667
418.592	7262
418.668	11357
418.744	13025
418.820	9916
418.896	1693
418.972	179
419.048	468
419.124	5274
419.200	4645
419.276	1292
419.352	-520
419.428	265
419.504	-62
419.579	2337
419.655	1011
419.731	1181
419.807	7623
419.883	14447
419.959	10645
420.034	2942
420.110	4449
420.186	23342
420.262	22228
420.337	3212
420.413	2602
420.489	1254
420.565	520
420.640	-764
420.716	1694
420.792	-927
420.867	934
420.943	76
421.019	2736
421.094	2142
421.170	530
421.245	-147
421.321	516
421.397	467
421.472	3120
421.548	9150
421.623	8494
421.699	2239
421.774	1776
421.850	647
421.925	4018
422.001	2989
422.076	706
422.152	604
422.227	3178
422.302	4326
422.378	4078
422.453	8621
422.529	19260
422.604	72896
422.679	182367
422.755	115010
422.830	29480
422.905	8019
422.981	3576
423.056	2229
423.131	1301
423.207	1180
423.282	1601
423.357	6981
423.432	4584
423.508	4107
423.583	11099
423.658	9599
423.733	3007
423.808	4822
423.883	3717
423.959	2828
424.034	1118
424.109	1581
424.184	366
424.259	432
424.334	-84
424.409	-48
424.484	488
424.559	1690
424.634	188
424.709	1161
424.784	2940
424.859	1298
424.934	3564
425.009	16002
425.084	31478
425.159	12322
425.234	1838
425.309	-117
425.384	502
425.459	-679
425.534	744
425.609	2165
425.683	1282
425.758	432
425.833	1294
425.908	2774
425.983	8625
426.058	33036
426.132	16144
426.207	3656
426.282	8162
426.357	8657
426.431	1066
426.506	1132
426.581	1879
426.655	1908
426.730	992
426.805	900
426.879	1742
426.954	1901
427.029	4790
427.103	24903
427.178	77981
427.253	41273
427.327	4999
427.402	4768
427.476	11405
427.551	4122
427.625	3203
427.700	4206
427.774	1762
427.849	3669
427.923	1912
427.998	1137
428.072	1778
428.147	5806
428.221	15196
428.296	37974
428.370	20444
428.444	4957
428.519	9516
428.593	22593
428.667	20190
428.742	23541
428.816	18422
428.890	33813
428.965	45746
429.039	21541
429.113	28030
429.188	10099
429.262	1851
429.336	4233
429.410	16238
429.485	12240
429.559	18026
429.633	15869
429.707	3167
429.781	7324
429.855	44339
429.930	68990
430.004	54708
430.078	94765
430.152	75652
430.226	50839
430.300	54397
430.374	9937
430.448	4769
430.522	21743
430.596	82585
430.670	48231
430.744	50839
430.818	97199
430.892	26234
430.966	3617
431.040	2705
431.114	1059
431.188	551
431.262	1805
431.336	1855
431.410	7760
431.484	27726
431.557	19021
431.631	1918
431.705	684
431.779	4030
431.853	26627
431.927	23888
432.000	3021
432.074	1198
432.148	4500
432.222	3670
432.295	1104
432.369	604
432.443	2832
432.516	27577
432.590	83446
432.664	38126
432.737	4393
432.811	234
432.885	-202
432.958	480
433.032	-483
433.106	-633
433.179	-182
433.253	-104
433.326	16
433.400	-121
433.473	405
433.547	-936
433.620	365
433.694	1591
433.767	4032
433.841	2601
433.914	-306
433.988	-624
434.061	1048
434.134	899
434.208	-754
434.281	-622
434.355	-434
434.428	64
434.501	38
434.575	7
434.648	1311
434.721	-853
434.795	-184
434.868	-535
434.941	-917
435.014	-1841
435.088	-721
435.161	302
435.234	1220
435.307	2830
435.381	1086
435.454	86
435.527	351
435.600	840
435.673	-347
435.746	-159
435.819	-626
435.892	-196
435.966	41
436.039	760
436.112	1042
436.185	-243
436.258	-1263
436.331	-2015
436.404	-559
436.477	-1452
436.550	-834
436.623	-161
436.696	-674
436.769	-115
436.842	377
436.915	1021
436.987	2962
437.060	1248
437.133	-171
437.206	-650
437.279	565
437.352	-244
437.425	-902
437.498	-29
437.570	2834
437.643	2956
437.716	532
437.789	-66
437.861	2157
437.934	12973
438.007	7054
438.080	147
438.152	499
438.225	3012
438.298	31444
438.370	119605
438.443	59680
438.516	14521
438.588	3791
438.661	-209
438.734	-46
438.806	1374
438.879	1809
438.951	2271
439.024	5936
439.096	2572
439.169	402
439.241	-608
439.314	-459
439.386	4282
439.459	7661
439.531	15041
439.604	5260
439.676	-20
439.749	-972
439.821	-516
439.893	-659
439.966	1136
440.038	2196
440.110	1533
440.183	874
440.255	133
440.327	1389
440.400	13955
440.472	72094
440.544	59561
440.617	7594
440.689	5225
440.761	6619
440.833	11562
440.905	9149
440.978	1700
441.050	-715
441.122	600
441.194	68
441.266	499
441.338	-3
441.411	1862
441.483	17787
441.555	36050
441.627	10090
441.699	6976
441.771	8566
441.843	2411
441.915	-326
441.987	-759
442.059	-191
442.131	2186
442.203	4561
442.275	5721
442.347	3510
442.419	2456
442.491	8886
442.563	29921
442.635	23853
442.706	25627
442.778	24306
442.850	3856
442.922	461
442.994	2346
443.066	4878
443.137	3391
443.209	1498
443.281	2243
443.353	5940
443.425	17775
443.496	54974
443.568	60199
443.640	24978
443.711	6796
443.783	2562
443.855	1498
443.926	748
443.998	1469
444.070	4415
444.141	3155
444.213	4229
444.285	5227
444.356	7151
444.428	9237
444.499	1928
444.571	76
444.642	304
444.714	128
444.785	2948
444.857	7609
444.928	23731
445.000	15493
445.071	14289
445.143	19613
445.214	7933
445.285	9636
445.357	35241
445.428	50734
445.500	112158
445.571	92447
445.642	39697
445.714	25673
445.785	39150
445.856	12254
445.928	6132
445.999	5576
446.070	4859
446.141	3675
446.213	5693
446.284	3118
446.355	4616
446.426	3631
446.497	2253
446.569	6381
446.640	10128
446.711	6146
446.782	2362
446.853	6667
446.924	6904
446.995	2197
447.066	3172
447.138	9464
447.209	5561
447.280	77
447.351	137
447.422	623
447.493	2341
447.564	4518
447.635	3899
447.706	1889
447.777	93
447.847	615
447.918	833
447.989	3806
448.060	5665
448.131	16709
448.202	15395
448.273	7561
448.344	3515
448.414	257
448.485	1320
448.556	1547
448.627	249
448.698	626
448.768	268
448.839	897
448.910	7047
448.981	8298
449.051	1980
449.122	113
449.193	256
449.263	684
449.334	273
449.405	1356
449.475	5588
449.546	6099
449.616	9776
449.687	8928
449.758	1865
449.828	928
449.899	-102
449.969	-66
450.040	293
450.110	3088
450.181	5798
450.251	1438
450.322	797
450.392	1714
450.463	525
450.533	240
450.604	515
450.674	706
450.744	800
450.815	1622
450.885	692
450.955	384
451.026	404
451.096	818
451.166	2144
451.237	9314
451.307	28996
451.377	13968
451.447	2282
451.518	1081
451.588	809
451.658	1112
451.728	3690
451.799	26349
451.869	36981
451.939	9748
452.009	1403
452.079	931
452.149	1295
452.219	5657
452.289	32440
452.360	30241
452.430	5394
452.500	1974
452.570	3280
452.640	4358
452.710	16380
452.780	32572
452.850	18460
452.920	14380
452.990	6266
453.060	3199
453.129	3989
453.199	7670
453.269	25885
453.339	72909
453.409	119983
453.479	105058
453.549	160728
453.619	187078
453.688	91489
453.758	15006
453.828	3833
453.898	2970
453.968	2617
454.037	2086
454.087	1871
454.107	1764
454.168	1209
454.177	1112
454.247	363
454.249	429
454.316	1615
454.330	1866
454.386	2804
454.411	8175
454.456	16242
454.492	23069
454.525	29006
454.574	15771
454.595	10145
454.655	3470
454.665	2458
454.734	2937
454.736	3171
454.804	9785
454.817	14393
454.873	30863
454.898	35673
454.943	43146
454.979	30740
455.013	19972
455.060	10631
455.082	7232
455.141	7440
455.152	7220
455.221	22426
455.222	22926
455.291	44635
455.303	41507
455.360	28061
455.384	31012
455.430	37721
455.465	37069
455.499	35621
455.546	36754
455.569	35717
455.627	24911
455.638	23313
455.707	5249
455.708	5253
455.777	2027
455.789	2183
455.846	2885
455.869	2906
455.916	2822
455.950	2857
455.985	2969
456.031	3193
456.054	2971
456.112	2201
456.124	2185
456.193	1696
456.193	1666
456.262	3375
456.274	4090
456.332	6784
456.355	7647
456.401	8301
456.436	6680
456.470	5187
456.516	2767
456.540	1753
456.597	1204
456.609	1083
456.678	1691
456.678	1674
456.747	1392
456.759	1406
456.817	1475
456.840	1319
456.886	805
456.920	790
456.955	1183
457.001	1727
457.024	2286
457.082	4604
457.093	5120
457.162	9201
457.163	9272
457.232	12622
457.243	11894
457.301	7053
457.324	4738
457.370	1838
457.405	2130
457.439	2611
457.485	1942
457.508	1628
457.566	2707
457.577	3006
457.646	4753
457.647	4795
457.715	6317
457.727	6679
457.784	6245
457.808	6054
457.853	6699
457.889	8036
457.922	9306
457.969	8631
457.991	8594
458.050	10129
458.060	9807
458.129	9697
458.130	9739
458.198	11364
458.211	10523
458.267	7268
458.292	6039
458.336	4215
458.372	3741
458.405	4004
458.453	4780
458.474	5803
458.533	10852
458.543	11673
458.611	21544
458.614	21791
458.680	17684
458.694	15353
458.749	8241
458.775	5877
458.818	3872
458.855	3661
458.887	3721
458.936	3538
458.955	3438
459.016	4783
459.024	4920
459.093	5379
459.097	5385
459.162	5507
459.177	5703
459.230	6810
459.257	7436
459.299	9404
459.338	10924
459.368	12163
459.418	15140
459.437	13335
459.499	6837
459.505	6757
459.574	4641
459.579	4548
459.643	3894
459.659	3920
459.711	4732
459.740	4843
459.780	4770
459.820	5323
459.849	5935
459.900	6946
459.917	6773
459.981	6203
459.986	6148
460.054	4947
460.061	4828
460.123	5153
460.141	5279
460.191	6091
460.222	6845
460.260	7376
460.302	8297
460.328	7748
460.382	5712
460.397	5648
460.462	5365
460.465	5363
460.534	5713
460.543	5842
460.602	9336
460.623	10593
460.671	14242
460.703	18683
460.739	19709
460.783	19583
460.808	18273
460.864	8948
460.876	8040
460.944	6437
460.945	6406
461.013	6050
461.024	5960
461.081	6205
461.104	6434
461.150	5969
461.184	5607
461.218	5542
461.264	5189
461.286	5240
461.345	5987
461.355	6161
461.423	6593
461.425	6623
461.491	7636
461.505	7839
461.559	14789
461.585	18187
461.628	33830
461.665	48925
461.696	55992
461.745	73745
461.764	65240
461.825	22799
461.832	22051
461.901	11033
461.905	10864
461.969	10156
461.985	10055
462.037	8604
462.065	7841
462.105	8990
462.145	10177
462.173	15894
462.225	27131
462.241	30885
462.305	49078
462.310	47832
462.378	28267
462.385	24981
462.446	12654
462.465	9664
462.514	7530
462.545	7297
462.582	7635
462.625	8167
462.650	8026
462.705	7706
462.718	8101
462.785	9894
462.786	10010
462.854	16874
462.865	18115
462.922	24434
462.945	27447
462.990	20289
463.025	12436
463.058	10387
463.104	8105
463.126	7713
463.184	7409
463.194	7506
463.262	8478
463.264	8510
463.330	9089
463.344	9188
463.398	10931
463.424	11765
463.466	12322
463.504	12884
463.533	12689
463.583	12261
463.601	12661
463.663	13598
463.669	13973
463.737	18599
463.743	19072
463.805	30264
463.823	33454
463.873	54727
463.903	68231
463.940	75731
463.982	86459
464.008	70533
464.062	29912
464.076	27047
464.142	10824
464.144	10680
464.211	9024
464.221	8992
464.279	9367
464.301	9458
464.347	11211
464.381	12602
464.414	14575
464.461	17311
464.482	18350
464.540	21701
464.550	20736
464.617	12442
464.620	12134
464.685	11928
464.699	12010
464.753	11933
464.779	11932
464.820	11798
464.859	11510
464.888	13054
464.938	15733
464.956	16495
465.018	19545
465.023	19045
465.091	11879
465.098	11076
465.158	10091
465.177	9837
465.226	10272
465.257	10623
465.293	11736
465.336	13039
465.361	14090
465.416	16452
465.428	18241
465.495	27737
465.496	27957
465.563	55565
465.575	60430
465.631	79649
465.654	88242
465.698	54448
465.734	24080
465.765	18835
465.813	10719
465.833	10073
465.893	9814
465.900	9772
465.968	9395
465.972	9351
466.035	9099
466.052	9045
466.102	9626
466.131	9878
466.170	9321
466.210	8766
466.237	9687
466.290	11339
466.304	11133
466.369	10231
466.372	10322
466.439	12443
466.449	12710
466.506	14189
466.528	14763
466.573	22308
466.607	27901
466.641	48595
466.687	77389
466.708	88680
466.766	120167
466.775	110466
466.842	35605
466.845	31975
466.909	19015
466.925	16087
466.977	15372
467.004	15147
467.044	14997
467.083	14813
467.111	14641
467.163	14223
467.178	14432
467.242	15179
467.245	15209
467.312	15264
467.321	15245
467.379	16511
467.400	16921
467.446	20328
467.480	22729
467.559	20670
467.638	14661
467.717	15150
467.796	17376
467.875	20233
467.955	20940
468.034	31182
468.113	88969
468.192	145824
468.271	37481
468.350	14656
468.429	14425
468.508	14957
468.588	13865
468.667	16190
468.746	18447
468.825	18220
468.904	15058
468.983	19051
469.062	37294
469.141	51481
469.220	17671
469.299	14829
469.378	16315
469.456	13826
469.535	13520
469.614	14465
469.693	16734
469.772	26029
469.851	43198
469.930	29531
470.009	12755
470.088	11254
470.166	12185
470.245	12193
470.324	12173
470.403	13032
470.482	12340
470.560	13322
470.639	15056
470.718	18209
470.797	15310
470.875	18534
470.954	33014
471.033	40540
471.111	13392
471.190	12054
471.269	10811
471.347	12009
471.426	13902
471.505	16060
471.583	14949
471.662	11892
471.740	13264
471.819	12621
471.898	11610
471.976	10933
472.055	11993
472.133	16356
472.212	25157
472.290	30702
472.369	16776
472.447	12294
472.526	10958
472.604	12169
472.683	12591
472.761	14595
472.839	12152
472.918	12723
472.996	14217
473.075	18484
473.153	18324
473.231	13382
473.310	17052
473.388	17725
473.466	14784
473.545	13757
473.623	18222
473.701	19750
473.780	12294
473.858	12507
473.936	14448
474.014	13574
474.093	14836
474.171	27874
474.249	47110
474.327	31382
474.405	10045
474.484	10870
474.562	11343
474.640	12387
474.718	13320
474.796	13703
474.874	11951
474.952	9336
475.030	10828
475.108	12236
475.187	10856
475.265	12498
475.343	18417
475.421	22999
475.499	13033
475.577	15262
475.655	21994
475.733	53051
475.811	104341
475.889	95689
475.966	65188
476.044	16377
476.122	18783
476.200	24279
476.278	20559
476.356	16277
476.434	16610
476.512	20917
476.590	25236
476.667	24737
476.745	16235
476.823	16432
476.901	16124
476.979	18529
477.056	16503
477.134	16656
477.212	16017
477.290	16690
477.367	15327
477.445	15265
477.523	15261
477.601	16712
477.678	17031
477.756	21145
477.834	25276
477.911	16046
477.989	14422
478.066	16189
478.144	18889
478.222	19649
478.299	25819
478.377	25710
478.454	13652
478.532	13801
478.609	15351
478.687	18197
478.764	12801
478.842	14931
478.919	16334
478.997	16756
479.074	14385
479.152	19871
479.229	28171
479.307	19414
479.384	12020
479.461	12889
479.539	15874
479.616	22572
479.694	20103
479.771	18734
479.848	19587
479.926	30146
480.003	33794
480.080	14606
480.157	13735
480.235	14757
480.312	14971
480.389	19358
480.467	35270
480.544	49521
480.621	23949
480.698	22196
480.775	25934
480.853	24564
480.930	18661
481.007	18286
481.084	21383
481.161	23891
481.238	21916
481.315	16739
481.392	16426
481.470	17317
481.547	18105
481.624	17502
481.701	16006
481.778	18884
481.855	21089
481.932	31660
482.009	58451
482.086	45244
482.163	16809
482.240	20691
482.317	31641
482.393	28553
482.470	17397
482.547	19396
482.624	16799
482.701	21661
482.778	20979
482.855	15137
482.932	13242
483.009	14891
483.085	18501
483.162	27250
483.239	24202
483.316	15727
483.393	13689
483.469	15886
483.546	18261
483.623	21605
483.699	17013
483.776	17084
483.853	20629
483.930	27573
484.006	73413
484.083	140037
484.160	45176
484.236	24264
484.313	21870
484.389	20389
484.466	18155
484.543	16745
484.619	18927
484.696	21449
484.772	26406
484.849	32981
484.925	21933
485.002	20975
485.078	28997
485.155	35667
485.231	21218
485.308	19301
485.384	22063
485.461	30404
485.537	67712
485.614	97173
485.690	25887
485.766	20023
485.843	20465
485.919	29122
485.995	33151
486.072	18602
486.148	18065
486.224	18060
486.301	21452
486.377	32835
486.453	45409
486.530	28547
486.606	21470
486.682	25428
486.758	48718
486.835	72123
486.911	45061
486.987	88525
487.063	78090
487.139	76607
487.215	51437
487.292	23587
487.368	18867
487.444	27588
487.520	49430
487.596	34112
487.672	21038
487.748	35500
487.824	51055
487.900	28080
487.976	21928
488.052	35459
488.128	64393
488.204	43418
488.280	23509
488.356	27404
488.432	75779
488.508	146298
488.584	41955
488.660	19920
488.736	18085
488.812	19023
488.888	23646
488.964	30322
489.039	67346
489.115	114094
489.191	73519
489.267	22634
489.343	21786
489.418	17167
489.494	15643
489.570	15589
489.646	17170
489.722	17565
489.797	20109
489.873	34369
489.949	101556
490.024	97712
490.100	21121
490.176	15928
490.251	21791
490.327	28332
490.403	19199
490.478	16815
490.554	12294
490.629	12934
490.705	13457
490.781	16053
490.856	16943
490.932	19019
491.007	19240
491.083	17891
491.158	19077
491.234	25806
491.309	75047
491.385	92375
491.460	22682
491.536	22590
491.611	17701
491.686	18244
491.762	23768
491.837	49039
491.913	86451
491.988	121030
492.063	148051
492.139	59291
492.214	38446
492.289	15072
492.365	12918
492.440	16922
492.515	21959
492.590	22653
492.666	15521
492.741	24307
492.816	46580
492.891	24831
492.967	11994
493.042	12261
493.117	11608
493.192	13826
493.267	15756
493.342	39257
493.418	56488
493.493	17801
493.568	11445
493.643	13411
493.718	18238
493.793	36079
493.868	33604
493.943	18224
494.018	13859
494.093	14879
494.168	15355
494.243	11442
494.318	10855
494.393	11197
494.468	10355
494.543	10443
494.618	13157
494.693	13044
494.768	13585
494.842	14007
494.917	10457
494.992	11464
495.067	10376
495.142	10514
495.217	10790
495.292	12762
495.366	15575
495.441	23639
495.516	30085
495.591	34437
495.665	90592
495.740	236180
495.815	111853
495.890	26892
495.964	21892
496.039	22389
496.114	19651
496.188	20081
496.263	19828
496.338	22310
496.412	24928
496.487	28995
496.561	26729
496.636	27870
496.710	21831
496.785	25406
496.860	32360
496.934	23141
497.009	20481
497.083	19656
497.158	19831
497.232	25579
497.307	34057
497.381	24320
497.455	29802
497.530	48425
497.604	29146
497.679	26785
497.753	46653
497.827	63032
497.902	43409
497.976	47972
498.050	91961
498.125	396418
498.199	481535
498.273	74133
498.348	38830
498.422	31056
498.496	30976
498.570	29961
498.645	23991
498.719	27135
498.793	36946
498.867	63803
498.941	81553
499.016	156726
499.090	493839
499.164	216185
499.238	28776
499.312	23514
499.386	25878
499.460	27095
499.534	26858
499.609	32410
499.683	56829
499.757	54080
499.831	77387
499.905	322475
499.979	373128
500.053	78120
500.127	71289
500.201	41178
500.275	29509
500.349	27158
500.422	30311
500.496	42639
500.570	73772
500.644	179483
500.718	402440
500.792	113011
500.866	30896
500.940	43120
501.013	37149
501.087	33386
501.161	50326
501.235	70467
501.309	144398
501.382	381057
501.456	376759
501.530	84513
501.603	160494
501.677	70346
501.751	27994
501.825	31277
501.898	53707
501.972	175968
502.046	131281
502.119	35923
502.193	68162
502.266	197469
502.340	109305
502.413	80580
502.487	187177
502.561	121787
502.634	36060
502.708	23421
502.781	20132
502.855	18057
502.928	17178
503.002	17684
503.075	17188
503.149	19962
503.222	20745
503.295	24630
503.369	31767
503.442	40300
503.516	111065
503.589	342659
503.662	247108
503.736	68505
503.809	156830
503.882	133327
503.956	158146
504.029	163699
504.102	47310
504.175	42447
504.249	21684
504.322	26695
504.395	26919
504.468	19260
504.542	19925
504.615	15755
504.688	14259
504.761	13911
504.834	19431
504.907	19085
504.980	30735
505.053	21064
505.127	20155
505.200	27587
505.273	34030
505.346	21961
505.419	15619
505.492	14524
505.565	11743
505.638	11702
505.711	13241
505.784	13686
505.857	12125
505.930	15682
506.003	14248
506.076	16867
506.149	22618
506.221	33929
506.294	25121
506.367	54201
506.440	212642
506.513	132589
506.586	33348
506.659	20038
506.731	14810
506.804	17407
506.877	24686
506.950	21257
507.022	13226
507.095	21493
507.168	27676
507.241	14756
507.313	10407
507.386	12660
507.459	17143
507.531	11630
507.604	10858
507.677	11511
507.749	9386
507.822	12904
507.894	18360
507.967	20270
508.040	10815
508.112	10383
508.185	11039
508.257	10733
508.330	17199
508.402	13082
508.475	12572
508.547	14676
508.620	13683
508.692	31710
508.765	17189
508.837	10729
508.909	8494
508.982	10385
509.054	12587
509.127	10540
509.199	9274
509.271	9029
509.344	7818
509.416	9293
509.488	9429
509.560	10245
509.633	9093
509.705	12774
509.777	12217
509.849	16799
509.922	11242
509.994	10002
510.066	9331
510.138	8672
510.210	11755
510.283	10851
510.355	11635
510.427	9973
510.499	10084
510.571	10241
510.643	10272
510.715	16987
510.787	16333
510.859	12007
510.931	16234
511.003	17276
511.076	16614
511.148	11432
511.219	10432
511.291	24352
511.363	35952
511.435	10673
511.507	8622
511.579	9170
511.651	9684
511.723	9487
511.795	9239
511.867	10503
511.939	13497
512.010	42709
512.082	36977
512.154	12065
512.226	9899
512.298	10212
512.369	16250
512.441	13888
512.513	15167
512.585	11168
512.656	11907
512.728	15545
512.800	11066
512.871	11419
512.943	10940
513.015	7940
513.086	8500
513.158	11005
513.230	10865
513.301	16970
513.373	21615
513.444	11162
513.516	8632
513.588	9903
513.659	9734
513.731	14751
513.802	12818
513.874	24348
513.945	49005
514.016	16874
514.088	10039
514.159	11563
514.231	14447
514.302	16753
514.374	11898
514.445	13159
514.516	44025
514.588	36577
514.659	16161
514.730	41918
514.802	28035
514.873	11393
514.944	11138
515.016	10476
515.087	14242
515.158	23385
515.229	43386
515.301	12012
515.372	9613
515.443	8737
515.514	7722
515.585	8497
515.656	7679
515.728	8029
515.799	6885
515.870	9325
515.941	9971
516.012	9219
516.083	9614
516.154	11102
516.225	18072
516.296	15714
516.367	11466
516.438	12221
516.509	15146
516.580	19074
516.651	38271
516.722	137214
516.793	100626
516.864	29785
516.935	30282
517.006	28616
517.077	32812
517.148	61521
517.219	75800
517.289	136628
517.360	209134
517.431	95195
517.502	20660
517.573	18793
517.643	17325
517.714	18930
517.785	17189
517.856	17677
517.926	18826
517.997	19390
518.068	19828
518.138	21835
518.209	22552
518.280	42657
518.350	144374
518.421	82491
518.492	22406
518.562	20947
518.633	24797
518.703	19462
518.774	24596
518.845	36787
518.915	41029
518.986	27748
519.056	29366
519.127	46936
519.197	71612
519.268	203277
519.338	167288
519.408	38755
519.479	34836
519.549	27184
519.620	18325
519.690	15032
519.760	15394
519.831	15690
519.901	17107
519.971	14496
520.042	16927
520.112	22840
520.182	20812
520.253	21995
520.323	15555
520.393	14787
520.463	16267
520.534	15643
520.604	28481
520.674	20734
520.744	22608
520.814	29138
520.885	31722
520.955	55728
521.025	247171
521.095	119301
521.165	22026
521.235	20013
521.305	15584
521.375	14410
521.445	14545
521.515	19463
521.585	21229
521.655	21636
521.725	17472
521.795	17727
521.865	13515
521.935	26724
522.005	25420
522.075	14693
522.145	16982
522.215	20514
522.285	32405
522.355	40598
522.424	90100
522.494	80009
522.564	30199
522.634	38676
522.704	109292
522.774	49193
522.843	17775
522.913	15435
522.983	18040
523.053	14992
523.122	15613
523.192	18592
523.262	55629
523.331	63539
523.401	18451
523.471	11813
523.540	13651
523.610	10885
523.680	10896
523.749	12459
523.819	16832
523.888	20527
523.958	11304
524.027	14779
524.097	18621
524.166	14365
524.236	13945
524.305	16297
524.375	13455
524.444	11924
524.514	14767
524.583	14560
524.653	20966
524.722	24221
524.791	14403
524.861	14627
524.930	11731
524.999	13133
525.069	17640
525.138	17649
525.207	25125
525.277	15851
525.346	13989
525.415	13454
525.484	13395
525.554	18478
525.623	17584
525.692	12202
525.761	12568
525.830	11957
525.900	12498
525.969	19078
526.038	20656
526.107	19654
526.176	40886
526.245	43305
526.314	29117
526.383	37630
526.452	37010
526.522	53407
526.591	87621
526.660	66447
526.729	31462
526.797	29110
526.867	47818
526.935	207140
527.004	223950
527.073	113104
527.142	21728
527.211	15370
527.280	15600
527.349	17336
527.418	9624
527.487	11825
527.555	11095
527.624	10931
527.693	9624
527.762	10860
527.831	9761
527.899	11165
527.968	11843
528.037	11243
528.106	13119
528.174	24394
528.243	24315
528.312	30674
528.380	42965
528.449	16187
528.518	11340
528.586	9019
528.655	10386
528.723	10075
528.792	9276
528.861	11645
528.929	10932
528.998	10552
529.066	9547
529.135	9068
529.203	8225
529.272	7846
529.340	10458
529.409	11550
529.477	9469
529.545	15007
529.614	18658
529.682	17070
529.751	24032
529.819	19426
529.887	15485
529.956	10413
530.024	11234
530.092	9181
530.161	10517
530.229	16574
530.297	10807
530.365	9154
530.434	7517
530.502	7793
530.570	8690
530.638	7587
530.707	10071
530.775	12866
530.843	8998
530.911	10086
530.979	8049
531.047	9362
531.115	10278
531.183	9712
531.252	9629
531.320	10475
531.388	8989
531.456	9714
531.524	7420
531.592	10129
531.660	10718
531.728	9425
531.796	8952
531.864	9270
531.932	9865
532.000	8703
532.067	9832
532.135	10725
532.203	11716
532.271	12533
532.339	17281
532.407	46924
532.475	31381
532.542	16589
532.610	16672
532.678	19242
532.746	58227
532.814	189776
532.881	57099
532.949	14022
533.017	11569
533.084	11089
533.152	9134
533.220	10140
533.287	11739
533.355	9331
533.423	9790
533.490	9600
533.558	8204
533.625	10287
533.693	11295
533.761	10960
533.828	12370
533.896	9347
533.963	17238
534.031	20869
534.098	30952
534.166	17534
534.233	9060
534.300	9483
534.368	10045
534.435	9578
534.503	9635
534.570	8397
534.637	8254
534.705	9802
534.772	10026
534.840	8994
534.907	20502
534.974	31244
535.041	11951
535.109	18200
535.176	9841
535.243	9825
535.310	8689
535.378	9899
535.445	8538
535.512	8570
535.579	8385
535.646	9215
535.714	8411
535.781	9698
535.848	9403
535.915	11203
535.982	9700
536.049	10427
536.116	11246
536.183	10344
536.250	10477
536.317	11161
536.384	11950
536.451	17797
536.518	19127
536.585	12795
536.652	17321
536.719	23329
536.786	19831
536.853	14635
536.920	21147
536.987	37158
537.053	27744
537.120	85728
537.187	92411
537.254	14532
537.321	11010
537.388	12117
537.454	8660
537.521	9171
537.588	8491
537.654	11029
537.721	9870
537.788	12008
537.855	8738
537.921	9969
537.988	9544
538.055	10646
538.121	10028
538.188	11169
538.254	14410
538.321	31945
538.388	22344
538.454	11342
538.521	10259
538.587	9838
538.654	8487
538.720	10015
538.787	9276
538.853	10743
538.920	13932
538.986	17366
539.053	14284
539.119	13966
539.185	11843
539.252	12922
539.318	18453
539.385	14764
539.451	12014
539.517	12385
539.583	14245
539.650	28234
539.716	83132
539.782	27780
539.849	11337
539.915	12145
539.981	11280
540.047	14629
540.114	12473
540.180	14519
540.246	12192
540.312	15773
540.378	30069
540.444	35033
540.510	27389
540.576	85371
540.643	33119
540.709	10531
540.775	11415
540.841	11278
540.907	16106
540.973	25227
541.039	16357
541.105	20567
541.171	11717
541.237	11010
541.303	11873
541.369	13752
541.435	14818
541.500	27581
541.566	20570
541.632	10900
541.698	10033
541.764	11201
541.830	10064
541.896	9934
541.961	9986
542.027	9843
542.093	9416
542.159	10611
542.224	11772
542.290	15888
542.356	23737
542.421	35913
542.487	16845
542.553	12660
542.618	15272
542.684	13236
542.750	12424
542.815	14668
542.881	22704
542.947	70729
543.012	60526
543.078	13027
543.143	10522
543.209	12676
543.274	11954
543.340	13308
543.405	26509
543.471	48056
543.536	13766
543.602	10816
543.667	10299
543.732	11395
543.798	10268
543.863	10094
543.928	8603
543.994	8406
544.059	9697
544.124	9090
544.190	8452
544.255	10491
544.320	9506
544.386	11164
544.451	15316
544.516	18378
544.581	16901
544.646	41603
544.712	76901
544.777	19525
544.842	15899
544.907	20231
544.972	16210
545.037	14762
545.102	17221
545.168	17584
545.233	17744
545.298	18808
545.363	21206
545.428	22541
545.493	29361
545.558	65486
545.623	34078
545.688	18583
545.753	16062
545.818	16607
545.883	15725
545.947	16467
546.012	18009
546.077	20266
546.142	16815
546.207	15061
546.272	19216
546.337	20961
546.401	16971
546.466	15322
546.531	14690
546.596	17895
546.661	15564
546.725	16928
546.790	14334
546.855	16322
546.919	14133
546.984	15115
547.049	17999
547.113	22369
547.178	18006
547.243	20208
547.307	21354
547.372	24992
547.436	30568
547.501	19944
547.565	18822
547.630	22809
547.695	22882
547.759	30671
547.823	26180
547.888	18047
547.952	17399
548.017	18991
548.081	21732
548.146	35393
548.210	30111
548.274	18437
548.339	16323
548.403	16664
548.468	15219
548.532	16083
548.596	16599
548.660	17042
548.725	19337
548.789	24219
548.853	28252
548.917	20695
548.982	31226
549.046	36522
549.110	18706
549.174	17404
549.238	16835
549.303	15028
549.367	16798
549.431	17022
549.495	16521
549.559	17669
549.623	17368
549.687	20220
549.751	27896
549.815	22704
549.879	20904
549.943	19113
550.007	21533
550.071	21856
550.135	24580
550.199	22597
550.263	20540
550.327	24107
550.391	36271
550.455	24031
550.519	20297
550.582	21679
550.646	26607
550.710	29473
550.774	23336
550.838	22054
550.901	22687
550.965	25184
551.029	26142
551.093	30704
551.156	38677
551.220	76437
551.284	95130
551.347	43230
551.411	92349
551.475	124883
551.538	29497
551.602	21891
551.666	20372
551.729	18644
551.793	19488
551.856	19614
551.920	18622
551.983	18761
552.047	18024
552.110	18567
552.174	17933
552.237	17844
552.301	18278
552.364	18097
552.428	18958
552.491	18818
552.554	17967
552.618	19412
552.681	18394
552.745	18142
552.808	20162
552.871	22822
552.934	20323
552.998	19309
553.061	21825
553.124	20290
553.187	18461
553.251	19911
553.314	21806
553.377	20214
553.440	22514
553.503	29406
553.567	43758
553.630	21337
553.693	18933
553.756	20907
553.819	18284
553.882	18453
553.945	17718
554.008	17181
554.071	17232
554.134	18002
554.197	17988
554.260	17327
554.323	19507
554.386	19150
554.449	18639
554.512	18564
554.575	18108
554.638	20039
554.701	18652
554.764	17374
554.827	18217
554.889	17677
554.952	15632
555.015	16300
555.078	16087
555.141	17072
555.203	15991
555.266	16665
555.329	17367
555.391	17016
555.454	17161
555.517	18343
555.580	16997
555.642	15118
555.705	15477
555.768	17139
555.830	16086
555.893	16052
555.955	16600
556.018	16895
556.080	17214
556.143	15991
556.206	16384
556.268	18776
556.330	18502
556.393	18730
556.455	19744
556.518	31993
556.580	35605
556.643	17827
556.705	16401
556.767	15438
556.830	17816
556.892	19265
556.955	26195
557.017	22552
557.079	17796
557.142	16725
557.204	19062
557.266	33932
557.328	32803
557.391	16940
557.453	15564
557.515	16014
557.577	18943
557.639	21943
557.701	16491
557.764	15189
557.826	16506
557.888	20138
557.950	17497
558.012	17500
558.074	18406
558.136	25254
558.198	47523
558.260	32787
558.322	19689
558.384	21255
558.446	23441
558.508	25981
558.570	31130
558.632	43741
558.694	65700
558.756	45781
558.818	75894
558.880	206558
558.942	95057
559.003	53336
559.065	38063
559.127	22719
559.189	22533
559.251	27600
559.312	27878
559.374	44723
559.436	124814
559.498	92770
559.559	25903
559.621	24090
559.683	26245
559.744	38837
559.806	77120
559.868	117537
559.929	44289
559.991	30945
560.052	32187
560.114	54894
560.176	47685
560.237	36807
560.299	58540
560.360	29591
560.422	24025
560.483	24661
560.545	22267
560.606	21952
560.667	19793
560.729	21013
560.790	20810
560.852	20319
560.913	21362
560.974	21585
561.036	20195
561.097	20601
561.158	21870
561.220	22373
561.281	22072
561.342	22606
561.403	24624
561.465	28468
561.526	52302
561.587	75121
561.648	29702
561.709	21535
561.771	21040
561.832	20844
561.893	20994
561.954	20830
562.015	20694
562.076	20913
562.137	20658
562.198	20951
562.259	21163
562.320	21516
562.381	22678
562.442	33018
562.503	30909
562.564	21903
562.625	21961
562.686	21679
562.747	30247
562.808	26245
562.869	22090
562.930	29860
562.991	28680
563.051	26878
563.112	23715
563.173	22541
563.234	21623
563.294	21843
563.355	21394
563.416	22500
563.477	21940
563.537	23298
563.598	24738
563.659	24103
563.720	23619
563.780	24494
563.841	24911
563.901	24236
563.962	22827
564.023	23419
564.083	24726
564.144	25585
564.204	25551
564.265	26774
564.325	33139
564.386	62865
564.446	66471
564.507	26878
564.567	22879
564.628	23519
564.688	23017
564.749	24034
564.809	27249
564.869	36133
564.930	25956
564.990	21580
565.050	20555
565.111	21671
565.171	20262
565.231	20980
565.292	21135
565.352	21021
565.412	21740
565.472	22543
565.532	23510
565.593	22541
565.653	21794
565.713	23159
565.773	24627
565.833	26414
565.893	32136
565.953	26421
566.013	23429
566.074	26440
566.134	35726
566.194	60617
566.254	66786
566.314	39666
566.374	25534
566.434	24490
566.494	24064
566.554	23146
566.614	21692
566.673	23336
566.733	23780
566.793	26611
566.853	27181
566.913	24764
566.973	25691
567.033	29194
567.092	34488
567.152	27029
567.212	26947
567.272	27495
567.331	30465
567.391	29525
567.451	29771
567.511	43313
567.570	50488
567.630	27449
567.690	24755
567.749	24975
567.809	23146
567.868	24849
567.928	28190
567.988	31653
568.047	29432
568.107	27758
568.166	29377
568.226	33083
568.285	41360
568.345	40032
568.404	34030
568.464	32683
568.523	32437
568.582	32562
568.642	34350
568.701	37745
568.761	44062
568.820	57161
568.879	62411
568.939	64823
568.998	51760
569.057	35912
569.116	31247
569.176	29429
569.235	26525
569.294	27332
569.353	25339
569.413	26441
569.472	27820
569.531	26288
569.590	25098
569.649	24352
569.708	24299
569.767	27426
569.827	39467
569.886	37595
569.945	23245
570.004	23293
570.063	24744
570.122	26200
570.181	28710
570.240	34504
570.299	39603
570.358	42170
570.417	28016
570.475	23546
570.534	25053
570.593	26454
570.652	28428
570.711	33833
570.770	25538
570.829	30512
570.887	25369
570.946	26999
571.005	23547
571.064	22679
571.122	24723
571.181	31541
571.240	27383
571.299	24527
571.357	27501
571.416	31726
571.475	33275
571.533	40591
571.592	27463
571.650	30823
571.709	25064
571.768	22646
571.826	22563
571.885	20787
571.943	21054
572.002	24059
572.060	26670
572.119	22077
572.177	20298
572.236	21454
572.294	19549
572.352	21315
572.411	20984
572.469	21417
572.528	22578
572.586	24315
572.644	29498
572.703	48354
572.761	33056
572.819	24223
572.877	21355
572.936	19863
572.994	20653
573.052	22258
573.110	25896
573.169	23464
573.227	19754
573.285	21165
573.343	20093
573.401	22270
573.459	21829
573.517	20363
573.576	21090
573.634	22462
573.692	25378
573.750	23665
573.808	21507
573.866	26036
573.924	35895
573.982	37599
574.040	25757
574.098	21998
574.155	20881
574.213	19466
574.271	19778
574.329	23200
574.387	19871
574.445	19142
574.503	18846
574.560	18820
574.618	17699
574.676	18767
574.734	18242
574.792	19319
574.849	19034
574.907	17480
574.965	18211
575.022	18714
575.080	18779
575.138	18777
575.195	19718
575.253	20541
575.311	22969
575.368	19742
575.426	18060
575.483	18954
575.541	18532
575.598	19624
575.656	21959
575.713	20581
575.771	19448
575.828	19678
575.886	19801
575.943	22940
576.001	23686
576.058	24359
576.115	25343
576.173	30871
576.230	35760
576.287	35923
576.345	30415
576.402	25599
576.459	25002
576.517	27015
576.574	29942
576.631	32531
576.688	28223
576.746	25138
576.803	24104
576.860	23171
576.917	23423
576.974	23678
577.031	22816
577.089	24668
577.146	25166
577.203	25655
577.260	26970
577.317	29433
577.374	34273
577.431	34316
577.488	26811
577.545	24167
577.602	22826
577.659	23714
577.716	22325
577.773	22163
577.830	22069
577.886	21698
577.943	21664
578.000	22561
578.057	25717
578.114	24683
578.171	22275
578.227	23433
578.284	22629
578.341	25636
578.398	26536
578.454	28782
578.511	31848
578.568	38926
578.625	33724
578.681	26149
578.738	21888
578.794	22611
578.851	21302
578.908	21384
578.964	21910
579.021	23464
579.077	21805
579.134	21868
579.190	19881
579.247	20237
579.303	20755
579.360	21022
579.416	20574
579.473	22093
579.529	19978
579.586	21238
579.642	21307
579.698	22192
579.755	23504
579.811	23153
579.867	21140
579.924	20548
579.980	21612
580.036	22908
580.093	22597
580.149	23741
580.205	24723
580.261	25615
580.317	25927
580.374	29063
580.430	34829
580.486	33949
580.542	27891
580.598	25642
580.619	25572
580.654	25468
580.692	25443
580.710	25457
580.765	24222
580.767	24196
580.823	24691
580.838	24539
580.879	24176
580.911	23622
580.935	23249
580.984	22857
580.991	22820
581.047	23301
581.057	23308
581.103	23386
581.130	24469
581.159	25630
581.203	26183
581.215	26328
581.270	26270
581.276	26216
581.326	25751
581.349	26020
581.382	26491
581.422	25374
581.438	24885
581.494	26829
581.494	26814
581.550	25905
581.567	26002
581.606	26110
581.640	26114
581.661	26150
581.713	26912
581.717	26983
581.773	24930
581.786	25051
581.829	25366
581.859	25264
581.885	25209
581.932	25009
581.940	24999
581.996	25091
582.004	25262
582.052	25931
582.077	25496
582.107	25065
582.150	25841
582.163	26124
582.219	26370
582.223	26409
582.274	26892
582.296	27306
582.330	27907
582.368	30632
582.386	31708
582.441	26380
582.441	26372
582.497	25258
582.514	25230
582.552	25385
582.587	25614
582.608	25700
582.659	26230
582.663	26273
582.719	26317
582.732	26396
582.774	26863
582.805	27193
582.830	27382
582.877	27356
582.885	27314
582.941	26455
582.950	26481
582.996	26838
583.023	27491
583.052	28280
583.095	28192
583.107	28184
583.162	29495
583.168	29564
583.218	29965
583.240	29770
583.273	29048
583.313	27409
583.328	26995
583.384	28505
583.385	28526
583.439	29178
583.458	29300
583.494	29140
583.531	27758
583.549	27215
583.603	28377
583.605	28410
583.660	27700
583.676	27903
583.715	28946
583.748	29863
583.770	30419
583.820	32182
583.825	32273
583.881	30536
583.893	30402
583.936	30378
583.965	30229
583.991	30121
584.038	30531
584.046	30627
584.101	31147
584.110	31339
584.156	32016
584.183	31082
584.211	29958
584.255	29872
584.266	29886
584.321	28515
584.328	28632
584.376	30589
584.400	30669
584.431	30276
584.472	29885
584.486	29704
584.541	30516
584.545	30479
584.596	30941
584.617	31395
584.651	32603
584.689	33905
584.706	34140
584.761	34223
584.762	34206
584.816	33594
584.834	33390
584.871	33595
584.906	33824
584.926	33872
584.978	34333
584.980	34394
585.035	36085
585.051	36239
585.090	36620
585.123	37295
585.145	37871
585.195	39491
585.200	39687
585.254	42117
585.267	42640
585.309	44333
585.340	46448
585.364	48018
585.412	49061
585.419	49074
585.473	49175
585.484	49330
585.528	53011
585.556	57346
585.583	65276
585.628	82573
585.637	89822
585.692	148866
585.700	161456
585.747	218418
585.772	211352
585.801	162372
585.845	77450
585.856	66043
585.910	49364
585.917	48031
585.965	46441
585.989	45609
586.019	44828
586.061	44513
586.074	44692
586.128	45588
586.133	45765
586.183	49798
586.205	52026
586.237	54514
586.277	54710
586.292	54319
586.346	53714
586.349	53651
586.401	53933
586.421	54226
586.455	58069
586.493	64082
586.509	72361
586.564	106254
586.565	107293
586.618	187166
586.637	206232
586.672	172967
586.709	107933
586.727	85230
586.781	54487
586.781	54524
586.835	50857
586.853	49992
586.889	49344
586.925	48094
586.944	47823
586.996	48291
586.998	48409
587.052	50744
587.068	51317
587.106	51501
587.140	50952
587.161	51080
587.212	51710
587.215	51856
587.269	53813
587.284	54340
587.323	54943
587.356	54475
587.377	54516
587.427	55116
587.431	55253
587.485	55805
587.499	55978
587.539	57256
587.571	58160
587.593	58806
587.643	60592
587.648	60945
587.702	63027
587.715	63626
587.755	66069
587.786	67449
587.810	67142
587.858	65833
587.864	66141
587.917	69124
587.930	69954
587.971	77005
588.001	82664
588.025	83763
588.073	81246
588.079	80885
588.133	78829
588.145	78547
588.187	82977
588.217	86650
588.241	90710
588.288	98539
588.295	99768
588.348	110434
588.360	112813
588.402	123252
588.431	130758
588.456	137880
588.503	153531
588.510	156293
588.564	180398
588.575	185854
588.617	211420
588.646	229869
588.671	252928
588.718	303949
588.725	317855
588.778	436939
588.789	465989
588.832	702017
588.861	877538
588.886	1127540
588.932	1623845
588.939	1657796
588.993	1791704
589.004	1807611
589.047	1456038
589.075	1175162
589.100	940167
589.147	515163
589.154	491416
589.207	353045
589.218	328740
589.261	302603
589.290	289947
589.314	298006
589.361	320990
589.368	334189
589.421	456817
589.433	487590
589.475	780348
589.504	1003595
589.528	1228969
589.576	1643380
589.582	1616576
589.635	1252585
589.647	1157574
589.689	709384
589.718	411516
589.742	337153
589.790	220805
589.795	218324
589.849	205267
589.861	204112
589.902	227086
589.932	241035
589.955	208341
590.004	128830
590.009	126309
590.062	107300
590.075	102619
590.115	96911
590.146	92529
590.168	91576
590.218	89733
590.222	90036
590.275	91528
590.289	91922
590.328	92772
590.360	92414
590.381	89800
590.431	83039
590.435	83180
590.488	83142
590.503	83054
590.541	83929
590.574	84071
590.594	83475
590.645	81281
590.647	81379
590.700	78797
590.716	77913
590.753	77021
590.787	75598
590.806	75631
590.859	75740
590.859	75907
590.912	74484
590.930	73943
590.965	74562
591.001	74787
591.018	74914
591.071	74493
591.072	74300
591.124	75945
591.143	76274
591.177	76565
591.214	76395
591.230	77260
591.283	79771
591.285	79656
591.336	83816
591.356	85322
591.389	85446
591.427	84587
591.442	83418
591.495	78332
591.498	77762
591.547	77590
591.569	77251
591.600	77072
591.640	76259
591.653	77107
591.706	80052
591.711	80156
591.759	89685
591.782	94364
591.811	104350
591.853	118337
591.864	113995
591.917	89193
591.924	85416
591.969	82573
591.995	80770
592.022	82834
592.066	85638
592.075	88910
592.127	107750
592.137	111007
592.180	135048
592.208	149924
592.233	132504
592.279	97389
592.285	96202
592.338	84562
592.350	81692
592.390	81111
592.421	80283
592.443	80675
592.491	80772
592.495	81133
592.548	82786
592.562	82992
592.600	82676
592.633	81949
592.653	81404
592.704	78902
592.705	79405
592.775	81900
592.846	81592
592.916	84039
592.987	88808
593.058	87868
593.128	81991
593.199	78818
593.270	77206
593.341	76781
593.411	80700
593.482	79628
593.553	78682
593.623	76789
593.694	82540
593.764	96919
593.835	84255
593.906	79177
593.976	80443
594.047	89239
594.117	111824
594.188	126780
594.258	80795
594.329	74688
594.399	76835
594.470	75329
594.540	72775
594.611	74827
594.681	76215
594.751	78835
594.822	82059
594.892	84285
594.963	89155
595.033	88797
595.103	89600
595.174	103184
595.244	162655
595.314	250564
595.384	110033
595.455	87940
595.525	89981
595.595	89413
595.665	91866
595.736	89858
595.806	89281
595.876	87453
595.946	85038
596.016	81757
596.087	85850
596.157	88063
596.227	86531
596.297	90847
596.367	95619
596.437	108659
596.507	154143
596.577	234679
596.647	116814
596.717	91196
596.787	91659
596.857	90653
596.927	92086
596.997	90028
597.067	90188
597.137	95429
597.207	93779
597.277	91266
597.347	94911
597.417	91370
597.487	90845
597.557	94735
597.626	95926
597.696	108472
597.766	141053
597.836	214662
597.906	129569
597.975	93307
598.045	89305
598.115	88959
598.185	89680
598.254	96018
598.324	97979
598.394	97364
598.464	99819
598.533	95538
598.603	87738
598.672	91908
598.742	93024
598.812	91057
598.881	91749
598.951	88484
599.020	87162
599.090	85667
599.159	87219
599.229	85502
599.299	83257
599.368	85613
599.437	84638
599.507	87595
599.576	93154
599.646	86667
599.715	86012
599.785	88658
599.854	101275
599.924	118705
599.993	109620
600.062	89796
600.132	87921
600.201	91316
600.270	98907
600.340	94318
600.409	87724
600.478	89225
600.547	89036
600.617	93017
600.686	87088
600.755	84739
600.824	85607
600.894	85009
600.963	79623
601.032	77033
601.101	78094
601.170	76234
601.239	79404
601.308	84177
601.378	80197
601.447	77934
601.516	74659
601.585	75466
601.654	84243
601.723	80443
601.792	79550
601.861	79188
601.930	81251
601.999	87619
602.068	78111
602.137	84438
602.206	84168
602.275	78664
602.343	89177
602.412	94050
602.481	78297
602.550	74957
602.619	74734
602.688	79250
602.756	77068
602.825	75936
602.894	74422
602.963	76865
603.032	78313
603.100	75996
603.169	75644
603.238	77691
603.307	75699
603.375	73114
603.444	74573
603.513	77188
603.581	74924
603.650	74562
603.719	75686
603.787	76058
603.856	78784
603.924	81053
603.993	82542
604.061	78319
604.130	79497
604.198	82212
604.267	81418
604.335	77977
604.404	79115
604.472	79064
604.541	80954
604.609	80397
604.678	78482
604.746	79833
604.815	81302
604.883	84133
604.951	82845
605.020	79940
605.088	83755
605.156	87386
605.225	84885
605.293	84683
605.361	86511
605.429	86188
605.498	84961
605.566	90634
605.634	90803
605.702	91255
605.771	93844
605.839	94043
605.907	91876
605.975	87763
606.043	88286
606.111	87893
606.180	87495
606.248	88378
606.316	93442
606.384	96322
606.452	125169
606.520	120431
606.588	100289
606.656	86970
606.724	87724
606.792	84451
606.860	79756
606.928	74796
606.996	73893
607.064	72316
607.132	72284
607.200	76053
607.267	78081
607.335	77461
607.403	77310
607.471	78696
607.539	77296
607.607	77006
607.674	72377
607.742	77939
607.810	80746
607.878	76372
607.946	71564
608.013	75172
608.081	79830
608.149	80256
608.216	75418
608.284	78669
608.352	78407
608.419	91947
608.487	135897
608.555	110817
608.622	75193
608.690	76093
608.757	80596
608.825	83064
608.893	86614
608.960	99812
609.028	125762
609.095	158019
609.163	104120
609.230	83560
609.298	81999
609.365	69166
609.432	72960
609.500	78117
609.567	83941
609.635	91537
609.702	93245
609.769	96448
609.837	105152
609.904	87438
609.971	72759
610.039	79313
610.106	93771
610.173	160163
610.241	347928
610.308	253562
610.375	102450
610.442	79409
610.509	71893
610.577	72960
610.644	73175
610.711	74509
610.778	74525
610.845	75045
610.912	78443
610.980	81261
611.047	86764
611.114	88854
611.181	81975
611.248	77448
611.315	79530
611.382	80014
611.449	79982
611.516	82664
611.583	84054
611.650	85221
611.717	87076
611.784	86848
611.851	91782
611.918	103056
611.984	113060
612.051	151863
612.118	296683
612.185	737831
612.252	579576
612.319	131961
612.386	102125
612.452	98185
612.519	111922
612.586	164678
612.653	134521
612.719	96183
612.786	89181
612.853	84306
612.919	81145
612.986	81409
613.053	78231
613.120	75032
613.186	73531
613.253	76977
613.319	74306
613.386	77409
613.453	80105
613.519	87988
613.586	98000
613.652	132406
613.719	110246
613.785	106483
613.852	82433
613.918	77190
613.985	77786
614.051	87732
614.118	119973
614.184	133830
614.250	79590
614.317	77884
614.383	73137
614.449	73635
614.516	75886
614.582	84598
614.648	79505
614.715	73661
614.781	75489
614.847	81297
614.914	87611
614.980	85843
615.046	77548
615.112	73660
615.179	73595
615.245	75850
615.311	76938
615.377	85029
615.443	88478
615.509	83884
615.575	83362
615.642	83169
615.708	88351
615.774	93886
615.840	102720
615.906	116916
615.972	135201
616.038	197586
616.104	388165
616.170	934690
616.236	1004140
616.302	214455
616.368	147399
616.434	119253
616.500	111408
616.565	116802
616.631	136307
616.697	118213
616.763	116357
616.829	152551
616.895	256187
616.961	265505
617.026	135260
617.092	101028
617.158	95866
617.224	94365
617.289	92936
617.355	94380
617.421	100098
617.487	98359
617.552	89956
617.618	87172
617.684	88691
617.749	89005
617.815	83986
617.880	82128
617.946	82766
618.012	83882
618.077	83631
618.143	82734
618.208	83424
618.274	87163
618.339	93705
618.405	87267
618.470	87410
618.536	92492
618.601	107412
618.667	101564
618.732	89049
618.798	86661
618.863	85434
618.928	86716
618.994	91231
619.059	99535
619.124	123547
619.190	105662
619.255	90917
619.320	92952
619.386	89384
619.451	84743
619.516	84422
619.581	85365
619.647	87445
619.712	87713
619.777	86086
619.842	87080
619.907	91686
619.972	89500
620.038	90326
620.103	87221
620.168	82046
620.233	82858
620.298	84169
620.363	82434
620.428	83535
620.493	87228
620.558	85606
620.623	82654
620.688	82539
620.753	81990
620.818	82407
620.883	85583
620.948	83993
621.013	85262
621.078	87703
621.143	91558
621.207	97876
621.272	96216
621.337	102722
621.402	115373
621.467	154333
621.532	177318
621.596	125311
621.661	110095
621.726	101093
621.791	102219
621.855	104144
621.920	113342
621.985	126527
622.049	155794
622.114	143956
622.179	117905
622.243	121684
622.308	117033
622.373	115056
622.437	116744
622.502	109355
622.566	107774
622.631	113487
622.695	111264
622.760	112585
622.824	109300
622.889	108718
622.953	116891
623.018	146669
623.082	158491
623.147	112928
623.211	107559
623.276	111128
623.340	104414
623.404	99229
623.469	100825
623.533	99879
623.597	100573
623.662	98233
623.726	98034
623.790	93994
623.854	96443
623.919	97917
623.983	95409
624.047	100748
624.111	97058
624.176	98202
624.240	107562
624.304	119803
624.368	100077
624.432	97478
624.496	100094
624.560	101602
624.625	113501
624.689	97880
624.753	94031
624.817	95175
624.881	93638
624.945	89722
625.009	91127
625.073	90865
625.137	100240
625.201	114616
625.265	114833
625.329	92360
625.393	99060
625.456	97116
625.520	100710
625.584	114558
625.648	141273
625.712	226016
625.776	562962
625.839	713225
625.903	310310
625.967	129532
626.031	205756
626.095	407079
626.158	154252
626.222	86995
626.286	79531
626.349	80548
626.413	78279
626.477	84722
626.540	77953
626.604	79728
626.668	77727
626.731	75145
626.795	85415
626.858	87840
626.922	80187
626.986	77793
627.049	74704
627.113	75845
627.176	71713
627.240	72135
627.303	72129
627.366	75599
627.430	74580
627.493	76122
627.557	81247
627.620	77696
627.684	76191
627.747	77359
627.810	74469
627.874	71744
627.937	71492
628.000	75124
628.064	75578
628.127	67617
628.190	68566
628.253	72034
628.317	68587
628.380	68729
628.443	68173
628.506	72657
628.569	65919
628.632	63380
628.696	62977
628.759	63963
628.822	62488
628.885	60790
628.948	60797
629.011	62871
629.074	64406
629.137	60371
629.200	63260
629.263	70566
629.326	60908
629.389	59826
629.452	60419
629.515	67160
629.578	63671
629.641	69123
629.704	64599
629.767	66724
629.830	56238
629.892	58539
629.955	58139
630.018	61650
630.081	62215
630.144	76627
630.207	64955
630.269	68692
630.332	79491
630.395	71724
630.458	53609
630.520	55293
630.583	55732
630.646	51709
630.708	51628
630.771	54545
630.834	53968
630.896	52719
630.959	50634
631.021	52309
631.084	55988
631.146	63552
631.209	81966
631.272	58295
631.334	52992
631.397	51287
631.459	48815
631.522	51193
631.584	52910
631.646	53966
631.709	54875
631.771	72442
631.834	62158
631.896	51077
631.958	45527
632.021	48665
632.083	48992
632.145	52872
632.208	50244
632.270	49948
632.332	47298
632.395	47324
632.457	51918
632.519	50087
632.581	46882
632.643	45892
632.706	48765
632.768	46760
632.830	45921
632.892	44012
632.954	47490
633.016	50740
633.078	45719
633.141	44229
633.203	45855
633.265	46679
633.327	44662
633.389	44486
633.451	50946
633.513	62066
633.575	66404
633.637	61273
633.698	53823
633.760	45459
633.822	44819
633.884	45294
633.946	43455
634.008	45929
634.070	44091
634.132	45311
634.193	46822
634.255	46342
634.317	45981
634.379	47966
634.441	45924
634.502	46914
634.564	42708
634.626	40149
634.687	41580
634.749	43332
634.811	42334
634.873	38825
634.934	39643
634.996	41506
635.057	41732
635.119	40032
635.181	41475
635.242	42376
635.304	39479
635.365	40961
635.427	41358
635.488	41541
635.550	41412
635.611	40790
635.673	40469
635.734	47125
635.796	44311
635.857	47632
635.918	43297
635.980	46208
636.041	46121
636.102	47729
636.164	46704
636.225	43196
636.286	44268
636.348	43699
636.409	41060
636.470	38720
636.531	41868
636.593	53395
636.654	53328
636.715	36943
636.776	35125
636.838	35217
636.899	39594
636.960	38141
637.021	36071
637.082	35394
637.143	36972
637.204	34636
637.265	33751
637.326	34546
637.387	33558
637.448	32245
637.509	33645
637.570	34844
637.631	33390
637.692	33646
637.753	31095
637.814	32953
637.875	31778
637.936	33888
637.997	33599
638.058	35968
638.119	39965
638.179	36140
638.240	34716
638.301	33935
638.362	33747
638.423	36157
638.483	35344
638.544	31574
638.605	32814
638.666	31011
638.726	32899
638.787	32487
638.848	31702
638.908	31311
638.969	31404
639.030	33932
639.090	31036
639.151	32210
639.211	34109
639.272	39336
639.332	63087
639.393	44343
639.453	33136
639.514	33792
639.574	30835
639.635	29991
639.695	31910
639.756	30362
639.816	32734
639.877	35816
639.937	53224
639.997	74960
640.058	35686
640.118	29020
640.178	28684
640.239	27243
640.299	28406
640.359	29089
640.420	28868
640.480	29385
640.540	30392
640.600	30543
640.661	29692
640.721	29737
640.781	37827
640.841	30320
640.901	30329
640.961	30364
641.021	31917
641.082	33746
641.142	47104
641.202	35113
641.262	26717
641.322	28877
641.382	27901
641.442	29093
641.502	28573
641.562	29266
641.622	27367
641.682	29446
641.742	28938
641.802	29782
641.861	33738
641.921	33666
641.981	35236
642.041	34120
642.101	41579
642.161	32353
642.221	26407
642.280	27772
642.340	26224
642.400	26654
642.460	28187
642.519	28335
642.579	26292
642.639	28948
642.698	26475
642.758	28159
642.818	27169
642.877	27680
642.937	29373
642.997	32050
643.056	43595
643.116	33268
643.175	28591
643.235	26189
643.294	26575
643.354	27663
643.414	28196
643.473	30602
643.532	33466
643.592	35624
643.651	46086
643.711	69492
643.770	122876
643.830	270740
643.889	704917
643.948	228150
644.008	43055
644.067	32282
644.126	28480
644.186	27418
644.245	26475
644.304	23646
644.363	25470
644.423	22572
644.482	24856
644.541	25225
644.600	23192
644.659	27687
644.719	29432
644.778	35738
644.837	45686
644.896	69645
644.955	149753
645.014	78321
645.073	30571
645.132	28383
645.191	29208
645.250	25307
645.309	26722
645.368	26404
645.427	28069
645.486	30870
645.545	45866
645.604	27461
645.663	24133
645.722	24568
645.781	24237
645.840	24940
645.898	26249
645.957	32846
646.016	39784
646.075	63377
646.134	111802
646.192	260818
646.251	510348
646.310	101406
646.369	33009
646.427	27979
646.486	23742
646.545	24605
646.603	24072
646.662	23755
646.721	22341
646.779	21229
646.838	21833
646.896	25605
646.955	25632
647.014	32139
647.072	41483
647.131	91720
647.189	64712
647.248	23880
647.306	21921
647.365	22727
647.423	21607
647.481	22249
647.540	19504
647.598	20453
647.657	19368
647.715	20318
647.773	21377
647.832	21209
647.890	20878
647.948	21294
648.007	22813
648.065	20520
648.123	20567
648.181	22515
648.240	21414
648.298	20775
648.356	21199
648.414	22921
648.472	23784
648.531	22902
648.589	22838
648.647	20960
648.705	21450
648.763	22095
648.821	21712
648.879	20947
648.937	23594
648.995	23267
649.053	24445
649.111	29486
649.169	38421
649.227	54074
649.285	87161
649.343	248479
649.401	178982
649.459	74855
649.516	60923
649.574	32351
649.632	44637
649.690	57232
649.748	35862
649.806	31386
649.863	41682
649.921	65729
649.979	61859
650.037	23756
650.094	19895
650.152	21716
650.210	19218
650.268	20916
650.325	20705
650.383	19779
650.440	18837
650.498	20982
650.556	20924
650.613	17595
650.671	19489
650.728	20625
650.786	24221
650.843	21482
650.901	18029
650.958	18468
651.016	18192
651.073	18194
651.131	18383
651.188	19142
651.246	20936
651.303	18771
651.360	18041
651.418	18110
651.475	20153
651.532	16616
651.590	18612
651.647	17798
651.704	19482
651.762	19048
651.819	18890
651.876	18161
651.933	17918
651.990	18126
652.048	18357
652.105	18292
652.162	19081
652.219	17368
652.276	17001
652.333	17742
652.390	15980
652.448	16811
652.505	17331
652.562	17115
652.619	16498
652.676	18965
652.733	19401
652.790	15656
652.847	14835
652.904	15292
652.961	14925
653.017	15297
653.074	17639
653.131	17818
653.188	15403
653.245	16209
653.302	16797
653.359	16029
653.415	16416
653.472	15762
653.529	15710
653.586	15486
653.642	16667
653.699	14401
653.756	14732
653.813	15562
653.869	15672
653.926	14085
653.983	14487
654.039	15575
654.096	14307
654.152	17288
654.209	16336
654.266	18689
654.322	19334
654.379	22012
654.435	22281
654.492	25639
654.548	32498
654.605	59053
654.661	30662
654.717	18448
654.774	20706
654.830	19757
654.887	18866
654.943	18640
655.000	19907
655.056	17960
655.112	18766
655.168	19448
655.225	20432
655.281	23696
655.337	32637
655.394	65056
655.450	49442
655.506	36853
655.562	62019
655.618	58619
655.675	19903
655.731	18792
655.787	17965
655.843	18213
655.899	16002
655.955	17709
656.011	17142
656.067	15794
656.123	17331
656.179	18205
656.235	19093
656.291	15487
656.347	18481
656.403	19534
656.459	20873
656.515	24851
656.571	27038
656.627	20049
656.683	18833
656.739	19133
656.795	17286
656.850	17302
656.906	22241
656.962	18946
657.018	15057
657.074	16279
657.129	18131
657.185	18523
657.241	21772
657.297	19231
657.352	16435
657.408	16438
657.464	20904
657.519	21529
657.575	15645
657.630	17076
657.686	15505
657.742	16737
657.797	16939
657.853	16423
657.908	19147
657.964	15578
658.019	16214
658.075	17048
658.130	18185
658.186	14977
658.241	16184
658.297	15015
658.352	16108
658.407	16679
658.463	15990
658.518	16745
658.573	16089
658.629	15619
658.684	15226
658.739	14427
658.795	14034
658.850	15341
658.905	15601
658.960	15655
659.016	14284
659.071	16039
659.126	17861
659.181	18368
659.236	23976
659.291	28210
659.346	19644
659.401	20128
659.457	17357
659.512	17737
659.567	18154
659.622	16370
659.677	16920
659.732	17076
659.787	18411
659.842	21764
659.897	33394
659.952	20087
660.007	16110
660.061	16624
660.116	17065
660.171	15972
660.226	15574
660.281	14981
660.336	14923
660.391	15605
660.445	14846
660.500	15538
660.555	16209
660.610	15283
660.664	16924
660.719	15606
660.774	16467
660.828	16466
660.883	17256
660.938	16745
660.992	15482
661.047	16097
661.101	15309
661.156	15853
661.211	15407
661.265	14935
661.320	15253
661.374	15983
661.429	14469
661.483	15663
661.538	16284
661.592	16564
661.647	15832
661.701	15882
661.755	16027
661.810	16838
661.864	16329
661.919	15224
661.973	17601
662.027	16771
662.081	14853
662.136	16047
662.190	17145
662.244	18758
662.299	17499
662.353	15922
662.407	16231
662.461	17183
662.515	17239
662.569	17907
662.624	19487
662.678	17017
662.732	17408
662.786	17830
662.840	19180
662.894	19421
662.948	16208
663.002	15239
663.056	15148
663.110	15392
663.164	17062
663.218	15353
663.272	15914
663.326	17573
663.380	18473
663.434	19418
663.488	17965
663.542	18536
663.595	18156
663.649	17909
663.703	17400
663.757	17389
663.811	16565
663.864	16741
663.918	15766
663.972	15868
664.026	16254
664.079	15516
664.133	17109
664.187	15762
664.240	15654
664.294	15185
664.348	16290
664.401	15986
664.455	15607
664.508	15174
664.562	15795
664.615	15779
664.669	14733
664.722	15582
664.776	15657
664.829	16157
664.883	16667
664.936	18232
664.990	18257
665.043	19542
665.097	20390
665.150	23288
665.203	19938
665.257	18759
665.310	19662
665.363	18851
665.417	21055
665.470	18747
665.523	19687
665.576	18605
665.630	18703
665.683	18929
665.736	19304
665.789	19953
665.842	17118
665.895	18828
665.949	18441
666.002	16933
666.055	19190
666.108	19598
666.161	19381
666.214	20086
666.267	19835
666.320	21614
666.373	20623
666.426	19006
666.479	19743
666.532	23066
666.585	27343
666.638	30210
666.691	27635
666.744	28501
666.796	30493
666.849	26877
666.902	19638
666.955	18443
667.008	17218
667.060	15351
667.113	15633
667.166	16948
667.219	16439
667.271	18296
667.324	16913
667.377	17831
667.430	16758
667.482	17432
667.535	18212
667.587	19088
667.640	20008
667.693	24746
667.745	28062
667.798	33762
667.850	22412
667.903	19627
667.955	19006
668.008	19711
668.060	23222
668.113	24003
668.165	23302
668.218	23504
668.270	21429
668.322	20507
668.375	20603
668.427	21296
668.479	20412
668.532	20707
668.584	21937
668.636	19730
668.689	20148
668.741	20935
668.793	19817
668.845	20059
668.898	21383
668.950	19485
669.002	20519
669.054	20090
669.106	19805
669.158	22134
669.211	19502
669.263	20114
669.315	21278
669.367	20599
669.419	20983
669.471	21426
669.523	20174
669.575	21192
669.627	22324
669.679	19245
669.731	18758
669.783	19991
669.835	19818
669.886	19709
669.938	19888
669.990	18934
670.042	18467
670.094	18367
670.146	17813
670.197	19104
670.249	19867
670.301	18662
670.353	19881
670.404	21370
670.456	22773
670.508	27110
670.560	34768
670.611	48659
670.663	73698
670.715	146948
670.766	284671
670.818	98198
670.869	26221
670.921	20802
670.972	20394
671.024	19970
671.075	18900
671.127	19723
671.178	18815
671.230	19308
671.281	18142
671.333	19186
671.384	20755
671.436	23150
671.487	24582
671.538	24602
671.590	25898
671.641	33100
671.692	37493
671.744	58031
671.795	48151
671.846	27985
671.897	23947
671.949	24441
672.000	21748
672.051	21470
672.102	23311
672.153	20654
672.204	20795
672.256	20276
672.307	21878
672.358	22011
672.409	22478
672.460	20764
672.511	19832
672.562	21013
672.613	21135
672.664	19498
672.715	21067
672.766	21219
672.817	19318
672.868	19668
672.919	19936
672.970	19725
673.021	19737
673.071	18505
673.122	19954
673.173	19660
673.224	19889
673.275	18833
673.326	18752
673.376	18316
673.427	17839
673.478	19219
673.528	18773
673.579	18697
673.630	18698
673.680	18974
673.731	17472
673.782	15949
673.832	18637
673.883	20017
673.934	18263
673.984	18280
674.035	19472
674.085	18932
674.136	20716
674.186	23416
674.237	26926
674.287	46096
674.338	29401
674.388	19538
674.438	19101
674.489	19190
674.539	22567
674.589	20870
674.640	20014
674.690	19047
674.740	20804
674.791	22718
674.841	22308
674.891	22076
674.942	19150
674.992	18304
675.042	17849
675.092	17188
675.142	18016
675.193	18336
675.243	17117
675.293	18789
675.343	20119
675.393	19645
675.443	20266
675.493	16707
675.543	16752
675.593	19338
675.643	18950
675.693	17640
675.743	18857
675.793	17091
675.843	17119
675.893	17979
675.943	16766
675.993	16789
676.043	18361
676.093	17505
676.142	16188
676.192	17977
676.242	17515
676.292	17108
676.341	18958
676.391	20012
676.441	17192
676.491	16089
676.540	15744
676.590	15485
676.640	16962
676.689	16853
676.739	15726
676.789	14939
676.838	15214
676.888	15186
676.937	16746
676.987	15553
677.037	14314
677.086	14653
677.136	16057
677.185	15836
677.235	14454
677.284	14685
677.333	15271
677.383	14479
677.432	14170
677.482	14562
677.531	16163
677.580	15590
677.630	15303
677.679	13090
677.728	15266
677.778	15372
677.827	13710
677.876	14452
677.925	13976
677.975	14389
678.024	15778
678.073	15156
678.122	17231
678.171	18002
678.220	17399
678.269	18371
678.319	18920
678.368	17127
678.417	16608
678.466	17524
678.515	18278
678.564	18106
678.613	16003
678.662	16905
678.711	17158
678.760	16818
678.809	16113
678.857	16568
678.906	16197
678.955	17307
679.004	16483
679.053	16556
679.102	16523
679.151	17807
679.199	15763
679.248	14933
679.297	16232
679.346	18081
679.394	16683
679.443	14925
679.492	15260
679.540	15129
679.589	17964
679.638	16417
679.686	14258
679.735	14660
679.784	16103
679.832	17094
679.881	14405
679.929	13729
679.978	13094
680.026	14469
680.075	15492
680.123	13712
680.172	15191
680.220	12709
680.268	14570
680.317	14671
680.365	14402
680.414	13933
680.462	13973
680.510	14998
680.559	12548
680.607	13357
680.655	13854
680.703	14440
680.752	14646
680.800	12429
680.848	13671
680.896	12817
680.945	12292
680.993	14383
681.041	13633
681.089	12487
681.137	12484
681.185	11485
681.233	14181
681.258	13809
681.281	13353
681.329	12556
681.377	13464
681.380	13631
681.425	14693
681.473	15194
681.502	15622
681.521	15723
681.569	15449
681.617	15401
681.624	15655
681.665	16441
681.713	16657
681.745	15845
681.761	15305
681.809	15265
681.857	16067
681.867	16177
681.904	16103
681.952	16775
681.989	17120
682.000	17106
682.048	17572
682.096	17087
682.111	17190
682.143	17024
682.191	16737
682.233	16747
682.239	16646
682.286	17737
682.334	16658
682.354	17105
682.382	17526
682.430	18337
682.476	18719
682.477	18632
682.525	18234
682.572	18440
682.598	18132
682.620	17744
682.667	18794
682.715	20392
682.720	20424
682.763	19804
682.810	19057
682.841	19692
682.857	19843
682.905	19454
682.952	19241
682.963	19791
683.000	21357
683.047	20624
683.085	20379
683.095	20191
683.142	18861
683.190	19973
683.206	20158
683.237	20397
683.284	19970
683.328	21106
683.332	21106
683.379	20435
683.426	20443
683.449	20396
683.473	20257
683.521	21799
683.568	21521
683.571	21588
683.615	21396
683.662	22242
683.693	21958
683.709	21714
683.757	21721
683.804	22450
683.814	22577
683.851	22755
683.898	22755
683.936	23685
683.945	23827
683.992	23574
684.039	24707
684.057	24848
684.086	25020
684.133	24923
684.179	25699
684.180	25643
684.227	26058
684.274	24846
684.300	25490
684.321	25914
684.368	24815
684.415	24897
684.422	24939
684.462	24657
684.509	24449
684.543	24816
684.556	24952
684.603	25885
684.649	24950
684.665	25127
684.696	25520
684.743	26346
684.786	27582
684.790	27682
684.837	28159
684.883	31178
684.908	32063
684.930	32429
684.977	33288
685.023	32438
685.029	32332
685.070	29909
685.117	29401
685.150	29560
685.164	30108
685.210	32810
685.257	33283
685.272	33627
685.303	33443
685.350	31761
685.393	31798
685.396	31820
685.443	32639
685.490	35195
685.514	35143
685.536	34630
685.583	34137
685.629	34201
685.636	34139
685.675	33377
685.722	32706
685.757	33350
685.768	33787
685.815	34596
685.861	35474
685.878	35558
685.908	35543
685.954	36553
686.000	39016
686.000	39081
686.047	43316
686.093	51455
686.121	53438
686.139	51953
686.185	46085
686.232	42405
686.242	41926
686.278	40003
686.324	37333
686.363	33019
686.370	32660
686.416	33293
686.463	34412
686.484	34221
686.509	34083
686.555	33984
686.601	33852
686.606	33900
686.647	34255
686.693	34623
686.727	34134
686.739	33917
686.785	34619
686.831	34928
686.848	34983
686.877	34789
686.923	33850
686.969	33014
686.969	33009
687.015	34259
687.061	34947
687.090	35607
687.107	35729
687.153	35262
687.199	35376
687.211	35269
687.245	35671
687.291	36965
687.332	38652
687.336	38830
687.382	40615
687.428	40773
687.453	40877
687.474	39580
687.520	37310
687.565	35503
687.574	35097
687.611	35196
687.657	35465
687.695	35378
687.702	35463
687.748	36276
687.794	37312
687.816	37229
687.839	36551
687.885	35665
687.931	34881
687.937	34842
687.976	35669
688.022	36077
688.058	36932
688.067	37108
688.113	37365
688.158	37116
688.179	37337
688.204	37571
688.249	37807
688.295	38672
688.300	38758
688.340	40372
688.386	41579
688.421	41317
688.431	40860
688.477	39947
688.522	39375
688.542	39043
688.567	39134
688.613	39377
688.658	39269
688.663	39192
688.703	38825
688.749	39673
688.784	39713
688.794	39764
688.839	39679
688.884	39632
688.905	39402
688.930	38942
688.975	38565
689.020	38824
689.026	38767
689.065	39410
689.110	39770
689.146	40054
689.155	39950
689.201	39304
689.246	38188
689.267	38216
689.291	38756
689.336	38754
689.381	39352
689.388	39333
689.426	39422
689.471	40214
689.509	39676
689.516	39465
689.561	38755
689.606	37894
689.630	37687
689.651	38179
689.696	38198
689.741	38689
689.750	38946
689.785	39626
689.830	38935
689.871	38630
689.875	38605
689.920	38364
689.965	37986
689.992	37556
690.010	37652
690.054	38182
690.099	38882
690.112	38897
690.144	38909
690.189	38605
690.233	38273
690.233	38316
690.278	38324
690.323	38140
690.354	38036
690.367	38260
690.412	39037
690.457	39652
690.474	39813
690.501	39804
690.546	39170
690.590	39306
690.595	39222
690.635	38988
690.680	38577
690.716	38527
690.724	38766
690.769	39932
690.813	40766
690.836	40925
690.857	40949
690.902	41789
690.946	42459
690.957	42484
690.991	44783
691.035	48184
691.077	51075
691.080	51269
691.124	53301
691.168	55622
691.198	56894
691.213	56856
691.257	57322
691.301	56943
691.318	56621
691.346	53557
691.390	48379
691.434	43596
691.439	43050
691.478	43321
691.522	43296
691.559	43164
691.567	43349
691.611	44097
691.655	44054
691.680	44465
691.699	44596
691.743	44921
691.787	44747
691.800	44583
691.831	45117
691.875	46327
691.919	47383
691.921	47338
691.964	48643
692.008	50113
692.041	50694
692.052	50729
692.096	50741
692.139	51007
692.162	50869
692.183	50241
692.227	49179
692.271	48390
692.282	47861
692.315	47656
692.359	48159
692.402	48425
692.403	48505
692.447	48056
692.490	47549
692.523	47424
692.534	48081
692.578	50003
692.622	51718
692.643	52366
692.666	51148
692.709	48830
692.753	46382
692.763	45881
692.797	46060
692.840	45275
692.884	45147
692.884	45237
692.928	45698
692.971	46735
693.004	47231
693.015	47363
693.059	47697
693.102	47732
693.124	47729
693.146	48188
693.189	49089
693.233	50133
693.245	50315
693.276	51703
693.320	53239
693.363	54402
693.365	54358
693.407	54036
693.450	53794
693.485	53067
693.493	53402
693.537	55074
693.580	56593
693.605	57301
693.624	57153
693.667	56327
693.710	55693
693.725	55503
693.753	60346
693.797	67560
693.840	74651
693.845	75370
693.883	75851
693.926	75676
693.966	76124
693.970	75474
694.013	66742
694.056	58130
694.086	51931
694.099	52175
694.142	53224
694.185	53960
694.206	54000
694.229	54436
694.272	55378
694.315	56429
694.326	56600
694.358	56944
694.401	56738
694.444	56887
694.446	56778
694.487	55847
694.530	54683
694.566	53431
694.573	53101
694.616	50546
694.659	47655
694.686	45811
694.702	45507
694.745	44527
694.787	43309
694.806	42828
694.830	43367
694.873	44312
694.916	44727
694.926	44709
694.959	44701
695.002	44963
695.044	45387
695.046	45290
695.087	45988
695.130	46982
695.166	47360
695.172	47471
695.215	47846
695.258	48031
695.286	48136
695.301	48282
695.343	48456
695.386	48452
695.406	48293
695.428	47506
695.471	45953
695.514	44416
695.526	43888
695.556	44491
695.599	45066
695.641	45693
695.646	45663
695.684	45377
695.726	44855
695.766	44372
695.769	44519
695.811	45207
695.854	45871
695.886	46117
695.896	46029
695.938	45560
695.981	44762
696.005	44279
696.023	44646
696.065	45384
696.108	46157
696.125	46372
696.150	47115
696.192	47922
696.235	49051
696.245	49155
696.277	48014
696.319	46426
696.361	44732
696.365	44509
696.404	44872
696.446	44923
696.485	44862
696.488	44991
696.530	45318
696.572	45747
696.604	45937
696.614	45987
696.656	45564
696.698	45356
696.724	45079
696.740	44796
696.783	43702
696.825	42790
696.844	42189
696.867	42734
696.909	43672
696.951	44489
696.964	44661
696.992	44358
697.034	43667
697.076	43084
697.083	42883
697.118	43675
697.160	44498
697.202	45295
697.203	45206
697.244	45017
697.286	44818
697.323	44474
697.327	44504
697.369	43722
697.411	43034
697.442	42413
697.453	42877
697.494	44433
697.536	45894
697.562	46662
697.578	46789
697.620	46856
697.661	46967
697.682	46876
697.703	47196
697.744	47607
697.786	48079
697.801	48133
697.828	49083
697.869	50310
697.911	51576
697.921	51741
697.952	50255
697.994	48256
698.035	46157
698.040	45792
698.077	45308
698.118	44589
698.160	43852
698.160	43735
698.201	43742
698.243	43562
698.279	43350
698.284	43547
698.325	44344
698.367	45105
698.399	45590
698.408	45396
698.449	43988
698.491	42572
698.518	41517
698.532	41760
698.573	42164
698.614	42612
698.638	42731
698.656	43197
698.697	44050
698.738	44903
698.757	45188
698.779	46080
698.820	47559
698.862	49023
698.877	49450
698.903	50394
698.944	51687
698.985	52982
698.996	53206
699.026	52821
699.067	52097
699.116	51102
699.235	45187
699.354	45216
699.474	47659
699.593	58184
699.713	59875
699.832	45701
699.951	48503
700.070	43603
700.190	43431
700.309	46645
700.428	55995
700.547	49002
700.667	46079
700.786	57347
700.905	47413
701.024	51781
701.143	52746
701.262	38137
701.381	39851
701.500	42639
701.619	43758
701.738	38624
701.857	38632
701.976	36709
702.095	36068
702.214	41620
702.333	43364
702.452	39373
702.571	36934
702.690	38083
702.809	37191
702.928	33663
703.047	37517
703.165	36790
703.284	36263
703.403	37931
703.522	47820
703.640	48781
703.759	56378
703.878	104335
703.997	51471
704.115	38524
704.234	36584
704.353	35368
704.471	33812
704.590	32032
704.708	31843
704.827	32855
704.946	37262
705.064	48978
705.183	36717
705.301	46548
705.420	71455
705.538	66590
705.656	52335
705.775	48696
705.893	59359
706.012	75605
706.130	56115
706.249	54905
706.367	57166
706.485	64212
706.604	59205
706.722	58937
706.840	72520
706.958	72790
707.077	52467
707.195	50245
707.313	48306
707.431	47092
707.549	48543
707.668	49618
707.786	52023
707.904	49757
708.022	44862
708.140	46080
708.258	44702
708.376	46114
708.494	46722
708.612	50979
708.730	77858
708.848	78189
708.966	67454
709.084	62414
709.202	59947
709.320	63174
709.438	64197
709.556	64772
709.674	63611
709.791	66440
709.909	59821
710.027	58650
710.145	59751
710.263	64339
710.380	63602
710.498	60155
710.616	61167
710.733	60502
710.851	67624
710.969	71747
711.086	63493
711.204	61720
711.322	62745
711.439	63320
711.557	70874
711.674	62371
711.792	61127
711.909	57913
712.027	56298
712.144	55434
712.262	56190
712.379	65118
712.497	92538
712.614	97158
712.732	76692
712.849	73209
712.966	81649
713.084	98853
713.201	81327
713.318	76311
713.436	71100
713.553	74813
713.670	75024
713.787	87557
713.905	97685
714.022	73726
714.139	68689
714.256	74185
714.373	79312
714.490	89244
714.608	122116
714.725	370240
714.842	547536
714.959	93381
715.076	68509
715.193	64565
715.310	61697
715.427	61278
715.544	57776
715.661	60262
715.778	58465
715.895	68793
716.011	69534
716.128	63485
716.245	60004
716.362	64040
716.479	71705
716.596	57953
716.713	60463
716.829	58297
716.946	60453
717.063	52486
717.180	55028
717.296	53083
717.413	55729
717.530	52084
717.646	52508
717.763	53172
717.880	48409
717.996	51522
718.113	53582
718.229	50016
718.346	49436
718.462	50674
718.579	58969
718.695	88789
718.812	92082
718.928	95987
719.045	73257
719.161	48094
719.277	45586
719.394	44977
719.510	48749
719.626	47856
719.743	59986
719.859	55409
719.975	62448
720.092	117373
720.208	286958
720.324	83078
720.440	50928
720.557	58271
720.673	77795
720.789	128420
720.905	325443
721.021	142661
721.137	49654
721.253	51128
721.369	53535
721.486	61561
721.602	105587
721.718	53265
721.834	39834
721.950	43575
722.066	39670
722.181	40339
722.297	41860
722.413	39791
722.529	38047
722.645	39080
722.761	38748
722.877	37891
722.993	35778
723.108	40796
723.224	38144
723.340	41187
723.456	35529
723.571	37101
723.687	37157
723.803	35696
723.918	35915
724.034	38230
724.150	38484
724.265	46593
724.381	105882
724.497	190841
724.612	43248
724.728	35914
724.843	34534
724.959	45016
725.074	101015
725.190	169431
725.305	46288
725.421	42491
725.536	30245
725.651	30925
725.767	31482
725.882	29974
725.997	30458
726.113	32058
726.228	30279
726.343	30374
726.459	27709
726.574	34654
726.689	32721
726.804	30885
726.920	31325
727.035	30704
727.150	34456
727.265	30339
727.380	33938
727.495	28369
727.610	24846
727.725	28294
727.841	28643
727.956	34375
728.071	44445
728.186	31722
728.301	24794
728.416	28166
728.531	26150
728.645	23621
728.760	26472
728.875	28021
728.990	25110
729.105	27516
729.220	26698
729.335	27039
729.449	23344
729.564	23048
729.679	22354
729.794	23573
729.908	30775
730.023	29232
730.138	21366
730.253	22709
730.367	21333
730.482	21878
730.596	22490
730.711	23980
730.826	22798
730.940	21276
731.055	22975
731.169	22260
731.284	19601
731.398	22254
731.513	31280
731.627	29915
731.742	31712
731.856	44834
731.970	21361
732.085	22923
732.199	22918
732.313	28898
732.428	48724
732.542	119403
732.656	101312
732.771	27529
732.885	22430
732.999	23513
733.113	27244
733.227	25818
733.342	19291
733.456	18899
733.570	18246
733.684	18991
733.798	21788
733.912	18804
734.026	16097
734.140	19699
734.254	24785
734.368	53247
734.482	98007
734.596	21688
734.710	16763
734.824	17886
734.938	16334
735.052	18808
735.166	25517
735.280	22470
735.393	17778
735.507	19470
735.621	31354
735.735	83871
735.849	38131
735.962	17308
736.076	20855
736.190	24341
736.303	34206
736.417	67785
736.531	20197
736.644	21942
736.758	14976
736.872	15399
736.985	14537
737.099	14216
737.212	14831
737.326	16074
737.439	14101
737.553	14896
737.666	14672
737.780	13283
737.893	13061
738.007	13938
738.120	13585
738.233	14736
738.347	13404
738.460	14131
738.573	14901
738.687	15297
738.800	15349
738.913	20453
739.026	16803
739.140	16167
739.253	13106
739.366	12429
739.479	12764
739.592	13289
739.705	13235
739.818	13590
739.932	12378
740.045	12716
740.158	13977
740.271	14983
740.384	12930
740.497	12849
740.610	13425
740.723	12440
740.836	13245
740.949	14047
741.062	18884
741.174	21098
741.287	15951
741.400	12253
741.513	12377
741.626	14061
741.739	13770
741.851	13567
741.964	12040
742.077	13728
742.189	12927
742.302	14747
742.415	12650
742.527	12364
742.640	11360
742.753	11564
742.865	10597
742.978	10775
743.090	13205
743.203	13049
743.316	11683
743.428	10467
743.541	10151
743.653	9764
743.766	11477
743.878	13774
743.990	23236
744.103	25709
744.215	11544
744.327	11695
744.440	13802
744.552	25083
744.664	15327
744.777	11514
744.889	9157
745.001	10772
745.113	11002
745.226	9885
745.338	10038
745.450	10520
745.562	10192
745.674	10453
745.786	8633
745.898	10147
746.010	9451
746.122	9714
746.234	8643
746.347	9478
746.459	8987
746.570	9345
746.682	9033
746.794	8710
746.906	9210
747.018	9734
747.130	10181
747.242	9061
747.354	9015
747.466	12332
747.577	9545
747.689	9903
747.801	9175
747.913	8725
748.024	8358
748.136	8770
748.248	9458
748.359	8874
748.471	8675
748.583	8320
748.694	9633
748.806	13878
748.918	22264
749.029	17085
749.141	11892
749.252	11050
749.364	12620
749.475	28834
749.587	29670
749.698	12302
749.809	8316
749.921	9042
750.032	8669
750.144	8755
750.255	8520
750.366	8157
750.478	8468
750.589	8826
750.700	9276
750.811	10843
750.923	12434
751.034	26865
751.145	36356
751.256	9638
751.367	7945
751.479	8187
751.590	7345
751.701	7633
751.812	6932
751.923	7501
752.034	7953
752.145	7653
752.256	7407
752.367	7873
752.478	7048
752.589	8344
752.700	7723
752.811	7907
752.922	8058
753.032	9189
753.143	11622
753.254	7874
753.365	8231
753.476	7170
753.586	6632
753.697	7901
753.808	7435
753.919	7948
754.029	7494
754.140	7415
754.251	7186
754.361	8249
754.472	7315
754.582	9242
754.693	8631
754.804	7601
754.914	6744
755.025	7622
755.135	6737
755.246	7360
755.356	7223
755.466	8237
755.577	7266
755.687	7993
755.798	7589
755.908	8369
756.018	6421
756.129	7121
756.239	6392
756.349	7063
756.460	7388
756.570	7697
756.680	7339
756.790	9152
756.900	9615
757.011	7377
757.121	6139
757.231	7401
757.341	6997
757.451	6842
757.561	6411
757.671	7065
757.781	6724
757.891	7933
758.001	9937
758.111	8591
758.221	7885
758.331	10282
758.441	9591
758.551	12899
758.661	14728
758.771	9311
758.880	8968
758.990	9708
759.100	8657
759.210	8969
759.320	8715
759.429	10119
759.539	8878
759.649	9731
759.758	9297
759.868	9628
759.978	8871
760.087	10471
760.197	9887
760.307	8763
760.416	8519
760.526	9952
760.635	9035
760.745	9366
760.854	9245
760.964	10077
761.073	9431
761.182	8919
761.292	9994
761.401	13637
761.511	11563
761.620	9884
761.729	10556
761.839	12109
761.948	10208
762.057	11415
762.166	9883
762.276	8607
762.385	9159
762.494	9365
762.603	8592
762.712	10683
762.822	10545
762.931	9784
763.040	8929
763.149	9582
763.258	9490
763.367	10703
763.476	9326
763.585	10397
763.694	10774
763.803	11467
763.912	11911
764.021	11233
764.130	10382
764.238	10721
764.347	9907
764.456	11152
764.565	11733
764.674	11012
764.783	11025
764.891	11753
765.000	12588
765.109	13725
765.217	14391
765.326	18049
765.435	25631
765.543	20704
765.652	20399
765.761	25745
765.869	34331
765.978	48184
766.086	78080
766.195	140206
766.303	311849
766.412	706172
766.520	710312
766.629	360113
766.737	135221
766.846	74733
766.954	47877
767.062	38320
767.171	32586
767.279	25823
767.387	21765
767.496	20203
767.604	17431
767.712	16718
767.820	15567
767.928	15792
768.037	15373
768.145	15487
768.253	14766
768.361	14646
768.469	13288
768.577	14270
768.685	13940
768.793	14517
768.901	15155
769.009	15181
769.117	17024
769.225	19056
769.333	25531
769.441	35272
769.549	56054
769.657	114503
769.765	308030
769.873	633674
769.981	393533
770.088	111932
770.196	51261
770.304	33516
770.412	26874
770.519	23271
770.627	18873
770.735	18854
770.842	16400
770.950	15101
771.058	14217
771.165	14382
771.273	13266
771.380	12722
771.488	12140
771.595	12566
771.703	12265
771.810	12443
771.918	10925
772.025	11891
772.133	10513
772.240	11123
772.348	11209
772.455	11191
772.562	11200
772.670	10408
772.777	10637
772.884	9801
772.991	10030
773.099	10065
773.206	9432
773.313	9843
773.420	10372
773.528	8837
773.635	9322
773.742	10324
773.849	9315
773.956	10003
774.063	9950
774.170	8944
774.277	10502
774.384	10741
774.491	10411
774.598	10319
774.705	11499
774.812	13843
774.919	12148
775.026	11598
775.133	11175
775.239	10206
775.346	10003
775.453	10285
775.560	9782
775.667	9570
775.773	9664
775.880	10626
775.987	10948
776.093	10283
776.200	9703
776.307	10406
776.413	9573
776.520	9800
776.627	9468
776.733	9804
776.840	9580
776.946	10734
777.053	9829
777.159	9839
777.266	8456
777.372	10178
777.478	8409
777.585	9511
777.691	8560
777.798	9047
777.904	11431
778.010	14446
778.117	15834
778.223	9845
778.329	10423
778.435	10374
778.542	9316
778.648	9109
778.754	9113
778.860	8572
778.966	10875
779.072	11446
779.178	7647
779.284	9479
779.391	7532
779.497	8506
779.603	9531
779.708	8672
779.815	10869
779.920	18600
780.026	43149
780.132	14587
780.238	8441
780.344	9547
780.450	9192
780.556	8395
780.661	7806
780.767	9241
780.873	8014
780.979	9137
781.085	9620
781.190	9295
781.296	7595
781.402	7682
781.507	6720
781.613	8497
781.719	7441
781.824	7706
781.930	9145
782.035	7863
782.141	7680
782.246	7996
782.352	8974
782.457	7909
782.563	8046
782.668	8343
782.773	8222
782.879	8341
782.984	8188
783.090	10276
783.195	15516
783.300	13832
783.405	9620
783.511	11116
783.616	8947
783.721	9581
783.826	8200
783.932	9853
784.037	8414
784.142	9305
784.247	9583
784.352	7875
784.457	7459
784.562	8460
784.667	7876
784.772	7974
784.877	8187
784.982	8280
785.087	6942
785.192	8332
785.297	8642
785.402	7265
785.507	6954
785.611	7715
785.716	8505
785.821	7529
785.926	6256
786.031	7474
786.135	7647
786.240	7857
786.345	6818
786.450	7254
786.554	6909
786.659	7220
786.763	6145
786.868	7338
786.973	8260
787.077	7838
787.182	6192
787.286	7051
787.391	6471
787.495	6764
787.600	5971
787.704	6170
787.809	6455
787.913	7014
788.017	6521
788.122	6862
788.226	6512
788.330	5750
788.435	6557
788.539	7182
788.643	5715
788.747	5866
788.852	5147
788.956	5675
789.060	5716
789.164	6066
789.268	5355
789.372	6060
789.476	6433
789.580	6404
789.684	4862
789.788	6363
789.892	5797
789.996	7822
790.100	6954
790.204	7310
790.308	8524
790.412	8194
790.516	7111
790.620	7830
790.724	7434
790.828	7083
790.931	7242
791.035	8128
791.139	6380
791.242	5767
791.346	6043
791.450	5824
791.554	6437
791.657	5311
791.761	7316
791.864	6970
791.968	6459
792.072	6659
792.175	6904
792.279	7187
792.382	5924
792.486	7148
792.589	7979
792.693	9951
792.796	5088
792.899	6825
793.003	5515
793.106	4913
793.209	5659
793.313	7881
793.416	4528
793.519	7558
793.623	9406
793.726	15657
793.829	9285
793.932	6319
794.035	5473
794.138	7310
794.242	6793
794.345	10470
794.448	12381
794.551	13837
794.654	17532
794.757	23269
794.860	16355
794.963	14526
795.066	5137
795.169	6449
795.272	4333
795.375	5862
795.477	4819
795.580	6519
795.683	4112
795.786	5540
795.889	4938
795.991	7448
796.094	9322
796.197	11254
796.300	6661
796.402	5288
796.505	4669
796.608	4586
796.710	5336
796.813	4527
796.915	4163
797.018	5249
797.120	4761
797.223	4679
797.326	4743
797.428	4811
797.530	4982
797.633	6358
797.735	9631
797.838	22163
797.940	24267
798.042	5920
798.145	4134
798.247	5521
798.349	3341
798.452	4759
798.554	4200
798.656	3849
798.758	5192
798.860	4868
798.962	4015
799.065	5347
799.167	3752
799.269	6636
799.371	6491
799.473	7929
799.575	9973
799.677	17419
799.779	9836
799.881	11566
799.983	9647
800.085	5628
800.187	4790
800.289	4916
800.390	5916
800.492	4917
800.594	4316
800.696	3994
800.798	3570
800.899	4037
801.001	4030
801.103	4063
801.205	3669
801.306	2876
801.408	4075
801.509	4236
801.611	4007
801.713	4112
801.814	3942
801.916	4201
802.017	3632
802.119	3778
802.220	4431
802.322	5101
802.423	12071
802.525	13708
802.626	5621
802.727	4816
802.829	4993
802.930	3761
803.031	4734
803.133	3954
803.234	3201
803.335	3294
803.436	2481
803.538	3641
803.639	3003
803.740	4058
803.841	3332
803.942	3990
804.043	3061
804.144	3381
804.245	3219
804.346	3059
804.447	3931
804.548	7296
804.649	9568
804.750	4522
804.851	2925
804.952	3286
805.053	4358
805.154	1923
805.255	3573
805.355	3866
805.456	2929
805.557	3259
805.658	1660
805.758	2833
805.859	2674
805.960	2942
806.061	2686
806.161	2994
806.262	3784
806.362	4918
806.463	4860
806.564	4121
806.664	4121
806.765	8944
806.865	10752
806.966	5596
807.066	3684
807.166	4243
807.267	2883
807.367	2825
807.468	3136
807.568	2355
807.668	3981
807.769	3725
807.869	2965
807.969	3463
808.069	3416
808.170	3457
808.270	2922
808.370	3981
808.470	6165
808.570	6545
808.670	2955
808.770	3756
808.870	2628
808.970	3547
809.070	2266
809.170	2662
809.271	3793
809.370	2868
809.470	2672
809.570	2852
809.670	2276
809.770	4219
809.870	3169
809.970	4014
810.070	2795
810.169	2547
810.269	698
810.369	3257
810.469	2836
810.568	2010
810.668	2383
810.768	2334
810.867	2947
810.967	2936
811.066	1872
811.166	2807
811.265	2307
811.365	2077
811.464	2377
811.564	2679
811.663	3709
811.763	2284
811.862	2367
811.962	3482
812.061	2398
812.160	2585
812.260	2485
812.359	2407
812.458	1755
812.557	4359
812.657	4482
812.756	4735
812.855	3021
812.954	2397
813.053	2516
813.153	3376
813.252	2263
813.351	2999
813.450	2698
813.549	2844
813.648	2175
813.747	1917
813.846	2245
813.945	1490
814.044	1997
814.143	2888
814.242	1983
814.341	2499
814.439	1836
814.538	2622
814.637	2551
814.736	2237
814.835	2964
814.933	2095
815.032	2303
815.131	2678
815.229	2044
815.328	3244
815.427	2985
815.525	3308
815.624	3235
815.722	2416
815.821	2105
815.919	3534
816.018	2786
816.116	4018
816.215	2799
816.313	3094
816.412	2394
816.510	3757
816.609	3787
816.707	3348
816.805	3239
816.904	3860
817.002	2453
817.100	4967
817.198	4475
817.296	3893
817.395	4392
817.493	5750
817.591	4750
817.689	7065
817.787	8290
817.885	13482
817.983	21248
818.081	42496
818.179	99757
818.277	257410
818.375	319128
818.473	101019
818.571	34683
818.669	20485
818.767	16904
818.865	16657
818.963	19075
819.061	24480
819.158	41502
819.256	84515
819.354	193720
819.452	463027
819.549	431068
819.647	133660
819.745	47532
819.842	27082
819.940	19605
820.038	13235
820.135	10542
820.233	9375
820.330	7254
820.428	6243
820.525	6019
820.623	5677
820.720	5524
820.818	5496
820.915	4296
821.012	3921
821.110	2955
821.207	4379
821.304	3664
821.402	3385
821.499	3307
821.596	3144
821.693	3874
821.791	4589
821.888	5372
821.985	13247
822.082	14356
822.179	5734
822.276	2701
822.373	2673
822.470	2278
822.567	3558
822.664	1645
822.761	2406
822.858	1324
822.955	2980
823.052	2532
823.149	2726
823.246	2996
823.343	2804
823.440	2720
823.536	2235
823.633	909
823.730	2251
823.827	2176
823.923	2625
824.020	3065
824.117	2482
824.213	1478
824.310	2543
824.407	2043
824.503	2192
824.600	2121
824.696	1602
824.793	2675
824.889	2495
824.986	2393
825.082	2092
825.179	2221
825.275	1357
825.371	1765
825.468	2109
825.564	669
825.660	2092
825.757	2380
825.853	2782
825.949	1704
826.045	1799
826.142	749
826.238	1919
826.334	2278
826.430	1181
826.526	1782
826.622	1777
826.718	2361
826.814	2224
826.910	1962
827.006	2329
827.102	1498
827.198	2678
827.294	1261
827.390	2047
827.486	2096
827.582	103
827.678	891
827.774	2822
827.869	544
827.965	2348
828.061	1303
828.157	1750
828.252	2206
828.348	1622
828.444	2150
828.539	1253
828.635	822
828.731	2154
828.826	1507
828.922	2757
829.017	2228
829.113	2583
829.208	1467
829.304	1865
829.399	3135
829.495	1370
829.590	2497
829.685	1087
829.781	1121
829.876	1953
829.971	1740
830.066	1224
830.162	1846
830.257	1943
830.352	1247
830.447	3526
830.543	3549
830.638	3544
830.733	3729
830.828	1833
830.923	2415
831.018	3070
831.113	3673
831.208	4093
831.303	2819
831.398	2470
831.493	1149
831.588	2464
831.683	1503
831.778	2307
831.873	1636
831.967	2429
832.062	1002
832.157	1674
832.252	1878
832.346	1696
832.441	3402
832.536	5213
832.631	12147
832.725	15480
832.820	3188
832.914	2031
833.009	2144
833.104	3354
833.198	4771
833.293	2759
833.387	3694
833.482	3224
833.576	1493
833.670	3138
833.765	1828
833.859	1691
833.954	3297
834.048	1843
834.142	1328
834.237	1643
834.331	1278
834.425	2069
834.519	1627
834.613	2308
834.708	1492
834.802	2515
834.896	1242
834.990	2025
835.084	1733
835.178	2647
835.272	3239
835.366	2714
835.460	2397
835.554	2784
835.648	1797
835.742	2425
835.836	1865
835.930	1537
836.024	2466
836.117	3838
836.211	4350
836.305	8353
836.399	16182
836.493	6426
836.586	2565
836.680	1681
836.774	964
836.867	2085
836.961	1083
837.055	1164
837.148	2123
837.242	1772
837.335	1813
837.429	3034
837.522	2777
837.616	6456
837.709	13936
837.803	16977
837.896	4900
837.989	4909
838.083	9236
838.176	21042
838.269	28144
838.363	7448
838.456	2571
838.549	5673
838.642	6779
838.735	16382
838.829	10001
838.922	3441
839.015	2289
839.108	1147
839.201	1867
839.294	2360
839.387	3188
839.480	4178
839.573	6806
839.666	13792
839.759	5345
839.852	1721
839.945	1649
840.038	1420
840.131	1648
840.223	2251
840.316	1648
840.409	1861
840.502	840
840.594	2588
840.687	1526
840.780	2724
840.873	2523
840.965	4229
841.058	8354
841.150	18435
841.243	20035
841.336	4712
841.428	2248
841.521	3228
841.613	3703
841.706	5231
841.798	1818
841.890	2064
841.983	1260
842.075	2620
842.167	2012
842.260	4055
842.352	6333
842.444	12014
842.537	20412
842.629	41233
842.721	12222
842.813	2601
842.905	2372
842.997	3738
843.090	3705
843.182	8837
843.274	20807
843.366	43465
843.458	98054
843.550	83686
843.642	16754
843.734	5788
843.826	8731
843.918	7942
844.009	4584
844.101	2269
844.193	2025
844.285	2302
844.377	2380
844.469	2221
844.560	1338
844.652	1417
844.744	2657
844.835	2680
844.927	3030
845.019	6855
845.110	5645
845.202	2608
845.293	1868
845.385	1387
845.476	1486
845.568	3074
845.659	2082
845.751	2937
845.842	2064
845.934	1851
846.025	1737
846.116	2217
846.208	1310
846.299	1515
846.390	2350
846.482	2727
846.573	3449
846.664	8986
846.755	10815
846.846	12353
846.937	2118
847.029	2391
847.120	1918
847.211	1269
847.302	2500
847.393	1781
847.484	1409
847.575	1585
847.666	788
847.757	2088
847.847	1895
847.938	3262
848.029	1495
848.120	1174
848.211	2014
848.302	1647
848.392	512
848.483	2196
848.574	1179
848.664	1611
848.755	1417
848.846	2057
848.936	1623
849.027	2291
849.118	1082
849.208	1660
849.299	3098
849.389	4740
849.480	7595
849.570	12412
849.661	18526
849.751	36580
849.841	18983
849.932	3137
850.022	2440
850.112	2258
850.203	1859
850.293	1903
850.383	1579
850.474	1285
850.564	2305
850.654	1628
850.744	1702
850.834	1967
850.924	1329
851.014	2077
851.104	1426
851.194	2448
851.284	4568
851.374	4911
851.464	4446
851.554	4067
851.644	4937
851.734	9222
851.824	9402
851.914	3090
852.004	1715
852.094	1836
852.183	1307
852.273	1770
852.363	1578
852.452	1449
852.542	1315
852.632	1502
852.721	1346
852.811	2621
852.901	1160
852.990	1694
853.080	2330
853.169	2006
853.259	1078
853.348	1536
853.438	3017
853.527	3890
853.617	3917
853.706	8257
853.795	13190
853.885	30612
853.974	58742
854.063	100873
854.152	192466
854.242	102936
854.331	16857
854.420	7015
854.509	4692
854.598	5681
854.687	5798
854.777	8225
854.866	4095
854.955	2511
855.044	798
855.133	1419
855.222	2187
855.311	947
855.400	1344
855.488	2005
855.577	1908
855.666	1885
855.755	2981
855.844	1900
855.933	2108
856.021	2178
856.110	2135
856.199	1415
856.288	1297
856.376	1396
856.465	1379
856.554	1951
856.642	1710
856.731	2052
856.819	1685
856.908	2398
856.996	1706
857.085	1961
857.173	1029
857.262	1530
857.350	1528
857.438	1489
857.527	1310
857.615	1662
857.703	955
857.792	1921
857.880	1136
857.968	1074
858.056	1366
858.145	1944
858.233	696
858.321	1304
858.409	1399
858.497	1175
858.585	1117
858.673	1502
858.761	645
858.849	1633
858.937	1395
859.025	1077
859.113	1606
859.201	1281
859.289	2038
859.377	1589
859.465	1441
859.552	1969
859.640	1671
859.728	2282
859.816	1893
859.903	1586
859.991	954
860.079	1847
860.166	1339
860.254	1003
860.342	1772
860.429	836
860.517	1058
860.604	1296
860.692	1393
860.779	1269
860.867	888
860.954	1831
861.042	1976
861.129	2821
861.216	1292
861.304	1136
861.391	1675
861.478	1866
861.565	2013
861.653	2212
861.740	1479
861.827	1942
861.914	1553
862.001	741
862.089	1372
862.176	2068
862.263	414
862.350	1260
862.437	920
862.524	567
862.611	484
862.698	1492
862.785	1321
862.871	1571
862.958	802
863.045	452
863.132	956
863.219	935
863.306	-97
863.392	2081
863.479	1462
863.566	1468
863.652	1706
863.739	1198
863.826	1012
863.912	1123
863.999	729
864.086	1140
864.172	1640
864.259	605
864.345	489
864.432	1570
864.518	1485
864.604	1289
864.691	989
864.777	1660
864.863	1449
864.950	1970
865.036	992
865.122	1718
865.209	2026
865.295	1794
865.381	2088
865.467	3224
865.553	2332
865.639	4887
865.726	6753
865.812	14392
865.898	30048
865.984	46747
866.070	79056
866.156	116139
866.242	39166
866.328	7333
866.414	3065
866.499	3353
866.585	2650
866.671	2326
866.757	2099
866.843	2148
866.928	1917
867.014	1436
867.100	2245
867.186	2951
867.271	4437
867.357	6743
867.442	11527
867.528	6586
867.614	1980
867.699	1203
867.785	2080
867.870	2047
867.956	2047
868.041	3270
868.127	3144
868.212	6154
868.297	4065
868.383	2502
868.468	2824
868.553	6998
868.639	8175
868.724	15429
868.809	21004
868.894	5636
868.979	2092
869.065	3007
869.150	2550
869.235	2123
869.320	795
869.405	820
869.490	522
869.575	1917
869.660	1013
869.745	2150
869.830	619
869.915	775
870.000	946
870.085	1264
870.169	962
870.254	1181
870.339	231
870.424	1058
870.509	578
870.593	756
870.678	-695
870.763	1230
870.847	1850
870.932	1738
871.016	899
871.101	1138
871.186	455
871.270	1463
871.355	610
871.439	995
871.523	218
871.608	1265
871.692	-173
871.777	1769
871.861	1277
871.945	324
872.030	368
872.114	240
872.198	142
872.282	813
872.367	768
872.451	800
872.535	622
872.619	631
872.703	-67
872.787	1196
872.871	846
872.955	913
873.039	118
873.123	987
873.207	1765
873.291	1529
873.375	2248
873.459	1652
873.543	-103
873.627	846
873.711	673
873.794	1134
873.878	622
873.962	872
874.045	39
874.129	1218
874.137	1146
874.213	426
874.245	826
874.296	1477
874.352	579
874.380	135
874.460	470
874.464	484
874.547	458
874.568	612
874.631	1065
874.676	956
874.714	851
874.784	760
874.798	750
874.881	1014
874.892	1001
874.965	901
874.999	826
875.048	699
875.107	319
875.131	170
875.215	371
875.215	371
875.298	175
875.323	241
875.381	396
875.430	595
875.465	729
875.538	1281
875.548	1353
875.631	1946
875.646	1653
875.714	292
875.753	681
875.798	1116
875.861	609
875.881	464
875.964	1274
875.968	1250
876.047	758
876.076	1009
876.130	1454
876.183	1073
876.213	886
876.291	1696
876.296	1753
876.379	1148
876.398	1222
876.462	1391
876.506	1418
876.545	1475
876.613	1460
876.628	1415
876.711	-36
876.721	66
876.794	1208
876.828	881
876.877	232
876.935	492
876.960	651
877.043	-147
877.043	-143
877.125	717
877.150	754
877.208	975
877.258	918
877.291	834
877.365	987
877.374	993
877.456	1626
877.472	1473
877.539	871
877.579	877
877.622	889
877.687	1637
877.704	1855
877.787	1498
877.794	1424
877.869	501
877.901	476
877.952	583
878.008	586
878.034	472
878.115	137
878.117	137
878.199	213
878.222	520
878.282	1304
878.329	1038
878.364	704
878.437	548
878.447	562
878.529	623
878.544	654
878.611	639
878.651	508
878.694	489
878.758	574
878.776	529
878.858	457
878.865	444
878.941	532
878.972	612
879.023	674
879.078	1100
879.105	1378
879.185	1473
879.187	1468
879.269	1694
879.292	1347
879.351	405
879.399	494
879.433	579
879.506	663
879.516	694
879.598	48
879.613	-9
879.680	-375
879.720	-22
879.762	444
879.827	95
879.844	-12
879.926	377
879.933	348
880.007	6
880.040	182
880.089	458
880.147	392
880.171	452
880.253	1553
880.254	1557
880.335	1631
880.360	1896
880.417	2819
880.467	3579
880.499	3946
880.574	5714
880.580	5836
880.662	2254
880.680	1718
880.744	202
880.787	232
880.825	8
880.893	144
880.907	277
880.989	399
881.000	470
881.070	415
881.106	132
881.152	-21
881.213	-347
881.233	-526
881.315	-473
881.319	-465
881.396	484
881.426	603
881.478	9
881.532	-161
881.559	-43
881.639	-31
881.641	-29
881.722	214
881.745	121
881.803	-81
881.852	229
881.885	509
881.958	679
881.966	642
882.047	1577
882.064	1524
882.129	1708
882.171	1912
882.210	1972
882.277	3635
882.291	3953
882.372	1932
882.383	1754
882.454	440
882.489	60
882.535	-122
882.596	203
882.616	175
882.697	-124
882.702	-149
882.778	75
882.808	220
882.859	176
882.914	29
882.940	39
883.020	304
883.021	300
883.102	-319
883.127	-432
883.183	130
883.233	210
883.264	-41
883.339	129
883.345	151
883.426	-93
883.445	-41
883.507	248
883.551	145
883.587	32
883.657	239
883.668	257
883.749	59
883.763	24
883.830	48
883.869	246
883.910	452
883.975	432
883.991	351
884.072	113
884.081	80
884.152	91
884.187	72
884.233	107
884.292	426
884.314	338
884.394	-334
884.398	-352
884.475	-5
884.504	-9
884.555	217
884.610	475
884.636	308
884.716	-193
884.716	-193
884.797	1
884.821	-28
884.877	171
884.927	240
884.958	86
885.033	-291
885.038	-295
885.118	-378
885.139	-366
885.199	-436
885.244	-289
885.279	-77
885.350	-150
885.359	-172
885.439	-26
885.456	-21
885.520	58
885.561	153
885.600	221
885.667	81
885.680	-1
885.760	-77
885.773	-113
885.840	-203
885.878	-263
885.920	-139
885.984	-192
886.000	-202
886.080	196
886.089	230
886.160	519
886.195	719
886.240	440
886.300	-466
886.320	-468
886.400	442
886.406	476
886.480	510
886.511	630
886.560	673
886.616	326
886.640	212
886.720	162
886.722	161
886.800	-342
886.827	-472
886.879	-145
886.932	-40
886.959	142
887.038	1013
887.039	1007
887.119	318
887.143	35
887.198	-35
887.248	147
887.278	124
887.354	-266
887.358	-251
887.437	207
887.459	358
887.517	217
887.564	-12
887.596	-43
887.669	64
887.676	66
887.755	-92
887.774	-54
887.835	30
887.880	-43
887.914	75
887.985	266
887.994	230
888.073	82
888.090	35
888.153	6
888.195	-1
888.232	-193
888.300	-548
888.311	-532
888.391	-467
888.405	-438
888.470	35
888.510	329
888.549	276
888.615	237
888.628	217
888.708	-18
888.720	-39
888.787	-340
888.825	-526
888.866	-282
888.930	85
888.945	96
889.024	204
889.035	228
889.103	268
889.140	235
889.182	296
889.245	451
889.261	397
889.340	115
889.349	88
889.419	4
889.454	-54
889.498	65
889.559	264
889.577	185
889.656	-165
889.664	-194
889.735	32
889.768	140
889.814	236
889.873	371
889.978	317
890.083	-106
890.187	-140
890.292	-396
890.397	4
890.501	-438
890.606	877
890.710	690
890.815	-76
890.919	129
891.024	-407
891.128	140
891.233	133
891.337	42
891.442	-175
891.546	202
891.650	-96
891.755	-273
891.859	750
891.963	-553
892.068	-194
892.172	516
892.276	-551
892.380	-69
892.484	166
892.589	-234
892.693	205
892.797	293
892.901	102
893.005	209
893.109	-55
893.213	-49
893.317	-4
893.421	143
893.525	7
893.629	-182
893.733	-546
893.837	50
893.941	-483
894.045	753
894.148	-261
894.252	36
894.356	-202
894.460	415
894.564	769
894.667	184
894.771	117
894.875	-212
894.978	725
895.082	82
895.186	191
895.289	945
895.393	237
895.496	-180
895.600	-578
895.703	491
895.807	-551
895.910	-169
896.014	-310
896.117	384
896.221	-190
896.324	272
896.427	702
896.531	-190
896.634	186
896.737	-653
896.840	114
896.944	167
897.047	633
897.150	228
897.253	-922
897.356	470
897.460	-92
897.563	337
897.666	-296
897.769	-334
897.872	554
897.975	-271
898.078	36
898.181	-650
898.284	-234
898.387	164
898.490	-170
898.593	273
898.695	-451
898.798	279
898.901	493
899.004	500
899.107	221
899.209	-226
899.312	-239
899.415	73
899.518	328
899.620	570
899.723	1043
899.826	234
899.928	637
900.031	-101
900.133	-844
900.236	460
900.338	491
900.441	77
900.543	678
900.646	55
900.748	429
900.851	382
900.953	156
901.055	-80
901.158	839
901.260	70
901.362	85
901.465	-194
901.567	408
901.669	393
901.771	-299
901.873	312
901.976	383
902.078	-379
902.180	298
902.282	1085
902.384	-477
902.486	-360
902.588	697
902.690	436
902.792	879
902.894	421
902.996	-145
903.098	203
903.200	396
903.302	342
903.404	-336
903.505	197
903.607	-64
903.709	-516
903.811	299
903.913	357
904.014	932
904.116	-29
904.218	933
904.319	209
904.421	-97
904.523	657
904.624	563
904.726	721
904.827	1
904.929	-200
905.030	86
905.132	-195
905.233	782
905.335	-829
905.436	24
905.537	0
905.639	94
905.740	-754
905.841	-345
905.943	771
906.044	-277
906.145	-380
906.247	-257
906.348	227
906.449	451
906.550	46
906.651	115
906.752	97
906.854	81
906.955	529
907.056	379
907.157	348
907.258	-246
907.359	-163
907.460	-153
907.561	374
907.662	106
907.762	-121
907.863	440
907.964	-379
908.065	2
908.166	-356
908.267	-48
908.367	8
908.468	-1
908.569	-167
908.670	658
908.770	838
908.871	507
908.971	525
909.072	796
909.173	-611
909.273	255
909.374	-74
909.474	-66
909.575	-1
909.675	-614
909.776	925
909.876	-638
909.977	-205
910.077	999
910.177	-118
910.278	166
910.378	569
910.478	-330
910.579	-285
910.679	102
910.779	-96
910.879	-243
910.980	24
911.080	-181
911.180	-166
911.280	167
911.380	-613
911.480	373
911.580	-3
911.680	-662
911.780	-133
911.880	-127
911.980	118
912.080	320
912.180	36
912.280	103
912.380	-83
912.480	-454
912.580	747
912.679	-149
912.779	678
912.879	-450
912.979	-369
913.078	97
913.178	-389
913.278	-150
913.377	-156
913.477	10
913.577	-493
913.676	284
913.776	11
913.875	104
913.975	1271
914.074	373
914.174	-29
914.273	-336
914.373	102
914.472	612
914.572	-290
914.671	-253
914.770	-25
914.870	275
914.969	5
915.068	-126
915.167	-425
915.267	1018
915.366	122
915.465	-984
915.564	-98
915.663	-430
915.763	106
915.862	435
915.961	-42
916.060	530
916.159	-74
916.258	147
916.357	438
916.456	588
916.555	-666
916.654	498
916.752	-147
916.851	-342
916.950	416
917.049	64
917.148	133
917.247	-478
917.345	-375
917.444	396
917.543	-251
917.642	-184
917.740	-325
917.839	17
917.937	-265
918.036	308
918.135	247
918.233	705
918.332	-76
918.430	394
918.529	51
918.627	59
918.726	-304
918.824	215
918.923	-808
919.021	101
919.119	371
919.218	254
919.316	-818
919.414	-161
919.512	-328
919.611	-110
919.709	-484
919.807	442
919.905	-142
920.003	-593
920.102	-108
920.200	528
920.298	-689
920.396	-477
920.494	75
920.592	-652
920.690	657
920.788	-370
920.886	25
920.984	-801
921.082	-210
921.180	152
921.277	351
921.375	21
921.473	682
921.571	-461
921.669	-563
921.766	19
921.864	162
921.962	185
922.060	-75
922.157	678
922.255	319
922.352	-121
922.450	909
922.548	348
922.645	404
922.743	394
922.840	603
922.938	-88
923.035	498
923.133	581
923.230	255
923.327	-442
923.425	-123
923.522	-52
923.619	-325
923.717	741
923.814	-375
923.911	-38
924.008	210
924.106	-845
924.203	-245
924.300	-65
924.397	-91
924.494	297
924.591	-20
924.688	-234
924.786	494
924.883	32
924.979	614
925.077	51
925.173	927
925.270	217
925.367	-296
925.464	25
925.561	415
925.658	16
925.755	-4
925.852	259
925.948	-192
926.045	-148
926.142	-258
926.239	-53
926.335	-236
926.432	104
926.529	-497
926.625	237
926.722	-108
926.818	-76
926.915	336
927.011	187
927.108	365
927.204	-360
927.301	-280
927.397	-200
927.494	-246
927.590	-29
927.687	-893
927.783	-205
927.879	-502
927.976	-425
928.072	249
928.168	-733
928.264	-148
928.361	-546
928.457	135
928.553	-193
928.649	-67
928.745	268
928.841	839
928.937	476
929.033	0
929.129	36
929.225	-114
929.321	53
929.417	-596
929.513	-702
929.609	-379
929.705	152
929.801	194
929.897	78
929.993	-148
930.089	759
930.184	53
930.280	-10
930.376	46
930.471	-488
930.567	-343
930.663	-376
930.758	-200
930.854	-452
930.950	185
931.045	262
931.141	-141
931.236	302
931.332	-85
931.427	-144
931.523	233
931.618	209
931.714	245
931.809	-99
931.905	87
932.000	82
932.095	303
932.191	-6
932.286	-48
932.381	-415
932.476	140
932.572	108
932.667	-290
932.762	-425
932.857	235
932.952	-146
933.047	688
933.142	265
933.237	-268
933.332	-56
933.427	340
933.522	520
933.617	-146
933.712	109
933.807	380
933.902	-403
933.997	-315
934.092	-258
934.187	-773
934.282	-146
934.376	309
934.471	-529
934.566	99
934.661	285
934.755	-282
934.850	120
934.945	364
935.039	-881
935.134	-286
935.228	-769
935.323	207
935.417	-225
935.512	108
935.606	-635
935.701	-295
935.795	-664
935.890	-385
935.984	60
936.079	57
936.173	-125
936.267	-817
936.362	-708
936.456	44
936.550	185
936.644	-6
936.738	149
936.833	-378
936.927	-274
937.021	-512
937.115	-576
937.209	-189
937.303	242
937.397	361
937.491	-264
937.585	166
937.679	45
937.773	-449
937.867	473
937.961	-79
938.055	-270
938.149	904
938.243	161
938.337	-236
938.430	144
938.524	116
938.618	331
938.712	-25
938.805	324
938.899	-466
938.993	-401
939.086	-430
939.180	537
939.274	210
939.367	-329
939.461	-294
939.554	-406
939.648	37
939.741	-161
939.835	14
939.928	974
940.022	91
940.115	-262
940.208	860
940.302	-31
940.395	-711
940.488	-243
940.582	382
940.675	-578
940.768	-8
940.861	-485
940.954	416
941.048	-179
941.141	199
941.234	264
941.327	-108
941.420	106
941.513	20
941.606	881
941.699	673
941.792	276
941.885	-947
941.978	234
942.071	-311
942.164	-657
942.257	-187
942.349	425
942.442	472
942.535	-484
942.628	-174
942.721	798
942.813	-488
942.906	878
942.999	-431
943.091	-1262
943.184	-1015
943.277	-449
943.369	18
943.462	-230
943.554	783
943.647	-670
943.739	-30
943.832	95
943.924	-445
944.017	-166
944.109	-306
944.201	591
944.294	-492
944.386	-201
944.478	-374
944.571	-424
944.663	-618
944.755	7
944.847	335
944.940	219
945.032	-892
945.124	547
945.216	272
945.308	429
945.400	-151
945.492	752
945.584	-1
945.676	585
945.768	185
945.860	-29
945.952	-346
946.044	217
946.136	340
946.228	-321
946.320	-67
946.412	-438
946.503	-690
946.595	-73
946.687	-576
946.779	-328
946.870	42
946.962	414
947.054	106
947.145	365
947.237	904
947.329	596
947.420	123
947.512	5
947.603	-645
947.695	-327
947.786	-878
947.878	-363
947.969	272
948.061	-1521
948.152	144
948.243	-322
948.335	589
948.426	-77
948.517	68
948.609	165
948.700	-631
948.791	5
948.882	-378
948.973	461
949.065	-103
949.156	76
949.247	193
949.338	27
949.429	-169
949.520	330
949.611	-522
949.702	213
949.793	14
949.884	-443
949.975	524
950.066	-336
950.157	-130
950.247	651
950.338	-273
950.429	-84
950.520	131
950.611	381
950.701	89
950.792	-18
950.883	412
950.973	-175
951.064	-99
951.155	19
951.245	-259
951.336	537
951.427	44
951.517	840
951.608	-296
951.698	561
951.788	-251
951.879	-264
951.969	-628
952.060	-159
952.150	324
952.240	142
952.331	-1208
952.421	-255
952.511	-983
952.602	-663
952.692	-54
952.782	138
952.872	-176
952.962	-995
953.052	-730
953.143	-558
953.233	-1227
953.323	611
953.413	-448
953.503	296
953.593	172
953.683	12
953.773	64
953.863	277
953.953	-424
954.042	-47
954.132	-291
954.222	-475
954.312	152
954.402	-56
954.492	276
954.581	928
954.671	448
954.761	-212
954.850	724
954.940	-116
955.030	145
955.119	247
955.209	133
955.298	-90
955.388	611
955.477	340
955.567	-638
955.656	239
955.746	-283
955.835	-846
955.925	-283
956.014	-246
956.103	-417
956.193	-424
956.282	-266
956.371	-628
956.461	-88
956.550	-357
956.639	-267
956.728	-207
956.817	-367
956.906	-73
956.995	394
957.085	-40
957.174	-276
957.263	-348
957.352	-129
957.441	248
957.530	-379
957.619	621
957.708	-546
957.796	-439
957.885	-491
957.974	-376
958.063	216
958.152	-684
958.241	139
958.329	174
958.418	-405
958.507	-988
958.596	-152
958.684	-558
958.773	-197
958.861	-39
958.950	50
959.039	46
959.127	306
959.216	-613
959.304	-184
959.393	-253
959.481	-206
959.570	-507
959.658	85
959.746	-547
959.835	627
959.923	853
960.011	836
960.100	76
960.188	648
960.276	-465
960.365	-432
960.453	-40
960.541	-1055
960.629	-54
960.717	-542
960.805	-532
960.893	-173
960.981	-664
961.069	102
961.158	-946
961.245	639
961.333	-728
961.421	-896
961.509	-328
961.597	-623
961.685	-186
961.773	-279
961.861	-717
961.949	-316
962.036	-146
962.124	-344
962.212	-180
962.299	-605
962.387	-675
962.475	-609
962.562	-717
962.650	127
962.738	88
962.825	-354
962.913	-825
963.000	-407
963.088	124
963.175	-1538
963.263	-743
963.350	-343
963.438	-150
963.525	284
963.612	1285
963.700	2662
963.787	8551
963.874	4991
963.962	818
964.049	-8
964.136	-723
964.223	-822
964.310	-380
964.398	400
964.485	-561
964.572	273
964.659	-68
964.746	1468
964.833	-167
964.920	-342
965.007	-685
965.094	676
965.181	-701
965.268	-558
965.355	331
965.441	-258
965.528	-629
965.615	-7
965.702	-266
965.789	-607
965.875	209
965.962	-154
966.049	-2007
966.136	-419
966.222	-349
966.309	-294
966.395	-704
966.482	278
966.569	-703
966.655	96
966.742	-585
966.828	325
966.915	336
967.001	-154
967.087	-634
967.174	54
967.260	-206
967.347	392
967.433	1820
967.519	5521
967.605	3021
967.692	-217
967.778	-549
967.864	-729
967.950	-489
968.036	-559
968.123	-568
968.209	-42
968.295	-1430
968.381	112
968.467	-46
968.553	-1155
968.639	590
968.725	-133
968.811	-339
968.897	892
968.983	-168
969.069	-1133
969.154	-199
969.240	-259
969.326	-1461
969.412	-508
969.497	-190
969.583	-956
969.669	-53
969.755	-187
969.840	-579
969.926	-223
970.012	-888
970.097	152
970.183	-792
970.268	-55
970.354	193
970.439	438
970.525	3681
970.610	1268
970.696	-67
970.781	-291
970.866	-1476
970.952	383
971.037	-708
971.122	-1012
971.208	-165
971.293	-524
971.378	-1218
971.463	-416
971.549	-954
971.634	-174
971.719	-28
971.804	-243
971.889	10
971.974	-1270
972.059	-438
972.144	-612
972.229	-356
972.314	-999
972.399	221
972.484	-518
972.569	-150
972.654	119
972.739	671
972.824	2063
972.908	362
972.993	11
973.078	-251
973.163	-409
973.247	-139
973.332	-1238
973.417	857
973.501	-849
973.586	-471
973.671	-324
973.755	65
973.840	-169
973.924	-508
974.009	159
974.093	-431
974.178	206
974.262	966
974.346	755
974.431	-600
974.515	-1021
974.600	-178
974.684	926
974.768	-324
974.852	75
974.937	-1591
975.021	-40
975.105	-361
975.189	-294
975.273	-383
975.358	-531
975.442	-1062
975.526	116
975.610	-957
975.694	-737
975.778	317
975.862	-663
975.946	-2693
976.030	-3
976.114	-210
976.198	-719
976.281	3
976.365	452
976.449	-914
976.533	467
976.617	-838
976.700	152
976.784	536
976.868	21
976.951	-251
977.035	716
977.119	-388
977.202	-553
977.286	149
977.369	-672
977.453	-229
977.536	-882
977.620	-910
977.703	-615
977.787	-1365
977.870	225
977.953	-110
978.037	-935
978.120	467
978.203	-173
978.287	1578
978.370	281
978.453	-217
978.536	-67
978.620	818
978.703	-624
978.786	112
978.869	-257
978.952	-1074
979.035	305
979.118	-838
979.201	-221
979.284	-253
979.367	-956
979.450	-427
979.533	-309
979.616	-1068
979.699	-806
979.782	-230
979.865	43
979.948	-67
980.030	-1100
980.113	-698
980.196	-1077
980.279	-825
980.361	-456
980.444	-314
980.526	-772
980.609	-1160
980.692	-868
980.774	-663
980.857	-1466
980.939	-534
981.022	-518
981.104	-1031
981.187	-1049
981.269	-1187
981.352	211
981.434	-543
981.516	-632
981.599	392
981.681	-642
981.763	-738
981.846	-589
981.928	-474
982.010	-917
982.092	-340
982.174	-425
982.256	-84
982.339	-626
982.421	-251
982.503	-729
982.585	-1472
982.667	225
982.749	-497
982.831	-862
982.913	-794
982.995	200
983.077	-728
983.158	467
983.240	-1655
983.322	-838
983.404	-82
983.486	-884
983.568	-883
983.649	-354
983.731	-317
983.813	-420
983.894	-502
983.976	-718
984.058	-1192
984.139	21
984.221	-1429
984.302	-218
984.384	-595
984.465	-987
984.547	-135
984.628	-1197
984.710	-340
984.791	-532
984.872	-1143
984.954	72
985.035	-780
985.116	-541
985.198	-1056
985.279	-402
985.360	58
985.441	-747
985.522	276
985.604	-1870
985.685	-1727
985.766	688
985.847	519
985.928	-754
986.009	-914
986.090	-585
986.171	-29
986.252	-801
986.333	204
986.414	-1119
986.495	-498
986.576	-900
986.656	-779
986.737	-351
986.818	-847
986.899	-1253
986.980	-805
987.060	-411
987.141	-1818
987.222	-602
987.302	-261
987.383	-195
987.464	-1029
987.544	-177
987.625	-138
987.705	-114
987.786	-297
987.866	-697
987.947	-1442
988.027	-1356
988.108	-928
988.188	-471
988.268	74
988.349	31
988.429	-519
988.509	-190
988.589	-458
988.670	-1637
988.750	17
988.830	-1287
988.910	-110
988.990	-788
989.070	-825
989.151	-1162
989.231	-1028
989.311	279
989.391	-674
989.471	-652
989.551	-785
989.631	-1312
989.711	-53
989.791	-956
989.870	-1302
989.950	-156
990.030	-997
990.110	-458
990.190	-1489
990.269	-285
990.349	-814
990.429	-779
990.509	-356
990.588	-46
990.668	-386
990.747	72
990.827	-391
990.907	-713
990.986	-939
991.066	-379
991.145	-1085
991.225	155
991.304	-1239
991.383	-483
991.463	-348
991.542	-236
991.622	-373
991.701	-406
991.780	-832
991.859	-617
991.939	-1066
992.018	-189
992.097	-441
992.176	-77
992.256	-428
992.335	-637
992.414	136
992.493	-505
992.572	-1514
992.651	-78
992.730	-234
992.809	-331
992.888	-553
992.967	-1035
993.046	-239
993.125	-773
993.203	-898
993.282	-660
993.361	-669
993.440	-335
993.519	-659
993.597	-61
993.676	-545
993.755	-850
993.834	-523
993.912	-1072
993.991	284
994.069	-1155
994.148	-430
994.226	-1024
994.305	196
994.384	-465
994.462	80
994.540	-1180
994.619	-992
994.697	-136
994.776	-1279
994.854	-235
994.932	-1530
995.011	-456
995.089	-651
995.167	-596
995.245	-906
995.324	-1001
995.402	-871
995.480	-816
995.558	313
995.636	-1744
995.714	-1119
995.792	279
995.870	-599
995.948	-1029
996.026	-632
996.104	-1290
996.182	-1115
996.260	-893
996.338	-700
996.416	-1199
996.494	-1314
996.572	432
996.649	-1129
996.727	-1720
996.805	-455
996.883	-1165
996.960	-1255
997.038	-513
997.116	-960
997.193	-1321
997.271	49
997.348	-786
997.426	-552
997.504	-1499
997.581	-106
997.658	-811
997.736	-438
997.813	-998
997.891	-163
997.968	-882
998.046	-851
998.123	-995
998.200	-480
998.277	-969
998.355	-703
998.432	-1617
998.509	-396
998.586	-101
998.663	-818
998.741	-1119
998.818	-742
998.895	-869
998.972	-481
999.049	-1361
999.126	-1254
999.203	-905
999.280	-1239
999.357	-1158
999.434	-710
999.511	-825
999.587	-723
999.664	-985
999.741	-982
999.818	-723
999.895	-741
999.971	-1473
1000.048	-1489
1000.125	-1014
1000.202	-1544
1000.278	-685
1000.355	-266
1000.431	-1172
1000.508	-1620
1000.584	-1054
1000.661	-751
1000.738	-1622
1000.814	-1348
1000.890	-465
1000.967	-1375
1001.043	-567
1001.120	-1786
1001.196	-693
1001.272	-1766
1001.349	-972
1001.425	-672
1001.501	-1265
1001.577	-1385
1001.654	-534
1001.730	-939
1001.806	-1602
1001.882	-934
1001.958	-1249
1002.034	-1075
1002.110	-1183
1002.186	-594
1002.262	-681
1002.338	-1242
1002.414	-851
1002.490	-683
1002.566	-1231
1002.642	-948
1002.718	-502
1002.794	-986
1002.870	-1389
1002.945	-1110
1003.021	-317
1003.097	-1618
1003.173	-884
1003.248	-1216
1003.324	-1061
1003.400	-725
1003.475	-1638
1003.551	-1145
1003.626	-385
1003.702	-1100
1003.777	-862
1003.853	-1518
1003.928	-1203
1004.004	-1840
1004.079	-1328
1004.155	-1125
1004.230	-1778
1004.305	-648
1004.381	-1910
1004.456	-1214
1004.531	-1434
1004.607	-1755
1004.682	-1188
1004.757	-880
1004.832	-1341
1004.907	-1540
1004.982	-1250
1005.057	-274
1005.133	-1177
1005.208	-1067
1005.283	-885
1005.358	-745
1005.433	-1738
1005.508	-680
1005.583	-1754
1005.657	-1529
1005.732	-777
1005.807	-909
1005.882	-921
1005.957	-1013
1006.032	-354
1006.106	-905
1006.181	-485
1006.256	-362
1006.331	-1431
1006.405	-1097
1006.480	-277
1006.554	-1891
1006.629	-1133
1006.704	-558
1006.778	-744
1006.853	186
1006.927	-1372
1007.002	-1533
1007.076	-864
1007.150	-1000
1007.225	-1558
1007.299	-674
1007.373	-2552
1007.448	-650
1007.522	-359
1007.596	-879
1007.671	-2394
1007.745	-943
1007.819	-1561
1007.893	-1125
1007.967	-941
1008.041	-1665
1008.115	-1432
1008.190	-1961
1008.264	-571
1008.338	-1748
1008.412	-814
1008.486	-1038
1008.560	-1547
1008.633	-1944
1008.707	-1529
1008.781	-997
1008.855	-1862
1008.929	-1559
1009.003	-615
1009.076	-1553
1009.150	-328
1009.224	-1090
1009.298	-823
1009.371	-1453
1009.445	-483
1009.519	-838
1009.592	-1913
1009.666	-1415
1009.739	-1348
1009.813	-1321
1009.886	107
1009.960	-1863
1010.033	-762
1010.107	-758
1010.180	-2018
1010.253	-1167
1010.327	-2212
1010.400	-1455
1010.473	-1325
1010.547	-103
1010.620	-1717
1010.693	-824
1010.766	-1554
1010.840	-562
1010.913	-719
1010.986	-1576
1011.059	-1178
1011.132	-1514
1011.205	-913
1011.278	-1535
1011.351	-2351
1011.424	-1773
1011.497	-1283
1011.570	-966
1011.643	-1434
1011.716	-1086
1011.789	-1504
1011.862	-950
1011.934	-753
1012.007	-2384
1012.080	-1261
1012.153	-1926
1012.225	-1349
1012.298	-1030
1012.371	-1454
1012.443	-818
1012.516	-1368
1012.588	-921
1012.661	-1303
1012.733	-2114
1012.806	-406
1012.879	-1492
1012.951	-1844
1013.023	-2297
1013.096	-1737
1013.168	-1702
1013.241	-484
1013.313	-1578
1013.385	-1411
1013.458	-1719
1013.530	-1060
1013.602	-1781
1013.674	-1322
1013.746	-1572
1013.819	-948
1013.891	-720
1013.963	-1819
1014.035	-1574
1014.107	-631
1014.179	-788
1014.251	-1424
1014.323	-1281
1014.395	-1304
1014.467	-908
1014.539	-1381
1014.611	-1518
1014.683	-690
1014.754	-1401
1014.826	-1850
1014.898	-1474
1014.970	-1988
1015.042	-222
1015.113	-2073
1015.185	-1401
1015.257	-2426
1015.328	-1303
1015.400	-1768
1015.471	-927
1015.543	-1644
1015.615	-1501
1015.686	-1722
1015.757	-2316
1015.829	-587
1015.901	-2323
1015.972	-1393
1016.043	-1711
1016.115	-1069
1016.186	-1027
1016.257	-2001
1016.328	-513
1016.400	-1223
1016.471	-2303
1016.542	-644
1016.613	-1085
1016.685	-1556
1016.756	-1650
1016.827	-1341
1016.898	-1859
1016.969	-802
1017.040	-1250
1017.111	-1772
1017.182	-1526
1017.253	-864
1017.324	-981
1017.395	-1303
1017.466	-1276
1017.537	-2166
1017.608	-1697
1017.678	-1321
1017.749	-1187
1017.820	-1259
1017.891	-1153
1017.961	-2283
1018.032	-1363
1018.103	-1326
1018.173	-1819
1018.244	-942
1018.315	-917
1018.385	-1071
1018.456	-1700
1018.526	-1937
1018.597	-1530
1018.667	-1452
1018.738	-2339
1018.808	-1453
1018.878	-1916
1018.949	-1898
1019.019	-2085
1019.089	-2062
1019.160	-909
1019.230	-2272
1019.300	-892
1019.371	-2171
1019.441	-633
1019.511	-1785
1019.581	-545
1019.651	-1348
1019.721	-1345
1019.791	-1992
1019.861	-828
1019.931	-1059
1020.001	-1513
1020.071	-839
1020.141	-1702
1020.211	-1819
1020.281	-1739
1020.351	-1316
1020.421	-991
1020.491	-330
1020.560	-1471
1020.630	-1173
1020.700	-1436
1020.770	-1036
1020.839	-1503
1020.909	-901
1020.979	-2260
1021.048	-1056
1021.118	-1765
1021.187	-1890
1021.257	-1083
1021.326	-1948
1021.396	-1383
1021.465	-1191
1021.535	-1236
1021.604	-1464
1021.674	-1350
1021.743	-1621
1021.812	-1533
1021.882	-1641
1021.951	-1099
1022.020	-1306
1022.089	-996
1022.159	-1351
1022.228	-1279
1022.297	-1804
1022.366	-1391
1022.435	-1150
1022.504	-1985
1022.573	-1734
1022.642	-439
1022.711	-989
1022.781	-2500
1022.849	-1848
1022.918	-1328
1022.987	-1473
1023.056	-1653
1023.125	-1336
1023.194	-1046
1023.263	-1450
1023.331	-1114
1023.400	-1494
1023.469	-2419
1023.538	-1396
1023.606	-1892
1023.675	-1695
1023.744	-1468
1023.812	-1559
1023.881	-2335
1023.949	-1382
1024.018	-1734
1024.086	-1430
1024.155	-1718
1024.223	-2139
1024.292	-1823
1024.360	-230
1024.429	-1608
1024.497	-1724
1024.565	-590
1024.634	-1617
1024.702	-1394
1024.770	-1246
1024.838	-1653
1024.907	-941
1024.975	-2334
1025.043	-1747
1025.111	-1761
1025.179	-1507
1025.247	-841
1025.315	-1356
1025.383	-595
1025.451	-1115
1025.519	-1928
1025.587	-1670
1025.655	-1133
1025.723	-1516
1025.791	-1400
1025.859	-905
1025.927	-1824
1025.995	-1734
1026.062	-951
1026.130	-1156
1026.198	-1247
1026.266	-2403
1026.333	-1025
1026.401	-1784
1026.469	-2649
1026.536	-2285
1026.604	-1849
1026.671	-2424
1026.739	-1283
1026.806	-1730
1026.874	-1455
1026.941	-1603
1027.009	-1829
1027.076	-1630
1027.144	-1169
1027.211	-2333
1027.278	-2179
1027.345	-1101
1027.413	-1037
1027.480	-1569
1027.547	-1775
1027.614	-1437
1027.682	-1346
1027.749	-1483
1027.816	-1708
1027.883	-1506
1027.950	-1647
1028.017	-1927
1028.084	-1074
1028.151	-2152
1028.218	-655
1028.285	-1588
1028.352	-1718
1028.419	-763
1028.486	-1996
1028.553	-1358
1028.619	-1911
1028.686	-1237
1028.753	-2080
1028.820	-1073
1028.886	-861
1028.953	-1649
1029.020	-1557
1029.086	-1815
1029.153	-1702
1029.220	-1673
1029.286	-1888
1029.353	-1627
1029.419	-1267
1029.486	-1114
1029.552	-2107
1029.619	-2414
1029.685	-2031
1029.751	-1807
1029.818	-499
1029.884	-1097
1029.951	-1167
1030.017	-1885
1030.083	-1863
1030.149	-1958
1030.216	-2681
1030.282	-1773
1030.348	-2447
1030.414	-1202
1030.480	-1147
1030.546	-2641
1030.612	-1008
1030.678	-1775
1030.744	-1842
1030.810	-1194
1030.876	-2203
1030.942	-2513
1031.008	-1611
1031.074	-2090
1031.140	-1116
1031.206	-1439
1031.272	-1570
1031.337	-973
1031.403	-1279
1031.469	-1825
1031.534	-1941
1031.600	-1090
1031.666	-2261
1031.731	-2645
1031.797	-1262
1031.863	-1810
1031.928	-2239
1031.994	-2065
1032.059	-1251
1032.125	-1553
1032.190	-1518
1032.256	-2083
1032.321	-2051
1032.386	-2138
1032.452	-610
1032.517	-2676
1032.582	-998
1032.647	-2249
1032.713	-1903
1032.778	-1624
1032.843	-2085
1032.908	-2004
1032.974	-1317
1033.039	-1008
1033.104	-1845
1033.169	-2013
1033.234	-2049
1033.299	-966
1033.364	-1827
1033.429	-1274
1033.494	-1378
1033.559	-1353
1033.624	-1452
1033.688	-2091
1033.753	-2057
1033.818	-2279
1033.883	-2618
1033.948	-2826
1034.013	-2111
1034.077	-2206
1034.142	-1346
1034.207	-1453
1034.271	-1695
1034.336	-1398
1034.400	-1744
1034.465	-1548
1034.530	-2490
1034.594	-2209
1034.658	-1836
1034.723	-2340
1034.787	-2339
1034.852	-1814
1034.916	-2007
1034.981	-2345
1035.045	-1975
1035.109	-1984
1035.173	-1255
1035.238	-2212
1035.302	-1064
1035.366	-1768
1035.430	-1517
1035.495	-2295
1035.559	-1753
1035.623	-1189
1035.687	-2096
1035.751	-1681
1035.815	-1916
1035.879	-1368
1035.943	-2451
1036.007	-2676
1036.071	-1465
1036.135	-2151
1036.198	-1881
1036.262	-2303
1036.326	-2076
1036.390	-2079
1036.454	-2540
1036.517	-1882
1036.581	-2195
1036.645	-886
1036.709	-1727
1036.772	-2408
1036.836	-1610
1036.900	-1866
1036.963	-1618
1037.026	-1901
1037.090	-1786
1037.154	-1721
1037.217	-2114
1037.280	-2035
1037.344	-2381
1037.407	-2487
1037.471	-1298
1037.534	-1537
1037.597	-1672
1037.661	-2063
1037.724	-2082
1037.787	-1907
1037.850	-1628
1037.913	-3123
1037.977	-2015
1038.040	-1597
1038.103	-1764
1038.166	-1740
1038.229	-2069
1038.292	-2348
1038.355	-1977
1038.418	-1184
1038.481	-1813
1038.544	-1816
1038.607	-1160
1038.670	-2034
1038.732	-1951
1038.795	-2104
1038.858	-1894
1038.921	-1567
1038.984	-2146
1039.046	-1736
1039.109	-2502
1039.172	-2144
1039.234	-3124
1039.297	-1854
1039.360	-1539
1039.422	-2050
1039.485	-1810
1039.547	-2404
1039.610	-1903
1039.672	-1723
1039.734	-1674
1039.797	-2490
1039.859	-2184
1039.922	-2238
1039.984	-1675
1040.046	-1630
1040.109	-2004
1040.171	-2217
1040.233	-1717
1040.295	-2283
1040.358	-2045
1040.420	-1665
1040.482	-1620
1040.544	-2037
1040.606	-1307
1040.668	-1589
1040.730	-1948
1040.792	-2317
1040.854	-2069
1040.916	-2750
1040.978	-1684
1041.040	-1408
1041.102	-1219
1041.164	-2204
1041.225	-1610
1041.287	-2927
1041.349	-1882
1041.411	-1899
1041.472	-2125
1041.534	-2031
1041.596	-1854
1041.657	-1564
1041.719	-1169
1041.781	-1941
1041.842	-2750
1041.904	-1797
1041.965	-2555
1042.027	-1216
1042.088	-1590
1042.150	-2299
1042.211	-2271
1042.272	-1405
1042.334	-2240
1042.395	-1750
1042.456	-2066
1042.518	-1601
1042.579	-1327
1042.640	-1807
1042.701	-1387
1042.763	-1840
1042.824	-1883
1042.885	-2080
1042.946	-2252
1043.007	-1354
1043.068	-3691
1043.129	-1410
1043.190	-2613
1043.251	-2041
1043.312	-2451
1043.373	-1527
1043.434	-1656
1043.495	-1529
1043.556	-1936
1043.616	-2432
1043.677	-1766
1043.738	-2094
1043.799	-2246
1043.859	-1450
1043.920	-1832
1043.981	-2276
1044.041	-1271
1044.102	-2118
1044.162	-2433
1044.223	-1928
1044.284	-2525
1044.344	-2176
1044.405	-1720
1044.465	-1845
1044.525	-1774
1044.586	-2155
1044.646	-2096
1044.707	-2645
1044.767	-1956
1044.827	-1889
1044.887	-978
1044.948	-723
1045.008	-1808
1045.068	-1607
1045.128	-1103
1045.188	-2397
1045.249	-1679
1045.309	-1975
1045.369	-1888
1045.429	-1913
1045.489	-1694
1045.549	-1356
1045.609	-2110
1045.669	-1572
1045.729	-1623
1045.789	-1343
1045.848	-1551
1045.908	-1836
1045.968	-1184
1046.028	-626
1046.088	-1124
1046.147	-690
1046.207	-1806
1046.267	-832
1046.326	-1454
1046.386	-1508
1046.446	-1575
1046.505	-1070
1046.565	-799
1046.624	-483
1046.684	-522
1046.743	-1341
1046.803	-1206
1046.862	-61
1046.922	0
