'Start Wavelength	183.907
'End Wavelength	1046.922
'Gate Delay	5.000
'Gate Width (ms)	1.050
'Laser Output Level	0.000
'X Position	0.000
'Y Position	0.000
'Z Position	0.000
'Grid Point Number	1.000
'Shot Number	100.000
183.907	-50.000
183.977	-17.000
184.047	-525
184.116	474
184.186	-548
184.256	-122
184.325	-146
184.395	-685
184.465	498
184.534	-354
184.604	-537
184.674	563
184.743	-513
184.813	-16
184.883	-588
184.952	-1038
185.022	209
185.092	17
185.161	5
185.231	-406
185.301	-1063
185.370	881
185.440	-251
185.509	-742
185.579	-281
185.649	-10
185.718	-89
185.788	-333
185.857	-752
185.927	-47
185.996	-410
186.066	-414
186.136	-682
186.205	-525
186.275	-673
186.344	355
186.414	385
186.483	-379
186.553	439
186.622	303
186.692	-19
186.761	-555
186.831	182
186.900	-114
186.970	481
187.039	263
187.109	374
187.178	117
187.248	475
187.317	534
187.387	-308
187.456	146
187.526	-367
187.595	-270
187.664	449
187.734	-313
187.803	-361
187.873	-399
187.942	592
188.012	-390
188.081	-488
188.150	-1126
188.220	-850
188.289	-612
188.358	-757
188.428	-53
188.497	-684
188.567	-219
188.636	-312
188.705	276
188.775	318
188.844	-222
188.913	585
188.983	-401
189.052	-183
189.121	-504
189.191	-605
189.260	304
189.329	-441
189.399	-82
189.468	-675
189.537	125
189.606	-103
189.676	-164
189.745	92
189.814	20
189.883	59
189.953	-395
190.022	-742
190.091	-280
190.161	475
190.230	-6
190.299	-411
190.368	184
190.437	-567
190.507	-227
190.576	-293
190.645	-381
190.714	-412
190.783	-681
190.853	373
190.922	-279
190.991	151
191.060	234
191.129	-1147
191.198	45
191.268	-657
191.337	-703
191.406	469
191.475	-73
191.544	-732
191.613	-149
191.682	-812
191.752	-244
191.821	-27
191.890	-815
191.959	-471
192.028	-382
192.097	-39
192.166	-674
192.235	-753
192.304	244
192.373	-318
192.442	-369
192.511	-178
192.580	-813
192.650	-832
192.719	362
192.788	369
192.857	282
192.926	-430
192.995	-650
193.064	-669
193.133	-98
193.202	47
193.271	10
193.340	74
193.409	-657
193.478	-285
193.547	-391
193.615	-756
193.684	159
193.753	163
193.822	-387
193.891	-388
193.960	36
194.029	-420
194.098	109
194.167	-197
194.236	-434
194.305	-158
194.374	78
194.443	-506
194.512	481
194.580	655
194.649	286
194.718	85
194.787	263
194.856	-72
194.925	-266
194.994	-63
195.062	121
195.131	-207
195.200	-646
195.269	-642
195.338	17
195.407	321
195.475	-15
195.544	-167
195.613	-401
195.682	339
195.751	-324
195.819	-681
195.888	-355
195.957	800
196.026	-409
196.094	341
196.163	-202
196.232	-754
196.301	-300
196.369	-42
196.438	-319
196.507	-534
196.576	-63
196.644	-645
196.713	-469
196.782	261
196.850	-16
196.919	97
196.988	-333
197.056	-708
197.125	-566
197.194	196
197.262	-647
197.331	-560
197.400	-108
197.468	-260
197.537	-462
197.606	-490
197.674	-352
197.743	493
197.812	761
197.880	-342
197.949	-51
198.017	8
198.086	223
198.155	-504
198.223	87
198.292	384
198.360	-295
198.429	-744
198.497	500
198.566	-354
198.635	-21
198.703	861
198.772	-119
198.840	86
198.909	-214
198.977	-321
199.046	-302
199.114	792
199.183	-1018
199.251	169
199.320	-545
199.388	-442
199.457	-78
199.525	-451
199.594	-461
199.662	-83
199.731	445
199.799	259
199.867	-571
199.936	-1201
200.004	396
200.073	-151
200.141	-15
200.210	-919
200.278	-561
200.346	-449
200.415	-21
200.483	246
200.552	-816
200.620	138
200.688	-1279
200.757	63
200.825	-409
200.893	-786
200.962	577
201.030	-420
201.098	-333
201.167	-401
201.235	-288
201.303	-64
201.372	-344
201.440	-658
201.508	-361
201.577	224
201.645	8
201.713	-1059
201.781	-508
201.850	-478
201.918	-298
201.986	-645
202.055	759
202.123	-491
202.191	-273
202.259	-941
202.327	-641
202.396	-331
202.464	-592
202.532	-735
202.600	375
202.669	6
202.737	-484
202.805	-525
202.873	-357
202.941	180
203.009	-23
203.078	-84
203.146	-992
203.214	-112
203.282	-1454
203.350	-552
203.418	-909
203.487	-575
203.555	-269
203.623	-103
203.691	-406
203.759	560
203.827	-232
203.895	-594
203.963	-103
204.031	-1024
204.099	-228
204.168	-572
204.236	-425
204.304	-160
204.372	-17
204.440	62
204.508	-398
204.576	-387
204.644	-480
204.712	435
204.780	-902
204.848	-334
204.916	-831
204.984	467
205.052	367
205.120	-682
205.188	-37
205.256	-845
205.324	13
205.392	-1086
205.460	-153
205.528	-990
205.596	-408
205.664	131
205.732	-925
205.799	252
205.867	289
205.935	-977
206.003	338
206.071	-348
206.139	-168
206.207	-625
206.275	-687
206.343	-596
206.411	-350
206.478	385
206.546	257
206.614	77
206.682	-502
206.750	-366
206.818	-119
206.885	-397
206.953	-1166
207.021	-13
207.089	948
207.157	-420
207.225	-1029
207.292	0
207.360	-56
207.428	-1094
207.496	-522
207.563	-685
207.631	-361
207.699	-467
207.767	-423
207.834	-694
207.902	-587
207.970	-406
208.038	-609
208.105	-999
208.173	-1095
208.241	-399
208.309	-278
208.376	-427
208.444	-80
208.512	-58
208.579	-1299
208.647	-564
208.715	-96
208.782	-438
208.850	-264
208.918	-543
208.985	68
209.053	-231
209.120	-97
209.188	-905
209.256	-756
209.323	-873
209.391	-130
209.459	635
209.526	-711
209.594	-712
209.661	-95
209.729	-680
209.796	-459
209.864	-880
209.932	-1683
209.999	726
210.067	-496
210.134	-746
210.202	-636
210.269	31
210.337	-116
210.404	-233
210.472	52
210.539	-719
210.607	-422
210.674	-587
210.742	137
210.809	-554
210.877	-623
210.944	-181
211.012	-1526
211.079	1210
211.146	-162
211.214	-247
211.281	-269
211.349	-461
211.416	-161
211.484	-283
211.551	-1000
211.618	45
211.686	-716
211.753	-969
211.821	424
211.888	83
211.955	-457
212.023	-199
212.090	-503
212.157	-717
212.225	-390
212.292	258
212.359	290
212.427	1960
212.494	1210
212.561	-857
212.629	-671
212.696	-331
212.763	-371
212.831	-561
212.898	-132
212.965	46
213.032	311
213.100	-38
213.167	-351
213.234	457
213.301	897
213.369	-547
213.436	52
213.503	-475
213.570	726
213.638	-466
213.705	-467
213.772	-1171
213.839	-405
213.906	104
213.973	-90
214.041	-781
214.108	285
214.175	-397
214.242	-1512
214.309	-964
214.376	-1125
214.444	-173
214.511	-710
214.578	-346
214.645	-43
214.712	-244
214.779	-291
214.846	-996
214.913	187
214.980	204
215.048	-75
215.115	-154
215.182	638
215.249	-777
215.316	-471
215.383	719
215.450	271
215.517	6
215.584	-1
215.651	-977
215.718	-419
215.785	-461
215.852	-88
215.919	1117
215.986	-584
216.053	-115
216.120	-492
216.187	-784
216.254	207
216.321	-435
216.388	-261
216.455	-269
216.522	201
216.589	-711
216.656	896
216.722	332
216.789	89
216.856	81
216.923	256
216.990	463
217.057	-490
217.124	-40
217.191	-703
217.258	-182
217.324	559
217.391	850
217.458	635
217.525	-969
217.592	-103
217.659	-566
217.725	160
217.792	177
217.859	599
217.926	-442
217.993	-910
218.059	700
218.126	-41
218.193	-421
218.260	-1074
218.327	-461
218.393	-216
218.460	-650
218.527	-479
218.594	-1062
218.660	-106
218.727	782
218.794	-1061
218.860	-445
218.927	-865
218.994	-656
219.061	-279
219.127	-1009
219.194	-57
219.261	-520
219.327	-687
219.394	496
219.461	-835
219.527	-517
219.594	-553
219.661	-433
219.727	-1102
219.794	312
219.860	-949
219.927	-414
219.994	-20
220.060	388
220.127	392
220.193	9
220.260	-89
220.326	27
220.393	673
220.460	1551
220.526	914
220.593	-544
220.659	889
220.726	149
220.792	690
220.859	913
220.925	1707
220.992	2854
221.058	2209
221.125	1942
221.191	1193
221.258	-465
221.324	390
221.391	120
221.457	-486
221.524	-213
221.590	364
221.657	1019
221.723	87
221.789	1223
221.856	896
221.922	-588
221.989	225
222.055	-353
222.121	-1946
222.188	1411
222.254	-318
222.321	-804
222.387	-714
222.453	-564
222.520	-448
222.586	-671
222.652	155
222.719	-726
222.785	-366
222.851	-521
222.918	149
222.984	-991
223.050	-1092
223.116	-1229
223.183	-66
223.249	-1057
223.315	-563
223.382	-779
223.448	-672
223.514	-315
223.580	-144
223.647	-848
223.713	-1279
223.779	-454
223.845	-623
223.911	-286
223.978	-960
224.044	-433
224.110	-613
224.176	-366
224.242	-489
224.309	-1204
224.375	89
224.441	-647
224.507	-1111
224.573	-926
224.639	-945
224.705	-585
224.772	-406
224.838	-967
224.904	-273
224.970	-176
225.036	-447
225.102	-1060
225.168	60
225.234	-262
225.300	-333
225.366	-665
225.432	-612
225.499	-108
225.565	-39
225.631	-480
225.697	-302
225.763	399
225.829	-489
225.895	144
225.961	-285
226.027	-457
226.093	-370
226.159	920
226.225	768
226.291	1824
226.357	4412
226.423	1130
226.489	100
226.554	245
226.620	130
226.686	-773
226.752	-99
226.818	799
226.884	5162
226.950	4883
227.016	876
227.082	556
227.148	486
227.214	404
227.279	135
227.345	-250
227.411	-356
227.477	-236
227.543	974
227.609	65
227.674	-83
227.740	-714
227.806	-226
227.872	-720
227.938	-216
228.003	119
228.069	-672
228.135	-423
228.201	-782
228.267	-531
228.332	-345
228.398	-2044
228.464	103
228.530	-670
228.595	-251
228.661	-1152
228.727	-787
228.792	242
228.858	-1412
228.924	-1431
228.990	660
229.055	-161
229.121	327
229.187	-932
229.252	-445
229.318	-555
229.384	-56
229.449	-599
229.515	-2158
229.581	-1195
229.646	1057
229.712	-583
229.777	-100
229.843	-766
229.909	630
229.974	-77
230.040	-323
230.105	-229
230.171	-445
230.236	563
230.302	-194
230.368	76
230.433	-1432
230.499	-9
230.564	352
230.630	-518
230.695	-50
230.761	-342
230.826	-2084
230.892	252
230.957	-561
231.023	-269
231.088	-202
231.154	-123
231.219	-547
231.284	-489
231.350	427
231.415	-1199
231.481	-95
231.546	-323
231.612	-430
231.677	-630
231.742	-1769
231.808	381
231.873	-1155
231.939	-2493
232.004	356
232.069	126
232.135	-729
232.200	-1000
232.265	502
232.331	-478
232.396	-491
232.461	-665
232.527	-1314
232.592	-826
232.657	-546
232.723	-1161
232.788	-668
232.853	-322
232.918	-452
232.984	-1244
233.049	-945
233.114	-1379
233.179	-1198
233.245	279
233.310	413
233.375	-716
233.440	-371
233.506	-305
233.571	-596
233.636	-642
233.701	-174
233.766	-449
233.832	31
233.897	-1337
233.962	-2216
234.027	361
234.092	-485
234.157	-157
234.222	-1228
234.288	-488
234.353	539
234.418	912
234.483	-259
234.548	-803
234.613	-120
234.678	150
234.743	-1396
234.808	522
234.873	-716
234.938	494
235.004	-1326
235.069	-423
235.134	-247
235.199	-457
235.264	-183
235.329	-1351
235.394	507
235.459	66
235.524	-1310
235.589	-365
235.654	-837
235.719	-1499
235.784	-348
235.849	-404
235.913	-35
235.978	-766
236.043	-220
236.108	-569
236.173	-441
236.238	-194
236.303	-786
236.368	-876
236.433	56
236.498	-191
236.563	-237
236.627	111
236.692	6238
236.757	5572
236.822	814
236.887	153
236.952	389
237.017	-1208
237.081	669
237.146	-523
237.211	2451
237.276	6615
237.341	10824
237.405	3328
237.470	1390
237.535	50
237.600	-153
237.664	-422
237.729	-811
237.794	-1601
237.859	1158
237.923	807
237.988	285
238.053	415
238.118	-349
238.182	725
238.247	1879
238.312	-1125
238.376	-159
238.441	-1860
238.506	-212
238.570	-1556
238.635	185
238.700	-666
238.764	-1129
238.829	443
238.893	-473
238.958	8
239.023	-643
239.087	-216
239.152	-267
239.216	-1712
239.281	-474
239.346	-478
239.410	-1032
239.475	-685
239.539	1536
239.604	-1204
239.668	228
239.733	-354
239.797	-50
239.862	1021
239.926	615
239.991	-499
240.055	505
240.120	-178
240.184	-541
240.249	-1386
240.313	-773
240.378	-1129
240.442	-470
240.507	847
240.571	45
240.635	-333
240.700	446
240.764	-415
240.829	-530
240.893	-1735
240.957	636
241.022	818
241.086	1189
241.151	-938
241.215	-1622
241.279	-9
241.344	-1427
241.408	-57
241.472	-1214
241.537	799
241.601	762
241.665	-1543
241.730	-1465
241.794	248
241.858	-1140
241.922	-714
241.987	-706
242.051	-527
242.115	-1267
242.179	-780
242.244	-663
242.308	-279
242.372	-257
242.436	-918
242.501	-824
242.565	-712
242.629	-1218
242.693	364
242.757	-1817
242.822	-849
242.886	-1145
242.950	-208
243.014	-1031
243.078	-395
243.142	-342
243.206	-1292
243.271	77
243.335	-1131
243.399	454
243.463	915
243.527	7701
243.591	1092
243.655	54
243.719	-1428
243.783	369
243.847	569
243.911	331
243.975	-323
244.040	-442
244.104	1588
244.168	-505
244.232	-767
244.296	-633
244.360	-135
244.424	-698
244.488	-228
244.552	-366
244.615	-1329
244.679	-342
244.743	-831
244.807	-878
244.871	-170
244.935	-68
244.999	-1596
245.063	-893
245.127	-527
245.191	565
245.255	-501
245.319	-487
245.383	-1612
245.446	897
245.510	-1585
245.574	-510
245.638	-563
245.702	-1799
245.766	284
245.829	481
245.893	-947
245.957	-983
246.021	-513
246.085	-1058
246.149	-597
246.212	1755
246.276	1262
246.340	-585
246.404	-160
246.467	5
246.531	-1683
246.595	305
246.659	88
246.722	-1268
246.786	-557
246.850	-856
246.913	462
246.977	-1670
247.041	-8
247.104	-1264
247.168	-828
247.232	746
247.295	2358
247.359	1395
247.423	-728
247.486	649
247.550	214
247.614	-844
247.677	-768
247.741	250
247.804	-1393
247.868	-835
247.932	-342
247.995	3319
248.059	-789
248.122	-1571
248.186	948
248.249	228
248.313	4620
248.376	4721
248.440	1708
248.503	-368
248.567	1594
248.630	436
248.694	72
248.757	2093
248.821	5732
248.884	3173
248.948	1773
249.011	4060
249.075	6419
249.138	5350
249.202	745
249.265	145
249.328	914
249.392	-378
249.455	86
249.519	-539
249.582	-747
249.645	401
249.709	313
249.772	-157
249.835	-106
249.899	-868
249.962	-75
250.025	-24
250.089	1224
250.152	2873
250.215	68
250.279	133
250.342	512
250.405	582
250.468	-410
250.532	285
250.595	829
250.658	5474
250.721	12344
250.785	4129
250.848	2039
250.911	99
250.974	893
251.038	373
251.101	3410
251.164	614
251.227	821
251.290	321
251.354	1678
251.417	9182
251.480	9606
251.543	5614
251.606	19806
251.669	14089
251.732	5047
251.795	4182
251.859	4949
251.922	12163
251.985	6359
252.048	2044
252.111	1355
252.174	124
252.237	2925
252.300	6929
252.363	5878
252.426	16300
252.489	5007
252.552	1403
252.615	604
252.678	1615
252.741	4816
252.804	5301
252.867	15891
252.930	8302
252.993	3262
253.056	2319
253.119	1025
253.182	508
253.245	382
253.308	1664
253.371	-321
253.434	481
253.497	772
253.559	3143
253.622	725
253.685	1022
253.748	1328
253.811	-335
253.874	696
253.937	-709
254.000	264
254.062	302
254.125	3091
254.188	1657
254.251	528
254.314	134
254.376	431
254.439	1378
254.502	1189
254.565	526
254.628	3557
254.690	185
254.753	-645
254.816	-299
254.878	-168
254.941	1342
255.004	1446
255.067	-368
255.129	-629
255.192	392
255.255	-1262
255.317	-353
255.380	-905
255.443	-1176
255.505	-1398
255.568	-1523
255.631	-676
255.693	-601
255.756	-1098
255.819	94
255.881	-797
255.944	-1007
256.006	-905
256.069	-762
256.132	-1021
256.194	-874
256.257	-201
256.319	9
256.382	-847
256.444	-406
256.507	-343
256.569	-990
256.632	-1192
256.694	-1082
256.757	2291
256.819	11162
256.882	2599
256.944	426
257.007	336
257.069	-73
257.132	-837
257.194	14
257.257	-876
257.319	-1277
257.381	-1513
257.444	2427
257.506	11042
257.569	12429
257.631	3821
257.693	2042
257.756	469
257.818	-353
257.880	-144
257.943	-97
258.005	-1818
258.067	-335
258.130	-447
258.192	-802
258.254	-939
258.317	-1035
258.379	-286
258.441	184
258.503	1335
258.566	266
258.628	787
258.690	-578
258.753	-289
258.815	-59
258.877	-985
258.939	-1032
259.001	8
259.064	-1142
259.126	-816
259.188	-702
259.250	-372
259.312	-1222
259.375	805
259.437	-849
259.499	-362
259.561	-936
259.623	-390
259.685	-1078
259.747	174
259.809	813
259.872	1582
259.934	4066
259.996	3985
260.058	489
260.120	-1821
260.182	-806
260.244	-1073
260.306	-1033
260.368	-505
260.430	-1237
260.492	-320
260.554	628
260.616	-274
260.678	568
260.740	1811
260.802	-471
260.864	-912
260.926	-2173
260.988	-101
261.050	-1324
261.112	-594
261.174	2735
261.236	1328
261.298	-100
261.359	-126
261.421	1249
261.483	-1903
261.545	119
261.607	-1464
261.669	-768
261.731	-835
261.793	868
261.854	-1545
261.916	-487
261.978	-751
262.040	-784
262.102	-919
262.164	-1531
262.225	88
262.287	-1640
262.349	-104
262.411	-448
262.472	-415
262.534	-1754
262.596	938
262.658	-422
262.719	-1279
262.781	551
262.843	-549
262.904	241
262.966	-623
263.028	-1099
263.090	3048
263.151	10308
263.213	2713
263.275	64
263.336	-401
263.398	263
263.459	-2414
263.521	-842
263.583	-236
263.644	-193
263.706	-689
263.767	-1956
263.829	-1071
263.891	-1086
263.952	-1888
264.014	-1923
264.075	-1503
264.137	-549
264.198	-509
264.260	-1698
264.321	-1380
264.383	-734
264.444	1077
264.506	-975
264.567	-808
264.629	-626
264.690	-957
264.752	-624
264.813	-768
264.875	-1671
264.936	-739
264.998	-1307
265.059	-1187
265.120	-1128
265.182	-848
265.243	4857
265.305	4710
265.366	-298
265.427	-1029
265.489	-289
265.550	-2032
265.611	-637
265.673	-969
265.734	-905
265.795	-1147
265.857	-1569
265.918	-1766
265.979	421
266.040	8374
266.102	7512
266.163	1082
266.224	-622
266.286	-871
266.347	-1733
266.408	-1428
266.469	-887
266.530	-805
266.592	-1068
266.653	-528
266.714	-212
266.775	-1688
266.836	-1157
266.898	-1176
266.959	-1070
267.020	-1480
267.081	93
267.142	-1012
267.203	-1574
267.264	-2285
267.326	-1228
267.387	-1309
267.448	-1850
267.509	-657
267.570	-1260
267.631	-1355
267.692	-1977
267.753	-1466
267.814	-1946
267.875	-1050
267.936	680
267.997	-741
268.058	-635
268.119	-970
268.180	-1975
268.241	-1480
268.302	-828
268.363	-1473
268.424	-1433
268.485	-966
268.546	-1806
268.607	-1424
268.668	-2356
268.729	-2389
268.790	-1433
268.851	-767
268.912	-663
268.972	425
269.033	-618
269.094	-1246
269.155	-483
269.216	-1215
269.277	-1098
269.338	-1005
269.398	-829
269.459	-710
269.520	-1060
269.581	-1643
269.642	-426
269.702	-950
269.763	-1109
269.824	-1622
269.885	-905
269.945	-515
270.006	-1236
270.067	-1549
270.128	-1765
270.188	-1407
270.249	-1952
270.310	-1950
270.370	-759
270.431	-1273
270.492	-1328
270.553	-1383
270.613	-830
270.674	890
270.734	-1246
270.795	-1330
270.856	-1035
270.916	-1024
270.977	-222
271.038	-544
271.098	-2028
271.159	-592
271.219	-845
271.280	-440
271.340	-828
271.401	-1618
271.462	-442
271.522	-1049
271.583	-1453
271.643	-967
271.704	-1286
271.764	-953
271.825	-10
271.885	3474
271.946	6585
272.006	962
272.066	1747
272.127	5548
272.187	901
272.248	-378
272.308	-914
272.369	4061
272.429	1692
272.489	-318
272.550	-199
272.610	-602
272.671	-402
272.731	-841
272.791	-712
272.852	-1689
272.912	-403
272.972	-1541
273.033	-1077
273.093	-1544
273.153	-273
273.214	-984
273.274	-910
273.334	1044
273.394	4965
273.455	1475
273.515	733
273.575	2953
273.635	1232
273.696	616
273.756	4566
273.816	390
273.876	-852
273.936	-194
273.997	1356
274.057	-956
274.117	-1468
274.177	-823
274.237	5076
274.297	4413
274.358	1440
274.418	2527
274.478	2136
274.538	-441
274.598	-1118
274.658	797
274.718	1583
274.778	-753
274.838	-851
274.898	-374
274.958	2307
275.018	4489
275.078	2261
275.138	366
275.198	-1094
275.258	-1502
275.318	-518
275.378	-520
275.438	-496
275.498	-971
275.558	-32
275.618	3597
275.678	2583
275.738	589
275.798	-269
275.858	-759
275.918	-1017
275.978	-613
276.038	-900
276.098	-1455
276.157	-1414
276.217	659
276.277	-450
276.337	-1282
276.397	-647
276.457	-1321
276.517	-1457
276.576	-825
276.636	-1594
276.696	-1690
276.756	400
276.815	-81
276.875	-1198
276.935	-981
276.995	-1302
277.055	-1479
277.114	-1222
277.174	-428
277.234	1786
277.293	-904
277.353	-997
277.413	-1184
277.472	-973
277.532	-1135
277.592	-773
277.651	-352
277.711	1728
277.771	-867
277.830	3087
277.890	1902
277.950	1013
278.009	7745
278.069	1987
278.128	1227
278.188	1342
278.248	343
278.307	1377
278.367	1177
278.426	-1261
278.486	-214
278.545	-1359
278.605	-1296
278.664	-1169
278.724	-1406
278.783	549
278.843	5750
278.902	761
278.962	-641
279.021	-969
279.081	-260
279.140	-1211
279.199	-1030
279.259	-504
279.318	-972
279.378	-127
279.437	802
279.496	8313
279.556	22032
279.615	17944
279.675	2899
279.734	740
279.793	1981
279.853	6626
279.912	1333
279.971	449
280.031	-719
280.090	1703
280.149	4929
280.208	2135
280.268	12602
280.327	16251
280.386	2319
280.445	1706
280.505	723
280.564	-40
280.623	-1329
280.682	-555
280.742	164
280.801	-1045
280.860	-925
280.919	-1280
280.978	-1564
281.037	-1350
281.097	-1207
281.156	-843
281.215	-731
281.274	-1568
281.333	2699
281.392	1746
281.451	-584
281.510	-520
281.569	-1463
281.628	-888
281.688	-1216
281.747	-254
281.806	-1018
281.865	-1619
281.924	-1703
281.983	-1424
282.042	-1686
282.101	-1756
282.160	-1462
282.219	-882
282.278	-1151
282.337	-137
282.396	-199
282.454	-1233
282.513	-1237
282.572	133
282.631	304
282.690	-1385
282.749	-1910
282.808	-565
282.867	-1527
282.926	-912
282.985	-1856
283.043	-1529
283.102	-1452
283.161	-1423
283.220	-643
283.279	2112
283.338	-375
283.396	-1487
283.455	-892
283.514	-1670
283.573	-981
283.631	-1445
283.690	-1543
283.749	-692
283.808	-566
283.866	-940
283.925	-1809
283.984	-234
284.043	-1013
284.101	-917
284.160	-1482
284.219	-546
284.277	-1363
284.336	-440
284.395	2274
284.453	2443
284.512	-784
284.570	-620
284.629	-182
284.688	-1004
284.746	-1264
284.805	-603
284.863	-666
284.922	327
284.981	-575
285.039	119
285.098	2151
285.156	10783
285.215	38211
285.273	39834
285.332	12881
285.390	5518
285.449	3100
285.507	1869
285.566	242
285.624	606
285.683	-812
285.741	-774
285.799	-1270
285.858	-818
285.916	-687
285.975	-1458
286.033	-656
286.091	-1203
286.150	-1158
286.208	-1029
286.267	-694
286.325	-803
286.383	-710
286.442	-1238
286.500	-2002
286.558	-1195
286.616	-1538
286.675	-1001
286.733	-1020
286.791	-1574
286.850	-1114
286.908	-1184
286.966	-365
287.024	-1114
287.083	-1426
287.141	-1178
287.199	-1507
287.257	-970
287.315	-1002
287.374	-1706
287.432	-1304
287.490	-1087
287.548	-1335
287.606	-921
287.664	-1723
287.723	-842
287.781	-983
287.839	-721
287.897	-1374
287.955	-779
288.013	-531
288.071	1776
288.129	12629
288.187	45194
288.245	19401
288.303	4174
288.361	1818
288.419	315
288.477	139
288.535	-814
288.593	-1438
288.651	-949
288.709	-1722
288.767	-843
288.825	-1191
288.883	-831
288.941	-1148
288.999	-1785
289.057	-1132
289.115	-1162
289.173	-1370
289.231	-1210
289.289	-1506
289.346	-1692
289.404	-828
289.462	-1005
289.520	-1687
289.578	-1081
289.636	-1682
289.694	-1386
289.751	-2131
289.809	-1936
289.867	-1355
289.925	-930
289.983	-994
290.040	-873
290.098	-960
290.156	-1713
290.214	-1691
290.271	-1674
290.329	-1153
290.387	-1476
290.444	-1451
290.502	-1270
290.560	-2118
290.617	-1380
290.675	-1800
290.733	-1615
290.790	-2009
290.848	-1367
290.906	-1599
290.963	-1333
291.021	-778
291.078	-1678
291.136	-1643
291.194	-1041
291.251	1244
291.309	-832
291.366	-1452
291.424	-1439
291.481	-1672
291.539	-1840
291.596	-1554
291.654	-1559
291.711	-1323
291.769	-1659
291.826	-890
291.884	-1183
291.941	-1676
291.999	-1449
292.056	-1343
292.114	-1897
292.171	-1278
292.228	-1984
292.286	-885
292.343	-1449
292.401	-1000
292.458	-1387
292.515	-1852
292.573	-1373
292.630	-2097
292.687	-1057
292.745	-2080
292.802	-1626
292.859	-357
292.917	2237
292.974	157
293.031	-915
293.089	-2279
293.146	-1712
293.203	-1143
293.260	-1129
293.318	-844
293.375	-1315
293.432	-2129
293.489	-1847
293.546	-1608
293.604	-1399
293.661	650
293.718	6366
293.775	1829
293.832	-1169
293.889	-1798
293.947	-323
294.004	-861
294.061	-1245
294.118	-420
294.175	1431
294.232	1499
294.289	-860
294.346	-704
294.403	-1673
294.460	-1226
294.517	-1504
294.574	-1516
294.631	-1470
294.688	-1946
294.745	83
294.802	5885
294.859	5896
294.916	387
294.973	-1184
295.030	-1144
295.087	-793
295.144	-1530
295.201	-1608
295.258	-890
295.315	-703
295.372	1069
295.429	4700
295.486	1428
295.542	-440
295.599	-435
295.656	2432
295.713	1610
295.770	4478
295.827	1131
295.883	-580
295.940	-1230
295.997	-339
296.054	-809
296.111	-1312
296.167	-902
296.224	-1727
296.281	-1656
296.338	-2030
296.394	-1606
296.451	-1880
296.508	-533
296.564	2285
296.621	1359
296.678	5228
296.734	9209
296.791	2237
296.848	455
296.904	-410
296.961	1046
297.018	5009
297.074	3689
297.131	520
297.187	-730
297.244	514
297.301	5569
297.357	14432
297.414	3501
297.470	332
297.527	-850
297.583	-746
297.640	-1201
297.696	-1108
297.753	-1201
297.809	-1437
297.866	-395
297.922	-513
297.979	-1338
298.035	-1110
298.092	-97
298.148	1589
298.204	2583
298.261	-74
298.317	2251
298.374	7476
298.430	4039
298.486	433
298.543	-711
298.599	-1214
298.656	-777
298.712	131
298.768	2704
298.824	2719
298.881	-433
298.937	-1148
298.993	-977
299.050	-1210
299.106	-593
299.162	-1384
299.218	-1125
299.275	-967
299.331	-72
299.387	957
299.443	6903
299.500	8323
299.556	2036
299.612	-159
299.668	17
299.724	-262
299.780	575
299.837	-625
299.893	28
299.949	3994
300.005	6896
300.061	4058
300.117	11078
300.173	4736
300.229	618
300.285	283
300.341	439
300.397	-473
300.453	-1287
300.510	-1116
300.566	-732
300.622	-734
300.678	2368
300.734	6365
300.790	5441
300.845	7232
300.901	4350
300.957	4384
301.013	4484
301.069	406
301.125	-318
301.181	-369
301.237	-1109
301.293	-1736
301.349	-248
301.405	-1884
301.461	-1880
301.516	-1179
301.572	-787
301.628	-255
301.684	-1056
301.740	627
301.796	2785
301.851	315
301.907	1566
301.963	3289
302.019	6081
302.074	21690
302.130	23591
302.186	9445
302.242	2510
302.297	1578
302.353	416
302.409	2687
302.464	1797
302.520	1856
302.576	5365
302.631	7877
302.687	2616
302.743	591
302.798	-187
302.854	-1125
302.910	-793
302.965	-1290
303.021	364
303.076	-77
303.132	569
303.187	750
303.243	-122
303.299	-334
303.354	-1136
303.410	-652
303.465	-984
303.521	-1463
303.576	-1197
303.632	-195
303.687	135
303.743	5974
303.798	6158
303.853	940
303.909	-212
303.964	-946
304.020	-884
304.075	-199
304.130	-756
304.186	1839
304.241	2733
304.297	816
304.352	27
304.358	-20
304.407	-406
304.449	-448
304.463	-462
304.518	-1119
304.539	-867
304.573	-458
304.629	-258
304.630	-245
304.684	323
304.720	2593
304.739	3735
304.794	8837
304.811	7405
304.850	3931
304.902	737
304.905	533
304.960	-352
304.992	-111
305.015	42
305.071	-627
305.083	-639
305.126	-641
305.173	-700
305.181	-714
305.236	-1172
305.264	-1145
305.292	-1069
305.347	-579
305.354	-547
305.402	-424
305.445	-271
305.457	-214
305.512	-525
305.535	-212
305.567	226
305.622	49
305.626	133
305.678	1898
305.716	4464
305.733	5328
305.788	8217
305.807	6866
305.843	4694
305.897	6455
305.898	6468
305.953	7460
305.988	4382
306.008	2731
306.063	802
306.078	453
306.118	-316
306.168	64
306.173	100
306.228	-691
306.259	-300
306.283	-6
306.338	-701
306.349	-634
306.393	-233
306.440	-303
306.448	-339
306.503	-222
306.530	-205
306.558	92
306.613	1424
306.620	1563
306.668	2627
306.711	4911
306.723	5230
306.778	4479
306.801	3337
306.833	2038
306.888	139
306.892	126
306.943	406
306.982	163
306.997	15
307.052	-295
307.072	-406
307.107	-342
307.162	-20
307.163	-17
307.217	472
307.253	353
307.272	221
307.327	484
307.343	427
307.381	424
307.434	437
307.436	489
307.491	1942
307.524	3256
307.546	3573
307.600	5080
307.614	4478
307.655	2411
307.704	1208
307.710	1164
307.765	826
307.795	1390
307.819	2009
307.874	2718
307.885	2728
307.929	2158
307.975	2102
307.984	2274
308.038	3658
308.065	4795
308.093	8726
308.148	19825
308.156	22376
308.202	36099
308.246	47770
308.257	47481
308.312	25554
308.336	17344
308.366	12050
308.421	7331
308.426	6893
308.475	4074
308.517	2464
308.530	2145
308.585	2080
308.607	1788
308.639	1423
308.694	1430
308.697	1464
308.748	3100
308.787	4031
308.803	3763
308.857	2609
308.877	2109
308.912	2122
308.967	2279
308.967	2283
309.021	3339
309.058	4330
309.076	5928
309.130	11833
309.148	14441
309.185	28375
309.238	52556
309.239	52722
309.293	62233
309.328	57243
309.348	49573
309.402	22193
309.418	15775
309.457	10209
309.508	6410
309.511	6267
309.566	5079
309.598	4622
309.620	5104
309.674	7011
309.688	7521
309.729	6618
309.778	4766
309.783	4651
309.837	3302
309.868	2778
309.892	3699
309.946	6209
309.959	6956
310.001	8989
310.049	11382
310.055	11060
310.109	6342
310.139	3630
310.163	2919
310.218	1922
310.229	1724
310.272	1302
310.319	1310
310.326	1249
310.381	458
310.409	215
310.435	172
310.489	-100
310.499	-117
310.543	229
310.589	461
310.598	473
310.652	521
310.679	531
310.706	407
310.760	113
310.769	75
310.814	544
310.859	998
310.868	1010
310.923	1028
310.948	992
310.977	933
311.031	674
311.038	665
311.085	711
311.128	582
311.139	552
311.193	496
311.218	412
311.247	630
311.301	1046
311.308	1081
311.356	629
311.398	288
311.410	321
311.464	426
311.488	441
311.518	515
311.572	692
311.578	702
311.626	1241
311.668	1693
311.680	1627
311.734	1308
311.758	1134
311.788	1093
311.842	1027
311.847	1015
311.896	1326
311.937	1584
311.950	1522
312.004	1211
312.027	1081
312.058	877
312.112	495
312.117	457
312.165	504
312.207	545
312.297	459
312.386	1178
312.476	171
312.566	1739
312.656	958
312.745	1035
312.835	1060
312.925	574
313.015	499
313.104	820
313.194	446
313.284	495
313.374	302
313.463	1220
313.553	99
313.643	-74
313.732	255
313.822	1119
313.912	586
314.001	1373
314.091	1006
314.180	1295
314.270	649
314.360	1061
314.449	793
314.539	243
314.628	717
314.718	1215
314.808	1306
314.897	1247
314.987	657
315.076	713
315.166	581
315.255	1641
315.345	1373
315.434	63
315.524	1059
315.613	995
315.703	1334
315.792	2667
315.881	8395
315.971	2907
316.060	2610
316.150	2370
316.239	2183
316.328	1214
316.418	1015
316.507	949
316.597	1089
316.686	1269
316.775	1154
316.865	2565
316.954	711
317.043	1108
317.133	375
317.222	-39
317.311	125
317.400	277
317.490	2033
317.579	849
317.668	938
317.757	2423
317.847	4855
317.936	15860
318.025	5346
318.114	3466
318.203	1861
318.293	2691
318.382	4446
318.471	3537
318.560	4718
318.649	8347
318.738	1400
318.828	1417
318.917	1065
319.006	1579
319.095	3075
319.184	11101
319.273	5930
319.362	3539
319.451	869
319.540	1045
319.629	2370
319.718	3809
319.807	1361
319.896	2499
319.985	12138
320.074	4586
320.163	1176
320.252	2170
320.341	1283
320.430	1437
320.519	1594
320.608	1476
320.697	1164
320.786	1022
320.875	1313
320.964	2522
321.053	2745
321.142	4901
321.230	4758
321.319	3451
321.408	7505
321.497	3226
321.586	3204
321.675	2471
321.764	3277
321.852	2670
321.941	4016
322.030	2852
322.119	2410
322.207	8165
322.296	4916
322.385	2660
322.474	3907
322.562	8750
322.651	5356
322.740	3407
322.829	3654
322.917	4319
323.006	1970
323.095	1941
323.183	1181
323.272	2343
323.361	3543
323.449	11353
323.538	2994
323.626	6893
323.715	4088
323.804	1851
323.892	6890
323.981	4872
324.069	1649
324.158	4434
324.246	2985
324.335	1335
324.424	2205
324.512	649
324.601	1925
324.689	3369
324.778	6117
324.866	2340
324.954	346
325.043	1334
325.131	861
325.220	3880
325.308	2811
325.397	2497
325.485	864
325.574	315
325.662	146
325.750	194
325.839	672
325.927	727
326.015	731
326.104	787
326.192	1510
326.280	261
326.369	-798
326.457	1335
326.545	2337
326.634	931
326.722	903
326.810	422
326.898	1098
326.987	950
327.075	1052
327.163	1775
327.251	410
327.340	2517
327.428	2943
327.516	1079
327.604	762
327.692	893
327.781	476
327.869	1016
327.957	706
328.045	566
328.133	472
328.221	545
328.309	276
328.397	880
328.485	343
328.574	1122
328.662	5181
328.750	1922
328.838	114
328.926	528
329.014	-153
329.102	696
329.190	2423
329.278	1784
329.366	521
329.454	-436
329.542	20
329.630	789
329.718	540
329.806	671
329.893	702
329.981	431
330.069	1327
330.157	5010
330.245	16659
330.333	7383
330.421	1439
330.509	1743
330.597	5224
330.684	3364
330.772	1369
330.860	984
330.948	1430
331.036	1031
331.123	30
331.211	812
331.299	868
331.387	1218
331.475	2891
331.562	1085
331.650	-19
331.738	176
331.825	804
331.913	1304
332.001	-73
332.089	367
332.176	1265
332.264	3631
332.352	1306
332.439	659
332.527	310
332.614	938
332.702	1211
332.790	613
332.877	1067
332.965	3073
333.052	-15
333.140	731
333.228	1706
333.315	193
333.403	290
333.490	1636
333.578	1712
333.665	3256
333.753	848
333.840	-16
333.928	-92
334.015	2690
334.103	3966
334.190	12887
334.278	3468
334.365	2431
334.452	1924
334.540	973
334.627	537
334.715	1036
334.802	2468
334.889	13569
334.977	14529
335.064	4019
335.151	1350
335.239	901
335.326	1260
335.413	6519
335.501	8352
335.588	1389
335.675	-133
335.762	1471
335.850	2603
335.937	1765
336.024	5363
336.111	17168
336.199	9771
336.286	2540
336.373	492
336.460	-26
336.547	399
336.635	939
336.722	1096
336.809	97
336.896	920
336.983	4014
337.070	10014
337.157	13903
337.245	7952
337.332	5832
337.419	-100
337.506	352
337.593	1063
337.680	3014
337.767	9315
337.854	2997
337.941	2087
338.028	3168
338.115	-7
338.202	1368
338.289	2495
338.376	8106
338.463	2496
338.550	5182
338.637	5009
338.724	847
338.811	2614
338.898	867
338.984	682
339.071	-180
339.158	693
339.245	1927
339.332	1546
339.419	1453
339.506	1470
339.593	-247
339.679	908
339.766	13
339.853	68
339.940	1830
340.027	351
340.113	586
340.200	898
340.287	1030
340.374	-159
340.460	1266
340.547	-290
340.634	1896
340.720	5911
340.807	3233
340.894	882
340.980	573
341.067	1
341.154	1122
341.240	597
341.327	2827
341.414	1024
341.500	158
341.587	214
341.674	1332
341.760	1500
341.847	2149
341.933	515
342.020	-419
342.106	931
342.193	786
342.279	1022
342.366	849
342.452	1063
342.539	826
342.625	1546
342.712	6184
342.798	2389
342.885	553
342.971	-391
343.058	955
343.144	-133
343.230	525
343.317	811
343.403	60
343.490	444
343.576	-635
343.662	-159
343.749	148
343.835	474
343.921	1866
344.008	15225
344.094	33650
344.180	6736
344.267	2133
344.353	7596
344.439	7535
344.525	2018
344.612	884
344.698	908
344.784	-180
344.870	612
344.957	827
345.043	821
345.129	-49
345.215	2091
345.301	598
345.387	-154
345.474	367
345.560	16
345.646	-405
345.732	-478
345.818	376
345.904	30
345.990	909
346.076	143
346.162	533
346.249	737
346.335	396
346.421	314
346.507	3025
346.593	12566
346.679	1577
346.765	1287
346.851	288
346.937	-502
347.023	1448
347.108	319
347.194	26
347.280	176
347.366	1185
347.452	3703
347.538	14828
347.624	12348
347.710	7797
347.796	828
347.882	62
347.967	1150
348.053	824
348.139	635
348.225	-362
348.311	-562
348.397	-195
348.482	245
348.568	902
348.654	-893
348.740	1263
348.825	140
348.911	2312
348.997	6722
349.083	14183
349.168	891
349.254	249
349.340	-306
349.425	141
349.511	366
349.597	1003
349.682	1269
349.768	7853
349.854	3414
349.939	539
350.025	-316
350.110	-11
350.196	-445
350.282	-553
350.367	398
350.453	-9
350.538	171
350.624	199
350.709	455
350.795	88
350.880	-24
350.966	1416
351.051	4
351.137	396
351.222	362
351.308	1699
351.393	5496
351.479	1152
351.564	-151
351.649	996
351.735	-308
351.820	-87
351.906	26
351.991	-22
352.076	3683
352.162	5450
352.247	456
352.332	413
352.418	575
352.503	1224
352.588	9847
352.673	6180
352.759	84
352.844	-190
352.929	211
353.014	-239
353.100	1067
353.185	1532
353.270	971
353.355	2143
353.441	545
353.526	689
353.611	751
353.696	1899
353.781	1467
353.866	147
353.952	1491
354.037	1177
354.122	3943
354.207	3559
354.292	1034
354.377	645
354.462	197
354.547	230
354.632	165
354.717	418
354.802	974
354.887	302
354.972	-164
355.057	198
355.142	-1033
355.227	705
355.312	638
355.397	2261
355.482	5711
355.567	3173
355.652	2435
355.737	2889
355.822	8725
355.907	6699
355.991	1681
356.076	-425
356.161	180
356.246	-455
356.331	939
356.416	959
356.501	16451
356.585	15974
356.670	627
356.755	2646
356.840	1705
356.924	11595
357.009	38736
357.094	12974
357.179	1933
357.263	1645
357.348	699
357.433	1698
357.517	429
357.602	1245
357.687	-529
357.771	1039
357.856	693
357.941	1145
358.025	7522
358.110	38011
358.195	16077
358.279	1014
358.364	765
358.448	5528
358.533	16133
358.617	10858
358.702	11684
358.787	3791
358.871	2115
358.956	1094
359.040	63
359.125	38
359.209	-284
359.294	152
359.378	385
359.462	1073
359.547	268
359.631	179
359.716	-1179
359.800	661
359.885	652
359.969	-157
360.053	613
360.138	-499
360.222	299
360.306	1974
360.391	1380
360.475	1516
360.559	3269
360.644	5243
360.728	3332
360.812	9571
360.896	24697
360.981	8484
361.065	2511
361.149	1166
361.233	574
361.318	276
361.402	669
361.486	1077
361.570	-133
361.654	594
361.739	1994
361.823	14819
361.907	24757
361.991	3436
362.075	2055
362.159	2980
362.243	3200
362.327	3116
362.411	7450
362.495	2372
362.580	427
362.664	715
362.748	-145
362.832	1779
362.916	607
363.000	11254
363.084	28801
363.168	31594
363.252	6202
363.336	2128
363.420	2824
363.503	9220
363.587	10788
363.671	1269
363.755	88
363.839	2931
363.923	103
364.007	1614
364.091	2079
364.175	2780
364.258	18567
364.342	15385
364.426	28232
364.510	11976
364.594	4824
364.677	5073
364.761	20403
364.845	14784
364.929	3357
365.013	2532
365.096	2141
365.180	1834
365.264	3847
365.347	16681
365.431	5511
365.515	640
365.598	-275
365.682	1118
365.766	-243
365.849	971
365.933	441
366.017	2494
366.100	228
366.184	-973
366.267	1171
366.351	572
366.435	-1204
366.518	-44
366.602	-644
366.685	1031
366.769	-685
366.852	1350
366.936	2166
367.019	1374
367.103	-88
367.186	2389
367.270	-66
367.353	14
367.436	187
367.520	-668
367.603	592
367.687	-375
367.770	1014
367.853	2066
367.937	6434
368.020	9751
368.104	430
368.187	1945
368.270	2684
368.353	1252
368.437	1547
368.520	6030
368.603	2748
368.687	6239
368.770	11916
368.853	1924
368.936	2315
369.020	2296
369.103	117
369.186	223
369.269	-411
369.352	2207
369.436	1295
369.519	1009
369.602	-1185
369.685	1401
369.768	-634
369.851	1126
369.934	-869
370.018	504
370.101	424
370.184	2745
370.267	427
370.350	1761
370.433	3249
370.516	10713
370.599	14353
370.682	1839
370.765	6163
370.848	8267
370.931	15056
371.014	6191
371.097	-392
371.180	773
371.263	765
371.346	-1555
371.429	-147
371.511	161
371.594	-98
371.677	2210
371.760	2289
371.843	1565
371.926	12619
372.009	29669
372.091	10336
372.174	4946
372.257	16705
372.340	5621
372.423	2315
372.505	4211
372.588	169
372.671	4905
372.754	15106
372.836	6225
372.919	4416
373.002	9012
373.085	1491
373.167	2544
373.250	5525
373.332	15311
373.415	21388
373.498	42880
373.580	13735
373.663	22760
373.746	27958
373.828	4535
373.911	2548
373.993	1708
374.076	8191
374.159	7404
374.241	3074
374.324	12631
374.406	7541
374.489	12081
374.571	37266
374.654	13527
374.736	6230
374.819	22659
374.901	32141
374.983	32545
375.066	5170
375.148	1851
375.231	6839
375.313	13526
375.395	3887
375.478	1015
375.560	1143
375.643	679
375.725	6571
375.807	27017
375.890	20057
375.972	3827
376.054	3201
376.136	4417
376.219	908
376.301	8036
376.383	22286
376.465	7939
376.548	3298
376.630	5316
376.712	19933
376.794	7402
376.877	700
376.959	-295
377.041	691
377.123	605
377.205	1595
377.287	-763
377.369	396
377.452	-561
377.534	503
377.616	535
377.698	33
377.780	-515
377.862	267
377.944	1471
378.026	-772
378.108	-98
378.190	-238
378.272	888
378.354	55
378.436	-629
378.518	-545
378.600	3059
378.682	3221
378.764	8479
378.846	5990
378.928	1200
379.010	777
379.091	1659
379.173	260
379.255	-851
379.337	133
379.419	3484
379.501	12247
379.583	4003
379.664	685
379.746	1631
379.828	9176
379.910	10690
379.991	9876
380.073	935
380.155	1066
380.237	98
380.318	-402
380.400	-423
380.482	811
380.564	2045
380.645	988
380.727	1690
380.809	1671
380.890	406
380.972	-1799
381.053	85
381.135	881
381.217	1763
381.298	8761
381.380	3469
381.461	3208
381.543	18721
381.624	21814
381.706	3392
381.787	1720
381.869	2016
381.951	7887
382.032	32697
382.113	20696
382.195	1860
382.276	2756
382.358	5990
382.439	17492
382.521	20024
382.602	31937
382.684	13055
382.765	22188
382.846	18875
382.928	22200
383.009	11429
383.090	7753
383.172	32549
383.253	50300
383.334	18561
383.416	25356
383.497	12851
383.578	3316
383.659	6481
383.741	27516
383.822	77326
383.903	36381
383.984	14446
384.066	31782
384.147	17229
384.228	3037
384.309	1067
384.390	1450
384.471	1216
384.553	389
384.634	2295
384.715	1788
384.796	520
384.877	1191
384.958	7950
385.039	8478
385.120	1887
385.201	1540
385.282	1420
385.363	1834
385.444	320
385.525	2964
385.606	14269
385.687	11281
385.768	1889
385.849	1109
385.930	15227
386.011	26680
386.092	5670
386.173	430
386.254	778
386.335	1003
386.416	1466
386.496	4723
386.577	8238
386.658	2093
386.739	147
386.820	1727
386.901	217
386.981	1597
387.062	493
387.143	934
387.224	8939
387.304	8071
387.385	3138
387.466	86
387.547	2236
387.627	177
387.708	3665
387.789	16226
387.869	20404
387.950	5122
388.031	521
388.111	-1462
388.192	1699
388.273	2706
388.353	1186
388.434	1150
388.514	3263
388.595	17092
388.676	20779
388.756	8207
388.837	8101
388.917	3888
388.998	-931
389.078	791
389.159	289
389.239	-984
389.320	2542
389.400	-1120
389.480	3556
389.561	8795
389.641	4782
389.722	1528
389.802	1520
389.883	3511
389.963	13288
390.043	5004
390.124	315
390.204	3454
390.284	9974
390.365	4745
390.445	6514
390.525	17735
390.605	15220
390.686	3676
390.766	2327
390.846	731
390.927	110
391.007	-1138
391.087	620
391.167	472
391.247	-603
391.328	1128
391.408	1411
391.488	1359
391.568	-1308
391.648	234
391.728	1879
391.808	1243
391.888	1345
391.969	5049
392.049	7103
392.129	3841
392.209	3723
392.289	12386
392.369	5246
392.449	3131
392.529	2093
392.609	3040
392.689	4151
392.769	11246
392.849	10566
392.929	7889
393.009	16818
393.089	13561
393.169	16158
393.248	48931
393.328	169307
393.408	173224
393.488	50137
393.568	14122
393.648	6920
393.728	4101
393.807	2673
393.887	3411
393.967	2513
394.047	2340
394.127	3140
394.206	4273
394.286	18072
394.366	82003
394.446	83335
394.525	16200
394.605	4541
394.685	3375
394.764	6777
394.844	9658
394.924	6732
395.003	1742
395.083	1829
395.163	965
395.242	1083
395.322	1386
395.402	-127
395.481	2893
395.561	3246
395.640	12702
395.720	11533
395.799	12554
395.879	9342
395.958	7023
396.038	28229
396.117	107452
396.197	107743
396.276	29727
396.356	8279
396.435	6349
396.515	5956
396.594	5468
396.673	14652
396.753	52240
396.832	154184
396.912	109460
396.991	25450
397.070	8008
397.150	2517
397.229	3243
397.308	4653
397.388	8084
397.467	4827
397.546	1015
397.625	-1669
397.705	2053
397.784	802
397.863	-363
397.942	525
398.022	-465
398.101	2606
398.180	9833
398.259	3748
398.338	1370
398.417	688
398.497	-533
398.576	1573
398.655	-457
398.734	1095
398.813	193
398.892	3322
398.971	9496
399.050	4610
399.129	-876
399.208	-223
399.287	705
399.366	-182
399.445	-771
399.524	-546
399.603	-1541
399.682	749
399.761	2366
399.840	11924
399.919	8505
399.998	-98
400.077	-1425
400.156	-1810
400.235	1090
400.313	-542
400.392	-1304
400.471	4147
400.550	6597
400.629	556
400.708	-172
400.786	-742
400.865	801
400.944	1084
401.023	2000
401.102	-929
401.180	-325
401.259	-614
401.338	-686
401.416	1067
401.495	-553
401.574	316
401.652	-905
401.731	565
401.810	-1162
401.888	-702
401.967	-789
402.046	-380
402.124	-237
402.203	-752
402.281	392
402.360	867
402.438	2250
402.517	-26
402.596	-1104
402.674	337
402.753	-1093
402.831	-517
402.910	790
402.988	1641
403.066	10900
403.145	6937
403.223	3550
403.302	8733
403.380	6733
403.459	6311
403.537	1585
403.615	224
403.694	-1361
403.772	945
403.850	-1170
403.929	-702
404.007	-1385
404.085	1919
404.164	-95
404.242	-195
404.320	720
404.398	830
404.477	4160
404.555	24942
404.633	20056
404.711	1861
404.789	-652
404.868	-80
404.946	-1020
405.024	-102
405.102	-633
405.180	-1316
405.258	-2003
405.336	-16
405.415	-1017
405.493	1555
405.571	533
405.649	-534
405.727	-1965
405.805	1004
405.883	-628
405.961	525
406.039	-1022
406.117	-1764
406.195	364
406.273	4403
406.351	21045
406.429	11100
406.507	343
406.585	-907
406.663	270
406.740	-107
406.818	-1518
406.896	-1337
406.974	544
407.052	18
407.130	10984
407.208	15675
407.285	2224
407.363	-1264
407.441	-837
407.519	-612
407.596	-103
407.674	2337
407.752	8011
407.830	7073
407.907	1356
407.985	-544
408.063	-398
408.141	-1141
408.218	359
408.296	-1277
408.373	-743
408.451	471
408.529	-504
408.606	-868
408.684	-1002
408.762	-591
408.839	-1368
408.917	-1428
408.994	-685
409.072	-1725
409.149	-827
409.227	693
409.304	658
409.382	805
409.459	-264
409.537	1721
409.614	764
409.692	-86
409.769	218
409.846	1810
409.924	2194
410.001	-368
410.079	13
410.156	-99
410.233	-792
410.311	-322
410.388	-1170
410.465	-88
410.543	-623
410.620	-153
410.697	-585
410.775	152
410.852	-1232
410.929	-147
411.006	-40
411.083	-1093
411.161	-282
411.238	800
411.315	-678
411.392	-689
411.469	78
411.547	-497
411.624	-1961
411.701	-95
411.778	-1452
411.855	160
411.932	-1369
412.009	-484
412.086	-742
412.163	-303
412.240	-1044
412.317	188
412.394	-466
412.471	-26
412.548	-722
412.625	-421
412.702	-1179
412.779	654
412.856	-610
412.933	-817
413.010	-144
413.087	490
413.164	2813
413.241	5144
413.318	23
413.395	28
413.471	-118
413.548	-986
413.625	337
413.702	-1161
413.779	-723
413.855	-841
413.932	-1321
414.009	-877
414.086	-1304
414.162	-361
414.239	-141
414.316	3342
414.393	9174
414.469	1445
414.546	-1438
414.623	-829
414.699	-833
414.776	-313
414.853	-1185
414.929	-725
415.006	-1434
415.082	-664
415.159	-1107
415.236	-976
415.312	-534
415.389	510
415.465	-212
415.542	-935
415.618	-1365
415.695	23
415.771	-1590
415.848	-1093
415.924	-977
416.000	-1427
416.077	88
416.153	-1711
416.230	-1663
416.306	-1372
416.383	-1453
416.459	-576
416.535	-773
416.612	-773
416.688	-720
416.764	-1342
416.841	-1503
416.917	-1271
416.993	-809
417.069	-764
417.146	-1287
417.222	-492
417.298	-1342
417.374	-1378
417.451	-178
417.527	-875
417.603	-657
417.679	-558
417.755	-168
417.831	-1521
417.908	-1721
417.984	-843
418.060	-2099
418.136	324
418.212	-218
418.288	-93
418.364	-259
418.440	-1624
418.516	-743
418.592	-370
418.668	436
418.744	1158
418.820	807
418.896	-12
418.972	-1451
419.048	-604
419.124	1265
419.200	-1764
419.276	-1050
419.352	-1357
419.428	-1384
419.504	-491
419.579	-1308
419.655	-970
419.731	-1107
419.807	1102
419.883	2200
419.959	299
420.034	-316
420.110	721
420.186	4997
420.262	3228
420.337	-567
420.413	-158
420.489	-480
420.565	-339
420.640	-562
420.716	506
420.792	-1576
420.867	200
420.943	-1699
421.019	-71
421.094	-1121
421.170	366
421.245	-1394
421.321	-131
421.397	-547
421.472	1621
421.548	3817
421.623	2895
421.699	95
421.774	972
421.850	-341
421.925	815
422.001	455
422.076	526
422.152	-95
422.227	2365
422.302	3779
422.378	6151
422.453	11186
422.529	29321
422.604	79818
422.679	119114
422.755	81242
422.830	30230
422.905	11412
422.981	5775
423.056	3334
423.131	2494
423.207	431
423.282	1027
423.357	2045
423.432	270
423.508	1151
423.583	1523
423.658	1926
423.733	82
423.808	119
423.883	541
423.959	-410
424.034	-451
424.109	-212
424.184	-819
424.259	-932
424.334	319
424.409	-1326
424.484	-643
424.559	-765
424.634	-578
424.709	-693
424.784	191
424.859	-647
424.934	-992
425.009	2252
425.084	5762
425.159	1481
425.234	301
425.309	-1749
425.384	-146
425.459	-1819
425.534	-214
425.609	-1535
425.683	-1379
425.758	-620
425.833	-122
425.908	-76
425.983	1924
426.058	7232
426.132	1426
426.207	-905
426.282	-445
426.357	-1261
426.431	-653
426.506	-38
426.581	-106
426.655	-1224
426.730	-780
426.805	-1028
426.879	-420
426.954	-1006
427.029	156
427.103	6303
427.178	17926
427.253	7018
427.327	479
427.402	-1095
427.476	-2
427.551	-1320
427.625	-895
427.700	-595
427.774	-1433
427.849	-462
427.923	-1572
427.998	-458
428.072	-393
428.147	784
428.221	7030
428.296	26826
428.370	13601
428.444	477
428.519	-321
428.593	823
428.667	1359
428.742	1200
428.816	2595
428.890	15233
428.965	24919
429.039	4582
429.113	1575
429.188	-226
429.262	-647
429.336	624
429.410	2362
429.485	1356
429.559	194
429.633	568
429.707	54
429.781	1191
429.855	14239
429.930	24656
430.004	9200
430.078	9268
430.152	11504
430.226	35249
430.300	36979
430.374	4702
430.448	725
430.522	2261
430.596	8454
430.670	7592
430.744	27401
430.818	37440
430.892	6778
430.966	-1090
431.040	-123
431.114	-1480
431.188	-1467
431.262	-1001
431.336	-1057
431.410	400
431.484	1328
431.557	879
431.631	-816
431.705	76
431.779	4499
431.853	23512
431.927	16314
432.000	1323
432.074	-203
432.148	-595
432.222	-733
432.295	-1074
432.369	-689
432.443	-925
432.516	6457
432.590	19640
432.664	5810
432.737	-823
432.811	-1952
432.885	-1615
432.958	-964
433.032	-1810
433.106	-922
433.179	-1759
433.253	-1041
433.326	-1635
433.400	-871
433.473	-1215
433.547	-1359
433.620	-1225
433.694	-1178
433.767	-732
433.841	-1199
433.914	-1742
433.988	-1333
434.061	-1895
434.134	-790
434.208	-1096
434.281	-1430
434.355	-1525
434.428	-247
434.501	-1790
434.575	-928
434.648	-1483
434.721	-1854
434.795	-1074
434.868	-1626
434.941	-1536
435.014	-935
435.088	-1441
435.161	-1553
435.234	-1251
435.307	-268
435.381	-1162
435.454	-345
435.527	-807
435.600	446
435.673	79
435.746	-583
435.819	-684
435.892	-8
435.966	-1834
436.039	-674
436.112	-871
436.185	-1192
436.258	-927
436.331	-1955
436.404	-1223
436.477	-1464
436.550	-1791
436.623	-1362
436.696	-1576
436.769	-326
436.842	-1191
436.915	-474
436.987	-428
437.060	-455
437.133	-1320
437.206	-1461
437.279	-725
437.352	-1561
437.425	-1877
437.498	-502
437.570	34
437.643	-829
437.716	-1082
437.789	-839
437.861	-694
437.934	1425
438.007	-1062
438.080	-1436
438.152	-1015
438.225	340
438.298	9583
438.370	31992
438.443	13748
438.516	1277
438.588	-1205
438.661	-1071
438.734	-1185
438.806	-1668
438.879	-431
438.951	-580
439.024	-277
439.096	-862
439.169	-1762
439.241	-2139
439.314	-1451
439.386	-962
439.459	-1070
439.531	-396
439.604	-1000
439.676	-251
439.749	-2127
439.821	-1933
439.893	-2528
439.966	-766
440.038	-1405
440.110	-359
440.183	-1646
440.255	-1196
440.327	-33
440.400	2640
440.472	17543
440.544	13720
440.617	238
440.689	190
440.761	-833
440.833	653
440.905	136
440.978	-1233
441.050	-1556
441.122	-1402
441.194	-891
441.266	-804
441.338	-2296
441.411	878
441.483	4760
441.555	8404
441.627	765
441.699	322
441.771	-943
441.843	-1466
441.915	-1417
441.987	-843
442.059	-1400
442.131	412
442.203	-93
442.275	246
442.347	-76
442.419	1048
442.491	13201
442.563	38407
442.635	17822
442.706	3715
442.778	1957
442.850	-1251
442.922	-1357
442.994	-542
443.066	-763
443.137	107
443.209	-726
443.281	497
443.353	2822
443.425	17488
443.496	69436
443.568	75903
443.640	28745
443.711	5232
443.783	775
443.855	25
443.926	-377
443.998	-474
444.070	-142
444.141	-24
444.213	-85
444.285	799
444.356	-795
444.428	-880
444.499	-603
444.571	-1064
444.642	-1123
444.714	-925
444.785	-683
444.857	-699
444.928	800
445.000	11
445.071	648
445.143	898
445.214	340
445.285	2335
445.357	9299
445.428	44149
445.500	106344
445.571	73962
445.642	39568
445.714	13186
445.785	5070
445.856	136
445.928	504
445.999	394
446.070	-625
446.141	-192
446.213	-226
446.284	-453
446.355	-1334
446.426	-1325
446.497	-786
446.569	-125
446.640	-648
446.711	-1105
446.782	-1040
446.853	-1190
446.924	-818
446.995	-1124
447.066	-842
447.138	-714
447.209	-808
447.280	-1623
447.351	-2327
447.422	-1633
447.493	-1075
447.564	-905
447.635	-1134
447.706	-549
447.777	-1785
447.847	-1071
447.918	-1405
447.989	-998
448.060	-934
448.131	684
448.202	196
448.273	290
448.344	-1348
448.414	-891
448.485	-820
448.556	-361
448.627	-1445
448.698	-847
448.768	-1211
448.839	-1118
448.910	-604
448.981	-342
449.051	-1027
449.122	-1021
449.193	-1634
449.263	-1275
449.334	-1399
449.405	-678
449.475	-755
449.546	114
449.616	-772
449.687	18
449.758	-715
449.828	-1529
449.899	-1729
449.969	-1372
450.040	-2099
450.110	-1352
450.181	-877
450.251	-1380
450.322	-497
450.392	-1250
450.463	-1212
450.533	-496
450.604	-1338
450.674	-2178
450.744	-979
450.815	-713
450.885	-1127
450.955	-1305
451.026	-1841
451.096	-1394
451.166	-1455
451.237	-770
451.307	1126
451.377	98
451.447	-1510
451.518	-982
451.588	-1145
451.658	-1046
451.728	-1108
451.799	660
451.869	972
451.939	-1416
452.009	-1717
452.079	-532
452.149	-2079
452.219	-495
452.289	1066
452.360	870
452.430	-1900
452.500	-1059
452.570	-601
452.640	1086
452.710	4041
452.780	6430
452.850	3441
452.920	2626
452.990	441
453.060	-169
453.129	-532
453.199	-393
453.269	1501
453.339	5039
453.409	8613
453.479	9133
453.549	12210
453.619	13647
453.688	3932
453.758	63
453.828	-807
453.898	-300
453.968	-1162
454.037	-138
454.087	-1182
454.107	-1616
454.168	-1098
454.177	-1034
454.247	-1484
454.249	-1480
454.316	-1696
454.330	-1551
454.386	-973
454.411	-760
454.456	-477
454.492	111
454.525	610
454.574	-295
454.595	-700
454.655	-1038
454.665	-1090
454.734	-757
454.736	-740
454.804	-439
454.817	-55
454.873	1404
454.898	1292
454.943	1113
454.979	159
455.013	-793
455.060	-737
455.082	-614
455.141	-317
455.152	-303
455.221	1023
455.222	1047
455.291	2011
455.303	1864
455.360	1062
455.384	1834
455.430	3382
455.465	3079
455.499	2702
455.546	1630
455.569	1104
455.627	421
455.638	277
455.707	-856
455.708	-850
455.777	-857
455.789	-820
455.846	-806
455.869	-968
455.916	-1254
455.950	-1088
455.985	-1004
456.031	-1067
456.054	-1050
456.112	-575
456.124	-511
456.193	-1017
456.193	-1024
456.262	-464
456.274	-453
456.332	-521
456.355	-526
456.401	-519
456.436	-603
456.470	-804
456.516	-840
456.540	-778
456.597	-1277
456.609	-1403
456.678	-737
456.678	-742
456.747	-1176
456.759	-1155
456.817	-888
456.840	-825
456.886	-801
456.920	-678
456.955	-468
457.001	-723
457.024	-981
457.082	-590
457.093	-473
457.162	-1058
457.163	-1051
457.232	-750
457.243	-718
457.301	-622
457.324	-796
457.370	-1116
457.405	-948
457.439	-916
457.485	-1058
457.508	-1027
457.566	-813
457.577	-788
457.646	196
457.647	196
457.715	294
457.727	587
457.784	1907
457.808	3088
457.853	5133
457.889	7214
457.922	8354
457.969	5243
457.991	4644
458.050	4612
458.060	4569
458.129	9229
458.130	9356
458.198	12719
458.211	11604
458.267	6630
458.292	4530
458.336	2001
458.372	1407
458.405	1366
458.453	2139
458.474	2768
458.533	7134
458.543	7682
458.611	17846
458.614	17927
458.680	15068
458.694	12538
458.749	4906
458.775	3258
458.818	1040
458.855	881
458.887	800
458.936	-323
458.955	-714
459.016	-317
459.024	-242
459.093	472
459.097	485
459.162	404
459.177	270
459.230	-244
459.257	-23
459.299	314
459.338	92
459.368	-73
459.418	363
459.437	399
459.499	-374
459.505	-418
459.574	-81
459.579	-97
459.643	-268
459.659	-255
459.711	-204
459.740	-240
459.780	-302
459.820	-62
459.849	2
459.900	-170
459.917	-74
459.981	436
459.986	398
460.054	-355
460.061	-407
460.123	-167
460.141	-65
460.191	140
460.222	450
460.260	768
460.302	473
460.328	351
460.382	871
460.397	916
460.462	545
460.465	541
460.534	776
460.543	742
460.602	4342
460.623	6144
460.671	10477
460.703	15398
460.739	16008
460.783	14442
460.808	13194
460.864	3360
460.876	2251
460.944	809
460.945	783
461.013	460
461.024	366
461.081	139
461.104	138
461.150	43
461.184	122
461.218	360
461.264	335
461.286	112
461.345	-365
461.355	-328
461.423	-136
461.425	-116
461.491	534
461.505	546
461.559	538
461.585	693
461.628	1548
461.665	2154
461.696	1833
461.745	2006
461.764	2029
461.825	823
461.832	788
461.901	824
461.905	829
461.969	-294
461.985	-582
462.037	236
462.065	802
462.105	508
462.145	132
462.173	470
462.225	1266
462.241	1334
462.305	1446
462.310	1429
462.378	1116
462.385	1062
462.446	240
462.465	-38
462.514	-93
462.545	95
462.582	447
462.625	601
462.650	495
462.705	243
462.718	277
462.785	708
462.786	708
462.854	322
462.865	353
462.922	757
462.945	878
462.990	1138
463.025	1082
463.058	766
463.104	648
463.126	641
463.184	253
463.194	286
463.262	375
463.264	403
463.330	700
463.344	623
463.398	644
463.424	733
463.466	468
463.504	285
463.533	419
463.583	482
463.601	583
463.663	1238
463.669	1202
463.737	309
463.743	277
463.805	1585
463.823	1823
463.873	2116
463.903	2477
463.940	2816
463.982	3239
464.008	2720
464.062	1301
464.076	1251
464.142	771
464.144	766
464.211	874
464.221	846
464.279	361
464.301	299
464.347	682
464.381	902
464.414	801
464.461	785
464.482	899
464.540	731
464.550	712
464.617	1082
464.620	1080
464.685	1135
464.699	1182
464.753	2263
464.779	2777
464.820	2615
464.859	2467
464.888	2121
464.938	1542
464.956	1744
465.018	2425
465.023	2390
465.091	1699
465.098	1632
465.158	1499
465.177	1510
465.226	1644
465.257	1668
465.293	2162
465.336	2658
465.361	2527
465.416	2432
465.428	2602
465.495	3320
465.496	3330
465.563	3860
465.575	3965
465.631	4387
465.654	4572
465.698	3106
465.734	1765
465.765	1833
465.813	1913
465.833	1956
465.893	2134
465.900	2064
465.968	1567
465.972	1515
466.035	1858
466.052	1990
466.102	1629
466.131	1367
466.170	1114
466.210	913
466.237	1204
466.290	1700
466.304	1773
466.369	2020
466.372	2035
466.439	2416
466.449	2468
466.506	1885
466.528	1624
466.573	2400
466.607	2972
466.641	4080
466.687	5655
466.708	6201
466.766	7729
466.775	7221
466.842	3256
466.845	3064
466.909	2909
466.925	2869
466.977	2723
467.004	2649
467.044	2983
467.083	3329
467.111	3634
467.163	4188
467.178	4120
467.242	3804
467.245	3777
467.312	3125
467.321	3035
467.379	2859
467.400	2792
467.446	2887
467.480	2950
467.559	3916
467.638	2954
467.717	2357
467.796	3157
467.875	2685
467.955	2944
468.034	4467
468.113	6347
468.192	9541
468.271	3938
468.350	2922
468.429	3490
468.508	3304
468.588	2805
468.667	1988
468.746	2659
468.825	2505
468.904	3205
468.983	2089
469.062	3134
469.141	4018
469.220	2499
469.299	2839
469.378	2737
469.456	4751
469.535	3589
469.614	2391
469.693	2887
469.772	3488
469.851	3828
469.930	3257
470.009	2481
470.088	3109
470.166	2253
470.245	2014
470.324	3107
470.403	2366
470.482	2185
470.560	2208
470.639	1729
470.718	3454
470.797	2735
470.875	2465
470.954	2772
471.033	3003
471.111	3299
471.190	2748
471.269	1958
471.347	1748
471.426	2984
471.505	3143
471.583	2913
471.662	2818
471.740	2399
471.819	2309
471.898	1586
471.976	2089
472.055	2242
472.133	2631
472.212	2549
472.290	2561
472.369	2215
472.447	1651
472.526	1585
472.604	2336
472.683	2456
472.761	1664
472.839	2438
472.918	2418
472.996	1755
473.075	2107
473.153	1724
473.231	1499
473.310	2767
473.388	2456
473.466	1892
473.545	2910
473.623	3476
473.701	2582
473.780	2747
473.858	-19
473.936	3220
474.014	1999
474.093	1920
474.171	3088
474.249	3810
474.327	2205
474.405	509
474.484	1761
474.562	1842
474.640	2326
474.718	1993
474.796	2089
474.874	2136
474.952	1730
475.030	2104
475.108	2084
475.187	2759
475.265	1665
475.343	2766
475.421	2612
475.499	1891
475.577	1759
475.655	3018
475.733	2812
475.811	5507
475.889	4936
475.966	3053
476.044	1557
476.122	1919
476.200	1793
476.278	2025
476.356	1249
476.434	2330
476.512	2023
476.590	2970
476.667	2889
476.745	1317
476.823	2102
476.901	1995
476.979	1569
477.056	1846
477.134	2535
477.212	1982
477.290	1635
477.367	1662
477.445	1871
477.523	1438
477.601	1970
477.678	1901
477.756	1684
477.834	1883
477.911	1668
477.989	1148
478.066	1176
478.144	1115
478.222	1832
478.299	2229
478.377	2451
478.454	1824
478.532	1512
478.609	2034
478.687	2704
478.764	2050
478.842	1000
478.919	1645
478.997	1725
479.074	1981
479.152	1283
479.229	2127
479.307	1040
479.384	1676
479.461	1900
479.539	991
479.616	1481
479.694	1040
479.771	2079
479.848	739
479.926	-188
480.003	3267
480.080	1036
480.157	1330
480.235	987
480.312	1341
480.389	1178
480.467	2362
480.544	2700
480.621	1801
480.698	1645
480.775	1565
480.853	1752
480.930	2796
481.007	1233
481.084	1817
481.161	2653
481.238	3015
481.315	1747
481.392	1562
481.470	1198
481.547	962
481.624	1298
481.701	1328
481.778	1575
481.855	1276
481.932	2174
482.009	3419
482.086	1980
482.163	1661
482.240	2603
482.317	2957
482.393	1847
482.470	831
482.547	1477
482.624	1555
482.701	1530
482.778	897
482.855	381
482.932	1432
483.009	692
483.085	1775
483.162	1681
483.239	1667
483.316	1472
483.393	2300
483.469	495
483.546	1466
483.623	1560
483.699	640
483.776	232
483.853	1149
483.930	2626
484.006	3063
484.083	8160
484.160	7598
484.236	11902
484.313	8788
484.389	6045
484.466	6846
484.543	5122
484.619	5848
484.696	6473
484.772	5808
484.849	5705
484.925	5169
485.002	5199
485.078	5963
485.155	5418
485.231	4436
485.308	4846
485.384	4295
485.461	4820
485.537	6187
485.614	7514
485.690	4483
485.766	4205
485.843	5112
485.919	5951
485.995	5628
486.072	4043
486.148	4100
486.224	3600
486.301	4245
486.377	4447
486.453	4314
486.530	5437
486.606	7530
486.682	7035
486.758	7478
486.835	6655
486.911	4853
486.987	8241
487.063	8857
487.139	10272
487.215	7811
487.292	4925
487.368	4991
487.444	4916
487.520	7532
487.596	6618
487.672	10025
487.748	24093
487.824	35585
487.900	13374
487.976	6954
488.052	5073
488.128	5794
488.204	4596
488.280	4709
488.356	4885
488.432	6621
488.508	8805
488.584	4942
488.660	3915
488.736	3850
488.812	3429
488.888	4558
488.964	4866
489.039	9011
489.115	14233
489.191	9293
489.267	3573
489.343	3521
489.418	3173
489.494	3323
489.570	1647
489.646	4119
489.722	3268
489.797	3596
489.873	4514
489.949	6850
490.024	6109
490.100	3055
490.176	2908
490.251	3395
490.327	4526
490.403	3301
490.478	2877
490.554	3179
490.629	2224
490.705	2348
490.781	2975
490.856	3759
490.932	3136
491.007	2890
491.083	3276
491.158	2604
491.234	2708
491.309	5066
491.385	4687
491.460	2607
491.536	3175
491.611	2626
491.686	3535
491.762	3811
491.837	5776
491.913	9452
491.988	11847
492.063	13665
492.139	4408
492.214	3141
492.289	3111
492.365	2495
492.440	2648
492.515	2271
492.590	2142
492.666	1895
492.741	3025
492.816	3218
492.891	1762
492.967	2488
493.042	1185
493.117	851
493.192	1131
493.267	3647
493.342	5156
493.418	6770
493.493	3058
493.568	1167
493.643	790
493.718	1897
493.793	1916
493.868	3844
493.943	1492
494.018	2297
494.093	1297
494.168	2416
494.243	913
494.318	2277
494.393	1000
494.468	1358
494.543	1533
494.618	1385
494.693	1153
494.768	1905
494.842	1049
494.917	1392
494.992	1657
495.067	1283
495.142	1193
495.217	1065
495.292	848
495.366	1595
495.441	1577
495.516	4190
495.591	3609
495.665	10445
495.740	24015
495.815	10490
495.890	2270
495.964	468
496.039	3480
496.114	2301
496.188	2480
496.263	1593
496.338	1555
496.412	1598
496.487	2160
496.561	2341
496.636	1934
496.710	2008
496.785	1985
496.860	3448
496.934	1845
497.009	2226
497.083	918
497.158	2372
497.232	2606
497.307	2206
497.381	3031
497.455	2521
497.530	3325
497.604	2859
497.679	3770
497.753	4815
497.827	4960
497.902	5509
497.976	5942
498.050	11852
498.125	43445
498.199	44532
498.273	8928
498.348	6770
498.422	4536
498.496	4284
498.570	4077
498.645	2989
498.719	1828
498.793	3965
498.867	4962
498.941	6340
499.016	14989
499.090	44891
499.164	15801
499.238	2950
499.312	1805
499.386	2780
499.460	1899
499.534	2415
499.609	2881
499.683	2798
499.757	3552
499.831	6900
499.905	29250
499.979	26825
500.053	4500
500.127	4626
500.201	2705
500.275	3019
500.349	1626
500.422	2598
500.496	3769
500.570	5624
500.644	15226
500.718	29687
500.792	7089
500.866	2985
500.940	3604
501.013	3375
501.087	1829
501.161	4430
501.235	3587
501.309	9625
501.382	24821
501.456	23759
501.530	5788
501.603	7165
501.677	3652
501.751	408
501.825	2704
501.898	3667
501.972	9684
502.046	5895
502.119	1670
502.193	5516
502.266	10872
502.340	5382
502.413	4303
502.487	8731
502.561	4163
502.634	2046
502.708	2080
502.781	870
502.855	2380
502.928	1168
503.002	1543
503.075	758
503.149	1455
503.222	978
503.295	1337
503.369	1696
503.442	1563
503.516	6989
503.589	16260
503.662	11047
503.736	3419
503.809	9114
503.882	6561
503.956	11410
504.029	10621
504.102	13149
504.175	19257
504.249	6567
504.322	2931
504.395	2093
504.468	1264
504.542	1304
504.615	651
504.688	1940
504.761	-953
504.834	3145
504.907	1829
504.980	2709
505.053	2139
505.127	-458
505.200	4138
505.273	1874
505.346	930
505.419	548
505.492	1194
505.565	1609
505.638	1577
505.711	1286
505.784	325
505.857	770
505.930	2058
506.003	-736
506.076	3369
506.149	987
506.221	-322
506.294	2648
506.367	2115
506.440	14958
506.513	7663
506.586	2300
506.659	1132
506.731	1185
506.804	1727
506.877	827
506.950	1502
507.022	2612
507.095	20
507.168	1673
507.241	1203
507.313	722
507.386	-24
507.459	2075
507.531	1016
507.604	635
507.677	1831
507.749	-439
507.822	1694
507.894	3237
507.967	4406
508.040	2570
508.112	2269
508.185	2315
508.257	796
508.330	4176
508.402	733
508.475	1245
508.547	2213
508.620	2293
508.692	1871
508.765	2485
508.837	1519
508.909	2506
508.982	1303
509.054	1580
509.127	1570
509.199	795
509.271	28
509.344	525
509.416	1307
509.488	700
509.560	1541
509.633	940
509.705	1256
509.777	1319
509.849	1714
509.922	1273
509.994	1764
510.066	2655
510.138	33
510.210	5630
510.283	3190
510.355	3496
510.427	3344
510.499	2565
510.571	1812
510.643	1495
510.715	3654
510.787	1240
510.859	3170
510.931	2173
511.003	2340
511.076	3764
511.148	1236
511.219	1671
511.291	3524
511.363	3550
511.435	1242
511.507	393
511.579	1989
511.651	2457
511.723	904
511.795	1442
511.867	1787
511.939	2453
512.010	2054
512.082	3203
512.154	-90
512.226	1379
512.298	3677
512.369	4300
512.441	3415
512.513	3613
512.585	1058
512.656	3824
512.728	1577
512.800	1973
512.871	2092
512.943	2738
513.015	285
513.086	2359
513.158	2191
513.230	1149
513.301	2083
513.373	2877
513.444	1440
513.516	1421
513.588	1916
513.659	2118
513.731	1569
513.802	1189
513.874	4558
513.945	6034
514.016	1676
514.088	2070
514.159	418
514.231	2249
514.302	3552
514.374	3337
514.445	272
514.516	5039
514.588	2996
514.659	2119
514.730	2527
514.802	3914
514.873	702
514.944	3902
515.016	1421
515.087	2002
515.158	3043
515.229	4024
515.301	1376
515.372	3853
515.443	1682
515.514	1153
515.585	741
515.656	2270
515.728	2236
515.799	771
515.870	1580
515.941	1653
516.012	901
516.083	3387
516.154	1699
516.225	4101
516.296	3688
516.367	2166
516.438	2601
516.509	2895
516.580	2281
516.651	10846
516.722	30783
516.793	17943
516.864	4240
516.935	3790
517.006	4956
517.077	5731
517.148	10420
517.219	30696
517.289	47255
517.360	18370
517.431	7188
517.502	2239
517.573	3526
517.643	2997
517.714	2270
517.785	3454
517.856	2235
517.926	4961
517.997	3726
518.068	4067
518.138	6151
518.209	5525
518.280	18196
518.350	75848
518.421	30810
518.492	5957
518.562	3547
518.633	4733
518.703	2188
518.774	9070
518.845	21340
518.915	22854
518.986	6010
519.056	5086
519.127	5540
519.197	7625
519.268	15809
519.338	11440
519.408	3678
519.479	3649
519.549	2352
519.620	3994
519.690	1398
519.760	2787
519.831	1785
519.901	1833
519.971	2239
520.042	1917
520.112	751
520.182	3001
520.253	2227
520.323	1317
520.393	565
520.463	3634
520.534	-1372
520.604	4232
520.674	3132
520.744	1259
520.814	1107
520.885	4336
520.955	4667
521.025	17710
521.095	6922
521.165	2756
521.235	771
521.305	1657
521.375	1653
521.445	1893
521.515	1102
521.585	2658
521.655	88
521.725	2526
521.795	2146
521.865	-352
521.935	3616
522.005	787
522.075	211
522.145	2595
522.215	688
522.285	1765
522.355	2085
522.424	4444
522.494	3060
522.564	2603
522.634	3934
522.704	13515
522.774	3983
522.843	2465
522.913	1217
522.983	1368
523.053	525
523.122	2265
523.192	1301
523.262	5912
523.331	5580
523.401	2208
523.471	1046
523.540	1697
523.610	411
523.680	2297
523.749	1635
523.819	1496
523.888	554
523.958	1364
524.027	1495
524.097	2382
524.166	664
524.236	35
524.305	3216
524.375	1205
524.444	-254
524.514	3483
524.583	400
524.653	680
524.722	1821
524.791	343
524.861	2535
524.930	-269
524.999	26
525.069	1613
525.138	1561
525.207	1007
525.277	1456
525.346	1067
525.415	1711
525.484	1973
525.554	1489
525.623	2280
525.692	2694
525.761	1704
525.830	2910
525.900	2615
525.969	4453
526.038	8519
526.107	13011
526.176	46588
526.245	38186
526.314	11251
526.383	23167
526.452	29446
526.522	53817
526.591	54276
526.660	11274
526.729	7299
526.797	8703
526.867	10618
526.935	49098
527.004	112751
527.073	67094
527.142	7019
527.211	2885
527.280	2945
527.349	2000
527.418	-7
527.487	2957
527.555	229
527.624	852
527.693	-333
527.762	1971
527.831	316
527.899	1255
527.968	1280
528.037	106
528.106	1321
528.174	1670
528.243	3016
528.312	2363
528.380	2220
528.449	-413
528.518	2318
528.586	-1408
528.655	1575
528.723	422
528.792	43
528.861	-427
528.929	-48
528.998	1446
529.066	671
529.135	281
529.203	-982
529.272	-846
529.340	1882
529.409	1464
529.477	-627
529.545	-336
529.614	2582
529.682	-774
529.751	1014
529.819	3266
529.887	136
529.956	-455
530.024	1333
530.092	-322
530.161	1050
530.229	956
530.297	483
530.365	1866
530.434	246
530.502	-347
530.570	822
530.638	-907
530.707	346
530.775	2943
530.843	-47
530.911	1300
530.979	289
531.047	384
531.115	358
531.183	-543
531.252	844
531.320	716
531.388	136
531.456	1187
531.524	-519
531.592	960
531.660	1973
531.728	57
531.796	157
531.864	98
531.932	296
532.000	-364
532.067	-6
532.135	869
532.203	1319
532.271	-1167
532.339	2632
532.407	4230
532.475	2814
532.542	1907
532.610	2102
532.678	888
532.746	10074
532.814	25922
532.881	5993
532.949	1185
533.017	1139
533.084	1300
533.152	512
533.220	176
533.287	-73
533.355	781
533.423	525
533.490	-153
533.558	1440
533.625	237
533.693	621
533.761	689
533.828	1347
533.896	-689
533.963	2285
534.031	1973
534.098	3358
534.166	546
534.233	381
534.300	1926
534.368	1431
534.435	529
534.503	1507
534.570	1261
534.637	381
534.705	1683
534.772	1833
534.840	3079
534.907	20203
534.974	25926
535.041	3689
535.109	1140
535.176	-684
535.243	1015
535.310	828
535.378	28
535.445	454
535.512	298
535.579	1375
535.646	107
535.714	704
535.781	1714
535.848	1563
535.915	1326
535.982	431
536.049	196
536.116	2212
536.183	-10
536.250	1016
536.317	1276
536.384	1464
536.451	1309
536.518	2416
536.585	-433
536.652	2994
536.719	2756
536.786	840
536.853	1424
536.920	2339
536.987	3482
537.053	1855
537.120	12325
537.187	12624
537.254	1291
537.321	594
537.388	1480
537.454	275
537.521	525
537.588	420
537.654	1621
537.721	1630
537.788	2392
537.855	896
537.921	1419
537.988	938
538.055	1345
538.121	-63
538.188	684
538.254	1667
538.321	3078
538.388	2119
538.454	1214
538.521	1407
538.587	1032
538.654	1068
538.720	878
538.787	1457
538.853	1274
538.920	1524
538.986	1283
539.053	936
539.119	754
539.185	1403
539.252	2346
539.318	1697
539.385	2727
539.451	412
539.517	1567
539.583	2380
539.650	3362
539.716	9614
539.782	2323
539.849	561
539.915	1459
539.981	695
540.047	1321
540.114	834
540.180	2855
540.246	1215
540.312	1880
540.378	3132
540.444	4324
540.510	3960
540.576	10760
540.643	3214
540.709	-514
540.775	1073
540.841	1052
540.907	3016
540.973	1710
541.039	1599
541.105	2488
541.171	2059
541.237	661
541.303	1687
541.369	3435
541.435	2260
541.500	3076
541.566	1083
541.632	662
541.698	1112
541.764	1632
541.830	833
541.896	379
541.961	2078
542.027	820
542.093	1162
542.159	1446
542.224	911
542.290	2954
542.356	2258
542.421	3529
542.487	2185
542.553	924
542.618	1809
542.684	1096
542.750	1443
542.815	1876
542.881	2265
542.947	9079
543.012	7956
543.078	980
543.143	1158
543.209	1769
543.274	1059
543.340	1185
543.405	2828
543.471	5763
543.536	1411
543.602	1544
543.667	-295
543.732	1480
543.798	-552
543.863	1138
543.928	1523
543.994	506
544.059	1620
544.124	1689
544.190	1087
544.255	1967
544.320	1693
544.386	276
544.451	2700
544.516	2263
544.581	1583
544.646	5329
544.712	9735
544.777	3005
544.842	1623
544.907	1008
544.972	1156
545.037	1692
545.102	2100
545.168	1067
545.233	2872
545.298	2761
545.363	1083
545.428	2702
545.493	4734
545.558	6782
545.623	3145
545.688	1513
545.753	2146
545.818	1633
545.883	2993
545.947	1698
546.012	2449
546.077	903
546.142	3452
546.207	1544
546.272	2104
546.337	2091
546.401	2875
546.466	2205
546.531	1118
546.596	2051
546.661	2174
546.725	2993
546.790	2400
546.855	3342
546.919	3009
546.984	3801
547.049	3745
547.113	4015
547.178	3268
547.243	5454
547.307	5408
547.372	5716
547.436	6954
547.501	5678
547.565	7096
547.630	6645
547.695	6057
547.759	6385
547.823	5697
547.888	6441
547.952	5435
548.017	6822
548.081	6953
548.146	7659
548.210	7217
548.274	6516
548.339	7622
548.403	7283
548.468	6053
548.532	5548
548.596	6309
548.660	5815
548.725	7309
548.789	7210
548.853	8484
548.917	7518
548.982	7304
549.046	5749
549.110	4873
549.174	5401
549.238	6300
549.303	6300
549.367	9188
549.431	6927
549.495	6440
549.559	5820
549.623	8383
549.687	8191
549.751	9335
549.815	10730
549.879	9865
549.943	8374
550.007	11342
550.071	10216
550.135	9515
550.199	8615
550.263	8471
550.327	8485
550.391	8692
550.455	8407
550.519	10271
550.582	10675
550.646	12227
550.710	11647
550.774	11533
550.838	11963
550.901	12758
550.965	13990
551.029	14126
551.093	15551
551.156	16835
551.220	20487
551.284	24172
551.347	16903
551.411	16850
551.475	16225
551.538	13401
551.602	11915
551.666	10723
551.729	10276
551.793	10997
551.856	10132
551.920	9558
551.983	9915
552.047	9742
552.110	10318
552.174	10272
552.237	9896
552.301	9869
552.364	9397
552.428	9475
552.491	8349
552.554	9715
552.618	9115
552.681	9599
552.745	8888
552.808	10611
552.871	11737
552.934	10468
552.998	9077
553.061	9530
553.124	9651
553.187	9156
553.251	8371
553.314	9138
553.377	8704
553.440	11592
553.503	11942
553.567	14013
553.630	10062
553.693	9997
553.756	9509
553.819	9595
553.882	9360
553.945	10274
554.008	8834
554.071	8766
554.134	10339
554.197	7838
554.260	9046
554.323	10194
554.386	9134
554.449	9119
554.512	9371
554.575	8751
554.638	9113
554.701	8781
554.764	8912
554.827	8473
554.889	7802
554.952	7487
555.015	7484
555.078	7945
555.141	8684
555.203	8115
555.266	7917
555.329	8075
555.391	6931
555.454	7620
555.517	6689
555.580	7330
555.642	5994
555.705	6121
555.768	6324
555.830	5949
555.893	5053
555.955	6619
556.018	6250
556.080	5776
556.143	5611
556.206	4966
556.268	6571
556.330	5955
556.393	5739
556.455	6755
556.518	6021
556.580	6009
556.643	5298
556.705	5743
556.767	3636
556.830	5563
556.892	5530
556.955	6083
557.017	4920
557.079	4954
557.142	4514
557.204	5079
557.266	6866
557.328	6789
557.391	4049
557.453	3969
557.515	3914
557.577	4842
557.639	5129
557.701	4240
557.764	4749
557.826	5090
557.888	5772
557.950	5276
558.012	6487
558.074	8512
558.136	17389
558.198	46443
558.260	17115
558.322	6007
558.384	6891
558.446	8094
558.508	10657
558.570	12757
558.632	16378
558.694	22443
558.756	29934
558.818	80155
558.880	201185
558.942	68451
559.003	49968
559.065	26918
559.127	11565
559.189	11401
559.251	12328
559.312	17877
559.374	39041
559.436	133174
559.498	68609
559.559	12802
559.621	11111
559.683	13120
559.744	20524
559.806	63243
559.868	97702
559.929	19982
559.991	11264
560.052	17096
560.114	47177
560.176	31703
560.237	25320
560.299	43183
560.360	10089
560.422	3645
560.483	3562
560.545	3711
560.606	3020
560.667	2276
560.729	2332
560.790	2170
560.852	2146
560.913	2473
560.974	2155
561.036	2085
561.097	2580
561.158	2206
561.220	2248
561.281	1778
561.342	1869
561.403	4442
561.465	3543
561.526	7411
561.587	9620
561.648	2822
561.709	2226
561.771	2757
561.832	1719
561.893	2090
561.954	1633
562.015	2144
562.076	2635
562.137	1832
562.198	1474
562.259	2159
562.320	1365
562.381	2539
562.442	2499
562.503	2399
562.564	1361
562.625	2260
562.686	2105
562.747	1898
562.808	1153
562.869	2068
562.930	2202
562.991	2653
563.051	1759
563.112	1927
563.173	1221
563.234	1580
563.294	1884
563.355	1617
563.416	2869
563.477	1919
563.537	1614
563.598	1668
563.659	1591
563.720	-9
563.780	1240
563.841	2150
563.901	2152
563.962	1803
564.023	1926
564.083	2689
564.144	2171
564.204	1723
564.265	1344
564.325	2558
564.386	3481
564.446	3409
564.507	1370
564.567	1955
564.628	2349
564.688	1292
564.749	1023
564.809	2785
564.869	2539
564.930	1003
564.990	1204
565.050	1829
565.111	1516
565.171	1583
565.231	1589
565.292	2015
565.352	1124
565.412	2691
565.472	952
565.532	1813
565.593	1659
565.653	1335
565.713	1428
565.773	1247
565.833	1442
565.893	3842
565.953	1230
566.013	1972
566.074	2184
566.134	2218
566.194	3053
566.254	3852
566.314	1949
566.374	1626
566.434	2519
566.494	3077
566.554	2342
566.614	2813
566.673	2747
566.733	3180
566.793	2199
566.853	2337
566.913	2466
566.973	2657
567.033	3739
567.092	3276
567.152	3059
567.212	3630
567.272	3021
567.331	3178
567.391	3520
567.451	4020
567.511	3917
567.570	4206
567.630	3711
567.690	2547
567.749	3165
567.809	4308
567.868	3620
567.928	5202
567.988	5826
568.047	7140
568.107	8132
568.166	11680
568.226	17456
568.285	24234
568.345	19378
568.404	16864
568.464	14442
568.523	12533
568.582	13353
568.642	14105
568.701	16654
568.761	27795
568.820	43345
568.879	39070
568.939	28407
568.998	20456
569.057	15261
569.116	12361
569.176	10389
569.235	8223
569.294	6574
569.353	6034
569.413	5474
569.472	5234
569.531	4580
569.590	3890
569.649	4342
569.708	3504
569.767	3784
569.827	3731
569.886	3645
569.945	2679
570.004	3221
570.063	2098
570.122	3162
570.181	3426
570.240	2242
570.299	2809
570.358	2733
570.417	2420
570.475	2565
570.534	3798
570.593	3069
570.652	2247
570.711	2255
570.770	2736
570.829	2160
570.887	2888
570.946	3140
571.005	1810
571.064	1898
571.122	2571
571.181	1881
571.240	2745
571.299	2510
571.357	2451
571.416	2499
571.475	2441
571.533	1804
571.592	2745
571.650	2199
571.709	2048
571.768	2470
571.826	2115
571.885	2235
571.943	2198
572.002	1413
572.060	2011
572.119	2595
572.177	2385
572.236	2236
572.294	1162
572.352	2206
572.411	2243
572.469	1233
572.528	2115
572.586	2465
572.644	2266
572.703	3516
572.761	1753
572.819	1843
572.877	1870
572.936	1912
572.994	2288
573.052	1263
573.110	1946
573.169	2137
573.227	2088
573.285	1560
573.343	1430
573.401	2553
573.459	2480
573.517	1721
573.576	1515
573.634	2337
573.692	2277
573.750	1855
573.808	1337
573.866	1394
573.924	2121
573.982	2481
574.040	1578
574.098	1727
574.155	1452
574.213	1619
574.271	2341
574.329	2333
574.387	1648
574.445	1479
574.503	1695
574.560	1382
574.618	1461
574.676	1189
574.734	1590
574.792	1765
574.849	1816
574.907	1809
574.965	1586
575.022	1346
575.080	1052
575.138	1683
575.195	1870
575.253	698
575.311	2144
575.368	1728
575.426	1085
575.483	2449
575.541	2250
575.598	1345
575.656	1913
575.713	940
575.771	1272
575.828	1712
575.886	1764
575.943	2372
576.001	1698
576.058	1048
576.115	1217
576.173	2129
576.230	1875
576.287	2990
576.345	3127
576.402	1477
576.459	2340
576.517	1176
576.574	2271
576.631	2148
576.688	1921
576.746	1127
576.803	1956
576.860	1224
576.917	2382
576.974	1062
577.031	1463
577.089	1491
577.146	1834
577.203	1178
577.260	2114
577.317	1860
577.374	1755
577.431	1275
577.488	1837
577.545	1217
577.602	1528
577.659	1764
577.716	954
577.773	1395
577.830	1392
577.886	1750
577.943	1583
578.000	2024
578.057	640
578.114	1739
578.171	1955
578.227	1368
578.284	1861
578.341	1815
578.398	2352
578.454	1767
578.511	1789
578.568	1586
578.625	723
578.681	1587
578.738	1805
578.794	1416
578.851	2125
578.908	1219
578.964	1835
579.021	2487
579.077	2280
579.134	1772
579.190	1916
579.247	886
579.303	1138
579.360	1084
579.416	1545
579.473	2320
579.529	1986
579.586	2136
579.642	1394
579.698	1096
579.755	1572
579.811	1610
579.867	1972
579.924	1562
579.980	2575
580.036	1849
580.093	1256
580.149	1588
580.205	863
580.261	2942
580.317	1879
580.374	1475
580.430	2941
580.486	1562
580.542	1646
580.598	1274
580.619	1761
580.654	2602
580.692	1834
580.710	1450
580.765	1909
580.767	1919
580.823	2068
580.838	2147
580.879	2327
580.911	2383
580.935	2428
580.984	1436
580.991	1302
581.047	2508
581.057	2407
581.103	1850
581.130	2140
581.159	2460
581.203	2652
581.215	2699
581.270	1617
581.276	1734
581.326	2830
581.349	2859
581.382	2826
581.422	2434
581.438	2289
581.494	2516
581.494	2518
581.550	2272
581.567	2476
581.606	2924
581.640	2868
581.661	2801
581.713	3209
581.717	3248
581.773	2697
581.786	2748
581.829	2809
581.859	3245
581.885	3592
581.932	3066
581.940	2973
581.996	2639
582.004	2665
582.052	2791
582.077	2706
582.107	2556
582.150	3578
582.163	3898
582.219	2825
582.223	2834
582.274	2913
582.296	3249
582.330	3796
582.368	3540
582.386	3414
582.441	3499
582.441	3496
582.497	4151
582.514	3938
582.552	3562
582.587	3809
582.608	3908
582.659	3632
582.663	3604
582.719	3699
582.732	3636
582.774	3536
582.805	3651
582.830	3736
582.877	4014
582.885	4074
582.941	4005
582.950	4114
582.996	4444
583.023	4278
583.052	4260
583.095	4111
583.107	4004
583.162	4140
583.168	4203
583.218	4838
583.240	4646
583.273	4287
583.313	4443
583.328	4627
583.384	4465
583.385	4484
583.439	4515
583.458	4419
583.494	4376
583.531	4651
583.549	4848
583.603	5273
583.605	5280
583.660	4780
583.676	4781
583.715	4829
583.748	4696
583.770	4737
583.820	5143
583.825	5142
583.881	5114
583.893	4988
583.936	4959
583.965	5179
583.991	5132
584.038	4794
584.046	4792
584.101	4931
584.110	5064
584.156	5719
584.183	5868
584.211	5965
584.255	5695
584.266	5633
584.321	5704
584.328	5729
584.376	6240
584.400	6485
584.431	6635
584.472	6245
584.486	6186
584.541	6714
584.545	6710
584.596	6436
584.617	6455
584.651	6877
584.689	7251
584.706	7223
584.761	7259
584.762	7247
584.816	7269
584.834	7724
584.871	8470
584.906	8361
584.926	8498
584.978	8851
584.980	8859
585.035	9528
585.051	9589
585.090	10151
585.123	10978
585.145	11360
585.195	12221
585.200	12413
585.254	13514
585.267	14188
585.309	15640
585.340	16310
585.364	17303
585.412	20015
585.419	20459
585.473	23417
585.484	24190
585.528	29581
585.556	34435
585.583	47671
585.628	76143
585.637	88219
585.692	179701
585.700	196008
585.747	241379
585.772	219056
585.801	145296
585.845	48805
585.856	39551
585.910	22245
585.917	20528
585.965	17183
585.989	16135
586.019	15401
586.061	14039
586.074	13894
586.128	14616
586.133	14628
586.183	14624
586.205	14644
586.237	15090
586.277	14868
586.292	14636
586.346	14311
586.349	14272
586.401	14517
586.421	14690
586.455	15275
586.493	15680
586.509	16639
586.564	19178
586.565	19237
586.618	25202
586.637	26536
586.672	24074
586.709	21368
586.727	20913
586.781	20057
586.781	20093
586.835	17615
586.853	17185
586.889	17258
586.925	17367
586.944	17575
586.996	16923
586.998	16964
587.052	18742
587.068	18754
587.106	18565
587.140	19155
587.161	19764
587.212	20213
587.215	20274
587.269	21279
587.284	21336
587.323	21535
587.356	21886
587.377	22430
587.427	23383
587.431	23474
587.485	24002
587.499	24123
587.539	25327
587.571	26159
587.593	26725
587.643	27944
587.648	28159
587.702	29595
587.715	30083
587.755	32337
587.786	33445
587.810	34000
587.858	35202
587.864	35568
587.917	38748
587.930	39338
587.971	42304
588.001	44824
588.025	46782
588.073	50016
588.079	50710
588.133	55979
588.145	57266
588.187	62854
588.217	66671
588.241	71889
588.288	82238
588.295	83847
588.348	97059
588.360	99721
588.402	113007
588.431	122799
588.456	132882
588.503	153064
588.510	157116
588.564	188507
588.575	195211
588.617	231650
588.646	257736
588.671	296306
588.718	374109
588.725	396970
588.778	578734
588.789	617766
588.832	908030
588.861	1109852
588.886	1292466
588.932	1615084
588.939	1617330
588.993	1530078
589.004	1516375
589.047	1363626
589.075	1219600
589.100	1017549
589.147	628217
589.154	605146
589.207	439980
589.218	407487
589.261	375309
589.290	356796
589.314	373327
589.361	409880
589.368	431998
589.421	619243
589.433	660314
589.475	987125
589.504	1220663
589.528	1339441
589.576	1516840
589.582	1490908
589.635	1206983
589.647	1132644
589.689	750477
589.718	481903
589.742	398231
589.790	244342
589.795	237643
589.849	176661
589.861	163016
589.902	141842
589.932	125942
589.955	115864
590.004	94670
590.009	93740
590.062	81639
590.075	78495
590.115	72519
590.146	67825
590.168	65622
590.218	60193
590.222	60062
590.275	56243
590.289	55082
590.328	53662
590.360	52326
590.381	51361
590.431	48469
590.435	48491
590.488	46473
590.503	45696
590.541	44603
590.574	43544
590.594	43168
590.645	41749
590.647	41854
590.700	40933
590.716	40517
590.753	39767
590.787	38710
590.806	38448
590.859	37611
590.859	37730
590.912	36854
590.930	36546
590.965	36545
591.001	36220
591.018	36179
591.071	35559
591.072	35424
591.124	35934
591.143	35990
591.177	35618
591.214	34971
591.230	35223
591.283	35559
591.285	35443
591.336	35207
591.356	34896
591.389	35005
591.427	34868
591.442	34528
591.495	32704
591.498	32457
591.547	33373
591.569	33562
591.600	33327
591.640	32732
591.653	33196
591.706	34559
591.711	34578
591.759	33828
591.782	33231
591.811	34700
591.853	36551
591.864	36332
591.917	34457
591.924	34038
591.969	34018
591.995	33852
592.022	33948
592.066	33742
592.075	34257
592.127	36582
592.137	36865
592.180	38214
592.208	38874
592.233	37756
592.279	35136
592.285	35217
592.338	34786
592.350	34538
592.390	34536
592.421	34305
592.443	34933
592.491	35880
592.495	35985
592.548	35424
592.562	35125
592.600	35427
592.633	35429
592.653	35395
592.704	34740
592.705	34941
592.775	34952
592.846	35837
592.916	35780
592.987	36260
593.058	36451
593.128	35149
593.199	34050
593.270	35142
593.341	34576
593.411	36762
593.482	35635
593.553	37041
593.623	36258
593.694	37094
593.764	38127
593.835	36973
593.906	36328
593.976	37716
594.047	38137
594.117	41288
594.188	41637
594.258	38371
594.329	38168
594.399	38897
594.470	38407
594.540	40533
594.611	41142
594.681	39336
594.751	40784
594.822	42856
594.892	43031
594.963	45897
595.033	43583
595.103	47084
595.174	46796
595.244	53656
595.314	59088
595.384	48804
595.455	48458
595.525	49744
595.595	50186
595.665	51769
595.736	49945
595.806	51275
595.876	51084
595.946	51375
596.016	52364
596.087	55058
596.157	53047
596.227	54550
596.297	56595
596.367	60841
596.437	62695
596.507	67714
596.577	71141
596.647	65200
596.717	65381
596.787	66148
596.857	65292
596.927	66627
596.997	66762
597.067	66773
597.137	67298
597.207	69012
597.277	69431
597.347	67416
597.417	64807
597.487	66567
597.557	67715
597.626	70547
597.696	69724
597.766	74427
597.836	74455
597.906	64357
597.975	60373
598.045	62492
598.115	63172
598.185	69026
598.254	74881
598.324	82124
598.394	81686
598.464	80165
598.533	77922
598.603	73010
598.672	72047
598.742	73565
598.812	72602
598.881	73979
598.951	74531
599.020	75535
599.090	76115
599.159	79737
599.229	75305
599.299	74685
599.368	75698
599.437	73902
599.507	69288
599.576	68052
599.646	65403
599.715	66458
599.785	64981
599.854	65203
599.924	65024
599.993	63485
600.062	64618
600.132	65265
600.201	69064
600.270	80060
600.340	83148
600.409	81085
600.478	79978
600.547	82806
600.617	75800
600.686	62279
600.755	56394
600.824	56935
600.894	54679
600.963	54536
601.032	52091
601.101	51197
601.170	49341
601.239	49465
601.308	50307
601.378	50503
601.447	48782
601.516	49563
601.585	50619
601.654	53724
601.723	50203
601.792	51557
601.861	52849
601.930	55862
601.999	56672
602.068	55917
602.137	58415
602.206	58366
602.275	57636
602.343	59540
602.412	59530
602.481	57607
602.550	57160
602.619	58303
602.688	58531
602.756	59425
602.825	61118
602.894	62085
602.963	62725
603.032	62843
603.100	62996
603.169	63617
603.238	63856
603.307	63681
603.375	64717
603.444	66808
603.513	65403
603.581	68575
603.650	69323
603.719	67199
603.787	67929
603.856	70274
603.924	72922
603.993	74656
604.061	75270
604.130	79688
604.198	81658
604.267	82242
604.335	82411
604.404	83933
604.472	84932
604.541	86112
604.609	86617
604.678	87429
604.746	86705
604.815	90540
604.883	91848
604.951	91647
605.020	91818
605.088	93661
605.156	95587
605.225	96693
605.293	96062
605.361	98274
605.429	97535
605.498	101124
605.566	103128
605.634	109197
605.702	110334
605.771	113213
605.839	114915
605.907	111172
605.975	107136
606.043	106374
606.111	107228
606.180	107172
606.248	104075
606.316	104706
606.384	105141
606.452	108577
606.520	112918
606.588	111692
606.656	110322
606.724	108750
606.792	102241
606.860	92630
606.928	82986
606.996	80923
607.064	78340
607.132	81629
607.200	85766
607.267	89450
607.335	91022
607.403	93883
607.471	89297
607.539	86968
607.607	86826
607.674	78621
607.742	78605
607.810	79569
607.878	77563
607.946	79717
608.013	83226
608.081	85962
608.149	86023
608.216	88173
608.284	90759
608.352	91047
608.419	89718
608.487	93569
608.555	87090
608.622	89354
608.690	94079
608.757	105185
608.825	106383
608.893	104614
608.960	100039
609.028	99945
609.095	98889
609.163	92719
609.230	84227
609.298	76978
609.365	79042
609.432	87061
609.500	95185
609.567	107490
609.635	122816
609.702	130816
609.769	123025
609.837	97857
609.904	82753
609.971	86825
610.039	96979
610.106	128931
610.173	255756
610.241	588940
610.308	300045
610.375	113200
610.442	90940
610.509	86407
610.577	86131
610.644	87545
610.711	89660
610.778	91404
610.845	96283
610.912	102457
610.980	105445
611.047	108411
611.114	105061
611.181	101012
611.248	100297
611.315	105810
611.382	107731
611.449	113029
611.516	114686
611.583	111967
611.650	112145
611.717	114450
611.784	117992
611.851	123399
611.918	132806
611.984	155053
612.051	225829
612.118	467638
612.185	1119097
612.252	641836
612.319	184232
612.386	151206
612.452	135563
612.519	131409
612.586	131712
612.653	130142
612.719	133364
612.786	127250
612.853	118149
612.919	114367
612.986	116646
613.053	110505
613.120	103492
613.186	100203
613.253	102015
613.319	100101
613.386	101982
613.453	103428
613.519	107728
613.586	108795
613.652	119198
613.719	112502
613.785	108778
613.852	105006
613.918	103289
613.985	105834
614.051	109292
614.118	112636
614.184	107043
614.250	103417
614.317	105979
614.383	105754
614.449	105674
614.516	105967
614.582	106211
614.648	105334
614.715	103026
614.781	101008
614.847	101789
614.914	102270
614.980	99343
615.046	99432
615.112	101210
615.179	104161
615.245	104079
615.311	107975
615.377	118779
615.443	121125
615.509	109142
615.575	111676
615.642	108571
615.708	114010
615.774	117735
615.840	127814
615.906	139843
615.972	179373
616.038	291215
616.104	586723
616.170	1296719
616.236	1006840
616.302	264447
616.368	199809
616.434	142191
616.500	134384
616.565	148348
616.631	184415
616.697	147667
616.763	155042
616.829	237372
616.895	426895
616.961	384203
617.026	160836
617.092	115884
617.158	111467
617.224	106879
617.289	99656
617.355	94739
617.421	95129
617.487	95169
617.552	88231
617.618	87044
617.684	87586
617.749	88254
617.815	84143
617.880	82521
617.946	82230
618.012	84701
618.077	86695
618.143	83485
618.208	83477
618.274	89559
618.339	90615
618.405	75331
618.470	76099
618.536	75945
618.601	76583
618.667	71007
618.732	67557
618.798	66812
618.863	66391
618.928	65225
618.994	68157
619.059	69739
619.124	77830
619.190	68419
619.255	63726
619.320	65763
619.386	65781
619.451	63176
619.516	64329
619.581	64127
619.647	66785
619.712	65380
619.777	62315
619.842	63284
619.907	66913
619.972	66116
620.038	66317
620.103	61958
620.168	62235
620.233	63507
620.298	64001
620.363	64668
620.428	66202
620.493	67624
620.558	68018
620.623	67748
620.688	68630
620.753	67385
620.818	71107
620.883	69882
620.948	69531
621.013	69216
621.078	67808
621.143	68131
621.207	71671
621.272	69431
621.337	70264
621.402	69373
621.467	73580
621.532	72949
621.596	70162
621.661	67218
621.726	64414
621.791	66093
621.855	67376
621.920	67247
621.985	67081
622.049	69546
622.114	69357
622.179	70011
622.243	73212
622.308	73548
622.373	77213
622.437	74735
622.502	70357
622.566	69490
622.631	70364
622.695	71269
622.760	71740
622.824	70366
622.889	70546
622.953	72719
623.018	87874
623.082	85340
623.147	75176
623.211	74627
623.276	73073
623.340	69515
623.404	67685
623.469	67316
623.533	69107
623.597	66110
623.662	66489
623.726	60533
623.790	58727
623.854	57011
623.919	59160
623.983	59411
624.047	59266
624.111	60008
624.176	61825
624.240	64152
624.304	68998
624.368	61033
624.432	61661
624.496	63476
624.560	67880
624.625	68457
624.689	65992
624.753	67783
624.817	64615
624.881	63579
624.945	58757
625.009	55837
625.073	57712
625.137	60550
625.201	69736
625.265	67152
625.329	60632
625.393	61544
625.456	59936
625.520	62362
625.584	64975
625.648	69774
625.712	79621
625.776	113026
625.839	114398
625.903	64112
625.967	53298
626.031	67852
626.095	88231
626.158	60979
626.222	45479
626.286	44073
626.349	42769
626.413	40812
626.477	43736
626.540	40653
626.604	40832
626.668	40918
626.731	39943
626.795	41250
626.858	41965
626.922	39260
626.986	39482
627.049	37728
627.113	41278
627.176	38193
627.240	38259
627.303	37911
627.366	37975
627.430	39688
627.493	38854
627.557	38071
627.620	40004
627.684	40110
627.747	41719
627.810	36309
627.874	35072
627.937	33706
628.000	37145
628.064	34190
628.127	30429
628.190	32006
628.253	31174
628.317	29825
628.380	29029
628.443	28675
628.506	29123
628.569	26471
628.632	26208
628.696	25931
628.759	25773
628.822	24291
628.885	24632
628.948	23908
629.011	24465
629.074	24032
629.137	22801
629.200	22763
629.263	24931
629.326	21135
629.389	22631
629.452	22642
629.515	23486
629.578	22397
629.641	24235
629.704	23692
629.767	24472
629.830	21673
629.892	21823
629.955	20696
630.018	23812
630.081	22894
630.144	26885
630.207	21689
630.269	24074
630.332	22245
630.395	21667
630.458	19758
630.520	20344
630.583	21366
630.646	20188
630.708	19826
630.771	20843
630.834	20091
630.896	21184
630.959	20024
631.021	20316
631.084	20326
631.146	22720
631.209	22590
631.272	20392
631.334	20516
631.397	20696
631.459	20467
631.522	22724
631.584	21257
631.646	24653
631.709	25430
631.771	28483
631.834	23758
631.896	22848
631.958	19379
632.021	21811
632.083	19176
632.145	20586
632.208	19337
632.270	21099
632.332	18577
632.395	19650
632.457	19862
632.519	18913
632.581	19910
632.643	18589
632.706	19390
632.768	18629
632.830	19345
632.892	19199
632.954	18203
633.016	20587
633.078	18630
633.141	19465
633.203	18661
633.265	19843
633.327	18726
633.389	18662
633.451	20272
633.513	22598
633.575	20748
633.637	21574
633.698	20879
633.760	21178
633.822	19663
633.884	20499
633.946	20602
634.008	21048
634.070	21799
634.132	23334
634.193	23892
634.255	26800
634.317	26290
634.379	27045
634.441	23693
634.502	22187
634.564	20274
634.626	19486
634.687	17909
634.749	17948
634.811	18545
634.873	17471
634.934	17682
634.996	18299
635.057	17219
635.119	16837
635.181	17273
635.242	19199
635.304	16474
635.365	20020
635.427	17806
635.488	18649
635.550	16750
635.611	18774
635.673	16552
635.734	20590
635.796	20385
635.857	23104
635.918	22049
635.980	25938
636.041	25170
636.102	27325
636.164	27143
636.225	26917
636.286	22100
636.348	22115
636.409	18706
636.470	17204
636.531	18298
636.593	18581
636.654	18107
636.715	16840
636.776	15411
636.838	15682
636.899	16628
636.960	15357
637.021	14245
637.082	15057
637.143	14181
637.204	13943
637.265	12897
637.326	14586
637.387	15734
637.448	14115
637.509	14941
637.570	15156
637.631	15233
637.692	13343
637.753	12615
637.814	13491
637.875	13245
637.936	14594
637.997	12795
638.058	13369
638.119	14626
638.179	13854
638.240	12848
638.301	13803
638.362	12435
638.423	14124
638.483	13362
638.544	11831
638.605	13472
638.666	11868
638.726	13621
638.787	13473
638.848	12863
638.908	11847
638.969	12316
639.030	12319
639.090	10423
639.151	12753
639.211	14472
639.272	16146
639.332	22390
639.393	15717
639.453	12458
639.514	14406
639.574	12309
639.635	11522
639.695	11511
639.756	11645
639.816	12099
639.877	15293
639.937	19366
639.997	23057
640.058	11710
640.118	11326
640.178	12533
640.239	12031
640.299	10675
640.359	10991
640.420	12084
640.480	13912
640.540	14799
640.600	14660
640.661	13037
640.721	12964
640.781	15074
640.841	12463
640.901	10926
640.961	13097
641.021	12599
641.082	13847
641.142	15157
641.202	12359
641.262	9305
641.322	11567
641.382	9481
641.442	12267
641.502	10370
641.562	11538
641.622	9477
641.682	11185
641.742	12657
641.802	12806
641.861	11680
641.921	11529
641.981	12195
642.041	12544
642.101	14204
642.161	9827
642.221	10032
642.280	9886
642.340	9692
642.400	9520
642.460	11166
642.519	10553
642.579	9660
642.639	11655
642.698	8424
642.758	13377
642.818	11219
642.877	10088
642.937	11250
642.997	13488
643.056	15811
643.116	11460
643.175	12393
643.235	10491
643.294	11275
643.354	11427
643.414	13533
643.473	14961
643.532	17878
643.592	24851
643.651	39575
643.711	72541
643.770	148888
643.830	373998
643.889	728784
643.948	152444
644.008	31049
644.067	20340
644.126	14946
644.186	13127
644.245	13091
644.304	10544
644.363	13057
644.423	10643
644.482	10235
644.541	11389
644.600	9653
644.659	15071
644.719	16734
644.778	27729
644.837	47457
644.896	103109
644.955	231098
645.014	62796
645.073	16857
645.132	12916
645.191	12621
645.250	10367
645.309	12313
645.368	13109
645.427	17398
645.486	28501
645.545	47955
645.604	13725
645.663	10372
645.722	11085
645.781	11865
645.840	13255
645.898	15876
645.957	24187
646.016	36153
646.075	70613
646.134	140588
646.192	399580
646.251	517521
646.310	71338
646.369	22136
646.427	19189
646.486	13091
646.545	12671
646.603	10759
646.662	10209
646.721	8641
646.779	9243
646.838	9466
646.896	13384
646.955	17291
647.014	28253
647.072	55536
647.131	153308
647.189	59321
647.248	12379
647.306	9506
647.365	10054
647.423	6353
647.481	9160
647.540	5964
647.598	7743
647.657	6852
647.715	7635
647.773	6761
647.832	8634
647.890	6440
647.948	6923
648.007	7088
648.065	6285
648.123	6321
648.181	8476
648.240	7462
648.298	5720
648.356	7074
648.414	7214
648.472	6764
648.531	7426
648.589	6608
648.647	6514
648.705	6086
648.763	6785
648.821	6316
648.879	7047
648.937	7426
648.995	9448
649.053	11946
649.111	18997
649.169	32799
649.227	58503
649.285	130350
649.343	370346
649.401	145284
649.459	34249
649.516	19347
649.574	9802
649.632	13960
649.690	13213
649.748	14726
649.806	19565
649.863	38598
649.921	108141
649.979	59994
650.037	9596
650.094	5288
650.152	6764
650.210	5247
650.268	6741
650.325	5563
650.383	6500
650.440	5179
650.498	6660
650.556	4815
650.613	4994
650.671	5509
650.728	6132
650.786	5921
650.843	7951
650.901	4109
650.958	6033
651.016	5446
651.073	4694
651.131	4053
651.188	4182
651.246	4833
651.303	3863
651.360	4423
651.418	4665
651.475	4727
651.532	3192
651.590	4395
651.647	4240
651.704	4414
651.762	4414
651.819	4223
651.876	4484
651.933	3629
651.990	4762
652.048	2743
652.105	4041
652.162	4761
652.219	3607
652.276	4183
652.333	5052
652.390	2732
652.448	4115
652.505	3675
652.562	4221
652.619	3549
652.676	4881
652.733	4782
652.790	3832
652.847	2520
652.904	5302
652.961	2060
653.017	3750
653.074	4539
653.131	5241
653.188	3465
653.245	4658
653.302	3869
653.359	4071
653.415	3779
653.472	4301
653.529	4026
653.586	3778
653.642	3473
653.699	4529
653.756	2513
653.813	3948
653.869	3928
653.926	3339
653.983	3731
654.039	3514
654.096	2891
654.152	5733
654.209	1750
654.266	3873
654.322	2851
654.379	4756
654.435	4771
654.492	5464
654.548	6506
654.605	8201
654.661	4913
654.717	4189
654.774	4355
654.830	4024
654.887	3728
654.943	3698
655.000	4571
655.056	3810
655.112	4327
655.168	3321
655.225	3241
655.281	5029
655.337	4978
655.394	7123
655.450	4914
655.506	4855
655.562	6954
655.618	6165
655.675	2886
655.731	4416
655.787	3404
655.843	4031
655.899	1373
655.955	3936
656.011	3518
656.067	3102
656.123	3013
656.179	3750
656.235	5161
656.291	2689
656.347	4139
656.403	2985
656.459	3471
656.515	4723
656.571	3465
656.627	4597
656.683	3075
656.739	4356
656.795	3115
656.850	3526
656.906	4373
656.962	4481
657.018	2895
657.074	4316
657.129	5225
657.185	7709
657.241	14945
657.297	8082
657.352	4633
657.408	4017
657.464	4361
657.519	3999
657.575	2683
657.630	3465
657.686	3114
657.742	2787
657.797	2984
657.853	3711
657.908	4402
657.964	2178
658.019	3706
658.075	3934
658.130	3409
658.186	2763
658.241	2577
658.297	2720
658.352	2258
658.407	3899
658.463	1871
658.518	3840
658.573	2942
658.629	2587
658.684	2593
658.739	2767
658.795	2026
658.850	3107
658.905	1693
658.960	3257
659.016	2769
659.071	2962
659.126	3053
659.181	4195
659.236	7261
659.291	6027
659.346	3915
659.401	4296
659.457	2975
659.512	2932
659.567	3611
659.622	3279
659.677	2971
659.732	3455
659.787	3021
659.842	3905
659.897	3653
659.952	2918
660.007	2605
660.061	3299
660.116	2496
660.171	2956
660.226	2098
660.281	4048
660.336	2118
660.391	4247
660.445	2277
660.500	3249
660.555	2644
660.610	2586
660.664	2646
660.719	2626
660.774	2947
660.828	3031
660.883	2389
660.938	3865
660.992	1610
661.047	3515
661.101	2744
661.156	3140
661.211	1948
661.265	2735
661.320	2156
661.374	3016
661.429	1725
661.483	3731
661.538	1446
661.592	3310
661.647	2499
661.701	3338
661.755	2319
661.810	3460
661.864	2231
661.919	3119
661.973	2793
662.027	3204
662.081	1605
662.136	2957
662.190	3593
662.244	3439
662.299	2635
662.353	3217
662.407	2241
662.461	2374
662.515	3466
662.569	2617
662.624	3484
662.678	2982
662.732	2584
662.786	3332
662.840	2258
662.894	3315
662.948	2247
663.002	2906
663.056	3185
663.110	2371
663.164	2257
663.218	2482
663.272	2130
663.326	2475
663.380	2967
663.434	2947
663.488	3312
663.542	3355
663.595	2624
663.649	2482
663.703	2651
663.757	2073
663.811	1606
663.864	3243
663.918	3127
663.972	3093
664.026	3166
664.079	2364
664.133	3113
664.187	2795
664.240	2552
664.294	2255
664.348	2863
664.401	2752
664.455	1935
664.508	2041
664.562	2243
664.615	2786
664.669	1711
664.722	2907
664.776	2597
664.829	3155
664.883	1950
664.936	2558
664.990	3526
665.043	3369
665.097	2250
665.150	3882
665.203	2173
665.257	3138
665.310	3312
665.363	3338
665.417	2838
665.470	2543
665.523	2256
665.576	2639
665.630	2694
665.683	3505
665.736	3265
665.789	3184
665.842	2404
665.895	3689
665.949	3335
666.002	3247
666.055	2577
666.108	3776
666.161	2563
666.214	3120
666.267	2858
666.320	3687
666.373	2880
666.426	3827
666.479	2344
666.532	3390
666.585	3232
666.638	3642
666.691	2964
666.744	4908
666.796	3375
666.849	3416
666.902	3062
666.955	3373
667.008	2999
667.060	3061
667.113	2007
667.166	3174
667.219	1406
667.271	3046
667.324	3104
667.377	2762
667.430	2524
667.482	3381
667.535	2754
667.587	4260
667.640	2539
667.693	4255
667.745	5513
667.798	6233
667.850	2764
667.903	2821
667.955	2577
668.008	2951
668.060	3936
668.113	3125
668.165	3575
668.218	4088
668.270	2946
668.322	3532
668.375	2983
668.427	3924
668.479	2368
668.532	3939
668.584	2638
668.636	3064
668.689	3248
668.741	3869
668.793	3144
668.845	3478
668.898	2247
668.950	2857
669.002	2779
669.054	3233
669.106	2398
669.158	2838
669.211	2411
669.263	3743
669.315	3716
669.367	3245
669.419	2917
669.471	4184
669.523	4191
669.575	4669
669.627	3400
669.679	2947
669.731	2788
669.783	3299
669.835	3975
669.886	3334
669.938	2776
669.990	3421
670.042	2232
670.094	2926
670.146	2173
670.197	3515
670.249	2369
670.301	3550
670.353	4590
670.404	5500
670.456	7126
670.508	10161
670.560	16194
670.611	28579
670.663	50220
670.715	132427
670.766	181012
670.818	33483
670.869	7763
670.921	5504
670.972	5166
671.024	3853
671.075	3933
671.127	4479
671.178	2484
671.230	4463
671.281	3356
671.333	3868
671.384	3413
671.436	5106
671.487	6577
671.538	8700
671.590	12570
671.641	20546
671.692	36592
671.744	69434
671.795	37643
671.846	13344
671.897	6359
671.949	5482
672.000	4838
672.051	4041
672.102	4337
672.153	3323
672.204	3237
672.256	3744
672.307	3119
672.358	3073
672.409	2679
672.460	3309
672.511	2784
672.562	2801
672.613	2189
672.664	3138
672.715	3048
672.766	2770
672.817	2660
672.868	2799
672.919	1189
672.970	2633
673.021	1843
673.071	2552
673.122	2002
673.173	2815
673.224	2307
673.275	2596
673.326	1686
673.376	2950
673.427	2364
673.478	2935
673.528	2673
673.579	2315
673.630	2383
673.680	3755
673.731	1628
673.782	2377
673.832	2333
673.883	3214
673.934	1690
673.984	2498
674.035	1381
674.085	2494
674.136	2976
674.186	3436
674.237	3157
674.287	4677
674.338	2749
674.388	2363
674.438	1729
674.489	2390
674.539	2284
674.589	2740
674.640	2573
674.690	2420
674.740	2324
674.791	3653
674.841	1299
674.891	3473
674.942	1930
674.992	2611
675.042	1545
675.092	2280
675.142	1671
675.193	1981
675.243	1982
675.293	2622
675.343	1635
675.393	2570
675.443	2159
675.493	1827
675.543	1624
675.593	2344
675.643	1617
675.693	2490
675.743	2011
675.793	1941
675.843	1138
675.893	2337
675.943	2431
675.993	2238
676.043	1501
676.093	2353
676.142	1078
676.192	2929
676.242	1914
676.292	1547
676.341	916
676.391	2474
676.441	1360
676.491	2233
676.540	1521
676.590	1639
676.640	1414
676.689	1404
676.739	894
676.789	1701
676.838	1543
676.888	2155
676.937	1758
676.987	1783
677.037	1262
677.086	1771
677.136	1212
677.185	1553
677.235	600
677.284	1315
677.333	1373
677.383	1242
677.432	95
677.482	1465
677.531	1303
677.580	1822
677.630	1385
677.679	1598
677.728	1861
677.778	1716
677.827	1009
677.876	2028
677.925	1069
677.975	1246
678.024	1091
678.073	1747
678.122	2151
678.171	1960
678.220	1445
678.269	2790
678.319	1737
678.368	2234
678.417	1856
678.466	2849
678.515	1610
678.564	2435
678.613	1203
678.662	1132
678.711	762
678.760	1716
678.809	1533
678.857	1486
678.906	1675
678.955	1866
679.004	1919
679.053	2412
679.102	913
679.151	1805
679.199	639
679.248	2624
679.297	1560
679.346	1108
679.394	861
679.443	1092
679.492	1586
679.540	2057
679.589	2062
679.638	1760
679.686	696
679.735	1665
679.784	1433
679.832	1606
679.881	1043
679.929	1587
679.978	1325
680.026	1472
680.075	909
680.123	1936
680.172	615
680.220	1253
680.268	1075
680.317	710
680.365	831
680.414	988
680.462	735
680.510	2229
680.559	450
680.607	1527
680.655	1206
680.703	1029
680.752	1279
680.800	1418
680.848	717
680.896	1165
680.945	958
680.993	891
681.041	571
681.089	1352
681.137	860
681.185	1130
681.233	713
681.258	907
681.281	1070
681.329	1052
681.377	1187
681.380	1224
681.425	1525
681.473	1501
681.502	1480
681.521	1431
681.569	2336
681.617	1319
681.624	1403
681.665	1790
681.713	1214
681.745	1468
681.761	1562
681.809	1081
681.857	2351
681.867	2219
681.904	1679
681.952	1761
681.989	1742
682.000	1714
682.048	1533
682.096	1765
682.111	2018
682.143	2492
682.191	1917
682.233	2336
682.239	2375
682.286	2120
682.334	1774
682.354	1393
682.382	829
682.430	1917
682.476	1408
682.477	1380
682.525	2366
682.572	1387
682.598	1627
682.620	1839
682.667	1476
682.715	2529
682.720	2608
682.763	3086
682.810	2559
682.841	2294
682.857	2124
682.905	1905
682.952	2194
682.963	2306
683.000	2663
683.047	1788
683.085	3127
683.095	3469
683.142	2223
683.190	2888
683.206	2575
683.237	1969
683.284	3453
683.328	2267
683.332	2146
683.379	2313
683.426	1857
683.449	2002
683.473	2208
683.521	1944
683.568	2887
683.571	2933
683.615	3192
683.662	2593
683.693	2613
683.709	2607
683.757	2721
683.804	2835
683.814	2817
683.851	2678
683.898	3068
683.936	2953
683.945	2941
683.992	2806
684.039	3921
684.057	3500
684.086	2750
684.133	3525
684.179	2864
684.180	2826
684.227	3566
684.274	3407
684.300	3610
684.321	3744
684.368	2719
684.415	4606
684.422	4389
684.462	3029
684.509	3674
684.543	3302
684.556	3166
684.603	3879
684.649	2830
684.665	3093
684.696	3620
684.743	3644
684.786	3428
684.790	3403
684.837	3238
684.883	4038
684.908	3986
684.930	3904
684.977	4543
685.023	3842
685.029	3867
685.070	3866
685.117	4059
685.150	4012
685.164	4031
685.210	4582
685.257	4748
685.272	4723
685.303	4580
685.350	4757
685.393	4588
685.396	4582
685.443	4657
685.490	5087
685.514	5116
685.536	4909
685.583	4570
685.629	4797
685.636	4681
685.675	4238
685.722	4923
685.757	4393
685.768	4178
685.815	5193
685.861	4636
685.878	4657
685.908	4839
685.954	4880
686.000	6112
686.000	6122
686.047	5204
686.093	5605
686.121	5060
686.139	4771
686.185	5485
686.232	4997
686.242	5155
686.278	5486
686.324	5098
686.363	5089
686.370	5111
686.416	5305
686.463	5274
686.484	4929
686.509	4539
686.555	5251
686.601	4838
686.606	4885
686.647	5226
686.693	5108
686.727	5223
686.739	5266
686.785	4816
686.831	5272
686.848	5266
686.877	5250
686.923	4758
686.969	4549
686.969	4547
687.015	5189
687.061	5100
687.090	5340
687.107	5386
687.153	5338
687.199	5036
687.211	4858
687.245	4518
687.291	5924
687.332	5906
687.336	5911
687.382	5775
687.428	5624
687.453	6126
687.474	6433
687.520	5448
687.565	6024
687.574	5946
687.611	5821
687.657	6137
687.695	5916
687.702	5941
687.748	7615
687.794	7844
687.816	8152
687.839	7915
687.885	7234
687.931	6522
687.937	6385
687.976	5880
688.022	6173
688.058	6196
688.067	6259
688.113	6376
688.158	5412
688.179	5844
688.204	6316
688.249	6347
688.295	6097
688.300	6142
688.340	6643
688.386	6702
688.421	6434
688.431	6282
688.477	6527
688.522	5975
688.542	6043
688.567	6366
688.613	6337
688.658	6694
688.663	6664
688.703	6156
688.749	5969
688.784	5639
688.794	5648
688.839	6336
688.884	6531
688.905	6865
688.930	7165
688.975	6416
689.020	7053
689.026	6965
689.065	6549
689.110	7185
689.146	7317
689.155	7280
689.201	7034
689.246	6672
689.267	6672
689.291	6823
689.336	6861
689.381	7303
689.388	7280
689.426	7081
689.471	6749
689.509	6706
689.516	6739
689.561	6513
689.606	6737
689.630	6926
689.651	7015
689.696	6401
689.741	7194
689.750	7043
689.785	6668
689.830	7118
689.871	6992
689.875	6984
689.920	7282
689.965	6537
689.992	6810
690.010	6934
690.054	6182
690.099	6328
690.112	6328
690.144	6438
690.189	6364
690.233	5841
690.233	5849
690.278	6587
690.323	6360
690.354	6708
690.367	6811
690.412	6751
690.457	6709
690.474	6809
690.501	6947
690.546	6664
690.590	6460
690.595	6471
690.635	6987
690.680	6330
690.716	7215
690.724	7390
690.769	7543
690.813	7835
690.836	7360
690.857	7020
690.902	7543
690.946	7175
690.957	7364
690.991	8410
691.035	8886
691.077	9708
691.080	9719
691.124	9019
691.168	9105
691.198	8865
691.213	8789
691.257	8424
691.301	7990
691.318	7981
691.346	8035
691.390	7490
691.434	7464
691.439	7413
691.478	7428
691.522	7637
691.559	8003
691.567	8079
691.611	8042
691.655	8271
691.680	8115
691.699	7910
691.743	7926
691.787	7756
691.800	7583
691.831	7358
691.875	7563
691.919	7380
691.921	7367
691.964	7652
692.008	8073
692.041	8334
692.052	8412
692.096	8055
692.139	8689
692.162	8666
692.183	8382
692.227	7903
692.271	7292
692.282	7226
692.315	7574
692.359	7663
692.402	7931
692.403	7948
692.447	7809
692.490	8078
692.523	8206
692.534	8267
692.578	8365
692.622	8169
692.643	8353
692.666	8469
692.709	7837
692.753	7865
692.763	7734
692.797	7344
692.840	7445
692.884	7120
692.884	7141
692.928	7766
692.971	8436
693.004	8994
693.015	8994
693.059	8514
693.102	8495
693.124	8271
693.146	8265
693.189	8370
693.233	8455
693.245	8476
693.276	8539
693.320	8696
693.363	8554
693.365	8523
693.407	8491
693.450	9080
693.485	9295
693.493	9314
693.537	9353
693.580	9060
693.605	8926
693.624	9064
693.667	9634
693.710	10102
693.725	10244
693.753	11121
693.797	12696
693.840	13853
693.845	13964
693.883	13551
693.926	13025
693.966	12641
693.970	12551
694.013	11406
694.056	10252
694.086	9298
694.099	9360
694.142	9690
694.185	9971
694.206	10021
694.229	9881
694.272	9525
694.315	9424
694.326	9340
694.358	9539
694.401	9980
694.444	9960
694.446	9954
694.487	10064
694.530	9780
694.566	9844
694.573	9836
694.616	9152
694.659	9222
694.686	8718
694.702	8624
694.745	8822
694.787	9118
694.806	9062
694.830	9165
694.873	9513
694.916	9746
694.926	9766
694.959	9422
695.002	9296
695.044	8551
695.046	8518
695.087	9045
695.130	9371
695.166	9854
695.172	9885
695.215	9573
695.258	9349
695.286	9115
695.301	9116
695.343	9220
695.386	9257
695.406	9245
695.428	9303
695.471	9495
695.514	9497
695.526	9476
695.556	9702
695.599	10163
695.641	10553
695.646	10563
695.684	10258
695.726	9917
695.766	9514
695.769	9548
695.811	9662
695.854	9974
695.886	9993
695.896	10015
695.938	10038
695.981	10065
696.005	10180
696.023	10524
696.065	11099
696.108	11810
696.125	11936
696.150	11675
696.192	11582
696.235	11286
696.245	11182
696.277	11194
696.319	11094
696.361	11170
696.365	11138
696.404	10778
696.446	10409
696.485	9917
696.488	9977
696.530	10544
696.572	10972
696.604	11415
696.614	11421
696.656	11065
696.698	10986
696.724	10769
696.740	10787
696.783	10918
696.825	11064
696.844	11019
696.867	10980
696.909	10999
696.951	10858
696.964	10834
696.992	10988
697.034	11080
697.076	11171
697.083	11181
697.118	11480
697.160	11530
697.202	11776
697.203	11749
697.244	12130
697.286	12490
697.323	12737
697.327	12708
697.369	12169
697.411	11553
697.442	11151
697.453	11368
697.494	11977
697.536	12653
697.562	13069
697.578	12939
697.620	12485
697.661	11912
697.682	11671
697.703	12124
697.744	12904
697.786	13753
697.801	13966
697.828	13732
697.869	13406
697.911	13023
697.921	12906
697.952	12891
697.994	12792
698.035	12729
698.040	12680
698.077	12377
698.118	12053
698.160	11622
698.160	11586
698.201	11806
698.243	11983
698.279	12197
698.284	12295
698.325	12764
698.367	13327
698.399	13710
698.408	13677
698.449	13359
698.491	13007
698.518	12748
698.532	12806
698.573	12880
698.614	12969
698.638	12963
698.656	13073
698.697	13284
698.738	13438
698.757	13501
698.779	13493
698.820	13370
698.862	13258
698.877	13179
698.903	13424
698.944	13758
698.985	14093
698.996	14150
699.026	13661
699.067	12926
699.116	12019
699.235	13172
699.354	12610
699.474	12795
699.593	13332
699.713	12281
699.832	12151
699.951	14086
700.070	13859
700.190	13153
700.309	12587
700.428	12990
700.547	11933
700.667	12626
700.786	12090
700.905	11728
701.024	11663
701.143	11943
701.262	11422
701.381	12615
701.500	12233
701.619	13200
701.738	11799
701.857	11729
701.976	11742
702.095	11883
702.214	12889
702.333	11776
702.452	12081
702.571	11521
702.690	10919
702.809	11661
702.928	10588
703.047	10808
703.165	10839
703.284	11732
703.403	11133
703.522	12108
703.640	11072
703.759	12802
703.878	13357
703.997	11431
704.115	9961
704.234	10689
704.353	10593
704.471	10491
704.590	9339
704.708	9599
704.827	9607
704.946	9459
705.064	10021
705.183	9501
705.301	10290
705.420	12243
705.538	11924
705.656	10282
705.775	10507
705.893	13813
706.012	13946
706.130	11082
706.249	10083
706.367	10070
706.485	11050
706.604	10808
706.722	11338
706.840	13037
706.958	16727
707.077	12117
707.195	10005
707.313	9801
707.431	9911
707.549	9203
707.668	9139
707.786	11077
707.904	8666
708.022	9613
708.140	9694
708.258	9705
708.376	10121
708.494	9086
708.612	10017
708.730	13126
708.848	10913
708.966	11205
709.084	11915
709.202	10832
709.320	10419
709.438	10528
709.556	9854
709.674	10856
709.791	10555
709.909	10285
710.027	9709
710.145	9839
710.263	10013
710.380	10709
710.498	9904
710.616	9473
710.733	9230
710.851	9726
710.969	9567
711.086	9463
711.204	10055
711.322	9552
711.439	8750
711.557	10035
711.674	10104
711.792	9136
711.909	8635
712.027	9756
712.144	8113
712.262	9572
712.379	8898
712.497	12538
712.614	11936
712.732	10955
712.849	9987
712.966	11335
713.084	13540
713.201	11743
713.318	11302
713.436	10135
713.553	11199
713.670	12944
713.787	12062
713.905	12070
714.022	10470
714.139	11871
714.256	16131
714.373	23761
714.490	43329
714.608	129869
714.725	561064
714.842	490722
714.959	34867
715.076	16896
715.193	13393
715.310	12524
715.427	9886
715.544	10276
715.661	10200
715.778	10421
715.895	10538
716.011	10960
716.128	9145
716.245	9855
716.362	11342
716.479	11306
716.596	9209
716.713	10340
716.829	9108
716.946	8660
717.063	8423
717.180	8629
717.296	7636
717.413	8798
717.530	8479
717.646	8943
717.763	8080
717.880	8190
717.996	7317
718.113	8056
718.229	7909
718.346	7690
718.462	8381
718.579	10585
718.695	17041
718.812	11548
718.928	8393
719.045	7882
719.161	7733
719.277	8139
719.394	7769
719.510	8652
719.626	8448
719.743	12490
719.859	18601
719.975	37514
720.092	167633
720.208	358054
720.324	33529
720.440	11540
720.557	10547
720.673	14427
720.789	14296
720.905	20564
721.021	9606
721.137	7393
721.253	6620
721.369	6812
721.486	7765
721.602	9252
721.718	6834
721.834	6915
721.950	6566
722.066	6198
722.181	6238
722.297	7350
722.413	6750
722.529	6851
722.645	6450
722.761	6690
722.877	6118
722.993	6916
723.108	8798
723.224	7629
723.340	6571
723.456	6602
723.571	6390
723.687	5774
723.803	6187
723.918	6621
724.034	5711
724.150	5741
724.265	5929
724.381	9549
724.497	9433
724.612	5319
724.728	5526
724.843	6003
724.959	5741
725.074	9710
725.190	9655
725.305	5911
725.421	4850
725.536	5061
725.651	5525
725.767	5584
725.882	5636
725.997	5435
726.113	4996
726.228	5504
726.343	4692
726.459	5300
726.574	5026
726.689	5181
726.804	4887
726.920	5255
727.035	4515
727.150	4463
727.265	4512
727.380	5875
727.495	5091
727.610	5303
727.725	4361
727.841	5759
727.956	6431
728.071	5759
728.186	5289
728.301	4601
728.416	5082
728.531	4951
728.645	4837
728.760	5825
728.875	5268
728.990	6169
729.105	5019
729.220	5242
729.335	4898
729.449	4600
729.564	4449
729.679	4739
729.794	4644
729.908	4611
730.023	4587
730.138	4922
730.253	4637
730.367	4361
730.482	4707
730.596	4707
730.711	4675
730.826	6131
730.940	6146
731.055	5417
731.169	4451
731.284	5806
731.398	3916
731.513	6699
731.627	5185
731.742	6093
731.856	6430
731.970	7048
732.085	9352
732.199	14468
732.313	25841
732.428	71485
732.542	216057
732.656	107539
732.771	18437
732.885	10243
732.999	8314
733.113	8249
733.227	7047
733.342	6933
733.456	6590
733.570	6151
733.684	6491
733.798	6893
733.912	5264
734.026	5369
734.140	6572
734.254	6560
734.368	6966
734.482	8620
734.596	4318
734.710	5101
734.824	5186
734.938	5798
735.052	5276
735.166	5487
735.280	4865
735.393	5229
735.507	4872
735.621	5673
735.735	6957
735.849	5428
735.962	4688
736.076	5383
736.190	5269
736.303	6232
736.417	6860
736.531	5627
736.644	4884
736.758	4945
736.872	5102
736.985	4731
737.099	4753
737.212	4550
737.326	4695
737.439	5521
737.553	4236
737.666	5684
737.780	4232
737.893	5254
738.007	3792
738.120	3643
738.233	4361
738.347	4723
738.460	3758
738.573	5161
738.687	4620
738.800	5153
738.913	6596
739.026	4795
739.140	4487
739.253	4164
739.366	3340
739.479	4086
739.592	3653
739.705	4611
739.818	4741
739.932	4307
740.045	4151
740.158	4930
740.271	4542
740.384	4461
740.497	3713
740.610	4980
740.723	4878
740.836	4472
740.949	5138
741.062	6569
741.174	5162
741.287	3572
741.400	4000
741.513	4112
741.626	5169
741.739	4209
741.851	4398
741.964	4508
742.077	3308
742.189	4618
742.302	4890
742.415	4963
742.527	3365
742.640	4208
742.753	3362
742.865	3759
742.978	3520
743.090	3091
743.203	4388
743.316	4018
743.428	3729
743.541	3622
743.653	2657
743.766	3163
743.878	3436
743.990	3749
744.103	4834
744.215	3454
744.327	3401
744.440	5350
744.552	6898
744.664	3441
744.777	2605
744.889	3010
745.001	4392
745.113	2425
745.226	3172
745.338	3459
745.450	3883
745.562	3292
745.674	2628
745.786	3377
745.898	2043
746.010	3193
746.122	2718
746.234	2983
746.347	3561
746.459	3505
746.570	2784
746.682	3587
746.794	3189
746.906	3469
747.018	3123
747.130	3689
747.242	2940
747.354	3325
747.466	2756
747.577	3169
747.689	2063
747.801	3010
747.913	2877
748.024	2951
748.136	2428
748.248	2663
748.359	2328
748.471	2638
748.583	2454
748.694	2689
748.806	3283
748.918	2900
749.029	3408
749.141	3659
749.252	3539
749.364	3950
749.475	7333
749.587	3561
749.698	2302
749.809	3053
749.921	2852
750.032	3080
750.144	2027
750.255	2315
750.366	2497
750.478	2877
750.589	2763
750.700	2483
750.811	2328
750.923	4535
751.034	8576
751.145	7404
751.256	2586
751.367	2201
751.479	1860
751.590	3205
751.701	2406
751.812	2083
751.923	2733
752.034	2889
752.145	2557
752.256	2501
752.367	2444
752.478	2683
752.589	2379
752.700	2776
752.811	1904
752.922	2355
753.032	2541
753.143	3777
753.254	1988
753.365	2459
753.476	2770
753.586	2603
753.697	2488
753.808	2720
753.919	1111
754.029	3066
754.140	2412
754.251	2560
754.361	2047
754.472	2976
754.582	2123
754.693	3131
754.804	2548
754.914	2537
755.025	1929
755.135	2181
755.246	1546
755.356	2477
755.466	2410
755.577	2854
755.687	1244
755.798	1621
755.908	2308
756.018	2666
756.129	2142
756.239	2053
756.349	2723
756.460	2387
756.570	2795
756.680	2112
756.790	2100
756.900	3579
757.011	2156
757.121	2605
757.231	2129
757.341	2383
757.451	1513
757.561	2134
757.671	1254
757.781	1731
757.891	2296
758.001	2463
758.111	2210
758.221	2146
758.331	2655
758.441	3345
758.551	3446
758.661	3412
758.771	2678
758.880	2602
758.990	2737
759.100	2308
759.210	2524
759.320	2787
759.429	1419
759.539	2730
759.649	2267
759.758	3704
759.868	3663
759.978	3492
760.087	3416
760.197	4437
760.307	3209
760.416	4146
760.526	2364
760.635	3517
760.745	3465
760.854	4690
760.964	4057
761.073	3926
761.182	4008
761.292	3691
761.401	3690
761.511	2113
761.620	2547
761.729	2783
761.839	1890
761.948	2721
762.057	2861
762.166	2628
762.276	1028
762.385	3816
762.494	2125
762.603	1161
762.712	2246
762.822	2633
762.931	2416
763.040	2099
763.149	2496
763.258	1949
763.367	2147
763.476	2162
763.585	1487
763.694	2155
763.803	2055
763.912	2506
764.021	1651
764.130	2884
764.238	1926
764.347	3361
764.456	2187
764.565	2897
764.674	2580
764.783	2604
764.891	2316
765.000	2716
765.109	3147
765.217	2445
765.326	3524
765.435	4026
765.543	4004
765.652	4112
765.761	5027
765.869	8563
765.978	11585
766.086	22403
766.195	45202
766.303	128588
766.412	420687
766.520	376512
766.629	68357
766.737	24023
766.846	13690
766.954	9444
767.062	7686
767.171	5638
767.279	4758
767.387	3241
767.496	3518
767.604	3436
767.712	3109
767.820	2270
767.928	2148
768.037	2143
768.145	2930
768.253	3068
768.361	2148
768.469	2249
768.577	2000
768.685	3518
768.793	2733
768.901	2101
769.009	3196
769.117	3057
769.225	3871
769.333	5320
769.441	9062
769.549	18397
769.657	41791
769.765	153764
769.873	384545
769.981	105209
770.088	18681
770.196	9095
770.304	6191
770.412	5643
770.519	3917
770.627	3755
770.735	2532
770.842	3414
770.950	3097
771.058	2899
771.165	2409
771.273	3204
771.380	3877
771.488	2597
771.595	3371
771.703	3593
771.810	2300
771.918	3307
772.025	2858
772.133	3577
772.240	2745
772.348	4725
772.455	3530
772.562	3275
772.670	2027
772.777	3545
772.884	3225
772.991	2841
773.099	2320
773.206	3452
773.313	2505
773.420	4148
773.528	1444
773.635	2930
773.742	4035
773.849	3587
773.956	2810
774.063	2743
774.170	2276
774.277	3533
774.384	2364
774.491	2970
774.598	2589
774.705	3152
774.812	3668
774.919	4001
775.026	2819
775.133	3356
775.239	2403
775.346	2449
775.453	2992
775.560	2612
775.667	2971
775.773	1741
775.880	3003
775.987	2476
776.093	3136
776.200	3208
776.307	2207
776.413	2427
776.520	2340
776.627	3012
776.733	2332
776.840	1559
776.946	3083
777.053	2827
777.159	3035
777.266	1535
777.372	3514
777.478	2979
777.585	3523
777.691	2215
777.798	2543
777.904	3300
778.010	3829
778.117	3740
778.223	1852
778.329	2818
778.435	1612
778.542	2674
778.648	1872
778.754	1574
778.860	2117
778.966	2782
779.072	1824
779.178	2632
779.284	2554
779.391	1904
779.497	711
779.603	3783
779.708	1560
779.815	3203
779.920	4927
780.026	8794
780.132	2601
780.238	2178
780.344	1931
780.450	3376
780.556	1833
780.661	2316
780.767	1959
780.873	2309
780.979	1505
781.085	1703
781.190	2290
781.296	2065
781.402	1047
781.507	1746
781.613	1023
781.719	2423
781.824	1840
781.930	2108
782.035	1883
782.141	2985
782.246	1647
782.352	1847
782.457	2109
782.563	2126
782.668	1286
782.773	2158
782.879	1240
782.984	2468
783.090	2060
783.195	3757
783.300	2482
783.405	2475
783.511	830
783.616	2321
783.721	2679
783.826	1629
783.932	1859
784.037	2257
784.142	2009
784.247	1020
784.352	2639
784.457	1908
784.562	2020
784.667	1559
784.772	1403
784.877	1770
784.982	1970
785.087	2118
785.192	1337
785.297	2525
785.402	1409
785.507	1632
785.611	1423
785.716	1604
785.821	1374
785.926	1546
786.031	1363
786.135	2032
786.240	1959
786.345	981
786.450	1497
786.554	1890
786.659	829
786.763	1086
786.868	1477
786.973	2603
787.077	950
787.182	1357
787.286	1720
787.391	2038
787.495	546
787.600	1550
787.704	1196
787.809	1880
787.913	-153
788.017	1934
788.122	1337
788.226	1880
788.330	996
788.435	687
788.539	794
788.643	1567
788.747	10
788.852	1662
788.956	735
789.060	1836
789.164	1250
789.268	1069
789.372	989
789.476	935
789.580	614
789.684	1067
789.788	980
789.892	929
789.996	1185
790.100	1127
790.204	1178
790.308	1985
790.412	72
790.516	1576
790.620	401
790.724	1081
790.828	673
790.931	-42
791.035	1892
791.139	713
791.242	-827
791.346	2475
791.450	909
791.554	563
791.657	-478
791.761	2512
791.864	884
791.968	1303
792.072	1348
792.175	940
792.279	933
792.382	1180
792.486	966
792.589	61
792.693	1436
792.796	981
792.899	1263
793.003	1740
793.106	-578
793.209	1318
793.313	1518
793.416	-319
793.519	1206
793.623	3440
793.726	3115
793.829	1759
793.932	1170
794.035	1090
794.138	1330
794.242	988
794.345	349
794.448	1775
794.551	2269
794.654	4231
794.757	4133
794.860	889
794.963	1051
795.066	-572
795.169	2005
795.272	197
795.375	836
795.477	342
795.580	1971
795.683	664
795.786	157
795.889	-377
795.991	1079
796.094	1420
796.197	-377
796.300	1798
796.402	548
796.505	-5
796.608	-70
796.710	926
796.813	348
796.915	1193
797.018	1183
797.120	1875
797.223	113
797.326	2120
797.428	-231
797.530	813
797.633	815
797.735	2134
797.838	1089
797.940	1801
798.042	-156
798.145	623
798.247	1208
798.349	162
798.452	419
798.554	654
798.656	173
798.758	1665
798.860	897
798.962	959
799.065	480
799.167	-14
799.269	960
799.371	2072
799.473	1755
799.575	926
799.677	781
799.779	3105
799.881	1560
799.983	1258
800.085	335
800.187	1227
800.289	-625
800.390	1121
800.492	1112
800.594	1677
800.696	-545
800.798	917
800.899	1146
801.001	93
801.103	788
801.205	325
801.306	290
801.408	440
801.509	518
801.611	1015
801.713	804
801.814	-245
801.916	80
802.017	567
802.119	-573
802.220	804
802.322	-1567
802.423	2218
802.525	-642
802.626	1955
802.727	368
802.829	707
802.930	-1505
803.031	1552
803.133	396
803.234	243
803.335	94
803.436	-268
803.538	138
803.639	-467
803.740	1142
803.841	750
803.942	639
804.043	368
804.144	-254
804.245	490
804.346	941
804.447	289
804.548	595
804.649	2366
804.750	-7
804.851	253
804.952	525
805.053	70
805.154	-493
805.255	911
805.355	328
805.456	-23
805.557	69
805.658	-1093
805.758	204
805.859	390
805.960	845
806.061	111
806.161	193
806.262	443
806.362	153
806.463	340
806.564	614
806.664	710
806.765	-154
806.865	402
806.966	5
807.066	-257
807.166	-234
807.267	1700
807.367	233
807.468	1065
807.568	-1081
807.668	983
807.769	565
807.869	432
807.969	-194
808.069	1002
808.170	459
808.270	602
808.370	-234
808.470	1569
808.570	-21
808.670	972
808.770	434
808.870	-68
808.970	271
809.070	-507
809.170	144
809.271	1016
809.370	-89
809.470	1172
809.570	-355
809.670	-498
809.770	342
809.870	525
809.970	-407
810.070	372
810.169	364
810.269	-864
810.369	1234
810.469	169
810.568	-601
810.668	189
810.768	-484
810.867	1393
810.967	-1184
811.066	1148
811.166	412
811.265	936
811.365	-741
811.464	-250
811.564	559
811.663	649
811.763	-938
811.862	748
811.962	1601
812.061	-109
812.160	274
812.260	561
812.359	-660
812.458	-636
812.557	1195
812.657	1280
812.756	1122
812.855	194
812.954	250
813.053	291
813.153	-6
813.252	205
813.351	762
813.450	189
813.549	-108
813.648	1037
813.747	98
813.846	1821
813.945	-387
814.044	124
814.143	1027
814.242	700
814.341	351
814.439	857
814.538	824
814.637	1251
814.736	173
814.835	1177
814.933	165
815.032	1344
815.131	1493
815.229	1448
815.328	2613
815.427	1872
815.525	1940
815.624	1584
815.722	574
815.821	1962
815.919	1510
816.018	1004
816.116	1815
816.215	1609
816.313	1087
816.412	2778
816.510	2472
816.609	4403
816.707	2421
816.805	3397
816.904	2933
817.002	3406
817.100	2737
817.198	5294
817.296	2717
817.395	5182
817.493	6096
817.591	5686
817.689	7751
817.787	10318
817.885	17223
817.983	30115
818.081	64931
818.179	154113
818.277	378058
818.375	322668
818.473	94206
818.571	38792
818.669	23590
818.767	21225
818.865	19478
818.963	24612
819.061	34161
819.158	59300
819.256	124123
819.354	281504
819.452	557484
819.549	382306
819.647	126117
819.745	53538
819.842	30424
819.940	21995
820.038	15496
820.135	12209
820.233	10528
820.330	7215
820.428	5746
820.525	7156
820.623	4866
820.720	4359
820.818	4117
820.915	3850
821.012	3069
821.110	2429
821.207	2971
821.304	2087
821.402	2948
821.499	3302
821.596	2439
821.693	2438
821.791	2692
821.888	3301
821.985	4255
822.082	3713
822.179	1829
822.276	2770
822.373	1292
822.470	1188
822.567	1648
822.664	1021
822.761	2228
822.858	716
822.955	1538
823.052	2509
823.149	793
823.246	979
823.343	1002
823.440	785
823.536	1536
823.633	1168
823.730	645
823.827	1795
823.923	1171
824.020	2023
824.117	476
824.213	508
824.310	1017
824.407	1112
824.503	1082
824.600	828
824.696	589
824.793	1764
824.889	-5
824.986	-97
825.082	480
825.179	1360
825.275	606
825.371	796
825.468	1070
825.564	711
825.660	660
825.757	1771
825.853	627
825.949	222
826.045	538
826.142	1101
826.238	476
826.334	800
826.430	285
826.526	99
826.622	329
826.718	1372
826.814	312
826.910	1303
827.006	-382
827.102	385
827.198	763
827.294	662
827.390	240
827.486	981
827.582	-367
827.678	84
827.774	1281
827.869	-86
827.965	1375
828.061	-775
828.157	-218
828.252	601
828.348	-1277
828.444	1263
828.539	-701
828.635	226
828.731	968
828.826	-328
828.922	280
829.017	221
829.113	533
829.208	1070
829.304	-393
829.399	1817
829.495	-186
829.590	637
829.685	-592
829.781	869
829.876	-425
829.971	806
830.066	-478
830.162	-101
830.257	-501
830.352	195
830.447	949
830.543	484
830.638	-869
830.733	1722
830.828	-424
830.923	902
831.018	209
831.113	644
831.208	104
831.303	827
831.398	275
831.493	15
831.588	1027
831.683	-505
831.778	90
831.873	512
831.967	583
832.062	-79
832.157	-818
832.252	881
832.346	-84
832.441	424
832.536	889
832.631	3792
832.725	2661
832.820	-336
832.914	197
833.009	-88
833.104	-136
833.198	985
833.293	271
833.387	907
833.482	216
833.576	-194
833.670	1079
833.765	781
833.859	342
833.954	852
834.048	163
834.142	404
834.237	-169
834.331	377
834.425	290
834.519	-179
834.613	-113
834.708	251
834.802	-880
834.896	-696
834.990	-100
835.084	392
835.178	-195
835.272	-51
835.366	-264
835.460	922
835.554	-290
835.648	608
835.742	-1379
835.836	784
835.930	-949
836.024	322
836.117	781
836.211	181
836.305	328
836.399	1013
836.493	-361
836.586	1021
836.680	-483
836.774	-292
836.867	214
836.961	-896
837.055	42
837.148	-395
837.242	-58
837.335	-500
837.429	-39
837.522	150
837.616	-754
837.709	715
837.803	166
837.896	-199
837.989	-446
838.083	368
838.176	526
838.269	617
838.363	217
838.456	263
838.549	1317
838.642	1496
838.735	3019
838.829	2174
838.922	-872
839.015	-1118
839.108	-1155
839.201	30
839.294	299
839.387	559
839.480	-957
839.573	825
839.666	249
839.759	49
839.852	-1605
839.945	756
840.038	-676
840.131	-147
840.223	-168
840.316	-90
840.409	-404
840.502	-772
840.594	937
840.687	-364
840.780	-643
840.873	90
840.965	-1095
841.058	474
841.150	338
841.243	-627
841.336	-406
841.428	475
841.521	-1214
841.613	-697
841.706	-179
841.798	73
841.890	-387
841.983	-658
842.075	528
842.167	-279
842.260	-749
842.352	449
842.444	56
842.537	711
842.629	1766
842.721	-571
842.813	-692
842.905	-1434
842.997	-550
843.090	-270
843.182	119
843.274	199
843.366	2511
843.458	4578
843.550	3744
843.642	-536
843.734	-65
843.826	-488
843.918	91
844.009	386
844.101	-396
844.193	-633
844.285	-412
844.377	952
844.469	-80
844.560	-135
844.652	-674
844.744	246
844.835	-70
844.927	513
845.019	-764
845.110	-421
845.202	-66
845.293	-26
845.385	-1370
845.476	-276
845.568	-200
845.659	-324
845.751	704
845.842	441
845.934	-1020
846.025	-624
846.116	-11
846.208	-135
846.299	-591
846.390	-243
846.482	-10
846.573	48
846.664	-223
846.755	843
846.846	498
846.937	-1564
847.029	-751
847.120	-86
847.211	-560
847.302	1275
847.393	-1454
847.484	449
847.575	-669
847.666	-917
847.757	-1189
847.847	-192
847.938	483
848.029	-167
848.120	-903
848.211	-638
848.302	-1274
848.392	-707
848.483	446
848.574	-918
848.664	-101
848.755	-186
848.846	37
848.936	64
849.027	-129
849.118	385
849.208	429
849.299	261
849.389	2005
849.480	5936
849.570	12887
849.661	27014
849.751	46131
849.841	13516
849.932	1005
850.022	-137
850.112	776
850.203	-164
850.293	-472
850.383	-461
850.474	-1121
850.564	-639
850.654	-329
850.744	635
850.834	-256
850.924	-350
851.014	380
851.104	-813
851.194	-184
851.284	171
851.374	-33
851.464	216
851.554	-69
851.644	64
851.734	470
851.824	-250
851.914	-1510
852.004	133
852.094	-845
852.183	-218
852.273	190
852.363	-228
852.452	-452
852.542	126
852.632	-1161
852.721	69
852.811	-912
852.901	84
852.990	-50
853.080	342
853.169	-467
853.259	1226
853.348	-769
853.438	617
853.527	2013
853.617	3158
853.706	8103
853.795	16160
853.885	36487
853.974	73190
854.063	134244
854.152	203607
854.242	74194
854.331	12800
854.420	4563
854.509	3807
854.598	2588
854.687	1544
854.777	1123
854.866	866
854.955	840
855.044	229
855.133	286
855.222	145
855.311	-416
855.400	657
855.488	-910
855.577	-736
855.666	-313
855.755	456
855.844	20
855.933	-792
856.021	147
856.110	559
856.199	-673
856.288	-1035
856.376	-219
856.465	474
856.554	-559
856.642	-134
856.731	-297
856.819	-55
856.908	289
856.996	-859
857.085	-1185
857.173	-606
857.262	-664
857.350	-230
857.438	-688
857.527	217
857.615	-633
857.703	-21
857.792	-653
857.880	-460
857.968	-440
858.056	-722
858.145	-556
858.233	-873
858.321	-591
858.409	426
858.497	-1105
858.585	-406
858.673	-286
858.761	-523
858.849	-232
858.937	-699
859.025	-353
859.113	-94
859.201	-1626
859.289	-54
859.377	-755
859.465	440
859.552	-550
859.640	-808
859.728	-411
859.816	-774
859.903	126
859.991	-406
860.079	-785
860.166	-348
860.254	0
860.342	-259
860.429	-1197
860.517	-1102
860.604	-1065
860.692	-201
860.779	-937
860.867	-726
860.954	-1181
861.042	-805
861.129	-430
861.216	-548
861.304	-824
861.391	-1247
861.478	-1359
861.565	-534
861.653	190
861.740	-1659
861.827	-1571
861.914	-512
862.001	-1174
862.089	41
862.176	-1001
862.263	-877
862.350	-794
862.437	-697
862.524	-1251
862.611	-191
862.698	-680
862.785	-284
862.871	-821
862.958	-557
863.045	-1233
863.132	-688
863.219	-1202
863.306	-1540
863.392	2
863.479	-759
863.566	-542
863.652	-131
863.739	-1284
863.826	-77
863.912	-582
863.999	615
864.086	-626
864.172	-552
864.259	-1064
864.345	-1227
864.432	-55
864.518	-474
864.604	-990
864.691	-284
864.777	55
864.863	472
864.950	566
865.036	-488
865.122	1042
865.209	1502
865.295	1475
865.381	2072
865.467	2247
865.553	2730
865.639	4654
865.726	8856
865.812	17968
865.898	36134
865.984	56580
866.070	107237
866.156	112278
866.242	27592
866.328	6056
866.414	3195
866.499	2030
866.585	2558
866.671	1182
866.757	1599
866.843	831
866.928	816
867.014	699
867.100	1465
867.186	610
867.271	1279
867.357	1538
867.442	980
867.528	1233
867.614	50
867.699	-141
867.785	587
867.870	-375
867.956	-118
868.041	1643
868.127	449
868.212	720
868.297	408
868.383	453
868.468	763
868.553	2196
868.639	2276
868.724	6100
868.809	5555
868.894	663
868.979	703
869.065	853
869.150	-139
869.235	176
869.320	55
869.405	-533
869.490	903
869.575	-686
869.660	317
869.745	-118
869.830	684
869.915	825
870.000	49
870.085	65
870.169	510
870.254	71
870.339	-612
870.424	-251
870.509	576
870.593	54
870.678	460
870.763	-426
870.847	-232
870.932	-341
871.016	229
871.101	420
871.186	129
871.270	941
871.355	-326
871.439	134
871.523	133
871.608	-638
871.692	-633
871.777	77
871.861	508
871.945	-216
872.030	486
872.114	-809
872.198	432
872.282	-658
872.367	58
872.451	-35
872.535	-388
872.619	-597
872.703	-225
872.787	-366
872.871	-168
872.955	-937
873.039	-983
873.123	25
873.207	467
873.291	76
873.375	-357
873.459	-39
873.543	302
873.627	-1221
873.711	-523
873.794	442
873.878	-28
873.962	-620
874.045	271
874.129	291
874.137	147
874.213	-1289
874.245	-1029
874.296	-606
874.352	-372
874.380	-268
874.460	-586
874.464	-598
874.547	-742
874.568	-560
874.631	-24
874.676	-119
874.714	-204
874.784	37
874.798	85
874.881	859
874.892	753
874.965	27
874.999	163
875.048	340
875.107	371
875.131	380
875.215	109
875.215	109
875.298	-175
875.323	-22
875.381	341
875.430	112
875.465	-21
875.538	98
875.548	101
875.631	-746
875.646	-668
875.714	-280
875.753	-692
875.798	-1133
875.861	-218
875.881	57
875.964	-154
875.968	-142
876.047	109
876.076	179
876.130	260
876.183	193
876.213	202
876.291	-264
876.296	-303
876.379	-820
876.398	-605
876.462	103
876.506	-68
876.545	-181
876.613	-234
876.628	-252
876.711	156
876.721	211
876.794	638
876.828	258
876.877	-298
876.935	-200
876.960	-131
877.043	736
877.043	734
877.125	-122
877.150	58
877.208	627
877.258	270
877.291	-6
877.365	92
877.374	111
877.456	-414
877.472	-218
877.539	615
877.579	495
877.622	277
877.687	164
877.704	196
877.787	-49
877.794	-17
877.869	72
877.901	-32
877.952	-61
878.008	-32
878.034	-69
878.115	-690
878.117	-700
878.199	-303
878.222	-378
878.282	-540
878.329	-114
878.364	199
878.437	82
878.447	22
878.529	-249
878.544	-428
878.611	-889
878.651	-644
878.694	-422
878.758	-332
878.776	-263
878.858	253
878.865	255
878.941	-239
878.972	-249
879.023	-52
879.078	-382
879.105	-483
879.185	-458
879.187	-462
879.269	-560
879.292	-506
879.351	-375
879.399	-613
879.433	-593
879.506	-18
879.516	8
879.598	-332
879.613	-257
879.680	137
879.720	-58
879.762	-378
879.827	-409
879.844	-303
879.926	-648
879.933	-590
880.007	-287
880.040	-231
880.089	-216
880.147	-333
880.171	-326
880.253	846
880.254	848
880.335	1022
880.360	1107
880.417	1078
880.467	2422
880.499	3429
880.574	3168
880.580	3115
880.662	582
880.680	306
880.744	-660
880.787	-404
880.825	-145
880.893	-317
880.907	-353
880.989	-434
881.000	-434
881.070	-523
881.106	-587
881.152	-386
881.213	-225
881.233	-302
881.315	-120
881.319	-154
881.396	-794
881.426	-762
881.478	-368
881.532	-131
881.559	-97
881.639	-211
881.641	-221
881.722	-359
881.745	-445
881.803	-146
881.852	-406
881.885	-878
881.958	-543
881.966	-455
882.047	-218
882.064	-203
882.129	-333
882.171	-123
882.210	217
882.277	528
882.291	573
882.372	197
882.383	172
882.454	-348
882.489	-642
882.535	-832
882.596	-738
882.616	-690
882.697	-691
882.702	-678
882.778	-259
882.808	-123
882.859	-144
882.914	-106
882.940	-116
883.020	-663
883.021	-664
883.102	-438
883.127	-481
883.183	-405
883.233	-12
883.264	64
883.339	-337
883.345	-369
883.426	-316
883.445	-335
883.507	-120
883.551	-95
883.587	-99
883.657	-32
883.668	-16
883.749	283
883.763	258
883.830	-244
883.869	-352
883.910	-301
883.975	-559
883.991	-600
884.072	-296
884.081	-290
884.152	-197
884.187	-223
884.233	-212
884.292	-108
884.314	-168
884.394	-185
884.398	-200
884.475	-233
884.504	-274
884.555	-436
884.610	-753
884.636	-714
884.716	252
884.716	259
884.797	132
884.821	237
884.877	27
884.927	-560
884.958	-586
885.033	-331
885.038	-335
885.118	-522
885.139	-530
885.199	-148
885.244	50
885.279	-27
885.350	-62
885.359	-47
885.439	-168
885.456	-203
885.520	-287
885.561	-148
885.600	-190
885.667	-407
885.680	-298
885.760	169
885.773	307
885.840	250
885.878	-29
885.920	-275
885.984	-470
886.000	-401
886.080	-212
886.089	-158
886.160	-21
886.195	-122
886.240	-179
886.300	-74
886.320	-69
886.400	-207
886.406	-207
886.480	-384
886.511	-533
886.560	-347
886.616	45
886.640	117
886.720	-180
886.722	-181
886.800	-119
886.827	-147
886.879	-56
886.932	60
886.959	131
887.038	261
887.039	259
887.119	-125
887.143	-267
887.198	-236
887.248	-143
887.278	40
887.354	395
887.358	368
887.437	-167
887.459	-308
887.517	-217
887.564	-260
887.596	-163
887.669	41
887.676	53
887.755	348
887.774	384
887.835	111
887.880	5
887.914	17
887.985	-155
887.994	-219
888.073	-638
888.090	-767
888.153	-525
888.195	-311
888.232	-153
888.300	111
888.311	98
888.391	82
888.405	48
888.470	45
888.510	106
888.549	238
888.615	423
888.628	324
888.708	-242
888.720	-348
888.787	-322
888.825	-304
888.866	-132
888.930	178
888.945	162
889.024	62
889.035	39
889.103	-522
889.140	-789
889.182	-109
889.245	862
889.261	613
889.340	-555
889.349	-691
889.419	94
889.454	492
889.498	237
889.559	-115
889.577	-88
889.656	49
889.664	65
889.735	37
889.768	34
889.814	290
889.873	631
889.978	-881
890.083	131
890.187	394
890.292	64
890.397	-446
890.501	664
890.606	489
890.710	1297
890.815	253
890.919	-424
891.024	278
891.128	430
891.233	-191
891.337	87
891.442	-216
891.546	100
891.650	-156
891.755	33
891.859	903
891.963	9
892.068	-834
892.172	518
892.276	-547
892.380	-21
892.484	486
892.589	203
892.693	266
892.797	-40
892.901	160
893.005	205
893.109	-1014
893.213	1035
893.317	64
893.421	297
893.525	-108
893.629	-385
893.733	263
893.837	657
893.941	-488
894.045	963
894.148	-146
894.252	-277
894.356	112
894.460	159
894.564	-695
894.667	-17
894.771	-1121
894.875	290
894.978	-198
895.082	-116
895.186	-48
895.289	771
895.393	317
895.496	209
895.600	-212
895.703	-111
895.807	436
895.910	-61
896.014	-449
896.117	-383
896.221	-326
896.324	196
896.427	-836
896.531	-261
896.634	120
896.737	227
896.840	-185
896.944	-5
897.047	591
897.150	771
897.253	96
897.356	-111
897.460	-707
897.563	-341
897.666	-796
897.769	623
897.872	98
897.975	288
898.078	258
898.181	-3
898.284	-731
898.387	537
898.490	40
898.593	-243
898.695	-690
898.798	759
898.901	277
899.004	-27
899.107	-903
899.209	843
899.312	103
899.415	386
899.518	-204
899.620	158
899.723	-305
899.826	15
899.928	-870
900.031	-30
900.133	342
900.236	386
900.338	-998
900.441	17
900.543	-482
900.646	-3
900.748	-368
900.851	644
900.953	-280
901.055	-279
901.158	-529
901.260	681
901.362	-111
901.465	-874
901.567	253
901.669	-223
901.771	84
901.873	-211
901.976	148
902.078	235
902.180	-9
902.282	-635
902.384	-816
902.486	214
902.588	-279
902.690	219
902.792	-461
902.894	373
902.996	-354
903.098	238
903.200	168
903.302	-107
903.404	-74
903.505	287
903.607	345
903.709	453
903.811	233
903.913	2
904.014	-1165
904.116	-422
904.218	-1218
904.319	1121
904.421	-535
904.523	223
904.624	-258
904.726	-29
904.827	-43
904.929	275
905.030	262
905.132	486
905.233	-296
905.335	843
905.436	-330
905.537	-103
905.639	-713
905.740	-137
905.841	593
905.943	85
906.044	21
906.145	-19
906.247	-1345
906.348	415
906.449	207
906.550	-72
906.651	336
906.752	113
906.854	-506
906.955	-232
907.056	-753
907.157	143
907.258	-248
907.359	9
907.460	342
907.561	217
907.662	-215
907.762	57
907.863	-547
907.964	-835
908.065	471
908.166	-270
908.267	-249
908.367	-370
908.468	-897
908.569	454
908.670	-139
908.770	447
908.871	-410
908.971	752
909.072	-167
909.173	432
909.273	19
909.374	437
909.474	-721
909.575	864
909.675	-494
909.776	67
909.876	-31
909.977	-105
910.077	297
910.177	394
910.278	-839
910.378	37
910.478	-211
910.579	-657
910.679	22
910.779	803
910.879	-354
910.980	638
911.080	-1017
911.180	-31
911.280	-469
911.380	214
911.480	-212
911.580	-182
911.680	-388
911.780	53
911.880	-384
911.980	-198
912.080	-834
912.180	691
912.280	-37
912.380	-9
912.480	-199
912.580	482
912.679	-94
912.779	28
912.879	122
912.979	-770
913.078	144
913.178	114
913.278	35
913.377	-7
913.477	-66
913.577	71
913.676	-610
913.776	-577
913.875	-711
913.975	-57
914.074	-1103
914.174	48
914.273	-292
914.373	839
914.472	-324
914.572	-249
914.671	-39
914.770	-437
914.870	-602
914.969	-899
915.068	-127
915.167	-348
915.267	-423
915.366	-650
915.465	-184
915.564	727
915.663	-73
915.763	-140
915.862	-620
915.961	-151
916.060	-1219
916.159	571
916.258	-1027
916.357	133
916.456	134
916.555	-140
916.654	-305
916.752	171
916.851	-349
916.950	1053
917.049	-574
917.148	-484
917.247	389
917.345	-216
917.444	-821
917.543	-15
917.642	-885
917.740	-252
917.839	-470
917.937	306
918.036	988
918.135	-244
918.233	-48
918.332	-647
918.430	-249
918.529	148
918.627	-14
918.726	-673
918.824	-609
918.923	-141
919.021	-74
919.119	434
919.218	36
919.316	-29
919.414	-593
919.512	-488
919.611	-582
919.709	166
919.807	-358
919.905	-247
920.003	-536
920.102	-5
920.200	-107
920.298	-274
920.396	-429
920.494	-245
920.592	-1320
920.690	-738
920.788	-60
920.886	154
920.984	922
921.082	-239
921.180	-268
921.277	-205
921.375	-662
921.473	-469
921.571	-876
921.669	492
921.766	-142
921.864	-31
921.962	-605
922.060	429
922.157	-283
922.255	-137
922.352	165
922.450	548
922.548	-717
922.645	-228
922.743	-369
922.840	5
922.938	24
923.035	648
923.133	5
923.230	581
923.327	-329
923.425	1017
923.522	-108
923.619	553
923.717	96
923.814	782
923.911	-132
924.008	1341
924.106	-254
924.203	505
924.300	727
924.397	-136
924.494	15
924.591	267
924.688	-961
924.786	-175
924.883	-634
924.979	-54
925.077	139
925.173	469
925.270	-305
925.367	275
925.464	-500
925.561	340
925.658	90
925.755	128
925.852	-490
925.948	784
926.045	-264
926.142	543
926.239	-187
926.335	-99
926.432	55
926.529	254
926.625	429
926.722	40
926.818	-60
926.915	394
927.011	-34
927.108	579
927.204	619
927.301	-499
927.397	166
927.494	594
927.590	226
927.687	-329
927.783	-678
927.879	228
927.976	-183
928.072	-256
928.168	333
928.264	665
928.361	-266
928.457	-251
928.553	-511
928.649	-203
928.745	-145
928.841	-95
928.937	-135
929.033	429
929.129	-357
929.225	497
929.321	-4
929.417	-183
929.513	-462
929.609	71
929.705	-452
929.801	69
929.897	-285
929.993	-40
930.089	-429
930.184	526
930.280	-930
930.376	66
930.471	-357
930.567	-40
930.663	-275
930.758	305
930.854	-421
930.950	236
931.045	-801
931.141	-466
931.236	261
931.332	-110
931.427	-328
931.523	-82
931.618	-74
931.714	489
931.809	-172
931.905	3
932.000	-249
932.095	-344
932.191	-379
932.286	-185
932.381	-967
932.476	-71
932.572	-296
932.667	-228
932.762	-170
932.857	744
932.952	252
933.047	199
933.142	-627
933.237	-97
933.332	-302
933.427	457
933.522	-775
933.617	-705
933.712	-85
933.807	833
933.902	-439
933.997	41
934.092	-451
934.187	-80
934.282	-57
934.376	-370
934.471	-548
934.566	-210
934.661	-844
934.755	905
934.850	-826
934.945	-78
935.039	-549
935.134	-197
935.228	544
935.323	745
935.417	-276
935.512	478
935.606	-447
935.701	-527
935.795	-305
935.890	298
935.984	-313
936.079	774
936.173	-455
936.267	623
936.362	195
936.456	65
936.550	-559
936.644	-299
936.738	-389
936.833	571
936.927	359
937.021	-1108
937.115	-551
937.209	-495
937.303	419
937.397	-120
937.491	-790
937.585	538
937.679	-301
937.773	-485
937.867	-584
937.961	705
938.055	-129
938.149	-65
938.243	-484
938.337	-348
938.430	-36
938.524	564
938.618	-703
938.712	172
938.805	-477
938.899	-166
938.993	-369
939.086	-57
939.180	-167
939.274	426
939.367	-874
939.461	77
939.554	-332
939.648	-31
939.741	-52
939.835	71
939.928	-409
940.022	150
940.115	-823
940.208	285
940.302	-870
940.395	47
940.488	-1290
940.582	62
940.675	-516
940.768	144
940.861	-616
940.954	727
941.048	-126
941.141	130
941.234	-1052
941.327	-351
941.420	298
941.513	-416
941.606	-561
941.699	369
941.792	330
941.885	-339
941.978	-17
942.071	-364
942.164	-749
942.257	20
942.349	-507
942.442	428
942.535	-300
942.628	32
942.721	-308
942.813	-804
942.906	661
942.999	215
943.091	623
943.184	-86
943.277	-666
943.369	675
943.462	-789
943.554	-40
943.647	-503
943.739	-721
943.832	-589
943.924	-1288
944.017	673
944.109	-616
944.201	-221
944.294	407
944.386	-92
944.478	-657
944.571	-1407
944.663	-383
944.755	47
944.847	-54
944.940	-544
945.032	-1047
945.124	-376
945.216	-59
945.308	-788
945.400	-494
945.492	-812
945.584	-254
945.676	-419
945.768	-578
945.860	268
945.952	-91
946.044	-381
946.136	453
946.228	94
946.320	-830
946.412	-1247
946.503	-164
946.595	-31
946.687	-573
946.779	-657
946.870	-625
946.962	-800
947.054	-242
947.145	-405
947.237	-205
947.329	-664
947.420	426
947.512	-900
947.603	128
947.695	-408
947.786	-582
947.878	-769
947.969	-316
948.061	-978
948.152	-1385
948.243	-1026
948.335	-625
948.426	-387
948.517	440
948.609	-958
948.700	-954
948.791	-1074
948.882	-340
948.973	-1394
949.065	-351
949.156	-87
949.247	-931
949.338	-253
949.429	-609
949.520	-1050
949.611	-456
949.702	385
949.793	498
949.884	-584
949.975	-690
950.066	-279
950.157	-470
950.247	-149
950.338	-891
950.429	-277
950.520	-200
950.611	-698
950.701	-771
950.792	-789
950.883	-754
950.973	-43
951.064	-387
951.155	-952
951.245	807
951.336	-1309
951.427	-814
951.517	58
951.608	-753
951.698	-737
951.788	-350
951.879	-1043
951.969	-193
952.060	-1024
952.150	-468
952.240	-174
952.331	-1608
952.421	-544
952.511	-851
952.602	-1060
952.692	-482
952.782	-724
952.872	-920
952.962	-1013
953.052	-470
953.143	-1077
953.233	-1068
953.323	-289
953.413	-984
953.503	-1136
953.593	-482
953.683	-1234
953.773	-1312
953.863	-439
953.953	-874
954.042	-511
954.132	307
954.222	-150
954.312	-164
954.402	-867
954.492	-147
954.581	-783
954.671	-748
954.761	-1020
954.850	-132
954.940	-982
955.030	-1154
955.119	-1336
955.209	-1103
955.298	-1122
955.388	-551
955.477	145
955.567	-519
955.656	-681
955.746	-342
955.835	-1688
955.925	-912
956.014	-738
956.103	-744
956.193	-957
956.282	-381
956.371	-1073
956.461	-945
956.550	-596
956.639	-1087
956.728	-1854
956.817	-541
956.906	-1145
956.995	242
957.085	-927
957.174	-1105
957.263	-1159
957.352	-243
957.441	-1983
957.530	-499
957.619	-539
957.708	-917
957.796	-592
957.885	-921
957.974	-1629
958.063	712
958.152	-1826
958.241	-623
958.329	-892
958.418	-220
958.507	-1534
958.596	144
958.684	-1480
958.773	147
958.861	-421
958.950	-302
959.039	-1531
959.127	-708
959.216	-782
959.304	-136
959.393	-955
959.481	-458
959.570	-1017
959.658	-662
959.746	-800
959.835	166
959.923	-787
960.011	-1118
960.100	-1286
960.188	-1042
960.276	-1193
960.365	-1276
960.453	-810
960.541	-2386
960.629	-757
960.717	-1597
960.805	-1720
960.893	-704
960.981	-1241
961.069	251
961.158	-1575
961.245	-1399
961.333	-390
961.421	-540
961.509	-656
961.597	-105
961.685	-993
961.773	-479
961.861	-920
961.949	58
962.036	-1667
962.124	-7
962.212	-914
962.299	-708
962.387	-1497
962.475	-617
962.562	-1598
962.650	-451
962.738	-645
962.825	-847
962.913	-609
963.000	-1355
963.088	-230
963.175	-896
963.263	-496
963.350	-1061
963.438	-1492
963.525	-1477
963.612	-124
963.700	-1249
963.787	688
963.874	-1453
963.962	-1349
964.049	169
964.136	-1025
964.223	-777
964.310	-947
964.398	-1189
964.485	-1641
964.572	-844
964.659	-1145
964.746	-609
964.833	-1269
964.920	-942
965.007	-756
965.094	-869
965.181	-1456
965.268	-251
965.355	-1365
965.441	-1539
965.528	-1700
965.615	-235
965.702	-1258
965.789	-1451
965.875	-973
965.962	-713
966.049	-1017
966.136	-634
966.222	-1481
966.309	-418
966.395	-1477
966.482	-525
966.569	-1833
966.655	-986
966.742	-1084
966.828	-787
966.915	-1556
967.001	-570
967.087	-1975
967.174	-1085
967.260	-1505
967.347	-1009
967.433	-1216
967.519	28
967.605	-1616
967.692	-695
967.778	-1091
967.864	-967
967.950	-1033
968.036	-975
968.123	-955
968.209	-1543
968.295	-2296
968.381	-406
968.467	-348
968.553	-1367
968.639	-1122
968.725	-1230
968.811	-135
968.897	-464
968.983	-1823
969.069	-1187
969.154	-1670
969.240	-698
969.326	-1416
969.412	-1415
969.497	-1604
969.583	-911
969.669	-460
969.755	-1671
969.840	-1307
969.926	-768
970.012	-1673
970.097	118
970.183	-1762
970.268	-1059
970.354	-524
970.439	-1273
970.525	85
970.610	-1996
970.696	-113
970.781	286
970.866	-1866
970.952	-762
971.037	-1401
971.122	-673
971.208	-1476
971.293	-1801
971.378	-1459
971.463	-711
971.549	-794
971.634	-1033
971.719	-1227
971.804	-1546
971.889	-519
971.974	-1217
972.059	-719
972.144	-1074
972.229	-1221
972.314	-1437
972.399	-1249
972.484	-1570
972.569	-1209
972.654	-1481
972.739	-681
972.824	-961
972.908	-678
972.993	-1215
973.078	-1447
973.163	-1216
973.247	-643
973.332	-2245
973.417	400
973.501	-1016
973.586	-1443
973.671	-906
973.755	-1415
973.840	-766
973.924	-944
974.009	-1159
974.093	-1281
974.178	-800
974.262	-1386
974.346	-821
974.431	-1259
974.515	-952
974.600	-1154
974.684	-1188
974.768	-1616
974.852	-978
974.937	-1971
975.021	-664
975.105	-1381
975.189	-796
975.273	-1063
975.358	-1303
975.442	-2065
975.526	-844
975.610	-1836
975.694	-1197
975.778	-199
975.862	-1120
975.946	-2678
976.030	624
976.114	-1534
976.198	-682
976.281	-1768
976.365	2
976.449	-1184
976.533	-277
976.617	-1367
976.700	-774
976.784	-1506
976.868	-1792
976.951	-836
977.035	-991
977.119	-1120
977.202	-1072
977.286	-716
977.369	-957
977.453	-1158
977.536	-1320
977.620	-1790
977.703	-812
977.787	-1914
977.870	-407
977.953	-703
978.037	-2452
978.120	-527
978.203	-1248
978.287	-1681
978.370	-1459
978.453	-1056
978.536	-974
978.620	-272
978.703	-685
978.786	-1927
978.869	-1013
978.952	-2317
979.035	172
979.118	-1024
979.201	-429
979.284	-621
979.367	-1514
979.450	-1100
979.533	-1250
979.616	-743
979.699	-815
979.782	-752
979.865	-904
979.948	-1723
980.030	-1097
980.113	-2344
980.196	-2036
980.279	-363
980.361	-1855
980.444	-1298
980.526	-359
980.609	-1602
980.692	-1479
980.774	-937
980.857	-1903
980.939	-778
981.022	-1178
981.104	-1282
981.187	-1828
981.269	-936
981.352	-743
981.434	-1982
981.516	-1035
981.599	-967
981.681	-403
981.763	-1479
981.846	-225
981.928	-1663
982.010	-995
982.092	-2013
982.174	-877
982.256	-2009
982.339	-1124
982.421	-1858
982.503	-375
982.585	-2105
982.667	-1141
982.749	-870
982.831	-1049
982.913	-1870
982.995	-604
983.077	-2011
983.158	-267
983.240	-2179
983.322	-703
983.404	-1121
983.486	-1629
983.568	-1267
983.649	-1334
983.731	-765
983.813	-1580
983.894	-929
983.976	-1046
984.058	-1641
984.139	-647
984.221	-2066
984.302	-38
984.384	-2190
984.465	-2151
984.547	-1094
984.628	-1900
984.710	-830
984.791	-924
984.872	-1357
984.954	-2231
985.035	-1376
985.116	-1354
985.198	-1887
985.279	-186
985.360	-713
985.441	-581
985.522	-1421
985.604	-1605
985.685	-2562
985.766	-267
985.847	248
985.928	-1188
986.009	-1843
986.090	-1295
986.171	-856
986.252	-2079
986.333	-1345
986.414	-972
986.495	-1142
986.576	-948
986.656	-1518
986.737	-319
986.818	-1341
986.899	-2133
986.980	-1749
987.060	-1206
987.141	-2044
987.222	-1120
987.302	-1370
987.383	-1338
987.464	-2118
987.544	-1216
987.625	-746
987.705	-1064
987.786	-1577
987.866	-851
987.947	-1155
988.027	-1316
988.108	-1505
988.188	-1180
988.268	-1286
988.349	-417
988.429	-1071
988.509	-851
988.589	-1096
988.670	-2265
988.750	-299
988.830	-973
988.910	-2206
988.990	-1325
989.070	-845
989.151	-794
989.231	-1661
989.311	-812
989.391	-1157
989.471	-1540
989.551	-1528
989.631	-1933
989.711	-768
989.791	-1829
989.870	-1415
989.950	-469
990.030	-2053
990.110	-1206
990.190	-728
990.269	-1651
990.349	-1378
990.429	-1576
990.509	-859
990.588	-1391
990.668	-1132
990.747	-1340
990.827	-1981
990.907	-1210
990.986	-1599
991.066	-485
991.145	-1240
991.225	-843
991.304	-2029
991.383	-1118
991.463	-2275
991.542	-735
991.622	-1613
991.701	-1227
991.780	-1013
991.859	-1919
991.939	-1968
992.018	-1972
992.097	-1255
992.176	-1490
992.256	-1609
992.335	-1715
992.414	-551
992.493	-1727
992.572	-1969
992.651	-376
992.730	-2078
992.809	-1252
992.888	-2049
992.967	-1926
993.046	-1593
993.125	-1684
993.203	-1573
993.282	-1120
993.361	-1336
993.440	-848
993.519	-2181
993.597	-1914
993.676	-2128
993.755	-1447
993.834	-2183
993.912	-2936
993.991	-1110
994.069	-1922
994.148	-1882
994.226	-1050
994.305	-859
994.384	-2169
994.462	-690
994.540	-2491
994.619	-2354
994.697	-654
994.776	-2558
994.854	-995
994.932	-2254
995.011	-951
995.089	-1947
995.167	-1197
995.245	-1714
995.324	-2108
995.402	-1865
995.480	-1528
995.558	-1852
995.636	-2312
995.714	-2422
995.792	-383
995.870	-1921
995.948	-1834
996.026	-1518
996.104	-1833
996.182	-1503
996.260	-2278
996.338	-1832
996.416	-1660
996.494	-2160
996.572	-501
996.649	-2035
996.727	-2563
996.805	-1827
996.883	-865
996.960	-1988
997.038	-1239
997.116	-1617
997.193	-1722
997.271	-1459
997.348	-1169
997.426	-1157
997.504	-1505
997.581	-1992
997.658	-1018
997.736	-2326
997.813	-2036
997.891	-738
997.968	-2316
998.046	-1840
998.123	-1481
998.200	-1813
998.277	-2043
998.355	-1934
998.432	-2105
998.509	-1451
998.586	-1060
998.663	-1532
998.741	-1656
998.818	-1763
998.895	-2518
998.972	-2129
999.049	-1558
999.126	-1792
999.203	-1052
999.280	-1058
999.357	-1543
999.434	-2074
999.511	-1392
999.587	-1843
999.664	-1574
999.741	-1763
999.818	-1275
999.895	-2322
999.971	-2171
1000.048	-1650
1000.125	-1178
1000.202	-1641
1000.278	-1556
1000.355	-1002
1000.431	-1627
1000.508	-2446
1000.584	-1234
1000.661	-1574
1000.738	-2213
1000.814	-1599
1000.890	-1011
1000.967	-1557
1001.043	-1737
1001.120	-3047
1001.196	-1448
1001.272	-2693
1001.349	-1672
1001.425	-1468
1001.501	-1802
1001.577	-2393
1001.654	-1450
1001.730	-1852
1001.806	-1568
1001.882	-2945
1001.958	-1134
1002.034	-1711
1002.110	-1404
1002.186	-1865
1002.262	-2086
1002.338	-2942
1002.414	-1467
1002.490	-854
1002.566	-2217
1002.642	-2027
1002.718	-538
1002.794	-1811
1002.870	-2061
1002.945	-1525
1003.021	-1715
1003.097	-1463
1003.173	-1071
1003.248	-2290
1003.324	-1560
1003.400	-2051
1003.475	-1967
1003.551	-1602
1003.626	-1076
1003.702	-2256
1003.777	-1411
1003.853	-1902
1003.928	-1497
1004.004	-1907
1004.079	-1106
1004.155	-1721
1004.230	-2381
1004.305	-1195
1004.381	-1828
1004.456	-2147
1004.531	-1918
1004.607	-1882
1004.682	-1792
1004.757	-1397
1004.832	-2018
1004.907	-2092
1004.982	-1141
1005.057	-1595
1005.133	-1289
1005.208	-1265
1005.283	-1713
1005.358	-932
1005.433	-1587
1005.508	-1731
1005.583	-1879
1005.657	-2403
1005.732	-990
1005.807	-2059
1005.882	-1686
1005.957	-2158
1006.032	-449
1006.106	-1611
1006.181	-1127
1006.256	-1233
1006.331	-2017
1006.405	-2090
1006.480	-1946
1006.554	-2067
1006.629	-782
1006.704	-1448
1006.778	-1505
1006.853	-2153
1006.927	-614
1007.002	-1310
1007.076	-1434
1007.150	-1871
1007.225	-787
1007.299	-1627
1007.373	-2241
1007.448	-1803
1007.522	-797
1007.596	-1181
1007.671	-1754
1007.745	-1038
1007.819	-1681
1007.893	-1593
1007.967	-938
1008.041	-2954
1008.115	-369
1008.190	-1855
1008.264	-1438
1008.338	-2937
1008.412	-1774
1008.486	-1512
1008.560	-1858
1008.633	-2442
1008.707	-1569
1008.781	-1870
1008.855	-2159
1008.929	-1050
1009.003	-1712
1009.076	-1049
1009.150	-1220
1009.224	-1997
1009.298	-933
1009.371	-1928
1009.445	-1090
1009.519	-1222
1009.592	-1466
1009.666	-1994
1009.739	-1314
1009.813	-2188
1009.886	-934
1009.960	-2347
1010.033	-1087
1010.107	-1933
1010.180	-1945
1010.253	-1353
1010.327	-1797
1010.400	-1473
1010.473	-1943
1010.547	-112
1010.620	-1602
1010.693	-1725
1010.766	-1814
1010.840	-1084
1010.913	-1432
1010.986	-2075
1011.059	-1499
1011.132	-1990
1011.205	-404
1011.278	-1883
1011.351	-2772
1011.424	-801
1011.497	-1636
1011.570	-1666
1011.643	-2007
1011.716	-2156
1011.789	-1534
1011.862	-1335
1011.934	-902
1012.007	-2393
1012.080	-1980
1012.153	-1576
1012.225	-1057
1012.298	-2335
1012.371	-2168
1012.443	-1023
1012.516	-2291
1012.588	-1284
1012.661	-1563
1012.733	-3005
1012.806	-1111
1012.879	-2513
1012.951	-1348
1013.023	-1696
1013.096	-1151
1013.168	-1783
1013.241	-542
1013.313	-1661
1013.385	-1826
1013.458	-1759
1013.530	-926
1013.602	-2130
1013.674	-1369
1013.746	-1527
1013.819	-1698
1013.891	-1820
1013.963	-2550
1014.035	-1211
1014.107	-1160
1014.179	-873
1014.251	-2352
1014.323	-1477
1014.395	-1887
1014.467	-1665
1014.539	-2049
1014.611	-1426
1014.683	-1520
1014.754	-824
1014.826	-1540
1014.898	-1345
1014.970	-2049
1015.042	-628
1015.113	-765
1015.185	-1629
1015.257	-2278
1015.328	-1170
1015.400	-2188
1015.471	-1314
1015.543	-2601
1015.615	-1120
1015.686	-782
1015.757	-1324
1015.829	-1023
1015.901	-2156
1015.972	-1758
1016.043	-1704
1016.115	-1522
1016.186	-1574
1016.257	-1999
1016.328	-2292
1016.400	-64
1016.471	-2206
1016.542	-1787
1016.613	-1943
1016.685	-1728
1016.756	-1201
1016.827	-1826
1016.898	-2278
1016.969	-525
1017.040	-1619
1017.111	-1185
1017.182	-1601
1017.253	-1400
1017.324	-2000
1017.395	-1591
1017.466	-927
1017.537	-1502
1017.608	-1826
1017.678	-1954
1017.749	-2171
1017.820	-1389
1017.891	-1937
1017.961	-1294
1018.032	-1700
1018.103	-2071
1018.173	-1554
1018.244	-1514
1018.315	-1737
1018.385	-1059
1018.456	-1541
1018.526	-1918
1018.597	-1524
1018.667	-1317
1018.738	-1363
1018.808	-1719
1018.878	-1402
1018.949	-1632
1019.019	-1550
1019.089	-2338
1019.160	-1926
1019.230	-2113
1019.300	-2206
1019.371	-2225
1019.441	-1024
1019.511	-1775
1019.581	-1654
1019.651	-1686
1019.721	-1637
1019.791	-1314
1019.861	-2005
1019.931	-1757
1020.001	-2818
1020.071	-1631
1020.141	-1842
1020.211	-1642
1020.281	-1982
1020.351	-1779
1020.421	-1946
1020.491	-1289
1020.560	-2220
1020.630	-1528
1020.700	-2223
1020.770	-1393
1020.839	-2421
1020.909	-1063
1020.979	-1810
1021.048	-1613
1021.118	-2164
1021.187	-1564
1021.257	-2577
1021.326	-984
1021.396	-1722
1021.465	-2186
1021.535	-991
1021.604	-1458
1021.674	-1354
1021.743	-1906
1021.812	-2042
1021.882	-2681
1021.951	-2439
1022.020	-2339
1022.089	-1452
1022.159	-1512
1022.228	-1735
1022.297	-1705
1022.366	-2478
1022.435	-1764
1022.504	-1814
1022.573	-2092
1022.642	-1734
1022.711	-1990
1022.781	-2339
1022.849	-1660
1022.918	-2359
1022.987	-2223
1023.056	-2498
1023.125	-1460
1023.194	-1855
1023.263	-2189
1023.331	-1715
1023.400	-2489
1023.469	-2740
1023.538	-2093
1023.606	-1900
1023.675	-1343
1023.744	-2345
1023.812	-973
1023.881	-1139
1023.949	-1447
1024.018	-2290
1024.086	-1556
1024.155	-1807
1024.223	-2784
1024.292	-1832
1024.360	-1804
1024.429	-2014
1024.497	-2978
1024.565	-2171
1024.634	-2411
1024.702	-2137
1024.770	-1109
1024.838	-2112
1024.907	-1870
1024.975	-2122
1025.043	-1634
1025.111	-2524
1025.179	-2287
1025.247	-1983
1025.315	-1527
1025.383	-2999
1025.451	-1920
1025.519	-2450
1025.587	-2283
1025.655	-1779
1025.723	-1796
1025.791	-2189
1025.859	-2147
1025.927	-2141
1025.995	-1378
1026.062	-2544
1026.130	-1475
1026.198	-2166
1026.266	-2436
1026.333	-1402
1026.401	-1369
1026.469	-2148
1026.536	-2068
1026.604	-2537
1026.671	-1731
1026.739	-2002
1026.806	-2327
1026.874	-3041
1026.941	-1961
1027.009	-3324
1027.076	-2034
1027.144	-1794
1027.211	-1686
1027.278	-2159
1027.345	-1012
1027.413	-1702
1027.480	-965
1027.547	-2794
1027.614	-1900
1027.682	-2371
1027.749	-2518
1027.816	-2670
1027.883	-1373
1027.950	-1857
1028.017	-2656
1028.084	-1083
1028.151	-1881
1028.218	-2071
1028.285	-1620
1028.352	-2767
1028.419	-1915
1028.486	-2724
1028.553	-1705
1028.619	-2518
1028.686	-890
1028.753	-2666
1028.820	-1354
1028.886	-2945
1028.953	-1402
1029.020	-2705
1029.086	-1970
1029.153	-2615
1029.220	-2302
1029.286	-2167
1029.353	-1188
1029.419	-2232
1029.486	-1956
1029.552	-2139
1029.619	-1598
1029.685	-2364
1029.751	-2101
1029.818	-1513
1029.884	-2076
1029.951	-1499
1030.017	-1924
1030.083	-2054
1030.149	-1816
1030.216	-2138
1030.282	-2234
1030.348	-2254
1030.414	-1990
1030.480	-1758
1030.546	-1389
1030.612	-2084
1030.678	-1931
1030.744	-2714
1030.810	-2051
1030.876	-1809
1030.942	-1845
1031.008	-2514
1031.074	-2208
1031.140	-2307
1031.206	-1076
1031.272	-1954
1031.337	-1876
1031.403	-1143
1031.469	-2081
1031.534	-2349
1031.600	-937
1031.666	-2311
1031.731	-2298
1031.797	-2273
1031.863	-1182
1031.928	-2227
1031.994	-1457
1032.059	-2131
1032.125	-2527
1032.190	-2576
1032.256	-1923
1032.321	-2647
1032.386	-2401
1032.452	-2364
1032.517	-2411
1032.582	-1203
1032.647	-1376
1032.713	-2329
1032.778	-2853
1032.843	-2310
1032.908	-2019
1032.974	-2764
1033.039	-2210
1033.104	-1649
1033.169	-2201
1033.234	-1673
1033.299	-1625
1033.364	-1984
1033.429	-2038
1033.494	-2642
1033.559	-1778
1033.624	-2808
1033.688	-1754
1033.753	-2597
1033.818	-1949
1033.883	-2472
1033.948	-1348
1034.013	-2351
1034.077	-2500
1034.142	-2045
1034.207	-2202
1034.271	-2205
1034.336	-1774
1034.400	-1980
1034.465	-1998
1034.530	-2249
1034.594	-1955
1034.658	-1742
1034.723	-2548
1034.787	-2526
1034.852	-1329
1034.916	-2076
1034.981	-1556
1035.045	-1849
1035.109	-1826
1035.173	-2016
1035.238	-1755
1035.302	-2121
1035.366	-1701
1035.430	-2067
1035.495	-2230
1035.559	-2314
1035.623	-1819
1035.687	-2508
1035.751	-1513
1035.815	-2361
1035.879	-1289
1035.943	-1760
1036.007	-2617
1036.071	-2691
1036.135	-2105
1036.198	-1964
1036.262	-1727
1036.326	-1993
1036.390	-1488
1036.454	-2185
1036.517	-2272
1036.581	-2365
1036.645	-2066
1036.709	-2844
1036.772	-2125
1036.836	-1887
1036.900	-1835
1036.963	-2742
1037.026	-1548
1037.090	-2759
1037.154	-1739
1037.217	-2457
1037.280	-2149
1037.344	-2108
1037.407	-2014
1037.471	-2087
1037.534	-2105
1037.597	-2134
1037.661	-2460
1037.724	-1549
1037.787	-1678
1037.850	-2635
1037.913	-2637
1037.977	-1526
1038.040	-1301
1038.103	-2397
1038.166	-2442
1038.229	-2406
1038.292	-2149
1038.355	-2586
1038.418	-2211
1038.481	-2133
1038.544	-2679
1038.607	-1750
1038.670	-2312
1038.732	-2040
1038.795	-2145
1038.858	-2621
1038.921	-1113
1038.984	-1665
1039.046	-2411
1039.109	-2469
1039.172	-1964
1039.234	-1804
1039.297	-2426
1039.360	-2425
1039.422	-1654
1039.485	-3029
1039.547	-2128
1039.610	-1294
1039.672	-1956
1039.734	-2061
1039.797	-2191
1039.859	-2091
1039.922	-2305
1039.984	-1508
1040.046	-1457
1040.109	-2262
1040.171	-2215
1040.233	-2076
1040.295	-1711
1040.358	-2057
1040.420	-2634
1040.482	-2243
1040.544	-1691
1040.606	-1678
1040.668	-2077
1040.730	-2052
1040.792	-1706
1040.854	-2382
1040.916	-2235
1040.978	-2233
1041.040	-1015
1041.102	-2270
1041.164	-1707
1041.225	-2980
1041.287	-1442
1041.349	-1950
1041.411	-1332
1041.472	-2840
1041.534	-1671
1041.596	-2340
1041.657	-1937
1041.719	-1627
1041.781	-1708
1041.842	-2753
1041.904	-2402
1041.965	-1943
1042.027	-1382
1042.088	-3134
1042.150	-1548
1042.211	-2768
1042.272	-2019
1042.334	-2438
1042.395	-1209
1042.456	-2616
1042.518	-1476
1042.579	-2260
1042.640	-1736
1042.701	-1712
1042.763	-2100
1042.824	-2169
1042.885	-2549
1042.946	-2227
1043.007	-1521
1043.068	-2297
1043.129	-2336
1043.190	-2523
1043.251	-2219
1043.312	-1868
1043.373	-2505
1043.434	-2261
1043.495	-1405
1043.556	-2233
1043.616	-1895
1043.677	-2019
1043.738	-1809
1043.799	-1946
1043.859	-2366
1043.920	-2024
1043.981	-1940
1044.041	-2445
1044.102	-2094
1044.162	-2414
1044.223	-2319
1044.284	-2332
1044.344	-2416
1044.405	-2489
1044.465	-1643
1044.525	-2719
1044.586	-1558
1044.646	-2501
1044.707	-1708
1044.767	-2057
1044.827	-1767
1044.887	-1623
1044.948	-1246
1045.008	-2695
1045.068	-1962
1045.128	-2674
1045.188	-2781
1045.249	-1438
1045.309	-1466
1045.369	-1782
1045.429	-1582
1045.489	-2561
1045.549	-1898
1045.609	-1943
1045.669	-2426
1045.729	-2025
1045.789	-2425
1045.848	-1676
1045.908	-1851
1045.968	-1725
1046.028	-1437
1046.088	-1704
1046.147	-1002
1046.207	-2184
1046.267	-1329
1046.326	-2037
1046.386	-1679
1046.446	-1337
1046.505	-1480
1046.565	-1703
1046.624	-1758
1046.684	-1404
1046.743	-1142
1046.803	-910
1046.862	-552
1046.922	0
