'Start Wavelength	183.907
'End Wavelength	1046.922
'Gate Delay	5.000
'Gate Width (ms)	1.050
'Laser Output Level	0.000
'X Position	0.000
'Y Position	0.000
'Z Position	0.000
'Grid Point Number	1.000
'Shot Number	100.000
183.907	251.000
183.977	-205.000
184.047	406
184.116	102
184.186	-184
184.256	15
184.325	88
184.395	-637
184.465	678
184.534	-657
184.604	201
184.674	61
184.743	-626
184.813	137
184.883	69
184.952	128
185.022	587
185.092	65
185.161	636
185.231	-202
185.301	135
185.370	498
185.440	-193
185.509	-587
185.579	944
185.649	688
185.718	915
185.788	360
185.857	-678
185.927	-534
185.996	143
186.066	-388
186.136	546
186.205	-414
186.275	-63
186.344	17
186.414	-30
186.483	-901
186.553	390
186.622	679
186.692	306
186.761	-276
186.831	134
186.900	-165
186.970	-87
187.039	165
187.109	424
187.178	-142
187.248	-106
187.317	589
187.387	-212
187.456	110
187.526	-139
187.595	635
187.664	-210
187.734	-24
187.803	135
187.873	54
187.942	454
188.012	-949
188.081	373
188.150	-556
188.220	11
188.289	141
188.358	-7
188.428	192
188.497	-333
188.567	138
188.636	-37
188.705	134
188.775	577
188.844	-396
188.913	606
188.983	-315
189.052	226
189.121	404
189.191	-8
189.260	56
189.329	98
189.399	227
189.468	-610
189.537	-1283
189.606	147
189.676	119
189.745	658
189.814	351
189.883	29
189.953	-234
190.022	166
190.091	712
190.161	-193
190.230	180
190.299	-143
190.368	-334
190.437	-374
190.507	-99
190.576	-174
190.645	509
190.714	307
190.783	-543
190.853	586
190.922	718
190.991	250
191.060	-372
191.129	-304
191.198	240
191.268	-13
191.337	-675
191.406	504
191.475	117
191.544	-287
191.613	-290
191.682	601
191.752	135
191.821	163
191.890	-216
191.959	382
192.028	277
192.097	54
192.166	638
192.235	-944
192.304	368
192.373	-271
192.442	-290
192.511	581
192.580	-1019
192.650	34
192.719	-467
192.788	-261
192.857	296
192.926	-382
192.995	-91
193.064	40
193.133	-533
193.202	426
193.271	93
193.340	697
193.409	-32
193.478	959
193.547	-827
193.615	42
193.684	-351
193.753	-385
193.822	333
193.891	-317
193.960	223
194.029	-83
194.098	-233
194.167	-22
194.236	343
194.305	262
194.374	-663
194.443	31
194.512	-369
194.580	-18
194.649	-94
194.718	575
194.787	-416
194.856	-508
194.925	379
194.994	-168
195.062	217
195.131	284
195.200	505
195.269	424
195.338	118
195.407	140
195.475	-535
195.544	376
195.613	-415
195.682	545
195.751	735
195.819	-241
195.888	384
195.957	1138
196.026	-178
196.094	1121
196.163	-380
196.232	280
196.301	-399
196.369	800
196.438	-871
196.507	-64
196.576	14
196.644	725
196.713	-14
196.782	-165
196.850	-163
196.919	259
196.988	198
197.056	-92
197.125	146
197.194	416
197.262	-116
197.331	292
197.400	28
197.468	-271
197.537	-108
197.606	203
197.674	-55
197.743	910
197.812	-15
197.880	528
197.949	62
198.017	423
198.086	-131
198.155	-858
198.223	-175
198.292	541
198.360	-553
198.429	-701
198.497	284
198.566	173
198.635	630
198.703	214
198.772	-439
198.840	288
198.909	79
198.977	-245
199.046	-437
199.114	173
199.183	-645
199.251	10
199.320	175
199.388	-325
199.457	483
199.525	-76
199.594	138
199.662	-546
199.731	-1023
199.799	238
199.867	56
199.936	-176
200.004	-358
200.073	340
200.141	-594
200.210	232
200.278	-317
200.346	-310
200.415	-82
200.483	110
200.552	-418
200.620	-102
200.688	-621
200.757	113
200.825	-693
200.893	448
200.962	-880
201.030	173
201.098	-64
201.167	395
201.235	-568
201.303	-200
201.372	45
201.440	201
201.508	231
201.577	280
201.645	19
201.713	-104
201.781	28
201.850	1242
201.918	-229
201.986	-717
202.055	259
202.123	-238
202.191	54
202.259	349
202.327	-922
202.396	-377
202.464	-588
202.532	466
202.600	1065
202.669	1807
202.737	-88
202.805	628
202.873	-211
202.941	-193
203.009	-424
203.078	-571
203.146	-255
203.214	75
203.282	-473
203.350	719
203.418	-92
203.487	145
203.555	-278
203.623	353
203.691	-232
203.759	-1070
203.827	-171
203.895	53
203.963	-16
204.031	32
204.099	-81
204.168	-345
204.236	15
204.304	923
204.372	239
204.440	365
204.508	-151
204.576	-814
204.644	-335
204.712	225
204.780	-41
204.848	464
204.916	-48
204.984	-322
205.052	564
205.120	-129
205.188	100
205.256	280
205.324	137
205.392	-685
205.460	-139
205.528	-1187
205.596	83
205.664	323
205.732	-608
205.799	156
205.867	929
205.935	70
206.003	599
206.071	159
206.139	-549
206.207	104
206.275	-128
206.343	-321
206.411	-366
206.478	-191
206.546	-373
206.614	-657
206.682	-247
206.750	108
206.818	289
206.885	331
206.953	-956
207.021	998
207.089	231
207.157	-544
207.225	174
207.292	-233
207.360	63
207.428	80
207.496	-44
207.563	-838
207.631	-92
207.699	-289
207.767	-696
207.834	-326
207.902	-277
207.970	-693
208.038	-449
208.105	-581
208.173	-713
208.241	499
208.309	365
208.376	278
208.444	249
208.512	-413
208.579	-1037
208.647	468
208.715	365
208.782	-316
208.850	-58
208.918	-56
208.985	112
209.053	307
209.120	-667
209.188	113
209.256	389
209.323	-340
209.391	143
209.459	1445
209.526	-50
209.594	482
209.661	-717
209.729	-44
209.796	-455
209.864	61
209.932	-1339
209.999	280
210.067	442
210.134	-21
210.202	-133
210.269	537
210.337	1259
210.404	-399
210.472	-49
210.539	145
210.607	258
210.674	83
210.742	433
210.809	-169
210.877	-611
210.944	846
211.012	-875
211.079	1307
211.146	-313
211.214	312
211.281	202
211.349	1034
211.416	-302
211.484	1259
211.551	-80
211.618	194
211.686	-212
211.753	-21
211.821	235
211.888	-154
211.955	-499
212.023	40
212.090	-288
212.157	104
212.225	323
212.292	775
212.359	1443
212.427	3699
212.494	1935
212.561	274
212.629	664
212.696	-599
212.763	188
212.831	767
212.898	1033
212.965	-253
213.032	611
213.100	764
213.167	46
213.234	1151
213.301	410
213.369	184
213.436	139
213.503	-1149
213.570	331
213.638	63
213.705	-320
213.772	-455
213.839	410
213.906	1560
213.973	577
214.041	201
214.108	860
214.175	742
214.242	105
214.309	205
214.376	431
214.444	-9
214.511	-119
214.578	-67
214.645	296
214.712	708
214.779	-103
214.846	378
214.913	531
214.980	165
215.048	1040
215.115	-12
215.182	314
215.249	358
215.316	-70
215.383	1300
215.450	283
215.517	239
215.584	11
215.651	-141
215.718	161
215.785	631
215.852	710
215.919	1028
215.986	-211
216.053	124
216.120	-330
216.187	1161
216.254	745
216.321	228
216.388	316
216.455	1160
216.522	275
216.589	1193
216.656	1108
216.722	1346
216.789	419
216.856	544
216.923	590
216.990	459
217.057	-354
217.124	720
217.191	33
217.258	338
217.324	554
217.391	1353
217.458	-569
217.525	298
217.592	223
217.659	330
217.725	1398
217.792	410
217.859	650
217.926	71
217.993	124
218.059	133
218.126	-209
218.193	-43
218.260	-61
218.327	356
218.393	63
218.460	158
218.527	-341
218.594	834
218.660	43
218.727	1796
218.794	-225
218.860	646
218.927	-542
218.994	-120
219.061	143
219.127	529
219.194	157
219.261	439
219.327	493
219.394	493
219.461	-119
219.527	971
219.594	877
219.661	769
219.727	-1385
219.794	719
219.860	-737
219.927	315
219.994	310
220.060	1841
220.127	1626
220.193	861
220.260	-468
220.326	783
220.393	221
220.460	1243
220.526	394
220.593	283
220.659	970
220.726	56
220.792	1407
220.859	1126
220.925	1237
220.992	3052
221.058	2157
221.125	3096
221.191	1841
221.258	640
221.324	967
221.391	626
221.457	330
221.524	656
221.590	936
221.657	3333
221.723	1502
221.789	995
221.856	2259
221.922	667
221.989	1060
222.055	614
222.121	-1208
222.188	2954
222.254	375
222.321	938
222.387	234
222.453	415
222.520	302
222.586	475
222.652	-242
222.719	-143
222.785	984
222.851	663
222.918	185
222.984	139
223.050	699
223.116	-505
223.183	589
223.249	63
223.315	-403
223.382	659
223.448	392
223.514	-777
223.580	-994
223.647	-46
223.713	-278
223.779	502
223.845	73
223.911	252
223.978	-431
224.044	417
224.110	14
224.176	421
224.242	-74
224.309	-1135
224.375	93
224.441	251
224.507	273
224.573	-388
224.639	693
224.705	464
224.772	493
224.838	312
224.904	970
224.970	784
225.036	264
225.102	-434
225.168	866
225.234	728
225.300	192
225.366	484
225.432	346
225.499	-256
225.565	-227
225.631	-38
225.697	582
225.763	805
225.829	-1
225.895	1107
225.961	1893
226.027	1203
226.093	345
226.159	1361
226.225	808
226.291	1795
226.357	4039
226.423	1977
226.489	1663
226.554	1506
226.620	249
226.686	1656
226.752	2443
226.818	1698
226.884	6025
226.950	4944
227.016	996
227.082	1810
227.148	883
227.214	1362
227.279	1196
227.345	627
227.411	143
227.477	1132
227.543	2829
227.609	2346
227.674	862
227.740	364
227.806	249
227.872	681
227.938	-479
228.003	1477
228.069	217
228.135	-119
228.201	510
228.267	553
228.332	548
228.398	409
228.464	117
228.530	445
228.595	320
228.661	-360
228.727	241
228.792	2054
228.858	-168
228.924	-1100
228.990	1249
229.055	-483
229.121	1605
229.187	411
229.252	1080
229.318	-271
229.384	1194
229.449	1268
229.515	-1387
229.581	-932
229.646	1140
229.712	1246
229.777	1036
229.843	1035
229.909	1645
229.974	1809
230.040	1034
230.105	1005
230.171	959
230.236	2022
230.302	2389
230.368	1627
230.433	432
230.499	1529
230.564	1562
230.630	798
230.695	1046
230.761	1758
230.826	-694
230.892	2482
230.957	-71
231.023	38
231.088	591
231.154	863
231.219	1083
231.284	1365
231.350	1380
231.415	33
231.481	1182
231.546	354
231.612	187
231.677	18
231.742	-441
231.808	1914
231.873	-193
231.939	-362
232.004	2548
232.069	2816
232.135	524
232.200	860
232.265	665
232.331	306
232.396	794
232.461	616
232.527	228
232.592	-294
232.657	768
232.723	278
232.788	112
232.853	846
232.918	502
232.984	612
233.049	-359
233.114	1100
233.179	840
233.245	1413
233.310	1096
233.375	-477
233.440	355
233.506	393
233.571	-75
233.636	544
233.701	184
233.766	1626
233.832	923
233.897	651
233.962	309
234.027	2198
234.092	881
234.157	1422
234.222	383
234.288	612
234.353	2927
234.418	4246
234.483	3020
234.548	1664
234.613	2077
234.678	1158
234.743	425
234.808	4191
234.873	1139
234.938	1601
235.004	645
235.069	1349
235.134	-4
235.199	1011
235.264	1342
235.329	-469
235.394	830
235.459	943
235.524	125
235.589	471
235.654	580
235.719	-359
235.784	1504
235.849	1355
235.913	1917
235.978	2487
236.043	1462
236.108	1432
236.173	-236
236.238	1606
236.303	420
236.368	270
236.433	1299
236.498	1580
236.563	1348
236.627	1968
236.692	6920
236.757	6055
236.822	1938
236.887	2351
236.952	2175
237.017	207
237.081	2390
237.146	1236
237.211	2742
237.276	6497
237.341	13963
237.405	5179
237.470	2406
237.535	1779
237.600	1438
237.664	1804
237.729	-47
237.794	790
237.859	1862
237.923	1408
237.988	1247
238.053	2353
238.118	1855
238.182	4155
238.247	5703
238.312	1171
238.376	1397
238.441	-199
238.506	1904
238.570	-261
238.635	1568
238.700	827
238.764	390
238.829	1479
238.893	2252
238.958	2126
239.023	1332
239.087	882
239.152	1081
239.216	928
239.281	345
239.346	517
239.410	392
239.475	51
239.539	3922
239.604	2894
239.668	1807
239.733	1124
239.797	2723
239.862	5464
239.926	4478
239.991	2586
240.055	820
240.120	1003
240.184	1526
240.249	-183
240.313	408
240.378	970
240.442	2346
240.507	4204
240.571	682
240.635	1468
240.700	2162
240.764	1444
240.829	585
240.893	180
240.957	780
241.022	3210
241.086	5023
241.151	2346
241.215	-466
241.279	2265
241.344	1821
241.408	1991
241.472	811
241.537	2755
241.601	1985
241.665	281
241.730	694
241.794	2172
241.858	694
241.922	1008
241.987	1451
242.051	1580
242.115	-139
242.179	586
242.244	406
242.308	2002
242.372	817
242.436	1315
242.501	966
242.565	814
242.629	721
242.693	1730
242.757	-258
242.822	945
242.886	1915
242.950	1652
243.014	559
243.078	1554
243.142	1226
243.206	905
243.271	1654
243.335	1162
243.399	1882
243.463	5690
243.527	16774
243.591	5989
243.655	2063
243.719	1819
243.783	1766
243.847	3121
243.911	4305
243.975	4057
244.040	3047
244.104	3040
244.168	1313
244.232	2186
244.296	3178
244.360	3344
244.424	1273
244.488	1309
244.552	961
244.615	-840
244.679	997
244.743	1406
244.807	846
244.871	1842
244.935	579
244.999	755
245.063	610
245.127	1837
245.191	2260
245.255	2112
245.319	1963
245.383	851
245.446	2445
245.510	569
245.574	887
245.638	1473
245.702	349
245.766	4123
245.829	2726
245.893	1315
245.957	532
246.021	2353
246.085	1145
246.149	2315
246.212	4647
246.276	6489
246.340	3408
246.404	2933
246.467	2723
246.531	2596
246.595	3132
246.659	2200
246.722	703
246.786	2953
246.850	2852
246.913	3276
246.977	-55
247.041	1452
247.104	1567
247.168	1446
247.232	4928
247.295	9106
247.359	5248
247.423	1549
247.486	3857
247.550	3069
247.614	1613
247.677	2826
247.741	1176
247.804	1200
247.868	1091
247.932	3878
247.995	10466
248.059	3077
248.122	1314
248.186	2789
248.249	4829
248.313	15101
248.376	16545
248.440	9968
248.503	3096
248.567	4805
248.630	3997
248.694	6791
248.757	9889
248.821	16651
248.884	11764
248.948	8771
249.011	13093
249.075	18131
249.138	17686
249.202	7853
249.265	4750
249.328	5356
249.392	2803
249.455	4210
249.519	2175
249.582	3257
249.645	5413
249.709	3559
249.772	2221
249.835	1953
249.899	1286
249.962	2718
250.025	1460
250.089	5377
250.152	8613
250.215	4688
250.279	1898
250.342	3490
250.405	2651
250.468	2963
250.532	2692
250.595	4478
250.658	14198
250.721	26950
250.785	10061
250.848	6102
250.911	3282
250.974	4054
251.038	3738
251.101	10132
251.164	3233
251.227	5252
251.290	4128
251.354	6149
251.417	21102
251.480	23079
251.543	14852
251.606	38194
251.669	30804
251.732	13159
251.795	14626
251.859	12437
251.922	25491
251.985	16385
252.048	6998
252.111	4918
252.174	5104
252.237	10024
252.300	18867
252.363	19573
252.426	33937
252.489	15594
252.552	7634
252.615	5606
252.678	5497
252.741	14066
252.804	16127
252.867	34309
252.930	22434
252.993	11990
253.056	8244
253.119	5915
253.182	4275
253.245	6625
253.308	6233
253.371	5671
253.434	5178
253.497	5009
253.559	8688
253.622	6612
253.685	8282
253.748	11201
253.811	4386
253.874	5043
253.937	4128
254.000	3607
254.062	5832
254.125	9706
254.188	9398
254.251	7364
254.314	2455
254.376	7013
254.439	8896
254.502	8587
254.565	6980
254.628	12639
254.690	8153
254.753	3690
254.816	2896
254.878	3458
254.941	6726
255.004	7092
255.067	3110
255.129	4273
255.192	1451
255.255	1495
255.317	2608
255.380	1597
255.443	366
255.505	1054
255.568	138
255.631	982
255.693	560
255.756	571
255.819	1215
255.881	-182
255.944	1034
256.006	767
256.069	317
256.132	740
256.194	212
256.257	4095
256.319	2679
256.382	2090
256.444	2535
256.507	1947
256.569	1362
256.632	679
256.694	570
256.757	4466
256.819	11916
256.882	3516
256.944	2780
257.007	2988
257.069	2087
257.132	1673
257.194	2004
257.257	1470
257.319	756
257.381	-224
257.444	3076
257.506	14070
257.569	16934
257.631	13156
257.693	8216
257.756	2844
257.818	2155
257.880	1106
257.943	1123
258.005	1630
258.067	664
258.130	1832
258.192	1190
258.254	4760
258.317	2181
258.379	2302
258.441	5670
258.503	5581
258.566	5509
258.628	8259
258.690	1404
258.753	2460
258.815	5449
258.877	2264
258.939	1299
259.001	1762
259.064	1211
259.126	1606
259.188	2754
259.250	2072
259.312	2112
259.375	7773
259.437	5069
259.499	2161
259.561	1261
259.623	2340
259.685	1174
259.747	2242
259.809	4715
259.872	10080
259.934	13348
259.996	14723
260.058	3890
260.120	737
260.182	1551
260.244	1228
260.306	356
260.368	1335
260.430	752
260.492	2693
260.554	6069
260.616	5237
260.678	7383
260.740	10909
260.802	3016
260.864	3175
260.926	1491
260.988	2645
261.050	898
261.112	2295
261.174	8836
261.236	8052
261.298	2993
261.359	4712
261.421	7745
261.483	1825
261.545	2293
261.607	-126
261.669	1336
261.731	2750
261.793	8173
261.854	3593
261.916	2789
261.978	1553
262.040	2317
262.102	1794
262.164	2058
262.225	2668
262.287	913
262.349	5405
262.411	4606
262.472	2340
262.534	1100
262.596	6122
262.658	1831
262.719	944
262.781	1828
262.843	5598
262.904	2924
262.966	2759
263.028	2202
263.090	9219
263.151	28174
263.213	10461
263.275	5150
263.336	3024
263.398	2495
263.459	1247
263.521	1436
263.583	6223
263.644	2498
263.706	1423
263.767	-803
263.829	835
263.891	10
263.952	432
264.014	-20
264.075	464
264.137	2277
264.198	2853
264.260	-109
264.321	269
264.383	2493
264.444	7135
264.506	1058
264.567	1353
264.629	2132
264.690	2062
264.752	1759
264.813	1403
264.875	-113
264.936	1786
264.998	420
265.059	5
265.120	919
265.182	853
265.243	4604
265.305	5233
265.366	166
265.427	800
265.489	1084
265.550	-245
265.611	614
265.673	1534
265.734	105
265.795	596
265.857	-498
265.918	-846
265.979	1352
266.040	8938
266.102	7193
266.163	2915
266.224	2984
266.286	1227
266.347	538
266.408	812
266.469	1338
266.530	511
266.592	462
266.653	2736
266.714	5630
266.775	1990
266.836	892
266.898	405
266.959	1237
267.020	1460
267.081	959
267.142	1464
267.203	677
267.264	729
267.326	2431
267.387	1046
267.448	454
267.509	1331
267.570	1095
267.631	630
267.692	-788
267.753	1176
267.814	354
267.875	2317
267.936	7323
267.997	1692
268.058	2046
268.119	704
268.180	1213
268.241	773
268.302	950
268.363	348
268.424	979
268.485	1511
268.546	272
268.607	-42
268.668	-380
268.729	389
268.790	132
268.851	404
268.912	4036
268.972	5994
269.033	2774
269.094	417
269.155	107
269.216	529
269.277	606
269.338	604
269.398	68
269.459	799
269.520	3150
269.581	3921
269.642	4331
269.702	2237
269.763	1205
269.824	987
269.885	1741
269.945	4965
270.006	1706
270.067	443
270.128	45
270.188	378
270.249	-178
270.310	566
270.370	665
270.431	377
270.492	-94
270.553	649
270.613	2998
270.674	7215
270.734	2444
270.795	997
270.856	1881
270.916	1279
270.977	831
271.038	1231
271.098	1401
271.159	2960
271.219	3007
271.280	494
271.340	1040
271.401	876
271.462	4041
271.522	2464
271.583	1284
271.643	1849
271.704	500
271.764	1199
271.825	4835
271.885	16424
271.946	22372
272.006	7667
272.066	8714
272.127	16791
272.187	6073
272.248	2803
272.308	1717
272.369	10028
272.429	5831
272.489	5015
272.550	4635
272.610	5873
272.671	4489
272.731	2303
272.791	4412
272.852	2972
272.912	3409
272.972	2580
273.033	1145
273.093	1861
273.153	3419
273.214	1424
273.274	2354
273.334	7272
273.394	15885
273.455	7743
273.515	6481
273.575	14131
273.635	7031
273.696	9151
273.756	15389
273.816	7894
273.876	3950
273.936	6602
273.997	10561
274.057	2928
274.117	2274
274.177	4427
274.237	18979
274.297	16232
274.358	9818
274.418	11600
274.478	10460
274.538	4543
274.598	2022
274.658	8649
274.718	12244
274.778	4823
274.838	1886
274.898	4512
274.958	14229
275.018	15092
275.078	10227
275.138	4327
275.198	2300
275.258	1553
275.318	1400
275.378	4472
275.438	6241
275.498	2826
275.558	6744
275.618	16336
275.678	11388
275.738	7011
275.798	5461
275.858	1531
275.918	173
275.978	2147
276.038	2202
276.098	1571
276.157	3080
276.217	13070
276.277	5603
276.337	4118
276.397	1688
276.457	2664
276.517	1185
276.576	1804
276.636	364
276.696	3352
276.756	7003
276.815	5908
276.875	2005
276.935	2253
276.995	2333
277.055	1785
277.114	1682
277.174	1645
277.234	10071
277.293	4586
277.353	2128
277.413	1780
277.472	1406
277.532	2020
277.592	2491
277.651	8526
277.711	19037
277.771	6091
277.830	21844
277.890	19128
277.950	11007
278.009	31707
278.069	13600
278.128	14366
278.188	21368
278.248	8434
278.307	19910
278.367	12832
278.426	3246
278.486	2646
278.545	1289
278.605	2024
278.664	1074
278.724	1221
278.783	5859
278.843	15486
278.902	4452
278.962	2860
279.021	3462
279.081	4484
279.140	3863
279.199	4277
279.259	2509
279.318	2957
279.378	5515
279.437	8975
279.496	29676
279.556	72748
279.615	63385
279.675	18698
279.734	10187
279.793	16030
279.853	22166
279.912	9790
279.971	5455
280.031	5630
280.090	8646
280.149	16854
280.208	11580
280.268	46701
280.327	53361
280.386	14768
280.445	11254
280.505	10729
280.564	4644
280.623	2994
280.682	5887
280.742	10000
280.801	2892
280.860	1797
280.919	1085
280.978	1902
281.037	818
281.097	1561
281.156	1433
281.215	1577
281.274	1384
281.333	10822
281.392	7907
281.451	2227
281.510	1255
281.569	1373
281.628	1232
281.688	674
281.747	2446
281.806	432
281.865	481
281.924	1396
281.983	657
282.042	1230
282.101	345
282.160	1180
282.219	544
282.278	1290
282.337	6198
282.396	5074
282.454	902
282.513	2709
282.572	10660
282.631	6825
282.690	1667
282.749	1887
282.808	2000
282.867	2330
282.926	2462
282.985	1115
283.043	1498
283.102	972
283.161	1010
283.220	4516
283.279	10384
283.338	3357
283.396	2024
283.455	2029
283.514	2519
283.573	4497
283.631	3775
283.690	1856
283.749	1535
283.808	5503
283.866	5871
283.925	2169
283.984	1389
284.043	2977
284.101	3322
284.160	1603
284.219	2676
284.277	3475
284.336	4533
284.395	15636
284.453	12274
284.512	6382
284.570	7189
284.629	6653
284.688	6965
284.746	7519
284.805	9637
284.863	13133
284.922	16463
284.981	18643
285.039	25093
285.098	43512
285.156	79000
285.215	81998
285.273	84303
285.332	85768
285.390	53376
285.449	33180
285.507	22370
285.566	16879
285.624	11891
285.683	9992
285.741	7658
285.799	6863
285.858	5866
285.916	5179
285.975	3208
286.033	3028
286.091	2389
286.150	2508
286.208	2249
286.267	2628
286.325	3005
286.383	5943
286.442	4164
286.500	1327
286.558	1356
286.616	1408
286.675	2835
286.733	2713
286.791	1729
286.850	1961
286.908	3126
286.966	5778
287.024	1936
287.083	1214
287.141	421
287.199	1643
287.257	3132
287.315	1672
287.374	2077
287.432	6060
287.490	4408
287.548	2099
287.606	1172
287.664	1486
287.723	1817
287.781	2748
287.839	1276
287.897	1764
287.955	1511
288.013	3225
288.071	7910
288.129	31026
288.187	88186
288.245	41693
288.303	13026
288.361	6424
288.419	4074
288.477	3389
288.535	1601
288.593	2157
288.651	1675
288.709	984
288.767	1483
288.825	456
288.883	1079
288.941	734
288.999	159
289.057	912
289.115	163
289.173	-305
289.231	248
289.289	759
289.346	521
289.404	1751
289.462	2538
289.520	3311
289.578	1065
289.636	558
289.694	54
289.751	13
289.809	252
289.867	615
289.925	1417
289.983	2005
290.040	363
290.098	-621
290.156	552
290.214	1953
290.271	-168
290.329	525
290.387	-152
290.444	-340
290.502	593
290.560	756
290.617	39
290.675	87
290.733	-242
290.790	1080
290.848	-175
290.906	228
290.963	470
291.021	454
291.078	151
291.136	433
291.194	3821
291.251	9525
291.309	2701
291.366	686
291.424	802
291.481	1100
291.539	1308
291.596	985
291.654	60
291.711	414
291.769	663
291.826	3406
291.884	1904
291.941	330
291.999	335
292.056	965
292.114	1013
292.171	382
292.228	325
292.286	1083
292.343	3152
292.401	4303
292.458	2130
292.515	1180
292.573	1997
292.630	1585
292.687	1314
292.745	989
292.802	673
292.859	4199
292.917	10771
292.974	7724
293.031	987
293.089	1146
293.146	623
293.203	89
293.260	628
293.318	567
293.375	774
293.432	271
293.489	583
293.546	370
293.604	1085
293.661	4920
293.718	16790
293.775	8326
293.832	4979
293.889	4197
293.947	3347
294.004	2508
294.061	2353
294.118	5351
294.175	10459
294.232	10105
294.289	4127
294.346	1435
294.403	1634
294.460	1470
294.517	759
294.574	378
294.631	-8
294.688	709
294.745	3067
294.802	16724
294.859	16473
294.916	6715
294.973	4249
295.030	3239
295.087	3152
295.144	1763
295.201	918
295.258	645
295.315	1881
295.372	6160
295.429	12922
295.486	5874
295.542	2329
295.599	4794
295.656	9294
295.713	8145
295.770	12927
295.827	4982
295.883	2001
295.940	2056
295.997	3712
296.054	3966
296.111	1459
296.167	1446
296.224	308
296.281	466
296.338	-570
296.394	458
296.451	634
296.508	4939
296.564	11081
296.621	7146
296.678	13312
296.734	21197
296.791	7412
296.848	4220
296.904	3945
296.961	11654
297.018	16184
297.074	10826
297.131	3791
297.187	2439
297.244	5063
297.301	13399
297.357	25858
297.414	8796
297.470	2861
297.527	2141
297.583	1757
297.640	1988
297.696	713
297.753	991
297.809	4
297.866	-316
297.922	450
297.979	178
298.035	481
298.092	1828
298.148	8367
298.204	8974
298.261	3381
298.317	6501
298.374	17116
298.430	10901
298.486	4030
298.543	3540
298.599	3242
298.656	2919
298.712	6147
298.768	14955
298.824	10836
298.881	3259
298.937	1465
298.993	1492
299.050	2503
299.106	2153
299.162	786
299.218	1328
299.275	602
299.331	1510
299.387	3700
299.443	16425
299.500	19256
299.556	8074
299.612	3137
299.668	2992
299.724	4496
299.780	5438
299.837	2820
299.893	3747
299.949	15506
300.005	19919
300.061	14576
300.117	24290
300.173	12485
300.229	5466
300.285	6745
300.341	8954
300.397	3855
300.453	1439
300.510	1482
300.566	1308
300.622	2583
300.678	10429
300.734	20365
300.790	15342
300.845	17657
300.901	11828
300.957	17441
301.013	13957
301.069	3955
301.125	3607
301.181	3301
301.237	2941
301.293	1420
301.349	1214
301.405	437
301.461	928
301.516	2118
301.572	2835
301.628	4854
301.684	4528
301.740	5527
301.796	11681
301.851	7417
301.907	12525
301.963	13106
302.019	17161
302.074	43789
302.130	47399
302.186	22238
302.242	7640
302.297	4926
302.353	5618
302.409	10249
302.464	10150
302.520	7880
302.576	17057
302.631	20921
302.687	12500
302.743	4641
302.798	2502
302.854	1273
302.910	1398
302.965	2483
303.021	6317
303.076	6138
303.132	7432
303.187	9408
303.243	4844
303.299	1877
303.354	1375
303.410	1276
303.465	877
303.521	888
303.576	1352
303.632	1890
303.687	4772
303.743	13229
303.798	12690
303.853	4688
303.909	1974
303.964	2185
304.020	3927
304.075	6810
304.130	6407
304.186	12572
304.241	13594
304.297	10191
304.352	4661
304.358	4440
304.407	2648
304.449	2766
304.463	2811
304.518	2592
304.539	2514
304.573	2364
304.629	2170
304.630	2204
304.684	3966
304.720	7793
304.739	9686
304.794	17083
304.811	14696
304.850	8907
304.902	4651
304.905	4383
304.960	1798
304.992	1245
305.015	884
305.071	1360
305.083	1449
305.126	1659
305.173	964
305.181	870
305.236	809
305.264	976
305.292	1124
305.347	2470
305.354	2423
305.402	2202
305.445	2713
305.457	2822
305.512	2600
305.535	2696
305.567	2888
305.622	2885
305.626	3008
305.678	6070
305.716	12064
305.733	14135
305.788	18640
305.807	16013
305.843	11552
305.897	14136
305.898	14151
305.953	14221
305.988	9749
306.008	7384
306.063	4209
306.078	3725
306.118	2746
306.168	1718
306.173	1627
306.228	1789
306.259	1446
306.283	1211
306.338	561
306.349	571
306.393	586
306.440	761
306.448	806
306.503	1622
306.530	1747
306.558	2341
306.613	5343
306.620	5913
306.668	10544
306.711	15948
306.723	16512
306.778	13772
306.801	10367
306.833	6494
306.888	3484
306.892	3302
306.943	1747
306.982	1526
306.997	1531
307.052	1223
307.072	1416
307.107	1707
307.162	1150
307.163	1154
307.217	2213
307.253	2878
307.272	3034
307.327	3209
307.343	3034
307.381	2622
307.434	2885
307.436	3029
307.491	6884
307.524	10362
307.546	11440
307.600	13870
307.614	12712
307.655	7621
307.704	3002
307.710	2796
307.765	2544
307.795	3342
307.819	3958
307.874	5681
307.885	5678
307.929	4994
307.975	3905
307.984	3828
308.038	4077
308.065	5141
308.093	9456
308.148	19955
308.156	22688
308.202	37063
308.246	47576
308.257	47305
308.312	26001
308.336	19567
308.366	15810
308.421	12648
308.426	12108
308.475	6908
308.517	4137
308.530	3704
308.585	2884
308.607	2718
308.639	2868
308.694	3240
308.697	3284
308.748	5160
308.787	7101
308.803	7123
308.857	5935
308.877	5278
308.912	5015
308.967	5221
308.967	5233
309.021	8964
309.058	12098
309.076	14860
309.130	26290
309.148	30035
309.185	45157
309.238	69431
309.239	69703
309.293	87216
309.328	84986
309.348	74106
309.402	35621
309.418	26378
309.457	18463
309.508	12207
309.511	12184
309.566	14631
309.598	16996
309.620	23738
309.674	43641
309.688	48863
309.729	44939
309.778	32450
309.783	31402
309.837	18657
309.868	12789
309.892	14639
309.946	21506
309.959	23837
310.001	31735
310.049	38347
310.055	37030
310.109	21814
310.139	13134
310.163	10096
310.218	5347
310.229	4568
310.272	3871
310.319	3209
310.326	3059
310.381	2182
310.409	1764
310.435	1720
310.489	1834
310.499	1818
310.543	1766
310.589	1943
310.598	1970
310.652	1911
310.679	2020
310.706	1898
310.760	1309
310.769	1245
310.814	1398
310.859	1473
310.868	1498
310.923	1628
310.948	1706
310.977	1956
311.031	2488
311.038	2558
311.085	2074
311.128	1484
311.139	1587
311.193	2093
311.218	2361
311.247	2104
311.301	1550
311.308	1494
311.356	1931
311.398	2158
311.410	2098
311.464	1891
311.488	1804
311.518	1968
311.572	2260
311.578	2284
311.626	3341
311.668	4323
311.680	4118
311.734	3006
311.758	2541
311.788	2313
311.842	1858
311.847	1813
311.896	2729
311.937	3520
311.950	3471
312.004	3233
312.027	3118
312.058	3079
312.112	3014
312.117	3004
312.165	2405
312.207	1894
312.297	1513
312.386	1839
312.476	3144
312.566	6613
312.656	2896
312.745	1415
312.835	1262
312.925	2073
313.015	1713
313.104	1628
313.194	1947
313.284	1966
313.374	3552
313.463	2545
313.553	1963
313.643	972
313.732	2191
313.822	1316
313.912	1253
314.001	2017
314.091	2059
314.180	2661
314.270	3479
314.360	3208
314.449	2505
314.539	1527
314.628	2520
314.718	2224
314.808	2180
314.897	1714
314.987	2871
315.076	3839
315.166	4359
315.255	2566
315.345	3471
315.434	2171
315.524	2938
315.613	3931
315.703	4717
315.792	6648
315.881	14850
315.971	5441
316.060	6546
316.150	5617
316.239	4903
316.328	1874
316.418	1941
316.507	2341
316.597	4471
316.686	3082
316.775	3044
316.865	4547
316.954	2366
317.043	1646
317.133	2280
317.222	1524
317.311	2069
317.400	1341
317.490	4051
317.579	4167
317.668	2243
317.757	3987
317.847	9752
317.936	26193
318.025	14813
318.114	8334
318.203	4887
318.293	8217
318.382	15485
318.471	12409
318.560	12966
318.649	14888
318.738	3672
318.828	4419
318.917	4403
319.006	3281
319.095	8304
319.184	21897
319.273	17318
319.362	11620
319.451	3936
319.540	2977
319.629	8261
319.718	16071
319.807	5756
319.896	8263
319.985	28637
320.074	12643
320.163	4171
320.252	3717
320.341	3690
320.430	3175
320.519	6838
320.608	3624
320.697	3522
320.786	3366
320.875	5264
320.964	6322
321.053	10434
321.142	14769
321.230	16150
321.319	9757
321.408	25480
321.497	9990
321.586	10790
321.675	7652
321.764	8060
321.852	5715
321.941	14605
322.030	8992
322.119	9231
322.207	25989
322.296	10548
322.385	7087
322.474	11008
322.562	32907
322.651	16490
322.740	11575
322.829	15281
322.917	9781
323.006	7373
323.095	7894
323.183	4063
323.272	6522
323.361	9448
323.449	21559
323.538	8560
323.626	15939
323.715	10449
323.804	4358
323.892	13334
323.981	10581
324.069	4407
324.158	6687
324.246	6271
324.335	5473
324.424	10376
324.512	3904
324.601	7036
324.689	13280
324.778	26355
324.866	8188
324.954	3593
325.043	2442
325.131	4329
325.220	6140
325.308	6789
325.397	5643
325.485	3429
325.574	2124
325.662	3143
325.750	2255
325.839	2786
325.927	1511
326.015	2062
326.104	1938
326.192	3523
326.280	1587
326.369	2290
326.457	4150
326.545	8510
326.634	2453
326.722	1534
326.810	1507
326.898	2400
326.987	2872
327.075	6426
327.163	6502
327.251	3506
327.340	10203
327.428	16456
327.516	2508
327.604	1693
327.692	2079
327.781	1239
327.869	2245
327.957	2410
328.045	2881
328.133	2017
328.221	1966
328.309	2979
328.397	1226
328.485	3538
328.574	4964
328.662	17543
328.750	7200
328.838	2002
328.926	1585
329.014	1520
329.102	2549
329.190	6165
329.278	4970
329.366	1817
329.454	1025
329.542	881
329.630	808
329.718	2080
329.806	1709
329.893	1656
329.981	1375
330.069	2327
330.157	5369
330.245	15851
330.333	7644
330.421	2875
330.509	5404
330.597	20276
330.684	12197
330.772	3199
330.860	2719
330.948	2759
331.036	1388
331.123	1465
331.211	1261
331.299	1921
331.387	3167
331.475	6364
331.562	1740
331.650	2124
331.738	1999
331.825	2141
331.913	1112
332.001	1305
332.089	2370
332.176	2697
332.264	6060
332.352	5315
332.439	2244
332.527	1959
332.614	1619
332.702	1778
332.790	1484
332.877	4473
332.965	8006
333.052	4787
333.140	4973
333.228	14108
333.315	2915
333.403	2218
333.490	4130
333.578	6284
333.665	20832
333.753	7328
333.840	2525
333.928	2551
334.015	5078
334.103	7660
334.190	22168
334.278	6890
334.365	4474
334.452	5166
334.540	2217
334.627	2397
334.715	2414
334.802	5803
334.889	21373
334.977	27192
335.064	9843
335.151	3895
335.239	2767
335.326	3002
335.413	12339
335.501	16758
335.588	2867
335.675	2515
335.762	2568
335.850	3718
335.937	4123
336.024	9520
336.111	30158
336.199	21543
336.286	6343
336.373	3265
336.460	1558
336.547	2174
336.635	2839
336.722	2505
336.809	1609
336.896	4455
336.983	9585
337.070	19145
337.157	25916
337.245	14552
337.332	9263
337.419	1794
337.506	1648
337.593	2427
337.680	5283
337.767	15128
337.854	5153
337.941	5891
338.028	6229
338.115	3053
338.202	3570
338.289	4422
338.376	15296
338.463	5414
338.550	7789
338.637	9510
338.724	3616
338.811	4175
338.898	1517
338.984	1335
339.071	780
339.158	3064
339.245	9533
339.332	6373
339.419	4751
339.506	4121
339.593	984
339.679	2547
339.766	1551
339.853	3017
339.940	7816
340.027	2693
340.113	3426
340.200	4066
340.287	1776
340.374	4287
340.460	6748
340.547	2853
340.634	5481
340.720	19829
340.807	11034
340.894	2304
340.980	1988
341.067	1336
341.154	2861
341.240	5168
341.327	11072
341.414	4301
341.500	5044
341.587	2451
341.674	2585
341.760	6830
341.847	8108
341.933	2869
342.020	330
342.106	1537
342.193	2514
342.279	5980
342.366	3993
342.452	7850
342.539	4419
342.625	9928
342.712	22144
342.798	8704
342.885	3396
342.971	619
343.058	1258
343.144	1537
343.230	1207
343.317	3059
343.403	1489
343.490	1348
343.576	965
343.662	1487
343.749	2036
343.835	3379
343.921	6021
344.008	32158
344.094	72338
344.180	17097
344.267	6095
344.353	21971
344.439	20948
344.525	10876
344.612	4657
344.698	4066
344.784	2511
344.870	2368
344.957	1869
345.043	4466
345.129	2317
345.215	7128
345.301	4763
345.387	3836
345.474	721
345.560	935
345.646	845
345.732	2085
345.818	3139
345.904	2523
345.990	2454
346.076	2929
346.162	3246
346.249	3626
346.335	1658
346.421	2460
346.507	8365
346.593	32495
346.679	6756
346.765	2444
346.851	1652
346.937	1500
347.023	1340
347.108	3062
347.194	1954
347.280	2164
347.366	3832
347.452	10291
347.538	36812
347.624	29669
347.710	22571
347.796	3415
347.882	1962
347.967	2191
348.053	272
348.139	1773
348.225	1390
348.311	1761
348.397	1664
348.482	2486
348.568	2933
348.654	1142
348.740	4140
348.825	2857
348.911	4633
348.997	16141
349.083	31573
349.168	4995
349.254	2855
349.340	3210
349.425	1589
349.511	2868
349.597	2839
349.682	7186
349.768	25332
349.854	11129
349.939	1844
350.025	1408
350.110	1510
350.196	1762
350.282	1084
350.367	1245
350.453	1683
350.538	2177
350.624	2927
350.709	3153
350.795	580
350.880	1202
350.966	2331
351.051	3243
351.137	1137
351.222	2610
351.308	8855
351.393	23830
351.479	6512
351.564	2434
351.649	2581
351.735	1697
351.820	911
351.906	2167
351.991	2752
352.076	14425
352.162	21561
352.247	4648
352.332	3760
352.418	8000
352.503	9483
352.588	35037
352.673	28386
352.759	6630
352.844	2259
352.929	3418
353.014	4400
353.100	3862
353.185	7751
353.270	9180
353.355	7667
353.441	2696
353.526	2224
353.611	6920
353.696	8038
353.781	5555
353.866	1738
353.952	3633
354.037	7543
354.122	17943
354.207	14704
354.292	5284
354.377	1858
354.462	2362
354.547	3365
354.632	3760
354.717	4721
354.802	8611
354.887	2785
354.972	2408
355.057	1134
355.142	1331
355.227	2822
355.312	4944
355.397	10559
355.482	26600
355.567	12097
355.652	9460
355.737	9631
355.822	28748
355.907	22799
355.991	4970
356.076	1178
356.161	2378
356.246	924
356.331	2969
356.416	5102
356.501	39931
356.585	40712
356.670	6409
356.755	5314
356.840	7084
356.924	31306
357.009	102021
357.094	38323
357.179	8817
357.263	5721
357.348	5911
357.433	5084
357.517	5894
357.602	4270
357.687	3690
357.771	7750
357.856	23306
357.941	13017
358.025	21820
358.110	90113
358.195	42528
358.279	7759
358.364	5568
358.448	20618
358.533	58516
358.617	40884
358.702	40435
358.787	14508
358.871	8794
358.956	6986
359.040	2824
359.125	2647
359.209	3285
359.294	9996
359.378	18504
359.462	7954
359.547	4015
359.631	1811
359.716	1831
359.800	2102
359.885	3323
359.969	2078
360.053	2572
360.138	1382
360.222	4560
360.306	7583
360.391	6306
360.475	12207
360.559	26824
360.644	22155
360.728	14429
360.812	23012
360.896	59877
360.981	24724
361.065	13512
361.149	4593
361.233	3592
361.318	3244
361.402	4474
361.486	3306
361.570	2516
361.654	3374
361.739	10219
361.823	39014
361.907	60799
361.991	11782
362.075	7205
362.159	14382
362.243	11547
362.327	10800
362.411	18258
362.495	7704
362.580	3449
362.664	2211
362.748	2151
362.832	3268
362.916	5545
363.000	23661
363.084	68861
363.168	74977
363.252	17390
363.336	6547
363.420	8003
363.503	19423
363.587	21710
363.671	5279
363.755	4416
363.839	7306
363.923	2884
364.007	8354
364.091	8156
364.175	6378
364.258	33011
364.342	30406
364.426	60268
364.510	33450
364.594	11950
364.677	11916
364.761	52087
364.845	36863
364.929	15412
365.013	11597
365.096	9502
365.180	9573
365.264	9109
365.347	29546
365.431	11754
365.515	3067
365.598	2898
365.682	2171
365.766	2696
365.849	3601
365.933	2879
366.017	4939
366.100	2160
366.184	1233
366.267	3491
366.351	2176
366.435	1429
366.518	1561
366.602	1256
366.685	2320
366.769	2371
366.852	3679
366.936	8414
367.019	5022
367.103	2143
367.186	4637
367.270	1518
367.353	1585
367.436	3179
367.520	2208
367.603	3652
367.687	5028
367.770	9815
367.853	5554
367.937	18092
368.020	28969
368.104	6713
368.187	7123
368.270	11493
368.353	9069
368.437	8631
368.520	9940
368.603	10625
368.687	20112
368.770	40221
368.853	9600
368.936	8245
369.020	6328
369.103	3021
369.186	2175
369.269	2501
369.352	5723
369.436	8034
369.519	5190
369.602	1692
369.685	3443
369.768	1763
369.851	2617
369.934	1228
370.018	1940
370.101	7729
370.184	6979
370.267	3927
370.350	7420
370.433	12097
370.516	29294
370.599	35340
370.682	10222
370.765	24242
370.848	25990
370.931	45680
371.014	16369
371.097	3200
371.180	3657
371.263	2850
371.346	1048
371.429	3090
371.511	2680
371.594	5488
371.677	7890
371.760	7154
371.843	8198
371.926	34063
372.009	76538
372.091	28376
372.174	18330
372.257	41741
372.340	16008
372.423	11635
372.505	11120
372.588	4861
372.671	15083
372.754	46883
372.836	21880
372.919	10737
373.002	17502
373.085	7982
373.167	9287
373.250	21276
373.332	42913
373.415	52389
373.498	102747
373.580	37203
373.663	49431
373.746	66276
373.828	15207
373.911	7347
373.993	6122
374.076	16570
374.159	14539
374.241	12144
374.324	40692
374.406	26452
374.489	30735
374.571	86810
374.654	36308
374.736	16739
374.819	50922
374.901	73845
374.983	75053
375.066	13889
375.148	4984
375.231	13517
375.313	26194
375.395	11215
375.478	3733
375.560	3778
375.643	4495
375.725	14937
375.807	63541
375.890	44046
375.972	11627
376.054	9295
376.136	8953
376.219	4414
376.301	18856
376.383	57693
376.465	21479
376.548	14893
376.630	16893
376.712	51782
376.794	22505
376.877	2400
376.959	952
377.041	3371
377.123	2732
377.205	3626
377.287	1073
377.369	2839
377.452	1197
377.534	2653
377.616	2164
377.698	2126
377.780	919
377.862	3459
377.944	2928
378.026	906
378.108	2012
378.190	1221
378.272	1640
378.354	1632
378.436	1633
378.518	2814
378.600	9421
378.682	10760
378.764	30557
378.846	23237
378.928	5229
379.010	10381
379.091	6023
379.173	2378
379.255	1936
379.337	3483
379.419	12942
379.501	42136
379.583	14753
379.664	4268
379.746	9517
379.828	30102
379.910	39788
379.991	34188
380.073	5345
380.155	3611
380.237	2167
380.318	1759
380.400	2360
380.482	7140
380.564	9408
380.645	10997
380.727	10098
380.809	6055
380.890	3901
380.972	2672
381.053	3200
381.135	3869
381.217	9847
381.298	32263
381.380	14729
381.461	10825
381.543	48972
381.624	59530
381.706	10529
381.787	5846
381.869	7178
381.951	21092
382.032	78610
382.113	51763
382.195	11008
382.276	9370
382.358	18306
382.439	47324
382.521	48709
382.602	76254
382.684	35853
382.765	66553
382.846	81398
382.928	151603
383.009	78354
383.090	44786
383.172	166119
383.253	258569
383.334	83908
383.416	75002
383.497	39217
383.578	19439
383.659	36333
383.741	129676
383.822	333867
383.903	174136
383.984	60535
384.066	94419
384.147	55904
384.228	12553
384.309	9674
384.390	7791
384.471	5674
384.553	5467
384.634	7409
384.715	8879
384.796	4312
384.877	6621
384.958	27723
385.039	34226
385.120	12003
385.201	6088
385.282	5523
385.363	5838
385.444	5492
385.525	10826
385.606	36031
385.687	28854
385.768	7056
385.849	7945
385.930	38347
386.011	63935
386.092	16326
386.173	4740
386.254	2826
386.335	3818
386.416	3827
386.496	18322
386.577	29562
386.658	8509
386.739	4383
386.820	4243
386.901	2199
386.981	3390
387.062	3808
387.143	6750
387.224	29795
387.304	27844
387.385	8722
387.466	4277
387.547	6263
387.627	5581
387.708	10522
387.789	49666
387.869	57464
387.950	14682
388.031	2452
388.111	-293
388.192	3910
388.273	6609
388.353	4377
388.434	3585
388.514	8058
388.595	39986
388.676	55295
388.756	28672
388.837	28042
388.917	16480
388.998	2584
389.078	3879
389.159	2027
389.239	2795
389.320	5546
389.400	3778
389.480	10008
389.561	29404
389.641	14328
389.722	5027
389.802	8347
389.883	12294
389.963	33713
390.043	17694
390.124	3683
390.204	10214
390.284	33698
390.365	18506
390.445	13033
390.525	35285
390.605	35739
390.686	16304
390.766	5467
390.846	4796
390.927	1926
391.007	1154
391.087	2866
391.167	3516
391.247	1648
391.328	3675
391.408	4961
391.488	2962
391.568	-84
391.648	4167
391.728	6613
391.808	6616
391.888	5194
391.969	16702
392.049	27137
392.129	9856
392.209	12042
392.289	34330
392.369	15764
392.449	7716
392.529	5503
392.609	7684
392.689	9295
392.769	33026
392.849	27557
392.929	16969
393.009	40647
393.089	33840
393.169	27706
393.248	82813
393.328	291676
393.408	308225
393.488	92392
393.568	27737
393.648	12786
393.728	8708
393.807	4948
393.887	5603
393.967	4731
394.047	5238
394.127	4857
394.206	6133
394.286	16454
394.366	87919
394.446	91238
394.525	16870
394.605	5154
394.685	5493
394.764	11508
394.844	17606
394.924	13548
395.003	5311
395.083	3335
395.163	3858
395.242	2938
395.322	3362
395.402	440
395.481	4329
395.561	7500
395.640	24502
395.720	23962
395.799	22391
395.879	14669
395.958	7357
396.038	22169
396.117	110615
396.197	118444
396.276	27189
396.356	9136
396.435	7830
396.515	7867
396.594	12161
396.673	25282
396.753	87240
396.832	272254
396.912	210527
396.991	55178
397.070	15536
397.150	7513
397.229	6396
397.308	9815
397.388	18823
397.467	7930
397.546	3992
397.625	502
397.705	4990
397.784	5005
397.863	2401
397.942	1380
398.022	1687
398.101	4828
398.180	16983
398.259	8017
398.338	3790
398.417	1893
398.497	2032
398.576	2500
398.655	256
398.734	1309
398.813	1961
398.892	4981
398.971	18509
399.050	8018
399.129	1161
399.208	729
399.287	2018
399.366	124
399.445	1453
399.524	546
399.603	-116
399.682	3315
399.761	9175
399.840	22596
399.919	16002
399.998	1799
400.077	191
400.156	-205
400.235	3040
400.313	463
400.392	1004
400.471	15248
400.550	26570
400.629	5328
400.708	2355
400.786	802
400.865	3545
400.944	4249
401.023	5017
401.102	1244
401.180	1299
401.259	205
401.338	871
401.416	2863
401.495	1720
401.574	1627
401.652	586
401.731	2151
401.810	1168
401.888	1218
401.967	36
402.046	1029
402.124	2324
402.203	2411
402.281	1928
402.360	1753
402.438	5354
402.517	1921
402.596	1754
402.674	359
402.753	1118
402.831	410
402.910	1877
402.988	10151
403.066	45890
403.145	24611
403.223	13966
403.302	39839
403.380	28924
403.459	32034
403.537	10898
403.615	2325
403.694	-544
403.772	806
403.850	539
403.929	334
404.007	1504
404.085	5568
404.164	6464
404.242	1408
404.320	1770
404.398	3276
404.477	11966
404.555	62317
404.633	52811
404.711	7538
404.789	2135
404.868	1575
404.946	994
405.024	-298
405.102	210
405.180	-851
405.258	-460
405.336	986
405.415	377
405.493	3199
405.571	4253
405.649	781
405.727	553
405.805	2446
405.883	2653
405.961	1929
406.039	1303
406.117	363
406.195	3615
406.273	14250
406.351	57256
406.429	30609
406.507	3213
406.585	361
406.663	2395
406.740	2148
406.818	1434
406.896	-8
406.974	2037
407.052	4045
407.130	33863
407.208	45880
407.285	7718
407.363	373
407.441	657
407.519	188
407.596	1211
407.674	2509
407.752	4834
407.830	5327
407.907	3419
407.985	798
408.063	1356
408.141	-185
408.218	1928
408.296	1374
408.373	2065
408.451	2140
408.529	1030
408.606	586
408.684	84
408.762	108
408.839	-252
408.917	110
408.994	1158
409.072	-151
409.149	780
409.227	2349
409.304	3841
409.382	2461
409.459	2879
409.537	5767
409.614	2817
409.692	1601
409.769	1980
409.846	6065
409.924	7583
410.001	1747
410.079	1871
410.156	1973
410.233	1161
410.311	-168
410.388	1101
410.465	1717
410.543	1033
410.620	949
410.697	1099
410.775	1544
410.852	325
410.929	2574
411.006	3299
411.083	778
411.161	3609
411.238	3721
411.315	1795
411.392	303
411.469	2444
411.547	2223
411.624	-653
411.701	116
411.778	1621
411.855	3743
411.932	1613
412.009	-568
412.086	1049
412.163	323
412.240	1170
412.317	1275
412.394	527
412.471	-314
412.548	-301
412.625	84
412.702	1116
412.779	2376
412.856	1968
412.933	-363
413.010	478
413.087	1479
413.164	14660
413.241	21443
413.318	4307
413.395	2531
413.471	4425
413.548	1677
413.625	1870
413.702	-28
413.779	171
413.855	-599
413.932	-3
414.009	-1507
414.086	417
414.162	497
414.239	2031
414.316	12674
414.393	33875
414.469	9774
414.546	659
414.623	184
414.699	297
414.776	1086
414.853	102
414.929	758
415.006	223
415.082	220
415.159	195
415.236	127
415.312	1512
415.389	3078
415.465	4329
415.542	1254
415.618	328
415.695	1841
415.771	1363
415.848	141
415.924	-165
416.000	-250
416.077	713
416.153	-1974
416.230	-1488
416.306	-842
416.383	-576
416.459	496
416.535	-291
416.612	-644
416.688	-94
416.764	-271
416.841	-670
416.917	-485
416.993	1209
417.069	142
417.146	733
417.222	1431
417.298	441
417.374	-387
417.451	1122
417.527	798
417.603	919
417.679	1030
417.755	1311
417.831	-644
417.908	81
417.984	-352
418.060	-841
418.136	2149
418.212	5278
418.288	957
418.364	351
418.440	-393
418.516	2083
418.592	1528
418.668	4689
418.744	9613
418.820	7005
418.896	511
418.972	-1130
419.048	-207
419.124	4790
419.200	2302
419.276	561
419.352	-409
419.428	-206
419.504	108
419.579	1506
419.655	256
419.731	680
419.807	5957
419.883	11313
419.959	7067
420.034	1319
420.110	4378
420.186	21155
420.262	15732
420.337	2125
420.413	1047
420.489	698
420.565	611
420.640	152
420.716	831
420.792	-588
420.867	315
420.943	-77
421.019	1992
421.094	1853
421.170	130
421.245	302
421.321	919
421.397	305
421.472	1948
421.548	2794
421.623	3468
421.699	2675
421.774	2848
421.850	2355
421.925	3924
422.001	4046
422.076	3433
422.152	4455
422.227	7803
422.302	9482
422.378	13028
422.453	25486
422.529	60676
422.604	149029
422.679	209117
422.755	162809
422.830	70700
422.905	29579
422.981	15365
423.056	9836
423.131	6663
423.207	5092
423.282	5014
423.357	8712
423.432	5289
423.508	7050
423.583	11632
423.658	8929
423.733	2351
423.808	2364
423.883	3466
423.959	2710
424.034	1866
424.109	2702
424.184	731
424.259	1378
424.334	388
424.409	324
424.484	390
424.559	1087
424.634	741
424.709	1611
424.784	2571
424.859	1028
424.934	2395
425.009	15250
425.084	25422
425.159	8857
425.234	1709
425.309	-209
425.384	4834
425.459	10199
425.534	2158
425.609	-298
425.683	-599
425.758	585
425.833	370
425.908	1035
425.983	8045
426.058	26184
426.132	9701
426.207	1144
426.282	1640
426.357	1026
426.431	367
426.506	940
426.581	-379
426.655	-246
426.730	-29
426.805	119
426.879	484
426.954	706
427.029	2830
427.103	22323
427.178	55080
427.253	22019
427.327	1693
427.402	2538
427.476	9603
427.551	4217
427.625	755
427.700	1001
427.774	-819
427.849	578
427.923	-677
427.998	-118
428.072	1056
428.147	3201
428.221	17508
428.296	51162
428.370	26376
428.444	2501
428.519	983
428.593	2642
428.667	2254
428.742	3550
428.816	5697
428.890	28884
428.965	52295
429.039	15153
429.113	5481
429.188	1683
429.262	372
429.336	2917
429.410	12433
429.485	6480
429.559	2097
429.633	2668
429.707	1033
429.781	3871
429.855	30369
429.930	53049
430.004	19850
430.078	20058
430.152	21774
430.226	60019
430.300	61692
430.374	10654
430.448	2670
430.522	5671
430.596	17570
430.670	16289
430.744	57452
430.818	84423
430.892	17092
430.966	2367
431.040	1083
431.114	-619
431.188	-413
431.262	-182
431.336	-156
431.410	2219
431.484	5740
431.557	5795
431.631	234
431.705	924
431.779	7980
431.853	44224
431.927	31565
432.000	3331
432.074	744
432.148	652
432.222	-241
432.295	110
432.369	-262
432.443	1930
432.516	18886
432.590	53658
432.664	19341
432.737	1630
432.811	-443
432.885	302
432.958	98
433.032	-131
433.106	-1019
433.179	-768
433.253	-1524
433.326	-369
433.400	-748
433.473	-95
433.547	-1622
433.620	14
433.694	2165
433.767	2250
433.841	241
433.914	-695
433.988	-841
434.061	206
434.134	-799
434.208	-909
434.281	-1496
434.355	-1023
434.428	-206
434.501	-418
434.575	-841
434.648	-509
434.721	-1434
434.795	-147
434.868	-1614
434.941	-1001
435.014	-797
435.088	-868
435.161	1460
435.234	3497
435.307	3813
435.381	1707
435.454	1006
435.527	2715
435.600	2656
435.673	1034
435.746	-441
435.819	717
435.892	-475
435.966	-271
436.039	92
436.112	27
436.185	-1077
436.258	-650
436.331	-957
436.404	-887
436.477	-1130
436.550	-520
436.623	-1579
436.696	-1081
436.769	38
436.842	65
436.915	0
436.987	590
437.060	-298
437.133	-913
437.206	-1082
437.279	-141
437.352	-699
437.425	-120
437.498	216
437.570	3337
437.643	3086
437.716	-179
437.789	-517
437.861	1727
437.934	9175
438.007	4435
438.080	93
438.152	1126
438.225	2973
438.298	24666
438.370	74797
438.443	36635
438.516	9008
438.588	1591
438.661	-728
438.734	-200
438.806	53
438.879	1534
438.951	1525
439.024	4253
439.096	518
439.169	575
439.241	-889
439.314	342
439.386	-801
439.459	1978
439.531	2757
439.604	2053
439.676	-129
439.749	-158
439.821	-529
439.893	-244
439.966	-648
440.038	265
440.110	875
440.183	129
440.255	-808
440.327	1793
440.400	10325
440.472	51885
440.544	36842
440.617	5089
440.689	2901
440.761	4527
440.833	7707
440.905	6651
440.978	275
441.050	-732
441.122	-702
441.194	-343
441.266	-160
441.338	-494
441.411	1075
441.483	17762
441.555	29967
441.627	7203
441.699	2128
441.771	1114
441.843	-214
441.915	-543
441.987	-625
442.059	-304
442.131	754
442.203	1815
442.275	2193
442.347	2988
442.419	3613
442.491	25451
442.563	72915
442.635	35990
442.706	11760
442.778	11971
442.850	2589
442.922	977
442.994	733
443.066	2213
443.137	1774
443.209	1785
443.281	2459
443.353	6828
443.425	30074
443.496	116928
443.568	130148
443.640	56193
443.711	10466
443.783	3065
443.855	1048
443.926	1209
443.998	399
444.070	1037
444.141	1722
444.213	2736
444.285	4558
444.356	3641
444.428	1802
444.499	682
444.571	-161
444.642	151
444.714	236
444.785	3033
444.857	2633
444.928	5181
445.000	4654
445.071	4486
445.143	6531
445.214	6382
445.285	5985
445.357	18666
445.428	70844
445.500	173330
445.571	127369
445.642	75784
445.714	26258
445.785	16190
445.856	6410
445.928	5476
445.999	4525
446.070	4069
446.141	4171
446.213	5932
446.284	2343
446.355	683
446.426	-53
446.497	290
446.569	1594
446.640	4614
446.711	4665
446.782	605
446.853	890
446.924	1374
446.995	831
447.066	824
447.138	876
447.209	581
447.280	-267
447.351	-452
447.422	-735
447.493	449
447.564	1396
447.635	2272
447.706	1840
447.777	-410
447.847	-185
447.918	-1087
447.989	-178
448.060	1154
448.131	2534
448.202	5236
448.273	4232
448.344	2592
448.414	647
448.485	498
448.556	363
448.627	-389
448.698	-155
448.768	-1261
448.839	-778
448.910	1119
448.981	2339
449.051	1679
449.122	-937
449.193	-682
449.263	-464
449.334	-107
449.405	732
449.475	5440
449.546	3699
449.616	2016
449.687	2246
449.758	471
449.828	-399
449.899	163
449.969	-1558
450.040	-811
450.110	248
450.181	93
450.251	668
450.322	53
450.392	-614
450.463	-405
450.533	-407
450.604	4
450.674	-997
450.744	394
450.815	-1236
450.885	481
450.955	-335
451.026	-167
451.096	-521
451.166	1187
451.237	1789
451.307	7721
451.377	4484
451.447	908
451.518	-504
451.588	-607
451.658	42
451.728	816
451.799	5542
451.869	11854
451.939	3042
452.009	460
452.079	-407
452.149	-89
452.219	287
452.289	7740
452.360	9773
452.430	1493
452.500	864
452.570	816
452.640	3675
452.710	12077
452.780	18545
452.850	14727
452.920	13906
452.990	5546
453.060	2148
453.129	2504
453.199	2517
453.269	8573
453.339	26265
453.409	44011
453.479	32205
453.549	53271
453.619	58874
453.688	34648
453.758	4266
453.828	634
453.898	201
453.968	263
454.037	-21
454.087	129
454.107	188
454.168	-778
454.177	-928
454.247	-470
454.249	-450
454.316	-174
454.330	-93
454.386	218
454.411	1061
454.456	2387
454.492	5039
454.525	7415
454.574	5220
454.595	4271
454.655	467
454.665	-152
454.734	-281
454.736	-218
454.804	1901
454.817	2987
454.873	7281
454.898	9017
454.943	12216
454.979	8094
455.013	4403
455.060	2014
455.082	949
455.141	467
455.152	333
455.221	4073
455.222	4175
455.291	11424
455.303	10729
455.360	7775
455.384	6728
455.430	4744
455.465	5493
455.499	6156
455.546	6946
455.569	7173
455.627	7801
455.638	7979
455.707	1940
455.708	1935
455.777	565
455.789	482
455.846	-109
455.869	17
455.916	320
455.950	100
455.985	-216
456.031	342
456.054	723
456.112	19
456.124	-172
456.193	647
456.193	641
456.262	351
456.274	508
456.332	1263
456.355	1199
456.401	1043
456.436	901
456.470	749
456.516	510
456.540	352
456.597	312
456.609	304
456.678	192
456.678	185
456.747	142
456.759	-20
456.817	-857
456.840	-439
456.886	352
456.920	-2
456.955	-308
457.001	-116
457.024	-45
457.082	194
457.093	274
457.162	1464
457.163	1474
457.232	1129
457.243	1038
457.301	955
457.324	563
457.370	-236
457.405	213
457.439	714
457.485	552
457.508	397
457.566	536
457.577	647
457.646	1401
457.647	1421
457.715	3377
457.727	3776
457.784	6389
457.808	9028
457.853	12624
457.889	15780
457.922	17291
457.969	12096
457.991	11601
458.050	11758
458.060	11718
458.129	21454
458.130	21721
458.198	25765
458.211	23654
458.267	15347
458.292	10400
458.336	4207
458.372	3498
458.405	4441
458.453	7509
458.474	9786
458.533	18652
458.543	19436
458.611	37158
458.614	37452
458.680	31345
458.694	25673
458.749	11229
458.775	8067
458.818	3739
458.855	2521
458.887	1704
458.936	1284
458.955	1056
459.016	671
459.024	657
459.093	1153
459.097	1170
459.162	1308
459.177	1363
459.230	1522
459.257	1783
459.299	2573
459.338	3072
459.368	3070
459.418	3044
459.437	2832
459.499	1713
459.505	1700
459.574	1320
459.579	1327
459.643	1162
459.659	1202
459.711	1375
459.740	1315
459.780	1057
459.820	1215
459.849	1327
459.900	1212
459.917	1312
459.981	1557
459.986	1510
460.054	1203
460.061	1144
460.123	1247
460.141	1239
460.191	1622
460.222	2314
460.260	2825
460.302	3731
460.328	3934
460.382	2782
460.397	2637
460.462	1779
460.465	1745
460.534	2101
460.543	2095
460.602	5069
460.623	6498
460.671	10276
460.703	13977
460.739	13736
460.783	12764
460.808	11733
460.864	4186
460.876	3520
460.944	1595
460.945	1567
461.013	1267
461.024	1283
461.081	1601
461.104	1825
461.150	1755
461.184	1569
461.218	1757
461.264	1691
461.286	1615
461.345	1733
461.355	1728
461.423	1780
461.425	1766
461.491	1283
461.505	1434
461.559	2897
461.585	3143
461.628	4150
461.665	6064
461.696	7089
461.745	9678
461.764	9384
461.825	6043
461.832	6048
461.901	2105
461.905	2086
461.969	1634
461.985	1558
462.037	1997
462.065	2161
462.105	1728
462.145	1456
462.173	2111
462.225	3441
462.241	3788
462.305	5773
462.310	5680
462.378	5204
462.385	4782
462.446	3039
462.465	2640
462.514	2005
462.545	1966
462.582	1870
462.625	1937
462.650	2027
462.705	2038
462.718	1993
462.785	1766
462.786	1772
462.854	2171
462.865	2294
462.922	3188
462.945	3534
462.990	3149
463.025	2609
463.058	2280
463.104	1496
463.126	1404
463.184	1766
463.194	1838
463.262	2024
463.264	2050
463.330	2393
463.344	2355
463.398	2455
463.424	2441
463.466	2093
463.504	1982
463.533	1951
463.583	1913
463.601	2018
463.663	1895
463.669	1883
463.737	2388
463.743	2420
463.805	4065
463.823	4576
463.873	6237
463.903	7255
463.940	7661
463.982	9044
464.008	8419
464.062	5646
464.076	5476
464.142	2824
464.144	2751
464.211	1405
464.221	1292
464.279	1908
464.301	2209
464.347	2542
464.381	2664
464.414	2646
464.461	2655
464.482	2889
464.540	3628
464.550	3531
464.617	2853
464.620	2816
464.685	2529
464.699	2510
464.753	3093
464.779	3431
464.820	3683
464.859	3726
464.888	3269
464.938	2592
464.956	2923
465.018	3989
465.023	3955
465.091	3832
465.098	3763
465.158	2817
465.177	2602
465.226	2987
465.257	3231
465.293	3350
465.336	3343
465.361	3725
465.416	4798
465.428	4894
465.495	5331
465.496	5347
465.563	6826
465.575	7078
465.631	9565
465.654	10879
465.698	7671
465.734	4447
465.765	4029
465.813	2828
465.833	2548
465.893	2682
465.900	2698
465.968	2547
465.972	2548
466.035	2437
466.052	2396
466.102	2355
466.131	2320
466.170	2470
466.210	2588
466.237	2630
466.290	2802
466.304	2952
466.369	3414
466.372	3408
466.439	3195
466.449	3156
466.506	3654
466.528	3835
466.573	5031
466.607	5904
466.641	8367
466.687	11878
466.708	13178
466.766	16886
466.775	15737
466.842	7080
466.845	6652
466.909	4443
466.925	3989
466.977	3706
467.004	3639
467.044	3993
467.083	4367
467.111	4365
467.163	4334
467.178	4409
467.242	4715
467.245	4711
467.312	4544
467.321	4521
467.379	4351
467.400	4279
467.446	4574
467.480	4783
467.559	4720
467.638	3873
467.717	3140
467.796	5180
467.875	4875
467.955	4602
468.034	5689
468.113	12705
468.192	19397
468.271	6085
468.350	4687
468.429	6728
468.508	8292
468.588	5264
468.667	3967
468.746	4427
468.825	3501
468.904	4363
468.983	3813
469.062	6242
469.141	7376
469.220	3385
469.299	3731
469.378	2729
469.456	5268
469.535	4041
469.614	3235
469.693	3497
469.772	5874
469.851	6401
469.930	5076
470.009	4055
470.088	4545
470.166	6636
470.245	10020
470.324	13214
470.403	7066
470.482	4802
470.560	3922
470.639	4573
470.718	5355
470.797	4850
470.875	3494
470.954	6133
471.033	5934
471.111	3696
471.190	3146
471.269	3019
471.347	2179
471.426	3156
471.505	3694
471.583	3425
471.662	3290
471.740	3038
471.819	2875
471.898	3411
471.976	3684
472.055	3460
472.133	3633
472.212	4487
472.290	4301
472.369	3250
472.447	4044
472.526	2961
472.604	3928
472.683	3477
472.761	3927
472.839	3815
472.918	3416
472.996	2926
473.075	4560
473.153	3351
473.231	2970
473.310	4429
473.388	3629
473.466	2695
473.545	4051
473.623	5820
473.701	6239
473.780	4114
473.858	2275
473.936	5888
474.014	3548
474.093	3980
474.171	5010
474.249	5993
474.327	4335
474.405	3052
474.484	2757
474.562	3436
474.640	2806
474.718	3802
474.796	3212
474.874	2298
474.952	2741
475.030	3024
475.108	3201
475.187	3706
475.265	4357
475.343	8788
475.421	9203
475.499	3708
475.577	3580
475.655	4672
475.733	6833
475.811	11236
475.889	10545
475.966	7664
476.044	3932
476.122	5347
476.200	8213
476.278	5516
476.356	2941
476.434	4290
476.512	5525
476.590	7131
476.667	6728
476.745	2847
476.823	3124
476.901	3318
476.979	2942
477.056	3930
477.134	3410
477.212	3580
477.290	3911
477.367	2590
477.445	2614
477.523	2299
477.601	2946
477.678	3088
477.756	4167
477.834	3823
477.911	2538
477.989	4113
478.066	3437
478.144	3444
478.222	4974
478.299	10331
478.377	9985
478.454	3385
478.532	3430
478.609	2663
478.687	3876
478.764	2147
478.842	3607
478.919	3319
478.997	2616
479.074	2857
479.152	3143
479.229	4183
479.307	2179
479.384	2403
479.461	3435
479.539	3162
479.616	2865
479.694	2893
479.771	3595
479.848	2577
479.926	3462
480.003	5363
480.080	2560
480.157	3122
480.235	1972
480.312	3369
480.389	3142
480.467	4022
480.544	4873
480.621	3794
480.698	3476
480.775	3597
480.853	2961
480.930	3078
481.007	3123
481.084	3129
481.161	2911
481.238	4028
481.315	2367
481.392	3019
481.470	2616
481.547	3061
481.624	2658
481.701	2677
481.778	2318
481.855	3135
481.932	4138
482.009	6170
482.086	4931
482.163	4757
482.240	7605
482.317	14931
482.393	11685
482.470	3481
482.547	4166
482.624	2705
482.701	3689
482.778	2751
482.855	3144
482.932	2966
483.009	2681
483.085	3499
483.162	4265
483.239	5237
483.316	2370
483.393	3434
483.469	2988
483.546	3498
483.623	3976
483.699	2691
483.776	3091
483.853	3136
483.930	4446
484.006	8759
484.083	16501
484.160	7825
484.236	9368
484.313	8621
484.389	6053
484.466	6654
484.543	5122
484.619	6252
484.696	8603
484.772	6128
484.849	6146
484.925	4941
485.002	6096
485.078	5960
485.155	6232
485.231	4865
485.308	4383
485.384	4874
485.461	6810
485.537	8851
485.614	11382
485.690	5241
485.766	5492
485.843	5932
485.919	10354
485.995	11985
486.072	5415
486.148	5699
486.224	5102
486.301	5212
486.377	6662
486.453	5483
486.530	5887
486.606	6623
486.682	6963
486.758	8889
486.835	9836
486.911	7728
486.987	13422
487.063	20835
487.139	29690
487.215	19743
487.292	8031
487.368	6874
487.444	7876
487.520	9843
487.596	10568
487.672	19380
487.748	60292
487.824	93380
487.900	25586
487.976	8486
488.052	7266
488.128	11058
488.204	7178
488.280	5566
488.356	6481
488.432	11001
488.508	17710
488.584	7352
488.660	5834
488.736	6260
488.812	5595
488.888	8746
488.964	11709
489.039	29695
489.115	47254
489.191	26763
489.267	6261
489.343	5147
489.418	4324
489.494	4149
489.570	3349
489.646	5583
489.722	4623
489.797	4309
489.873	6647
489.949	12439
490.024	10722
490.100	4028
490.176	5183
490.251	6252
490.327	8944
490.403	5061
490.478	3490
490.554	3261
490.629	3796
490.705	4355
490.781	4241
490.856	3907
490.932	4889
491.007	6182
491.083	4720
491.158	3747
491.234	4871
491.309	10822
491.385	9273
491.460	3705
491.536	5147
491.611	4991
491.686	6526
491.762	7614
491.837	19179
491.913	31729
491.988	43971
492.063	58391
492.139	12617
492.214	6234
492.289	4960
492.365	3820
492.440	4665
492.515	4644
492.590	4259
492.666	3294
492.741	4818
492.816	6597
492.891	3698
492.967	4145
493.042	3723
493.117	2491
493.192	3034
493.267	5031
493.342	8340
493.418	10174
493.493	3993
493.568	3184
493.643	3060
493.718	4419
493.793	6771
493.868	9600
493.943	6658
494.018	4422
494.093	2964
494.168	4225
494.243	3414
494.318	3526
494.393	3609
494.468	3801
494.543	2783
494.618	4342
494.693	3511
494.768	3176
494.842	3490
494.917	2957
494.992	2854
495.067	3217
495.142	2735
495.217	1833
495.292	4317
495.366	4341
495.441	5434
495.516	8077
495.591	9806
495.665	40806
495.740	102911
495.815	42826
495.890	6281
495.964	2815
496.039	5335
496.114	4184
496.188	4324
496.263	4876
496.338	3697
496.412	4084
496.487	4987
496.561	7233
496.636	5711
496.710	4832
496.785	4573
496.860	4870
496.934	3889
497.009	4679
497.083	4310
497.158	4651
497.232	4920
497.307	6249
497.381	5437
497.455	5939
497.530	7166
497.604	4791
497.679	4970
497.753	7508
497.827	9422
497.902	9876
497.976	11424
498.050	21905
498.125	90038
498.199	94579
498.273	17964
498.348	13418
498.422	9265
498.496	9722
498.570	8980
498.645	5331
498.719	5035
498.793	7283
498.867	10372
498.941	12568
499.016	34213
499.090	97294
499.164	35944
499.238	5395
499.312	5522
499.386	7291
499.460	7066
499.534	5349
499.609	6801
499.683	8614
499.757	8233
499.831	13604
499.905	62214
499.979	59225
500.053	9889
500.127	11471
500.201	9039
500.275	6475
500.349	5540
500.422	6200
500.496	10518
500.570	21428
500.644	39161
500.718	65587
500.792	16593
500.866	4183
500.940	6265
501.013	5816
501.087	5390
501.161	11136
501.235	12315
501.309	19993
501.382	54007
501.456	51476
501.530	12045
501.603	17309
501.677	7588
501.751	2552
501.825	6031
501.898	7991
501.972	20526
502.046	14542
502.119	4488
502.193	10805
502.266	23440
502.340	12254
502.413	9572
502.487	19369
502.561	11077
502.634	5520
502.708	4156
502.781	3306
502.855	3820
502.928	2632
503.002	3156
503.075	2096
503.149	3311
503.222	3071
503.295	3313
503.369	4542
503.442	4931
503.516	15124
503.589	38397
503.662	25172
503.736	9344
503.809	18282
503.882	15745
503.956	23815
504.029	26490
504.102	35264
504.175	54578
504.249	15397
504.322	5484
504.395	4314
504.468	3821
504.542	2211
504.615	3049
504.688	2939
504.761	1126
504.834	4742
504.907	5458
504.980	10230
505.053	4583
505.127	3404
505.200	8710
505.273	3232
505.346	2511
505.419	1176
505.492	3094
505.565	2176
505.638	2553
505.711	2230
505.784	1020
505.857	1764
505.930	3361
506.003	805
506.076	4459
506.149	2896
506.221	3084
506.294	5465
506.367	7232
506.440	29848
506.513	18686
506.586	4471
506.659	2206
506.731	3489
506.804	3869
506.877	4834
506.950	3562
507.022	3267
507.095	1827
507.168	3742
507.241	3450
507.313	1537
507.386	1747
507.459	5690
507.531	2708
507.604	2390
507.677	2620
507.749	1380
507.822	3622
507.894	6045
507.967	8073
508.040	3023
508.112	3738
508.185	3898
508.257	3067
508.330	6804
508.402	3245
508.475	2635
508.547	2716
508.620	2819
508.692	5620
508.765	3663
508.837	1588
508.909	2181
508.982	2500
509.054	3475
509.127	2264
509.199	2454
509.271	1373
509.344	2065
509.416	1739
509.488	1666
509.560	2986
509.633	2340
509.705	3666
509.777	3918
509.849	5837
509.922	2357
509.994	2000
510.066	2587
510.138	797
510.210	5329
510.283	3352
510.355	3288
510.427	3434
510.499	2992
510.571	3878
510.643	2792
510.715	7764
510.787	5453
510.859	4147
510.931	4272
511.003	6180
511.076	6304
511.148	1654
511.219	1984
511.291	3931
511.363	4843
511.435	1914
511.507	2202
511.579	2789
511.651	3009
511.723	2325
511.795	3148
511.867	1936
511.939	2522
512.010	4714
512.082	5319
512.154	1729
512.226	2279
512.298	4403
512.369	5938
512.441	5316
512.513	5829
512.585	2618
512.656	4594
512.728	4803
512.800	3127
512.871	3564
512.943	3260
513.015	1771
513.086	2898
513.158	3543
513.230	3218
513.301	4796
513.373	8882
513.444	4388
513.516	2778
513.588	2539
513.659	4410
513.731	4998
513.802	3742
513.874	11465
513.945	20590
514.016	5576
514.088	4091
514.159	3109
514.231	5597
514.302	6117
514.374	3552
514.445	1389
514.516	8224
514.588	4005
514.659	4107
514.730	5326
514.802	6554
514.873	1889
514.944	4946
515.016	3755
515.087	4635
515.158	6134
515.229	7403
515.301	2369
515.372	5118
515.443	2846
515.514	1899
515.585	1541
515.656	3671
515.728	3368
515.799	2020
515.870	3301
515.941	3294
516.012	2997
516.083	5656
516.154	4836
516.225	9271
516.296	8973
516.367	7972
516.438	9673
516.509	13237
516.580	18360
516.651	58791
516.722	228743
516.793	109685
516.864	19233
516.935	17139
517.006	19512
517.077	25811
517.148	57962
517.219	227970
517.289	381756
517.360	74024
517.431	20203
517.502	7221
517.573	6746
517.643	6400
517.714	6769
517.785	8273
517.856	8338
517.926	11829
517.997	14453
518.068	19015
518.138	26493
518.209	36757
518.280	135583
518.350	541636
518.421	225231
518.492	25145
518.562	12544
518.633	11825
518.703	9312
518.774	20139
518.845	56010
518.915	63101
518.986	15390
519.056	10062
519.127	16683
519.197	23220
519.268	37377
519.338	22538
519.408	7035
519.479	11777
519.549	7587
519.620	5650
519.690	3805
519.760	3425
519.831	3613
519.901	3720
519.971	3201
520.042	2977
520.112	2979
520.182	6169
520.253	7030
520.323	3280
520.393	5464
520.463	11396
520.534	3884
520.604	14283
520.674	6603
520.744	5215
520.814	12852
520.885	14632
520.955	10046
521.025	37121
521.095	15352
521.165	4874
521.235	2651
521.305	2311
521.375	2840
521.445	3780
521.515	4927
521.585	8091
521.655	6032
521.725	5841
521.795	4654
521.865	976
521.935	5838
522.005	2901
522.075	1927
522.145	3452
522.215	2590
522.285	4954
522.355	5346
522.424	10898
522.494	8722
522.564	7218
522.634	14399
522.704	51373
522.774	21061
522.843	4220
522.913	3965
522.983	5582
523.053	3495
523.122	4508
523.192	5007
523.262	25491
523.331	25526
523.401	5899
523.471	2150
523.540	3388
523.610	2876
523.680	2529
523.749	1890
523.819	3604
523.888	2031
523.958	1883
524.027	2311
524.097	2969
524.166	2480
524.236	2604
524.305	4886
524.375	2182
524.444	1657
524.514	4158
524.583	1646
524.653	2422
524.722	3860
524.791	1187
524.861	3683
524.930	2261
524.999	2356
525.069	5301
525.138	3134
525.207	3236
525.277	2445
525.346	3043
525.415	3287
525.484	3310
525.554	2956
525.623	4577
525.692	4250
525.761	4766
525.830	6120
525.900	7087
525.969	11264
526.038	18931
526.107	34525
526.176	114454
526.245	100429
526.314	30356
526.383	56216
526.452	78432
526.522	126272
526.591	139409
526.660	36840
526.729	19907
526.797	21151
526.867	35560
526.935	157106
527.004	297724
527.073	175220
527.142	16117
527.211	7361
527.280	6955
527.349	6352
527.418	3598
527.487	3939
527.555	2270
527.624	2957
527.693	1547
527.762	4111
527.831	1404
527.899	2625
527.968	3576
528.037	991
528.106	4052
528.174	6389
528.243	5522
528.312	7041
528.380	11549
528.449	2136
528.518	3960
528.586	901
528.655	3348
528.723	1354
528.792	2132
528.861	1054
528.929	568
528.998	2825
529.066	1781
529.135	1818
529.203	1741
529.272	1372
529.340	2054
529.409	4213
529.477	1726
529.545	1292
529.614	4592
529.682	1388
529.751	3204
529.819	5602
529.887	2673
529.956	2127
530.024	3300
530.092	2111
530.161	4009
530.229	5875
530.297	2986
530.365	3493
530.434	2787
530.502	2376
530.570	2164
530.638	965
530.707	3641
530.775	4436
530.843	1611
530.911	3307
530.979	2471
531.047	1971
531.115	2068
531.183	2953
531.252	2299
531.320	1457
531.388	2084
531.456	2818
531.524	1079
531.592	3895
531.660	4641
531.728	954
531.796	1872
531.864	2951
531.932	3509
532.000	2101
532.067	2584
532.135	3933
532.203	4138
532.271	3667
532.339	7325
532.407	21397
532.475	14348
532.542	6223
532.610	7160
532.678	8001
532.746	35903
532.814	105288
532.881	29504
532.949	5760
533.017	4195
533.084	3780
533.152	3112
533.220	3220
533.287	3144
533.355	2809
533.423	3124
533.490	2754
533.558	2914
533.625	3445
533.693	2778
533.761	3092
533.828	4073
533.896	3078
533.963	7444
534.031	9469
534.098	14322
534.166	6322
534.233	3043
534.300	4523
534.368	4200
534.435	3802
534.503	4926
534.570	4581
534.637	5233
534.705	6196
534.772	7241
534.840	9072
534.907	49353
534.974	72257
535.041	9020
535.109	4966
535.176	3001
535.243	4123
535.310	4125
535.378	2897
535.445	3211
535.512	3531
535.579	3149
535.646	2125
535.714	3323
535.781	4504
535.848	3603
535.915	3554
535.982	3204
536.049	2434
536.116	4934
536.183	3219
536.250	3739
536.317	2952
536.384	5434
536.451	7063
536.518	7591
536.585	4400
536.652	6709
536.719	10020
536.786	5944
536.853	6095
536.920	8095
536.987	13401
537.053	12185
537.120	50863
537.187	49737
537.254	4952
537.321	4275
537.388	5318
537.454	3171
537.521	3026
537.588	3357
537.654	4356
537.721	3626
537.788	5327
537.855	3766
537.921	3815
537.988	3426
538.055	4599
538.121	3027
538.188	4902
538.254	6483
538.321	13561
538.388	8966
538.454	3576
538.521	4477
538.587	3847
538.654	3891
538.720	3930
538.787	4077
538.853	4402
538.920	5268
538.986	4434
539.053	4212
539.119	5248
539.185	4161
539.252	6947
539.318	7965
539.385	7124
539.451	4402
539.517	6812
539.583	6923
539.650	12861
539.716	40709
539.782	12967
539.849	3785
539.915	5082
539.981	5043
540.047	5518
540.114	5116
540.180	5822
540.246	4427
540.312	7196
540.378	13125
540.444	14734
540.510	14855
540.576	46119
540.643	15622
540.709	4384
540.775	5130
540.841	3846
540.907	4880
540.973	7536
541.039	7688
541.105	9372
541.171	4802
541.237	4193
541.303	5763
541.369	6520
541.435	6957
541.500	11942
541.566	7499
541.632	4988
541.698	4154
541.764	5081
541.830	4194
541.896	3760
541.961	4758
542.027	4497
542.093	4625
542.159	5092
542.224	3972
542.290	6245
542.356	10485
542.421	14925
542.487	7539
542.553	4747
542.618	4289
542.684	4636
542.750	5746
542.815	6337
542.881	8623
542.947	37660
543.012	31860
543.078	5942
543.143	3813
543.209	5513
543.274	4475
543.340	6293
543.405	13928
543.471	25412
543.536	6414
543.602	4851
543.667	3044
543.732	5235
543.798	3718
543.863	4584
543.928	4041
543.994	3965
544.059	4229
544.124	3808
544.190	4180
544.255	4517
544.320	5634
544.386	4425
544.451	6984
544.516	9248
544.581	7198
544.646	22178
544.712	40730
544.777	9379
544.842	5826
544.907	5430
544.972	5302
545.037	5360
545.102	6097
545.168	6132
545.233	6644
545.298	7557
545.363	6247
545.428	8080
545.493	13838
545.558	32382
545.623	14412
545.688	5123
545.753	5943
545.818	4950
545.883	6998
545.947	6227
546.012	7038
546.077	6071
546.142	7661
546.207	6206
546.272	8629
546.337	9925
546.401	8474
546.466	7117
546.531	6734
546.596	8665
546.661	8925
546.725	8871
546.790	8734
546.855	10821
546.919	8734
546.984	11164
547.049	12227
547.113	13698
547.178	14022
547.243	16297
547.307	18924
547.372	20859
547.436	21363
547.501	21746
547.565	23311
547.630	23097
547.695	22775
547.759	21435
547.823	20913
547.888	21125
547.952	21704
548.017	22752
548.081	23219
548.146	23582
548.210	23622
548.274	24463
548.339	25324
548.403	22765
548.468	20697
548.532	20331
548.596	20667
548.660	21193
548.725	24349
548.789	25532
548.853	26997
548.917	23739
548.982	24893
549.046	22971
549.110	20036
549.174	19549
549.238	22531
549.303	24575
549.367	26784
549.431	23860
549.495	22449
549.559	22639
549.623	25905
549.687	29987
549.751	32727
549.815	33498
549.879	35203
549.943	30734
550.007	34495
550.071	34235
550.135	34103
550.199	30168
550.263	28403
550.327	27531
550.391	28996
550.455	29969
550.519	32518
550.582	34749
550.646	42005
550.710	42250
550.774	38674
550.838	39122
550.901	39361
550.965	41360
551.029	43542
551.093	45853
551.156	49039
551.220	59574
551.284	72081
551.347	53064
551.411	48520
551.475	48647
551.538	41918
551.602	39558
551.666	37425
551.729	33711
551.793	33385
551.856	33307
551.920	32244
551.983	33694
552.047	32123
552.110	31595
552.174	31694
552.237	33612
552.301	31716
552.364	31581
552.428	29771
552.491	29699
552.554	31660
552.618	31349
552.681	33483
552.745	32070
552.808	40651
552.871	49501
552.934	36877
552.998	31973
553.061	31067
553.124	29644
553.187	29594
553.251	29947
553.314	29436
553.377	30022
553.440	32207
553.503	34060
553.567	35919
553.630	34072
553.693	32428
553.756	32398
553.819	31400
553.882	31024
553.945	29592
554.008	30519
554.071	30653
554.134	32439
554.197	28991
554.260	28431
554.323	31068
554.386	29727
554.449	31917
554.512	31262
554.575	29664
554.638	29499
554.701	29687
554.764	29469
554.827	27125
554.889	27353
554.952	25486
555.015	24600
555.078	25833
555.141	25968
555.203	25051
555.266	25297
555.329	25575
555.391	24228
555.454	25034
555.517	23866
555.580	22551
555.642	21329
555.705	21610
555.768	21119
555.830	21565
555.893	20039
555.955	18550
556.018	19165
556.080	19810
556.143	19426
556.206	18533
556.268	18771
556.330	19630
556.393	19556
556.455	18933
556.518	18515
556.580	19782
556.643	17337
556.705	16900
556.767	15838
556.830	17210
556.892	16292
556.955	20582
557.017	17474
557.079	15265
557.142	14937
557.204	16255
557.266	22446
557.328	20338
557.391	12985
557.453	13412
557.515	13805
557.577	14693
557.639	14732
557.701	13409
557.764	12336
557.826	13427
557.888	15374
557.950	15185
558.012	16371
558.074	17850
558.136	37165
558.198	98310
558.260	39315
558.322	16631
558.384	17241
558.446	18960
558.508	21398
558.570	26904
558.632	36702
558.694	50120
558.756	54007
558.818	148305
558.880	390280
558.942	134531
559.003	104475
559.065	56283
559.127	23034
559.189	23504
559.251	25284
559.312	33172
559.374	72229
559.436	258883
559.498	138281
559.559	27062
559.621	23524
559.683	24829
559.744	38052
559.806	118466
559.868	195764
559.929	39950
559.991	23103
560.052	31631
560.114	91086
560.176	63888
560.237	50749
560.299	91405
560.360	22037
560.422	10784
560.483	9454
560.545	8484
560.606	8420
560.667	7507
560.729	7094
560.790	7596
560.852	7852
560.913	7554
560.974	7268
561.036	7101
561.097	7405
561.158	7203
561.220	8356
561.281	8155
561.342	6650
561.403	10402
561.465	10385
561.526	22102
561.587	30399
561.648	9582
561.709	6896
561.771	7354
561.832	7048
561.893	6360
561.954	6627
562.015	6894
562.076	7373
562.137	7113
562.198	6382
562.259	7915
562.320	7345
562.381	8084
562.442	10770
562.503	8448
562.564	7300
562.625	7507
562.686	6402
562.747	7545
562.808	6899
562.869	6799
562.930	7320
562.991	6566
563.051	6813
563.112	6570
563.173	6193
563.234	6037
563.294	5830
563.355	6411
563.416	6404
563.477	6637
563.537	6179
563.598	6871
563.659	6457
563.720	6505
563.780	7566
563.841	7086
563.901	6791
563.962	6350
564.023	7017
564.083	7386
564.144	6193
564.204	6492
564.265	6868
564.325	7186
564.386	10145
564.446	9917
564.507	6286
564.567	6153
564.628	6421
564.688	6417
564.749	5700
564.809	7532
564.869	7517
564.930	6442
564.990	6945
565.050	5519
565.111	6760
565.171	6312
565.231	5449
565.292	7333
565.352	6522
565.412	7030
565.472	6658
565.532	7776
565.593	5349
565.653	6012
565.713	6620
565.773	8126
565.833	8779
565.893	10997
565.953	6431
566.013	6734
566.074	7222
566.134	8220
566.194	10059
566.254	11379
566.314	7738
566.374	5915
566.434	6745
566.494	7502
566.554	6177
566.614	5918
566.673	6341
566.733	7268
566.793	6496
566.853	6677
566.913	6698
566.973	6953
567.033	7889
567.092	8350
567.152	6690
567.212	7622
567.272	6960
567.331	6544
567.391	6900
567.451	8044
567.511	9320
567.570	8926
567.630	8009
567.690	6955
567.749	7523
567.809	7855
567.868	7963
567.928	8166
567.988	8554
568.047	9210
568.107	9339
568.166	10663
568.226	15537
568.285	20362
568.345	16009
568.404	12763
568.464	11502
568.523	11080
568.582	11143
568.642	12755
568.701	14621
568.761	19943
568.820	31279
568.879	27269
568.939	19670
568.998	14204
569.057	11914
569.116	10079
569.176	8937
569.235	7888
569.294	8494
569.353	7136
569.413	7254
569.472	7254
569.531	6816
569.590	5636
569.649	6699
569.708	6397
569.767	6829
569.827	7836
569.886	8193
569.945	6010
570.004	7306
570.063	7107
570.122	7361
570.181	7903
570.240	8204
570.299	8756
570.358	9422
570.417	6004
570.475	6278
570.534	7553
570.593	7008
570.652	8386
570.711	8203
570.770	7237
570.829	8439
570.887	7821
570.946	8470
571.005	6728
571.064	7084
571.122	9038
571.181	7419
571.240	6704
571.299	6729
571.357	6957
571.416	6950
571.475	8658
571.533	7826
571.592	7060
571.650	7234
571.709	6775
571.768	7257
571.826	7034
571.885	7667
571.943	6193
572.002	6183
572.060	6990
572.119	5486
572.177	5685
572.236	6054
572.294	5958
572.352	7474
572.411	6409
572.469	6448
572.528	6837
572.586	6218
572.644	7341
572.703	9937
572.761	6834
572.819	6134
572.877	6477
572.936	5797
572.994	5532
573.052	5754
573.110	6327
573.169	6813
573.227	5893
573.285	6752
573.343	5926
573.401	5500
573.459	6683
573.517	4821
573.576	6119
573.634	6480
573.692	6818
573.750	5893
573.808	6366
573.866	5814
573.924	6844
573.982	7169
574.040	6503
574.098	5362
574.155	5811
574.213	5476
574.271	5129
574.329	5248
574.387	5781
574.445	5034
574.503	4456
574.560	4546
574.618	5064
574.676	5084
574.734	5656
574.792	5992
574.849	5072
574.907	5200
574.965	4932
575.022	4289
575.080	4323
575.138	5833
575.195	4962
575.253	5032
575.311	6688
575.368	5975
575.426	5203
575.483	5128
575.541	5706
575.598	5572
575.656	5030
575.713	4594
575.771	5403
575.828	5208
575.886	4463
575.943	5705
576.001	5335
576.058	5191
576.115	6221
576.173	6637
576.230	7451
576.287	9088
576.345	7016
576.402	5058
576.459	6456
576.517	4522
576.574	6430
576.631	6634
576.688	5538
576.746	5415
576.803	5194
576.860	4572
576.917	5511
576.974	5783
577.031	5130
577.089	5689
577.146	4990
577.203	5363
577.260	5948
577.317	4853
577.374	6313
577.431	5983
577.488	6185
577.545	4732
577.602	5310
577.659	5762
577.716	5519
577.773	5263
577.830	4523
577.886	5567
577.943	5125
578.000	5814
578.057	5427
578.114	5803
578.171	6021
578.227	6234
578.284	5619
578.341	6005
578.398	5356
578.454	5972
578.511	5642
578.568	6724
578.625	4697
578.681	5682
578.738	5301
578.794	5980
578.851	5944
578.908	6382
578.964	6614
579.021	6362
579.077	6484
579.134	5505
579.190	5175
579.247	5620
579.303	5743
579.360	4843
579.416	5238
579.473	4840
579.529	5671
579.586	5795
579.642	5383
579.698	5722
579.755	5086
579.811	5093
579.867	4886
579.924	5831
579.980	5330
580.036	5698
580.093	6019
580.149	5872
580.205	6245
580.261	5815
580.317	6527
580.374	6710
580.430	7970
580.486	6421
580.542	5887
580.598	5335
580.619	5551
580.654	5931
580.692	5675
580.710	5558
580.765	5921
580.767	5936
580.823	5680
580.838	5890
580.879	6454
580.911	6551
580.935	6626
580.984	6142
580.991	6091
581.047	6258
581.057	6341
581.103	6691
581.130	6358
581.159	6005
581.203	6313
581.215	6404
581.270	5867
581.276	5987
581.326	7200
581.349	6700
581.382	5914
581.422	6114
581.438	6221
581.494	6137
581.494	6139
581.550	6704
581.567	6866
581.606	7122
581.640	6837
581.661	6691
581.713	7838
581.717	7931
581.773	6537
581.786	6517
581.829	6502
581.859	6581
581.885	6680
581.932	7121
581.940	7181
581.996	6567
582.004	6594
582.052	6756
582.077	6742
582.107	6742
582.150	6818
582.163	6877
582.219	6639
582.223	6647
582.274	6647
582.296	6603
582.330	6466
582.368	6865
582.386	7151
582.441	6861
582.441	6860
582.497	5998
582.514	6200
582.552	6861
582.587	6689
582.608	6489
582.659	6492
582.663	6505
582.719	6861
582.732	6902
582.774	7095
582.805	7163
582.830	7124
582.877	7076
582.885	7089
582.941	6913
582.950	7032
582.996	7645
583.023	7654
583.052	7671
583.095	7413
583.107	7332
583.162	6512
583.168	6639
583.218	7751
583.240	7552
583.273	7304
583.313	7271
583.328	7286
583.384	7276
583.385	7289
583.439	7342
583.458	7156
583.494	6932
583.531	7204
583.549	7416
583.603	7244
583.605	7225
583.660	6531
583.676	6675
583.715	7238
583.748	7320
583.770	7420
583.820	7216
583.825	7169
583.881	7607
583.893	7474
583.936	7300
583.965	7446
583.991	7373
584.038	7028
584.046	7021
584.101	7481
584.110	7397
584.156	6913
584.183	7215
584.211	7419
584.255	7373
584.266	7466
584.321	8063
584.328	8056
584.376	7693
584.400	7816
584.431	7920
584.472	7209
584.486	7020
584.541	8313
584.545	8284
584.596	7678
584.617	7864
584.651	8464
584.689	8766
584.706	8776
584.761	8977
584.762	8976
584.816	9195
584.834	9166
584.871	8821
584.906	8956
584.926	9163
584.978	9006
584.980	9014
585.035	9961
585.051	10274
585.090	10771
585.123	10962
585.145	11176
585.195	12520
585.200	12665
585.254	13398
585.267	13791
585.309	14918
585.340	15774
585.364	16401
585.412	18246
585.419	18584
585.473	21476
585.484	22003
585.528	24936
585.556	29218
585.583	37504
585.628	58375
585.637	65165
585.692	131650
585.700	144373
585.747	191502
585.772	154906
585.801	93454
585.845	33893
585.856	25859
585.910	17340
585.917	16704
585.965	14744
585.989	13676
586.019	12723
586.061	11845
586.074	11676
586.128	12558
586.133	12619
586.183	13582
586.205	13517
586.237	12984
586.277	12900
586.292	12962
586.346	12497
586.349	12498
586.401	12577
586.421	12576
586.455	12784
586.493	13742
586.509	14395
586.564	15870
586.565	15950
586.618	20264
586.637	20609
586.672	19497
586.709	17029
586.727	16081
586.781	16483
586.781	16489
586.835	14611
586.853	14308
586.889	14025
586.925	13614
586.944	13363
586.996	13355
586.998	13382
587.052	14417
587.068	14523
587.106	14858
587.140	15240
587.161	15201
587.212	14543
587.215	14566
587.269	15477
587.284	15707
587.323	15873
587.356	15833
587.377	16034
587.427	17299
587.431	17354
587.485	16655
587.499	16627
587.539	16872
587.571	17094
587.593	17500
587.643	18170
587.648	18260
587.702	19186
587.715	19460
587.755	19367
587.786	19297
587.810	19717
587.858	20108
587.864	20240
587.917	21972
587.930	22279
587.971	23172
588.001	24117
588.025	24695
588.073	25788
588.079	26078
588.133	28195
588.145	28732
588.187	30605
588.217	32215
588.241	33940
588.288	37093
588.295	37679
588.348	43709
588.360	44953
588.402	49520
588.431	53005
588.456	56506
588.503	63965
588.510	65337
588.564	77818
588.575	80539
588.617	92724
588.646	102312
588.671	113447
588.718	137026
588.725	144181
588.778	207321
588.789	223028
588.832	345063
588.861	438650
588.886	563150
588.932	811114
588.939	824019
588.993	852545
589.004	849473
589.047	637779
589.075	473792
589.100	370038
589.147	205998
589.154	196976
589.207	147987
589.218	139485
589.261	130627
589.290	126880
589.314	132090
589.361	146535
589.368	153860
589.421	222629
589.433	240046
589.475	395670
589.504	516860
589.528	615399
589.576	784712
589.582	765193
589.635	519985
589.647	460691
589.689	269215
589.718	151841
589.742	122749
589.790	77925
589.795	75764
589.849	58849
589.861	55489
589.902	49958
589.932	45734
589.955	42900
590.004	36950
590.009	36564
590.062	32849
590.075	31943
590.115	30732
590.146	29906
590.168	29369
590.218	28236
590.222	28161
590.275	26650
590.289	26267
590.328	26260
590.360	26058
590.381	25765
590.431	25085
590.435	25068
590.488	24296
590.503	24050
590.541	24276
590.574	24442
590.594	24346
590.645	24045
590.647	24054
590.700	23138
590.716	22901
590.753	22891
590.787	22814
590.806	22822
590.859	22828
590.859	22868
590.912	23133
590.930	23215
590.965	23328
591.001	23400
591.018	23265
591.071	22566
591.072	22523
591.124	23343
591.143	23565
591.177	23320
591.214	22921
591.230	23095
591.283	23723
591.285	23704
591.336	24399
591.356	24724
591.389	25050
591.427	25211
591.442	24800
591.495	23058
591.498	22892
591.547	22683
591.569	22597
591.600	22667
591.640	22655
591.653	22952
591.706	24032
591.711	24107
591.759	23883
591.782	23696
591.811	24366
591.853	25375
591.864	25303
591.917	24440
591.924	24290
591.969	23827
591.995	23528
592.022	23272
592.066	22696
592.075	23056
592.127	25130
592.137	25473
592.180	25520
592.208	25456
592.233	24843
592.279	23552
592.285	23704
592.338	24732
592.350	24925
592.390	24762
592.421	24574
592.443	24355
592.491	23737
592.495	23815
592.548	24378
592.562	24499
592.600	24370
592.633	24187
592.653	24271
592.704	24275
592.705	24429
592.775	25187
592.846	25460
592.916	26178
592.987	27365
593.058	25488
593.128	25182
593.199	25643
593.270	24633
593.341	24808
593.411	25682
593.482	25774
593.553	26506
593.623	25812
593.694	27268
593.764	27269
593.835	26541
593.906	26677
593.976	26897
594.047	26585
594.117	28987
594.188	28535
594.258	27871
594.329	28138
594.399	28301
594.470	28853
594.540	28426
594.611	28971
594.681	30164
594.751	29539
594.822	31461
594.892	32365
594.963	30479
595.033	31906
595.103	33420
595.174	34053
595.244	36022
595.314	38036
595.384	34785
595.455	34256
595.525	37266
595.595	37841
595.665	36764
595.736	35255
595.806	37072
595.876	37092
595.946	36468
596.016	39237
596.087	39374
596.157	39577
596.227	39225
596.297	41736
596.367	43912
596.437	46988
596.507	47206
596.577	48392
596.647	47269
596.717	48991
596.787	48620
596.857	49429
596.927	49372
596.997	49483
597.067	48818
597.137	49735
597.207	49780
597.277	49524
597.347	48885
597.417	48111
597.487	48605
597.557	50128
597.626	50714
597.696	51478
597.766	52752
597.836	50907
597.906	45713
597.975	45994
598.045	45434
598.115	47911
598.185	51031
598.254	55868
598.324	61616
598.394	61255
598.464	59509
598.533	57400
598.603	55013
598.672	53416
598.742	54569
598.812	53991
598.881	55576
598.951	54666
599.020	55913
599.090	57716
599.159	58309
599.229	55732
599.299	54996
599.368	56536
599.437	55053
599.507	51785
599.576	49755
599.646	49805
599.715	48979
599.785	48869
599.854	48673
599.924	46803
599.993	47187
600.062	46871
600.132	48662
600.201	52926
600.270	59913
600.340	61963
600.409	60594
600.478	59970
600.547	60738
600.617	56963
600.686	47247
600.755	44440
600.824	43334
600.894	41484
600.963	40703
601.032	40600
601.101	39337
601.170	39547
601.239	37560
601.308	39769
601.378	38926
601.447	38383
601.516	38132
601.585	40693
601.654	41969
601.723	39732
601.792	40400
601.861	41918
601.930	43258
601.999	45548
602.068	43909
602.137	46534
602.206	46385
602.275	45289
602.343	47199
602.412	48434
602.481	44933
602.550	45621
602.619	46243
602.688	46241
602.756	47788
602.825	48767
602.894	49195
602.963	49506
603.032	50515
603.100	49346
603.169	49256
603.238	48837
603.307	50123
603.375	50240
603.444	51914
603.513	52861
603.581	51897
603.650	54097
603.719	50697
603.787	52319
603.856	53405
603.924	54904
603.993	56166
604.061	58445
604.130	60063
604.198	61327
604.267	62843
604.335	63877
604.404	63886
604.472	65329
604.541	64870
604.609	67916
604.678	67364
604.746	66963
604.815	68387
604.883	69425
604.951	69169
605.020	69877
605.088	71209
605.156	70876
605.225	72614
605.293	72797
605.361	73848
605.429	73382
605.498	76131
605.566	76777
605.634	80049
605.702	82826
605.771	85374
605.839	85587
605.907	82097
605.975	80273
606.043	79825
606.111	80113
606.180	79437
606.248	77790
606.316	78531
606.384	78670
606.452	80554
606.520	81721
606.588	81262
606.656	81572
606.724	78473
606.792	74133
606.860	67008
606.928	61415
606.996	60066
607.064	58042
607.132	59189
607.200	62958
607.267	65861
607.335	66687
607.403	68217
607.471	65876
607.539	63418
607.607	64309
607.674	56554
607.742	56704
607.810	57396
607.878	56204
607.946	56182
608.013	59753
608.081	60958
608.149	61475
608.216	63324
608.284	66604
608.352	64774
608.419	63635
608.487	66011
608.555	62935
608.622	64628
608.690	67239
608.757	74801
608.825	76967
608.893	75451
608.960	73582
609.028	70969
609.095	69731
609.163	67982
609.230	60145
609.298	56877
609.365	58371
609.432	64212
609.500	69100
609.567	79248
609.635	90746
609.702	95055
609.769	91345
609.837	70373
609.904	60226
609.971	61047
610.039	67770
610.106	84777
610.173	142209
610.241	293572
610.308	162162
610.375	77936
610.442	63258
610.509	61350
610.577	62987
610.644	63654
610.711	65329
610.778	68422
610.845	69268
610.912	75351
610.980	75392
611.047	76663
611.114	75579
611.181	72663
611.248	72216
611.315	76597
611.382	77356
611.449	80958
611.516	82228
611.583	81719
611.650	83017
611.717	83010
611.784	83688
611.851	87701
611.918	93759
611.984	104842
612.051	140550
612.118	255544
612.185	560168
612.252	314603
612.319	113447
612.386	103344
612.452	95863
612.519	92891
612.586	92995
612.653	94277
612.719	96784
612.786	93220
612.853	86342
612.919	83826
612.986	86840
613.053	82031
613.120	75088
613.186	73478
613.253	75816
613.319	74234
613.386	75060
613.453	75658
613.519	78626
613.586	80761
613.652	87661
613.719	81919
613.785	82036
613.852	77634
613.918	76435
613.985	77264
614.051	79476
614.118	80384
614.184	76768
614.250	76675
614.317	78410
614.383	77968
614.449	78833
614.516	78329
614.582	79855
614.648	77624
614.715	75740
614.781	74448
614.847	75769
614.914	74752
614.980	73069
615.046	72927
615.112	75022
615.179	73955
615.245	76370
615.311	75597
615.377	79045
615.443	79186
615.509	78579
615.575	80393
615.642	78147
615.708	82353
615.774	83779
615.840	87028
615.906	92799
615.972	109417
616.038	158058
616.104	298787
616.170	649906
616.236	484011
616.302	143688
616.368	117406
616.434	92220
616.500	89904
616.565	97493
616.631	112114
616.697	96892
616.763	99597
616.829	140199
616.895	222382
616.961	191821
617.026	95218
617.092	77988
617.158	79402
617.224	77467
617.289	71759
617.355	69665
617.421	69568
617.487	70371
617.552	66104
617.618	65420
617.684	64791
617.749	68412
617.815	64196
617.880	62050
617.946	63808
618.012	66146
618.077	65820
618.143	63623
618.208	65696
618.274	69536
618.339	68914
618.405	57835
618.470	58153
618.536	58401
618.601	58253
618.667	54942
618.732	52213
618.798	51762
618.863	51319
618.928	51205
618.994	53013
619.059	53279
619.124	58516
619.190	53807
619.255	49528
619.320	49690
619.386	49678
619.451	49529
619.516	48884
619.581	49850
619.647	50824
619.712	51193
619.777	49137
619.842	49888
619.907	51465
619.972	50816
620.038	50358
620.103	49128
620.168	48798
620.233	50328
620.298	50041
620.363	49857
620.428	51849
620.493	53723
620.558	53395
620.623	53813
620.688	54327
620.753	53593
620.818	54509
620.883	55438
620.948	54502
621.013	54663
621.078	53019
621.143	53238
621.207	55919
621.272	53851
621.337	53014
621.402	53536
621.467	53772
621.532	54360
621.596	53826
621.661	52111
621.726	50529
621.791	51684
621.855	52997
621.920	52991
621.985	53292
622.049	55355
622.114	52494
622.179	53373
622.243	55578
622.308	55760
622.373	60081
622.437	57991
622.502	54529
622.566	53813
622.631	53278
622.695	55611
622.760	55046
622.824	55092
622.889	56067
622.953	56795
623.018	67088
623.082	65640
623.147	58845
623.211	57433
623.276	57016
623.340	53601
623.404	53142
623.469	53205
623.533	53795
623.597	51256
623.662	51603
623.726	48869
623.790	46664
623.854	44952
623.919	46307
623.983	46529
624.047	47707
624.111	47763
624.176	48565
624.240	50207
624.304	53864
624.368	47440
624.432	47434
624.496	49974
624.560	52564
624.625	53200
624.689	51848
624.753	52707
624.817	50899
624.881	49320
624.945	45652
625.009	44707
625.073	44644
625.137	47911
625.201	51704
625.265	52340
625.329	47140
625.393	47506
625.456	47191
625.520	48181
625.584	49716
625.648	51945
625.712	55149
625.776	65382
625.839	65681
625.903	44377
625.967	39606
626.031	46755
626.095	56098
626.158	45628
626.222	35511
626.286	35223
626.349	32267
626.413	30511
626.477	32496
626.540	31102
626.604	31211
626.668	31613
626.731	30829
626.795	31083
626.858	31615
626.922	29756
626.986	30078
627.049	28697
627.113	31288
627.176	29899
627.240	28990
627.303	29063
627.366	28280
627.430	30467
627.493	28983
627.557	26785
627.620	29904
627.684	29014
627.747	29951
627.810	26005
627.874	25787
627.937	23740
628.000	26944
628.064	25518
628.127	21147
628.190	23403
628.253	22692
628.317	21218
628.380	19981
628.443	19305
628.506	20876
628.569	20234
628.632	18071
628.696	19526
628.759	17963
628.822	17422
628.885	17654
628.948	17730
629.011	17917
629.074	17240
629.137	15640
629.200	16736
629.263	18695
629.326	15586
629.389	16257
629.452	16614
629.515	16549
629.578	16146
629.641	16800
629.704	15776
629.767	16282
629.830	15330
629.892	14074
629.955	14984
630.018	16722
630.081	15137
630.144	18991
630.207	15180
630.269	16578
630.332	14406
630.395	14937
630.458	15077
630.520	13384
630.583	14670
630.646	13965
630.708	13823
630.771	13605
630.834	15548
630.896	14657
630.959	13624
631.021	14082
631.084	13568
631.146	15144
631.209	14925
631.272	13192
631.334	14239
631.397	14662
631.459	13784
631.522	14361
631.584	14665
631.646	15301
631.709	16362
631.771	17329
631.834	16122
631.896	14712
631.958	13448
632.021	14080
632.083	12506
632.145	13401
632.208	12888
632.270	14218
632.332	12110
632.395	12368
632.457	14412
632.519	13498
632.581	14558
632.643	12436
632.706	13630
632.768	12285
632.830	13547
632.892	13466
632.954	12532
633.016	13605
633.078	13094
633.141	12790
633.203	12954
633.265	13798
633.327	12472
633.389	12132
633.451	14793
633.513	14641
633.575	13609
633.637	13694
633.698	13840
633.760	13860
633.822	14223
633.884	14318
633.946	13897
634.008	13488
634.070	14103
634.132	12967
634.193	14208
634.255	15964
634.317	14596
634.379	17110
634.441	14709
634.502	12364
634.564	12964
634.626	12848
634.687	12701
634.749	11434
634.811	12640
634.873	10547
634.934	11764
634.996	12267
635.057	11614
635.119	11429
635.181	11976
635.242	12370
635.304	10540
635.365	14893
635.427	11168
635.488	12192
635.550	10717
635.611	11881
635.673	10458
635.734	13194
635.796	13072
635.857	14688
635.918	13669
635.980	15311
636.041	14016
636.102	15330
636.164	15029
636.225	15072
636.286	11925
636.348	13189
636.409	12438
636.470	10925
636.531	11834
636.593	11862
636.654	11528
636.715	10731
636.776	10321
636.838	10488
636.899	11077
636.960	10589
637.021	10515
637.082	10155
637.143	9840
637.204	9948
637.265	9836
637.326	9817
637.387	9919
637.448	9059
637.509	10521
637.570	10366
637.631	11234
637.692	8776
637.753	8557
637.814	10352
637.875	10222
637.936	10086
637.997	9420
638.058	10241
638.119	10332
638.179	9642
638.240	8907
638.301	9756
638.362	9210
638.423	9310
638.483	10026
638.544	8381
638.605	9140
638.666	8797
638.726	9820
638.787	9697
638.848	8705
638.908	9511
638.969	9574
639.030	8481
639.090	7278
639.151	8630
639.211	9841
639.272	11149
639.332	15093
639.393	9975
639.453	9103
639.514	9078
639.574	8735
639.635	7802
639.695	9471
639.756	8085
639.816	9091
639.877	9699
639.937	14279
639.997	15519
640.058	9036
640.118	7811
640.178	8487
640.239	8419
640.299	7850
640.359	7876
640.420	8360
640.480	9352
640.540	9185
640.600	8887
640.661	9304
640.721	7788
640.781	10649
640.841	7123
640.901	8977
640.961	8579
641.021	9358
641.082	9218
641.142	11424
641.202	10260
641.262	7227
641.322	7544
641.382	6552
641.442	7632
641.502	7991
641.562	7825
641.622	7242
641.682	8941
641.742	8686
641.802	8202
641.861	8880
641.921	7837
641.981	8341
642.041	8303
642.101	9763
642.161	6751
642.221	6768
642.280	7154
642.340	6612
642.400	6965
642.460	7492
642.519	7626
642.579	7448
642.639	7790
642.698	5283
642.758	9781
642.818	8278
642.877	6567
642.937	7765
642.997	9760
643.056	11540
643.116	5980
643.175	8794
643.235	7447
643.294	7686
643.354	8373
643.414	8933
643.473	10568
643.532	10902
643.592	14089
643.651	22860
643.711	39849
643.770	76799
643.830	183800
643.889	353764
643.948	76492
644.008	17100
644.067	11071
644.126	8487
644.186	8556
644.245	8969
644.304	6828
644.363	9162
644.423	4847
644.482	7219
644.541	7895
644.600	5587
644.659	9077
644.719	9827
644.778	14728
644.837	23338
644.896	49986
644.955	100397
645.014	30971
645.073	8573
645.132	7434
645.191	8012
645.250	6629
645.309	9043
645.368	7405
645.427	10954
645.486	13450
645.545	22217
645.604	7261
645.663	6977
645.722	6620
645.781	7148
645.840	9131
645.898	9205
645.957	13960
646.016	19029
646.075	37537
646.134	71398
646.192	190707
646.251	250500
646.310	33633
646.369	11840
646.427	10331
646.486	8376
646.545	6948
646.603	7092
646.662	6421
646.721	7048
646.779	6105
646.838	5963
646.896	8515
646.955	9308
647.014	15315
647.072	25502
647.131	66710
647.189	28682
647.248	6316
647.306	6257
647.365	6260
647.423	4595
647.481	6214
647.540	3994
647.598	5093
647.657	4988
647.715	6369
647.773	4180
647.832	5816
647.890	3600
647.948	4315
648.007	4779
648.065	4053
648.123	3897
648.181	5471
648.240	4486
648.298	3634
648.356	3666
648.414	4578
648.472	4326
648.531	4838
648.589	4148
648.647	4420
648.705	3916
648.763	3879
648.821	3895
648.879	3818
648.937	4655
648.995	6177
649.053	6892
649.111	10176
649.169	16478
649.227	29377
649.285	63232
649.343	169929
649.401	71699
649.459	19188
649.516	11786
649.574	5095
649.632	6082
649.690	6978
649.748	7425
649.806	9490
649.863	17805
649.921	47382
649.979	27427
650.037	6093
650.094	3778
650.152	3964
650.210	3063
650.268	3380
650.325	3423
650.383	3065
650.440	2578
650.498	3401
650.556	3321
650.613	2773
650.671	3335
650.728	3514
650.786	2720
650.843	4310
650.901	2037
650.958	3268
651.016	3419
651.073	2944
651.131	2506
651.188	2763
651.246	2662
651.303	1198
651.360	2897
651.418	2323
651.475	2671
651.532	1764
651.590	3766
651.647	2386
651.704	2809
651.762	2074
651.819	2891
651.876	1627
651.933	2715
651.990	2913
652.048	1458
652.105	1987
652.162	3466
652.219	1990
652.276	2666
652.333	2703
652.390	2309
652.448	2626
652.505	2761
652.562	2374
652.619	2221
652.676	2427
652.733	2796
652.790	1751
652.847	828
652.904	2793
652.961	1796
653.017	1768
653.074	2818
653.131	2258
653.188	938
653.245	2374
653.302	2536
653.359	2230
653.415	2608
653.472	2094
653.529	2974
653.586	1351
653.642	2168
653.699	2656
653.756	943
653.813	2257
653.869	2460
653.926	1528
653.983	1455
654.039	2468
654.096	1570
654.152	2335
654.209	876
654.266	1838
654.322	928
654.379	2736
654.435	3023
654.492	2304
654.548	3351
654.605	4364
654.661	2859
654.717	1722
654.774	2701
654.830	2288
654.887	1899
654.943	1568
655.000	2307
655.056	2005
655.112	1767
655.168	1183
655.225	1547
655.281	1838
655.337	2101
655.394	3306
655.450	2585
655.506	2088
655.562	2820
655.618	3548
655.675	1314
655.731	1368
655.787	1304
655.843	2435
655.899	1822
655.955	2421
656.011	1288
656.067	1298
656.123	2388
656.179	1373
656.235	2545
656.291	514
656.347	2086
656.403	1410
656.459	1219
656.515	2061
656.571	2395
656.627	2055
656.683	2092
656.739	2915
656.795	1537
656.850	2887
656.906	2709
656.962	2720
657.018	885
657.074	1909
657.129	2731
657.185	4369
657.241	7648
657.297	4026
657.352	2484
657.408	1267
657.464	3098
657.519	1962
657.575	1174
657.630	1441
657.686	2412
657.742	1499
657.797	1988
657.853	1732
657.908	2960
657.964	828
658.019	1405
658.075	1421
658.130	1635
658.186	1159
658.241	1765
658.297	1200
658.352	1970
658.407	2200
658.463	770
658.518	1333
658.573	2044
658.629	981
658.684	1799
658.739	1916
658.795	706
658.850	1691
658.905	1571
658.960	1385
659.016	278
659.071	1708
659.126	1712
659.181	1704
659.236	4418
659.291	4597
659.346	2314
659.401	1874
659.457	2153
659.512	899
659.567	3172
659.622	1449
659.677	511
659.732	179
659.787	1697
659.842	1177
659.897	1635
659.952	1890
660.007	1864
660.061	1036
660.116	1032
660.171	1335
660.226	704
660.281	2363
660.336	522
660.391	1888
660.445	1183
660.500	1623
660.555	1375
660.610	970
660.664	1007
660.719	2047
660.774	1575
660.828	2046
660.883	1641
660.938	1689
660.992	-261
661.047	1046
661.101	2015
661.156	507
661.211	648
661.265	905
661.320	1223
661.374	1193
661.429	417
661.483	1647
661.538	780
661.592	1702
661.647	709
661.701	1755
661.755	1014
661.810	1129
661.864	971
661.919	752
661.973	1680
662.027	575
662.081	235
662.136	1390
662.190	1468
662.244	1135
662.299	1095
662.353	1948
662.407	1115
662.461	624
662.515	1463
662.569	1175
662.624	1347
662.678	1092
662.732	1218
662.786	377
662.840	283
662.894	1201
662.948	927
663.002	748
663.056	1039
663.110	396
663.164	1096
663.218	1556
663.272	1388
663.326	1360
663.380	1520
663.434	1126
663.488	382
663.542	1766
663.595	1625
663.649	1135
663.703	1094
663.757	1226
663.811	722
663.864	669
663.918	1374
663.972	424
664.026	1070
664.079	1163
664.133	1239
664.187	563
664.240	1223
664.294	705
664.348	973
664.401	1465
664.455	1511
664.508	1320
664.562	1359
664.615	1060
664.669	701
664.722	1400
664.776	954
664.829	1315
664.883	1071
664.936	989
664.990	602
665.043	1423
665.097	1007
665.150	1986
665.203	332
665.257	1487
665.310	1362
665.363	1515
665.417	1079
665.470	1966
665.523	1169
665.576	622
665.630	1403
665.683	655
665.736	1373
665.789	1029
665.842	1156
665.895	1983
665.949	655
666.002	1078
666.055	1160
666.108	1757
666.161	1022
666.214	1336
666.267	1327
666.320	1890
666.373	1632
666.426	1326
666.479	591
666.532	1253
666.585	1491
666.638	1892
666.691	1309
666.744	2003
666.796	862
666.849	1226
666.902	1972
666.955	1320
667.008	470
667.060	246
667.113	1273
667.166	1218
667.219	862
667.271	1502
667.324	1179
667.377	1328
667.430	1027
667.482	1544
667.535	853
667.587	1281
667.640	2464
667.693	2219
667.745	3778
667.798	4487
667.850	1385
667.903	1100
667.955	1373
668.008	921
668.060	2730
668.113	434
668.165	1431
668.218	1948
668.270	946
668.322	1678
668.375	1059
668.427	2449
668.479	840
668.532	1318
668.584	808
668.636	1125
668.689	2076
668.741	892
668.793	875
668.845	1136
668.898	1570
668.950	1273
669.002	1077
669.054	662
669.106	1411
669.158	750
669.211	1037
669.263	977
669.315	1633
669.367	764
669.419	615
669.471	1807
669.523	868
669.575	927
669.627	1089
669.679	1321
669.731	1130
669.783	953
669.835	713
669.886	878
669.938	1061
669.990	744
670.042	335
670.094	1426
670.146	1414
670.197	1900
670.249	1931
670.301	2173
670.353	3152
670.404	4358
670.456	6124
670.508	9201
670.560	16673
670.611	28730
670.663	49883
670.715	126426
670.766	180633
670.818	40937
670.869	7260
670.921	4148
670.972	4261
671.024	2442
671.075	2375
671.127	2465
671.178	1126
671.230	1519
671.281	2431
671.333	989
671.384	1338
671.436	1299
671.487	2637
671.538	3081
671.590	5708
671.641	9717
671.692	17736
671.744	31386
671.795	15623
671.846	4051
671.897	1828
671.949	2004
672.000	1189
672.051	1387
672.102	1265
672.153	160
672.204	648
672.256	2346
672.307	839
672.358	1610
672.409	1285
672.460	1555
672.511	562
672.562	524
672.613	-151
672.664	509
672.715	882
672.766	806
672.817	172
672.868	628
672.919	711
672.970	803
673.021	407
673.071	-479
673.122	323
673.173	1359
673.224	280
673.275	719
673.326	644
673.376	1053
673.427	800
673.478	112
673.528	968
673.579	1686
673.630	459
673.680	1617
673.731	13
673.782	235
673.832	87
673.883	-239
673.934	344
673.984	608
674.035	1152
674.085	-109
674.136	-366
674.186	502
674.237	1169
674.287	1048
674.338	440
674.388	384
674.438	-886
674.489	1087
674.539	494
674.589	874
674.640	1144
674.690	1038
674.740	290
674.791	479
674.841	360
674.891	760
674.942	23
674.992	328
675.042	-268
675.092	123
675.142	728
675.193	459
675.243	137
675.293	392
675.343	539
675.393	254
675.443	1001
675.493	379
675.543	-293
675.593	319
675.643	1399
675.693	680
675.743	692
675.793	852
675.843	655
675.893	537
675.943	1221
675.993	32
676.043	631
676.093	438
676.142	-441
676.192	530
676.242	-601
676.292	-263
676.341	-213
676.391	50
676.441	-11
676.491	-33
676.540	624
676.590	762
676.640	26
676.689	-72
676.739	-701
676.789	479
676.838	354
676.888	-325
676.937	124
676.987	57
677.037	-298
677.086	-19
677.136	-35
677.185	-337
677.235	-380
677.284	27
677.333	-8
677.383	-286
677.432	-270
677.482	71
677.531	-491
677.580	-230
677.630	577
677.679	899
677.728	416
677.778	692
677.827	-80
677.876	5
677.925	-299
677.975	46
678.024	658
678.073	-99
678.122	-266
678.171	225
678.220	127
678.269	665
678.319	224
678.368	158
678.417	-198
678.466	794
678.515	100
678.564	549
678.613	450
678.662	-560
678.711	-335
678.760	-54
678.809	49
678.857	241
678.906	440
678.955	-717
679.004	712
679.053	-550
679.102	0
679.151	-508
679.199	-99
679.248	-379
679.297	-567
679.346	-103
679.394	-618
679.443	273
679.492	-918
679.540	-22
679.589	57
679.638	37
679.686	-135
679.735	200
679.784	241
679.832	-420
679.881	80
679.929	-62
679.978	-577
680.026	-198
680.075	-274
680.123	-134
680.172	-436
680.220	-1362
680.268	370
680.317	-731
680.365	-340
680.414	-952
680.462	56
680.510	-64
680.559	-404
680.607	490
680.655	-499
680.703	-169
680.752	-818
680.800	175
680.848	-171
680.896	-1121
680.945	-255
680.993	-455
681.041	-680
681.089	-92
681.137	-9
681.185	-1037
681.233	-89
681.258	-179
681.281	-321
681.329	-232
681.377	-399
681.380	-339
681.425	-286
681.473	-327
681.502	204
681.521	461
681.569	629
681.617	1458
681.624	1397
681.665	608
681.713	1243
681.745	1433
681.761	1444
681.809	836
681.857	549
681.867	622
681.904	661
681.952	1039
681.989	1126
682.000	1081
682.048	1598
682.096	1373
682.111	1588
682.143	1835
682.191	1927
682.233	2106
682.239	2086
682.286	2029
682.334	2216
682.354	2231
682.382	2125
682.430	2781
682.476	2471
682.477	2416
682.525	1981
682.572	2829
682.598	2423
682.620	2012
682.667	2455
682.715	3766
682.720	3725
682.763	2828
682.810	3142
682.841	3445
682.857	3535
682.905	3058
682.952	4141
682.963	4129
683.000	3775
683.047	3881
683.085	4669
683.095	4856
683.142	3648
683.190	3718
683.206	3926
683.237	4201
683.284	4638
683.328	3904
683.332	3801
683.379	5162
683.426	4325
683.449	4600
683.473	4802
683.521	4594
683.568	5453
683.571	5485
683.615	5332
683.662	5447
683.693	5443
683.709	5399
683.757	5051
683.804	5617
683.814	5763
683.851	6093
683.898	6116
683.936	6128
683.945	6112
683.992	6279
684.039	6315
684.057	6625
684.086	6999
684.133	7002
684.179	7101
684.180	7065
684.227	6908
684.274	7697
684.300	7919
684.321	8012
684.368	7134
684.415	7488
684.422	7400
684.462	6763
684.509	7462
684.543	7007
684.556	6798
684.603	7415
684.649	7465
684.665	7507
684.696	7681
684.743	8022
684.786	8000
684.790	7953
684.837	8127
684.883	8356
684.908	8498
684.930	8736
684.977	8884
685.023	8644
685.029	8802
685.070	9258
685.117	8577
685.150	8948
685.164	9252
685.210	9912
685.257	10308
685.272	10467
685.303	10358
685.350	10308
685.393	10612
685.396	10656
685.443	10734
685.490	11759
685.514	11809
685.536	11435
685.583	10843
685.629	10908
685.636	10782
685.675	10351
685.722	10823
685.757	10994
685.768	10978
685.815	10784
685.861	11075
685.878	11090
685.908	11240
685.954	11237
686.000	11807
686.000	11808
686.047	12220
686.093	12662
686.121	13072
686.139	12962
686.185	12745
686.232	12407
686.242	12314
686.278	11926
686.324	11922
686.363	11294
686.370	11246
686.416	11339
686.463	12155
686.484	12108
686.509	11991
686.555	11722
686.601	11159
686.606	11279
686.647	12367
686.693	12301
686.727	11819
686.739	11635
686.785	11638
686.831	12885
686.848	12708
686.877	12273
686.923	12003
686.969	12303
686.969	12303
687.015	12504
687.061	12810
687.090	13112
687.107	13114
687.153	13258
687.199	12701
687.211	12628
687.245	12688
687.291	12704
687.332	13680
687.336	13786
687.382	13740
687.428	14018
687.453	13891
687.474	13560
687.520	14220
687.565	13378
687.574	13322
687.611	13336
687.657	13815
687.695	13691
687.702	13703
687.748	13778
687.794	14228
687.816	14261
687.839	14137
687.885	14643
687.931	13780
687.937	13773
687.976	13964
688.022	14487
688.058	14277
688.067	14251
688.113	14711
688.158	14945
688.179	14974
688.204	14878
688.249	14921
688.295	14765
688.300	14797
688.340	15483
688.386	16366
688.421	15968
688.431	15793
688.477	15817
688.522	15756
688.542	15845
688.567	16019
688.613	15860
688.658	16232
688.663	16191
688.703	15952
688.749	15724
688.784	16050
688.794	16154
688.839	15808
688.884	15963
688.905	15969
688.930	15884
688.975	15615
689.020	15266
689.026	15259
689.065	15854
689.110	15460
689.146	16095
689.155	16178
689.201	16370
689.246	15893
689.267	15978
689.291	16265
689.336	16142
689.381	16298
689.388	16299
689.426	16355
689.471	16783
689.509	16863
689.516	16853
689.561	16232
689.606	16112
689.630	15853
689.651	15934
689.696	15877
689.741	16819
689.750	16899
689.785	16997
689.830	17020
689.871	16778
689.875	16758
689.920	16691
689.965	16736
689.992	16380
690.010	16279
690.054	15965
690.099	15979
690.112	16045
690.144	16313
690.189	16029
690.233	15924
690.233	15949
690.278	16482
690.323	17140
690.354	17106
690.367	17091
690.412	17592
690.457	17294
690.474	17212
690.501	16973
690.546	17124
690.590	17487
690.595	17404
690.635	16962
690.680	16323
690.716	16281
690.724	16385
690.769	17096
690.813	17258
690.836	17344
690.857	17518
690.902	17938
690.946	18287
690.957	18323
690.991	18935
691.035	19898
691.077	20715
691.080	20755
691.124	20801
691.168	20870
691.198	20698
691.213	20513
691.257	20303
691.301	19872
691.318	19678
691.346	19532
691.390	18886
691.434	18637
691.439	18557
691.478	18749
691.522	19541
691.559	19458
691.567	19482
691.611	19838
691.655	19984
691.680	20190
691.699	20219
691.743	19871
691.787	19865
691.800	19676
691.831	19805
691.875	20267
691.919	20837
691.921	20810
691.964	20939
692.008	21452
692.041	21066
692.052	20918
692.096	20832
692.139	20587
692.162	20425
692.183	20554
692.227	20577
692.271	21066
692.282	21014
692.315	20725
692.359	20300
692.402	20371
692.403	20417
692.447	20415
692.490	20863
692.523	20920
692.534	21060
692.578	21234
692.622	21403
692.643	21650
692.666	21585
692.709	21204
692.753	20679
692.763	20554
692.797	20745
692.840	21097
692.884	20898
692.884	20942
692.928	21041
692.971	21410
693.004	21209
693.015	21191
693.059	21262
693.102	21393
693.124	21467
693.146	21683
693.189	21536
693.233	21782
693.245	21778
693.276	21942
693.320	22110
693.363	22469
693.365	22416
693.407	22438
693.450	22583
693.485	22984
693.493	23082
693.537	22798
693.580	22576
693.605	22586
693.624	22897
693.667	23228
693.710	23594
693.725	23683
693.753	24833
693.797	26628
693.840	28580
693.845	28710
693.883	27735
693.926	26417
693.966	25422
693.970	25361
694.013	24518
694.056	23230
694.086	22038
694.099	22100
694.142	22401
694.185	23107
694.206	23312
694.229	23379
694.272	22944
694.315	23163
694.326	23021
694.358	23349
694.401	23972
694.444	24545
694.446	24524
694.487	25041
694.530	25204
694.566	25398
694.573	25234
694.616	24006
694.659	22445
694.686	21612
694.702	21733
694.745	21741
694.787	21502
694.806	21573
694.830	21976
694.873	22274
694.916	22590
694.926	22613
694.959	22767
695.002	22896
695.044	23003
695.046	22957
695.087	23379
695.130	23495
695.166	23573
695.172	23633
695.215	23617
695.258	23795
695.286	23878
695.301	23903
695.343	23610
695.386	23391
695.406	23235
695.428	23430
695.471	23619
695.514	23876
695.526	23871
695.556	24379
695.599	25115
695.641	25663
695.646	25679
695.684	25336
695.726	24748
695.766	24120
695.769	24203
695.811	24665
695.854	25040
695.886	25296
695.896	25323
695.938	25049
695.981	24759
696.005	24576
696.023	24856
696.065	25393
696.108	25987
696.125	26137
696.150	26214
696.192	26224
696.235	26211
696.245	26157
696.277	26192
696.319	26072
696.361	25916
696.365	25830
696.404	25631
696.446	25616
696.485	25428
696.488	25521
696.530	25754
696.572	26104
696.604	26271
696.614	26216
696.656	25596
696.698	25170
696.724	24699
696.740	25000
696.783	25789
696.825	26575
696.844	26835
696.867	26771
696.909	26523
696.951	26276
696.964	26135
696.992	26322
697.034	26450
697.076	26574
697.083	26530
697.118	26988
697.160	27415
697.202	27978
697.203	27914
697.244	27274
697.286	26712
697.323	25926
697.327	25981
697.369	26033
697.411	25927
697.442	25923
697.453	26250
697.494	27199
697.536	28179
697.562	28703
697.578	28663
697.620	28282
697.661	28027
697.682	27746
697.703	28364
697.744	29592
697.786	30765
697.801	31094
697.828	30926
697.869	30562
697.911	30165
697.921	29983
697.952	29494
697.994	28794
698.035	28068
698.040	27904
698.077	27419
698.118	26747
698.160	26041
698.160	25962
698.201	26757
698.243	27407
698.279	27974
698.284	28091
698.325	28445
698.367	28720
698.399	28918
698.408	28973
698.449	28782
698.491	28675
698.518	28500
698.532	28735
698.573	29198
698.614	29684
698.638	29871
698.656	29962
698.697	29993
698.738	30017
698.757	29937
698.779	30075
698.820	30188
698.862	30314
698.877	30274
698.903	30514
698.944	30758
698.985	31007
698.996	30991
699.026	30726
699.067	30239
699.116	29577
699.235	29245
699.354	29671
699.474	28282
699.593	30565
699.713	30311
699.832	29394
699.951	30811
700.070	28238
700.190	28091
700.309	28408
700.428	29009
700.547	28184
700.667	27946
700.786	29095
700.905	26739
701.024	28650
701.143	27432
701.262	25991
701.381	27081
701.500	28517
701.619	29921
701.738	26271
701.857	25609
701.976	25696
702.095	25413
702.214	28151
702.333	29058
702.452	26071
702.571	25448
702.690	24834
702.809	24713
702.928	24458
703.047	24439
703.165	23808
703.284	24552
703.403	23911
703.522	25889
703.640	25345
703.759	28913
703.878	31265
703.997	24061
704.115	23908
704.234	23358
704.353	22611
704.471	22788
704.590	21924
704.708	22524
704.827	21891
704.946	22312
705.064	23063
705.183	23187
705.301	25717
705.420	33412
705.538	29413
705.656	26919
705.775	24802
705.893	29462
706.012	28927
706.130	26463
706.249	27114
706.367	26954
706.485	27669
706.604	26902
706.722	26970
706.840	31723
706.958	28973
707.077	25534
707.195	24907
707.313	25221
707.431	23830
707.549	24626
707.668	23972
707.786	24706
707.904	24062
708.022	24435
708.140	23455
708.258	23962
708.376	23469
708.494	23593
708.612	25945
708.730	34747
708.848	31737
708.966	30369
709.084	28423
709.202	26794
709.320	28197
709.438	27902
709.556	28786
709.674	27620
709.791	28547
709.909	26876
710.027	26799
710.145	26499
710.263	27642
710.380	26534
710.498	25637
710.616	26269
710.733	25162
710.851	27376
710.969	27249
711.086	25586
711.204	25558
711.322	25614
711.439	24533
711.557	24890
711.674	23731
711.792	24697
711.909	22825
712.027	23357
712.144	22837
712.262	23827
712.379	25926
712.497	35466
712.614	33910
712.732	29550
712.849	29407
712.966	30639
713.084	35893
713.201	30677
713.318	29625
713.436	30179
713.553	28537
713.670	30020
713.787	31637
713.905	31485
714.022	29324
714.139	29672
714.256	33872
714.373	39810
714.490	59660
714.608	140562
714.725	562785
714.842	508852
714.959	50466
715.076	32287
715.193	28872
715.310	27754
715.427	24824
715.544	24581
715.661	25682
715.778	24676
715.895	27157
716.011	26442
716.128	25177
716.245	26645
716.362	29563
716.479	29034
716.596	24253
716.713	24349
716.829	23880
716.946	23402
717.063	22589
717.180	21988
717.296	22234
717.413	22820
717.530	23103
717.646	21796
717.763	21355
717.880	21486
717.996	21276
718.113	22981
718.229	21419
718.346	20314
718.462	21731
718.579	26638
718.695	42902
718.812	28924
718.928	26324
719.045	21117
719.161	20199
719.277	19888
719.394	20485
719.510	20569
719.626	21491
719.743	27696
719.859	31073
719.975	51273
720.092	179938
720.208	380166
720.324	46920
720.440	24109
720.557	24973
720.673	35658
720.789	38070
720.905	67498
721.021	27397
721.137	20499
721.253	18605
721.369	20087
721.486	21377
721.602	26401
721.718	18206
721.834	17024
721.950	18647
722.066	17376
722.181	17408
722.297	19785
722.413	17593
722.529	16822
722.645	16699
722.761	16831
722.877	17554
722.993	16005
723.108	19054
723.224	16694
723.340	16160
723.456	15143
723.571	16224
723.687	15705
723.803	15802
723.918	15920
724.034	16421
724.150	15062
724.265	16788
724.381	28825
724.497	31939
724.612	16162
724.728	14137
724.843	15170
724.959	15810
725.074	28418
725.190	29125
725.305	16354
725.421	15041
725.536	14298
725.651	14384
725.767	15230
725.882	13908
725.997	14145
726.113	13937
726.228	14269
726.343	14252
726.459	13176
726.574	13523
726.689	13908
726.804	12599
726.920	14128
727.035	14022
727.150	12786
727.265	13275
727.380	13895
727.495	13439
727.610	11663
727.725	12302
727.841	12532
727.956	13636
728.071	14851
728.186	13039
728.301	12503
728.416	13945
728.531	12603
728.645	11308
728.760	12625
728.875	13390
728.990	13247
729.105	12515
729.220	13506
729.335	13630
729.449	11299
729.564	11901
729.679	11663
729.794	11286
729.908	13035
730.023	11566
730.138	11436
730.253	12310
730.367	11717
730.482	11054
730.596	12301
730.711	12866
730.826	13453
730.940	12109
731.055	13984
731.169	11172
731.284	11556
731.398	12098
731.513	13087
731.627	13127
731.742	15018
731.856	15660
731.970	14252
732.085	16484
732.199	20675
732.313	30752
732.428	74884
732.542	234198
732.656	125530
732.771	24078
732.885	16807
732.999	16119
733.113	16361
733.227	15716
733.342	14625
733.456	13315
733.570	14412
733.684	13084
733.798	13767
733.912	13595
734.026	12771
734.140	12774
734.254	14352
734.368	19492
734.482	21911
734.596	12559
734.710	13041
734.824	12729
734.938	11438
735.052	13130
735.166	14014
735.280	13117
735.393	12545
735.507	12080
735.621	14107
735.735	21180
735.849	13184
735.962	11447
736.076	12946
736.190	12282
736.303	15052
736.417	16648
736.531	11529
736.644	12116
736.758	11265
736.872	10658
736.985	11635
737.099	11000
737.212	10359
737.326	10887
737.439	11579
737.553	10962
737.666	11447
737.780	9250
737.893	11081
738.007	10163
738.120	10558
738.233	9724
738.347	11294
738.460	10361
738.573	11680
738.687	11039
738.800	11723
738.913	13647
739.026	11445
739.140	10053
739.253	9645
739.366	10074
739.479	9483
739.592	9458
739.705	10111
739.818	10141
739.932	9615
740.045	9888
740.158	10312
740.271	9944
740.384	9383
740.497	9061
740.610	10842
740.723	9304
740.836	9773
740.949	10584
741.062	14264
741.174	11038
741.287	10474
741.400	9748
741.513	9674
741.626	9745
741.739	9252
741.851	9478
741.964	9866
742.077	9034
742.189	9961
742.302	10017
742.415	10251
742.527	9502
742.640	8097
742.753	8422
742.865	8633
742.978	8384
743.090	9530
743.203	9308
743.316	8562
743.428	8915
743.541	8996
743.653	7802
743.766	8524
743.878	8963
743.990	9568
744.103	9712
744.215	8762
744.327	9019
744.440	11075
744.552	16877
744.664	8893
744.777	7696
744.889	7341
745.001	8156
745.113	8478
745.226	7746
745.338	7817
745.450	8106
745.562	7098
745.674	8144
745.786	8030
745.898	7732
746.010	8152
746.122	8305
746.234	8205
746.347	7754
746.459	8076
746.570	6235
746.682	8337
746.794	8080
746.906	7445
747.018	7666
747.130	7198
747.242	7056
747.354	7484
747.466	7598
747.577	6704
747.689	7650
747.801	7313
747.913	6801
748.024	7166
748.136	6942
748.248	6730
748.359	7163
748.471	7504
748.583	6326
748.694	6987
748.806	7871
748.918	7997
749.029	7899
749.141	8665
749.252	7991
749.364	10300
749.475	18408
749.587	10812
749.698	6844
749.809	7254
749.921	6891
750.032	6244
750.144	6551
750.255	6137
750.366	6592
750.478	6776
750.589	7210
750.700	6995
750.811	6554
750.923	9964
751.034	19291
751.145	17282
751.256	6344
751.367	6041
751.479	6419
751.590	5558
751.701	6095
751.812	5865
751.923	5982
752.034	6587
752.145	6359
752.256	6138
752.367	5692
752.478	6128
752.589	6060
752.700	6268
752.811	6309
752.922	6065
753.032	6992
753.143	7801
753.254	5337
753.365	6426
753.476	5971
753.586	5344
753.697	6231
753.808	6644
753.919	5538
754.029	5282
754.140	5731
754.251	6038
754.361	5943
754.472	6238
754.582	5655
754.693	5902
754.804	6384
754.914	5529
755.025	5563
755.135	5176
755.246	6278
755.356	6063
755.466	5431
755.577	5918
755.687	5663
755.798	5362
755.908	5499
756.018	5413
756.129	5238
756.239	5099
756.349	5463
756.460	5617
756.570	6072
756.680	5336
756.790	6008
756.900	6257
757.011	5050
757.121	5205
757.231	5579
757.341	5426
757.451	4844
757.561	4496
757.671	5702
757.781	5302
757.891	5948
758.001	5688
758.111	6385
758.221	5361
758.331	8018
758.441	6912
758.551	10075
758.661	8766
758.771	6395
758.880	6353
758.990	6008
759.100	5787
759.210	5866
759.320	6201
759.429	5877
759.539	7039
759.649	6693
759.758	6534
759.868	6614
759.978	6531
760.087	6661
760.197	7522
760.307	7583
760.416	6440
760.526	5684
760.635	7425
760.745	7021
760.854	7977
760.964	7193
761.073	8464
761.182	7238
761.292	7234
761.401	6353
761.511	6320
761.620	5604
761.729	6389
761.839	5667
761.948	5977
762.057	5301
762.166	6399
762.276	4580
762.385	6396
762.494	5376
762.603	5138
762.712	6133
762.822	5797
762.931	5973
763.040	4662
763.149	5578
763.258	5341
763.367	4699
763.476	5861
763.585	4556
763.694	5581
763.803	5630
763.912	6080
764.021	6095
764.130	5972
764.238	6190
764.347	6163
764.456	5999
764.565	5976
764.674	5720
764.783	6417
764.891	5724
765.000	7064
765.109	6244
765.217	6075
765.326	8030
765.435	8747
765.543	9022
765.652	9248
765.761	9028
765.869	13199
765.978	17932
766.086	30718
766.195	59422
766.303	161954
766.412	510163
766.520	445908
766.629	88835
766.737	32002
766.846	19752
766.954	14514
767.062	13112
767.171	9770
767.279	9543
767.387	8006
767.496	7038
767.604	7497
767.712	6745
767.820	6327
767.928	7336
768.037	6954
768.145	6918
768.253	7309
768.361	6173
768.469	6958
768.577	5676
768.685	6232
768.793	7174
768.901	5628
769.009	7764
769.117	6855
769.225	8425
769.333	10057
769.441	14019
769.549	25086
769.657	55394
769.765	194234
769.873	462377
769.981	131162
770.088	27544
770.196	15385
770.304	11560
770.412	9707
770.519	9144
770.627	7613
770.735	7772
770.842	7868
770.950	7022
771.058	7585
771.165	7289
771.273	7820
771.380	6817
771.488	6875
771.595	7430
771.703	8107
771.810	7723
771.918	7041
772.025	7558
772.133	8451
772.240	7528
772.348	8262
772.455	8327
772.562	7738
772.670	7855
772.777	9195
772.884	7702
772.991	8051
773.099	7164
773.206	7850
773.313	8294
773.420	7493
773.528	7468
773.635	6870
773.742	7735
773.849	6228
773.956	7605
774.063	6662
774.170	7219
774.277	7641
774.384	6872
774.491	6764
774.598	7816
774.705	8082
774.812	9853
774.919	8594
775.026	8552
775.133	7474
775.239	6761
775.346	6402
775.453	6978
775.560	7062
775.667	7190
775.773	6685
775.880	7527
775.987	6844
776.093	6399
776.200	7500
776.307	5742
776.413	6791
776.520	6510
776.627	7298
776.733	6765
776.840	5571
776.946	8212
777.053	6220
777.159	6456
777.266	5154
777.372	7723
777.478	6845
777.585	6556
777.691	5662
777.798	6891
777.904	7699
778.010	8975
778.117	7689
778.223	6810
778.329	6322
778.435	5355
778.542	6499
778.648	6117
778.754	5842
778.860	5881
778.966	6082
779.072	6229
779.178	6237
779.284	5311
779.391	5657
779.497	5670
779.603	7172
779.708	5120
779.815	6313
779.920	10399
780.026	14211
780.132	5821
780.238	5845
780.344	5308
780.450	7120
780.556	5166
780.661	4823
780.767	6333
780.873	5641
780.979	5224
781.085	5399
781.190	4997
781.296	5329
781.402	4780
781.507	4374
781.613	4578
781.719	4766
781.824	5688
781.930	5347
782.035	5096
782.141	6081
782.246	4640
782.352	4823
782.457	5011
782.563	5012
782.668	4718
782.773	5033
782.879	4260
782.984	5047
783.090	6020
783.195	9299
783.300	6492
783.405	5136
783.511	4369
783.616	5167
783.721	4688
783.826	5513
783.932	4784
784.037	5372
784.142	4861
784.247	4929
784.352	4833
784.457	5183
784.562	5240
784.667	5087
784.772	4235
784.877	4036
784.982	5518
785.087	5138
785.192	4949
785.297	4461
785.402	5254
785.507	4629
785.611	4336
785.716	4684
785.821	3769
785.926	4375
786.031	4785
786.135	4408
786.240	4224
786.345	3466
786.450	3785
786.554	4757
786.659	3794
786.763	3534
786.868	4130
786.973	3980
787.077	4161
787.182	4218
787.286	4320
787.391	4507
787.495	4242
787.600	3649
787.704	3503
787.809	4636
787.913	3776
788.017	4186
788.122	4239
788.226	4271
788.330	2786
788.435	3833
788.539	4182
788.643	3711
788.747	3640
788.852	3879
788.956	3825
789.060	4511
789.164	4636
789.268	2990
789.372	3550
789.476	4312
789.580	3235
789.684	2390
789.788	4125
789.892	3689
789.996	3615
790.100	3384
790.204	3134
790.308	3809
790.412	3012
790.516	3593
790.620	2929
790.724	4600
790.828	4174
790.931	2801
791.035	4134
791.139	2601
791.242	3447
791.346	4349
791.450	3972
791.554	3605
791.657	2622
791.761	3788
791.864	4122
791.968	3870
792.072	3324
792.175	3538
792.279	3564
792.382	3875
792.486	3706
792.589	3460
792.693	4481
792.796	2759
792.899	4689
793.003	4090
793.106	2300
793.209	4126
793.313	5397
793.416	1997
793.519	5179
793.623	6625
793.726	8328
793.829	4102
793.932	3178
794.035	2716
794.138	4126
794.242	4512
794.345	4591
794.448	4768
794.551	7819
794.654	8565
794.757	7995
794.860	5490
794.963	3713
795.066	2643
795.169	3862
795.272	2003
795.375	4038
795.477	2251
795.580	3564
795.683	2343
795.786	3186
795.889	1938
795.991	4028
796.094	4245
796.197	3052
796.300	3644
796.402	3001
796.505	2554
796.608	2624
796.710	3256
796.813	3228
796.915	3500
797.018	3794
797.120	3103
797.223	1821
797.326	4218
797.428	3149
797.530	3090
797.633	2854
797.735	4641
797.838	5730
797.940	5665
798.042	2244
798.145	3022
798.247	3552
798.349	1935
798.452	3503
798.554	2848
798.656	1903
798.758	3640
798.860	2521
798.962	2617
799.065	1937
799.167	1440
799.269	3265
799.371	3221
799.473	3844
799.575	3764
799.677	3819
799.779	5767
799.881	5997
799.983	4934
800.085	3263
800.187	3387
800.289	1930
800.390	3088
800.492	3298
800.594	3173
800.696	2192
800.798	3972
800.899	2291
801.001	2415
801.103	2612
801.205	3202
801.306	2384
801.408	1803
801.509	1945
801.611	3164
801.713	2609
801.814	1463
801.916	2327
802.017	2137
802.119	1542
802.220	2577
802.322	1813
802.423	4242
802.525	2307
802.626	3423
802.727	3180
802.829	3611
802.930	817
803.031	3554
803.133	1925
803.234	2309
803.335	2145
803.436	2149
803.538	2754
803.639	1515
803.740	2632
803.841	1868
803.942	2955
804.043	3126
804.144	2424
804.245	2222
804.346	1670
804.447	2318
804.548	5047
804.649	5374
804.750	2187
804.851	1824
804.952	1817
805.053	2338
805.154	1163
805.255	3148
805.355	2077
805.456	1496
805.557	2262
805.658	1710
805.758	2640
805.859	3052
805.960	2062
806.061	1814
806.161	2101
806.262	2728
806.362	1323
806.463	1769
806.564	3173
806.664	2222
806.765	2316
806.865	2770
806.966	1956
807.066	1449
807.166	3080
807.267	3179
807.367	2178
807.468	2803
807.568	782
807.668	3043
807.769	1975
807.869	977
807.969	1441
808.069	1948
808.170	1985
808.270	2222
808.370	3208
808.470	4996
808.570	2528
808.670	2992
808.770	2146
808.870	2119
808.970	2644
809.070	1689
809.170	2027
809.271	3575
809.370	1597
809.470	2181
809.570	1792
809.670	1861
809.770	1932
809.870	2035
809.970	1835
810.070	1861
810.169	2423
810.269	519
810.369	1875
810.469	2093
810.568	1269
810.668	1321
810.768	1089
810.867	2356
810.967	1763
811.066	1955
811.166	1115
811.265	1721
811.365	2069
811.464	1401
811.564	2297
811.663	2054
811.763	868
811.862	1874
811.962	2500
812.061	1939
812.160	1265
812.260	1679
812.359	1785
812.458	1992
812.557	3461
812.657	3684
812.756	2639
812.855	2078
812.954	1183
813.053	1799
813.153	817
813.252	778
813.351	2492
813.450	1358
813.549	1527
813.648	2212
813.747	2051
813.846	2387
813.945	1454
814.044	2003
814.143	1929
814.242	2841
814.341	942
814.439	2659
814.538	2507
814.637	2179
814.736	1517
814.835	2329
814.933	1926
815.032	2661
815.131	2356
815.229	3744
815.328	4900
815.427	4217
815.525	3514
815.624	4357
815.722	2416
815.821	4284
815.919	4382
816.018	3426
816.116	4109
816.215	3736
816.313	3465
816.412	4593
816.510	4400
816.609	5894
816.707	5367
816.805	4331
816.904	3659
817.002	4756
817.100	4644
817.198	5634
817.296	4468
817.395	5240
817.493	5454
817.591	4181
817.689	6631
817.787	7703
817.885	10378
817.983	16532
818.081	33120
818.179	79196
818.277	214634
818.375	160632
818.473	33332
818.571	14900
818.669	11425
818.767	9985
818.865	10485
818.963	11585
819.061	16696
819.158	28865
819.256	62422
819.354	154291
819.452	358339
819.549	195370
819.647	43925
819.745	18685
819.842	12806
819.940	9705
820.038	7160
820.135	6925
820.233	6544
820.330	5614
820.428	4597
820.525	5688
820.623	4383
820.720	4768
820.818	4814
820.915	4839
821.012	3696
821.110	2728
821.207	4876
821.304	3392
821.402	3554
821.499	4797
821.596	3661
821.693	4188
821.791	3937
821.888	5280
821.985	10853
822.082	7560
822.179	4178
822.276	2859
822.373	3040
822.470	3580
822.567	3937
822.664	2808
822.761	3338
822.858	2599
822.955	2387
823.052	3914
823.149	2593
823.246	3702
823.343	2660
823.440	3092
823.536	2333
823.633	3429
823.730	2858
823.827	3132
823.923	3105
824.020	2351
824.117	2852
824.213	2533
824.310	2433
824.407	2600
824.503	2781
824.600	2944
824.696	2271
824.793	4004
824.889	2623
824.986	2226
825.082	2564
825.179	3010
825.275	1733
825.371	3065
825.468	2395
825.564	1289
825.660	2864
825.757	2201
825.853	2565
825.949	2253
826.045	2215
826.142	2591
826.238	2857
826.334	2572
826.430	1367
826.526	2606
826.622	1409
826.718	2777
826.814	1768
826.910	3659
827.006	1234
827.102	2131
827.198	2877
827.294	2163
827.390	2752
827.486	3067
827.582	784
827.678	1806
827.774	2832
827.869	1470
827.965	2937
828.061	1363
828.157	2593
828.252	3284
828.348	1301
828.444	2315
828.539	2723
828.635	2533
828.731	3338
828.826	2118
828.922	3539
829.017	2826
829.113	2456
829.208	2435
829.304	1511
829.399	3743
829.495	1508
829.590	2264
829.685	1700
829.781	1494
829.876	1814
829.971	1672
830.066	2104
830.162	2519
830.257	2618
830.352	2109
830.447	2585
830.543	2212
830.638	1160
830.733	3624
830.828	2314
830.923	1907
831.018	2439
831.113	2688
831.208	1565
831.303	1202
831.398	1298
831.493	1885
831.588	1920
831.683	679
831.778	1696
831.873	1828
831.967	2907
832.062	1898
832.157	927
832.252	2641
832.346	1763
832.441	3291
832.536	3623
832.631	10396
832.725	8342
832.820	2301
832.914	2067
833.009	1333
833.104	2284
833.198	3096
833.293	1395
833.387	2397
833.482	1719
833.576	1476
833.670	1571
833.765	1331
833.859	1780
833.954	2944
834.048	1561
834.142	1396
834.237	1290
834.331	538
834.425	2156
834.519	978
834.613	1635
834.708	1151
834.802	924
834.896	40
834.990	1756
835.084	2491
835.178	1320
835.272	1765
835.366	1791
835.460	2463
835.554	1564
835.648	2143
835.742	333
835.836	1462
835.930	-63
836.024	2505
836.117	3017
836.211	1828
836.305	2259
836.399	2881
836.493	913
836.586	1640
836.680	856
836.774	1151
836.867	1603
836.961	713
837.055	858
837.148	1217
837.242	1005
837.335	1895
837.429	1623
837.522	1035
837.616	1920
837.709	3558
837.803	2735
837.896	1916
837.989	1391
838.083	2798
838.176	4274
838.269	4289
838.363	2465
838.456	1676
838.549	3376
838.642	5423
838.735	11726
838.829	5000
838.922	1048
839.015	1761
839.108	1314
839.201	2270
839.294	1619
839.387	2425
839.480	1711
839.573	1840
839.666	2758
839.759	1215
839.852	961
839.945	1288
840.038	1016
840.131	1191
840.223	993
840.316	2068
840.409	1000
840.502	1648
840.594	2568
840.687	796
840.780	1313
840.873	840
840.965	1630
841.058	2435
841.150	4325
841.243	3188
841.336	1677
841.428	1159
841.521	722
841.613	1709
841.706	1492
841.798	1698
841.890	1242
841.983	420
842.075	1318
842.167	802
842.260	1398
842.352	2290
842.444	2376
842.537	4809
842.629	6425
842.721	2134
842.813	1242
842.905	1122
842.997	1645
843.090	1374
843.182	3360
843.274	4696
843.366	10191
843.458	19278
843.550	12073
843.642	1916
843.734	1340
843.826	2808
843.918	1980
844.009	1690
844.101	1427
844.193	1400
844.285	1001
844.377	1438
844.469	847
844.560	435
844.652	1012
844.744	1878
844.835	926
844.927	1535
845.019	2670
845.110	1760
845.202	1735
845.293	837
845.385	618
845.476	1622
845.568	1074
845.659	1613
845.751	965
845.842	613
845.934	817
846.025	1012
846.116	644
846.208	1558
846.299	476
846.390	1321
846.482	1070
846.573	2614
846.664	1931
846.755	4183
846.846	2938
846.937	657
847.029	1121
847.120	914
847.211	521
847.302	2489
847.393	-143
847.484	959
847.575	38
847.666	379
847.757	328
847.847	1619
847.938	1429
848.029	1173
848.120	506
848.211	973
848.302	361
848.392	525
848.483	1425
848.574	1020
848.664	1035
848.755	929
848.846	959
848.936	1094
849.027	1205
849.118	542
849.208	833
849.299	1952
849.389	2898
849.480	7214
849.570	14060
849.661	24926
849.751	44346
849.841	14731
849.932	2277
850.022	1195
850.112	760
850.203	1478
850.293	1375
850.383	1347
850.474	273
850.564	315
850.654	287
850.744	730
850.834	496
850.924	1041
851.014	413
851.104	879
851.194	1242
851.284	2843
851.374	2533
851.464	1665
851.554	1045
851.644	1428
851.734	2939
851.824	1075
851.914	-162
852.004	1315
852.094	448
852.183	1705
852.273	1319
852.363	1169
852.452	918
852.542	444
852.632	91
852.721	653
852.811	372
852.901	1876
852.990	1206
853.080	2123
853.169	1410
853.259	1872
853.348	1625
853.438	1989
853.527	2855
853.617	3607
853.706	7671
853.795	14254
853.885	33545
853.974	63388
854.063	116652
854.152	182387
854.242	65555
854.331	10995
854.420	4584
854.509	3333
854.598	3679
854.687	2467
854.777	2275
854.866	1663
854.955	1946
855.044	1219
855.133	965
855.222	640
855.311	919
855.400	1795
855.488	694
855.577	658
855.666	339
855.755	1713
855.844	1153
855.933	843
856.021	1129
856.110	1184
856.199	150
856.288	531
856.376	62
856.465	690
856.554	985
856.642	317
856.731	583
856.819	770
856.908	334
856.996	524
857.085	13
857.173	900
857.262	471
857.350	316
857.438	871
857.527	877
857.615	217
857.703	1301
857.792	1300
857.880	500
857.968	741
858.056	385
858.145	1504
858.233	468
858.321	609
858.409	1968
858.497	545
858.585	841
858.673	1306
858.761	625
858.849	840
858.937	143
859.025	822
859.113	1628
859.201	664
859.289	1321
859.377	398
859.465	792
859.552	794
859.640	802
859.728	1156
859.816	327
859.903	1463
859.991	559
860.079	845
860.166	769
860.254	151
860.342	884
860.429	1138
860.517	644
860.604	1321
860.692	1142
860.779	-50
860.867	1035
860.954	1294
861.042	1648
861.129	992
861.216	1449
861.304	1143
861.391	1452
861.478	1274
861.565	902
861.653	1917
861.740	437
861.827	-150
861.914	1401
862.001	931
862.089	1002
862.176	347
862.263	603
862.350	884
862.437	591
862.524	400
862.611	1168
862.698	665
862.785	978
862.871	625
862.958	930
863.045	482
863.132	593
863.219	800
863.306	76
863.392	1390
863.479	553
863.566	682
863.652	1157
863.739	109
863.826	726
863.912	415
863.999	522
864.086	1115
864.172	1080
864.259	705
864.345	536
864.432	980
864.518	40
864.604	337
864.691	824
864.777	1234
864.863	2113
864.950	2187
865.036	2516
865.122	3905
865.209	4664
865.295	3688
865.381	3671
865.467	3741
865.553	4913
865.639	5337
865.726	9234
865.812	19243
865.898	35841
865.984	52892
866.070	99651
866.156	104506
866.242	26865
866.328	7225
866.414	3421
866.499	4456
866.585	3432
866.671	2867
866.757	2940
866.843	3564
866.928	4318
867.014	2725
867.100	3703
867.186	2879
867.271	3408
867.357	3492
867.442	4167
867.528	2799
867.614	2491
867.699	2493
867.785	2904
867.870	2657
867.956	2912
868.041	2610
868.127	3695
868.212	3157
868.297	3247
868.383	2798
868.468	3973
868.553	6385
868.639	7674
868.724	14053
868.809	12997
868.894	3410
868.979	2485
869.065	2950
869.150	1813
869.235	2146
869.320	2268
869.405	1246
869.490	2239
869.575	1575
869.660	2233
869.745	2605
869.830	2185
869.915	1075
870.000	2400
870.085	1446
870.169	2623
870.254	1840
870.339	1004
870.424	1671
870.509	1972
870.593	2309
870.678	2398
870.763	1337
870.847	1198
870.932	1752
871.016	2263
871.101	840
871.186	1056
871.270	2268
871.355	1001
871.439	2006
871.523	1857
871.608	947
871.692	1286
871.777	1405
871.861	2711
871.945	1318
872.030	2138
872.114	2149
872.198	1462
872.282	1121
872.367	1234
872.451	1444
872.535	1687
872.619	1456
872.703	1315
872.787	1441
872.871	1882
872.955	1007
873.039	850
873.123	1370
873.207	2479
873.291	677
873.375	517
873.459	2057
873.543	784
873.627	537
873.711	1304
873.794	1875
873.878	1015
873.962	1723
874.045	856
874.129	680
874.137	715
874.213	1061
874.245	1101
874.296	1175
874.352	1127
874.380	1097
874.460	1177
874.464	1180
874.547	549
874.568	825
874.631	1652
874.676	1823
874.714	1951
874.784	1785
874.798	1752
874.881	1480
874.892	1385
874.965	802
874.999	1144
875.048	1567
875.107	1321
875.131	1233
875.215	839
875.215	839
875.298	941
875.323	930
875.381	903
875.430	1506
875.465	1933
875.538	1501
875.548	1445
875.631	1052
875.646	899
875.714	81
875.753	-101
875.798	-215
875.861	982
875.881	1320
875.964	1564
875.968	1551
876.047	1437
876.076	1362
876.130	1089
876.183	1327
876.213	1531
876.291	1719
876.296	1729
876.379	753
876.398	769
876.462	800
876.506	584
876.545	353
876.613	584
876.628	671
876.711	779
876.721	793
876.794	793
876.828	931
876.877	1113
876.935	720
876.960	541
877.043	1152
877.043	1152
877.125	1159
877.150	1125
877.208	1012
877.258	724
877.291	604
877.365	845
877.374	844
877.456	810
877.472	781
877.539	859
877.579	1000
877.622	977
877.687	791
877.704	809
877.787	446
877.794	457
877.869	489
877.901	611
877.952	669
878.008	343
878.034	308
878.115	577
878.117	579
878.199	692
878.222	797
878.282	900
878.329	659
878.364	712
878.437	771
878.447	744
878.529	-377
878.544	-161
878.611	668
878.651	722
878.694	888
878.758	741
878.776	730
878.858	1153
878.865	1145
878.941	694
878.972	801
879.023	1129
879.078	760
879.105	596
879.185	971
879.187	973
879.269	710
879.292	587
879.351	583
879.399	546
879.433	416
879.506	938
879.516	989
879.598	398
879.613	452
879.680	871
879.720	928
879.762	970
879.827	704
879.844	609
879.926	807
879.933	843
880.007	1091
880.040	871
880.089	717
880.147	1894
880.171	2392
880.253	4264
880.254	4281
880.335	6274
880.360	6699
880.417	8100
880.467	12662
880.499	15452
880.574	16058
880.580	15894
880.662	4601
880.680	3547
880.744	943
880.787	832
880.825	769
880.893	271
880.907	197
880.989	224
881.000	284
881.070	1071
881.106	1072
881.152	820
881.213	502
881.233	343
881.315	865
881.319	844
881.396	918
881.426	938
881.478	621
881.532	553
881.559	703
881.639	664
881.641	651
881.722	396
881.745	286
881.803	527
881.852	571
881.885	276
881.958	727
881.966	792
882.047	715
882.064	785
882.129	1627
882.171	1807
882.210	1836
882.277	2855
882.291	2926
882.372	1031
882.383	935
882.454	990
882.489	926
882.535	722
882.596	1035
882.616	1114
882.697	686
882.702	693
882.778	940
882.808	822
882.859	342
882.914	309
882.940	412
883.020	247
883.021	245
883.102	347
883.127	302
883.183	26
883.233	220
883.264	553
883.339	287
883.345	216
883.426	-54
883.445	-126
883.507	320
883.551	783
883.587	795
883.657	459
883.668	499
883.749	1180
883.763	1151
883.830	413
883.869	306
883.910	475
883.975	687
883.991	644
884.072	549
884.081	534
884.152	688
884.187	556
884.233	400
884.292	520
884.314	644
884.394	876
884.398	872
884.475	-295
884.504	-365
884.555	271
884.610	347
884.636	212
884.716	209
884.716	211
884.797	649
884.821	565
884.877	307
884.927	373
884.958	382
885.033	476
885.038	465
885.118	199
885.139	88
885.199	-29
885.244	64
885.279	304
885.350	747
885.359	704
885.439	163
885.456	-3
885.520	135
885.561	370
885.600	326
885.667	353
885.680	328
885.760	275
885.773	204
885.840	215
885.878	251
885.920	228
885.984	408
886.000	481
886.080	580
886.089	615
886.160	455
886.195	239
886.240	318
886.300	745
886.320	719
886.400	453
886.406	432
886.480	824
886.511	954
886.560	584
886.616	129
886.640	64
886.720	166
886.722	163
886.800	-130
886.827	-137
886.879	49
886.932	90
886.959	289
887.038	961
887.039	958
887.119	458
887.143	303
887.198	157
887.248	21
887.278	157
887.354	580
887.358	554
887.437	-91
887.459	-239
887.517	522
887.564	1058
887.596	758
887.669	28
887.676	33
887.755	211
887.774	224
887.835	579
887.880	967
887.914	723
887.985	152
887.994	206
888.073	607
888.090	705
888.153	94
888.195	-357
888.232	-316
888.300	-135
888.311	-95
888.391	97
888.405	141
888.470	343
888.510	464
888.549	231
888.615	-79
888.628	-20
888.708	270
888.720	312
888.787	315
888.825	347
888.866	257
888.930	76
888.945	139
889.024	554
889.035	601
889.103	281
889.140	125
889.182	310
889.245	606
889.261	576
889.340	397
889.349	379
889.419	334
889.454	304
889.498	303
889.559	332
889.577	387
889.656	619
889.664	644
889.735	427
889.768	328
889.814	331
889.873	337
889.978	434
890.083	405
890.187	603
890.292	145
890.397	291
890.501	683
890.606	-738
890.710	85
890.815	350
890.919	479
891.024	182
891.128	305
891.233	-712
891.337	551
891.442	-194
891.546	-629
891.650	217
891.755	381
891.859	983
891.963	328
892.068	-127
892.172	270
892.276	-320
892.380	-214
892.484	73
892.589	143
892.693	-571
892.797	-338
892.901	316
893.005	24
893.109	-252
893.213	-305
893.317	608
893.421	363
893.525	-268
893.629	155
893.733	-252
893.837	-145
893.941	201
894.045	1155
894.148	-265
894.252	-157
894.356	59
894.460	597
894.564	-415
894.667	-395
894.771	-626
894.875	-635
894.978	46
895.082	423
895.186	136
895.289	1141
895.393	-281
895.496	951
895.600	-317
895.703	917
895.807	114
895.910	13
896.014	-402
896.117	173
896.221	-73
896.324	35
896.427	-3
896.531	274
896.634	-63
896.737	814
896.840	-573
896.944	858
897.047	558
897.150	-346
897.253	162
897.356	347
897.460	-368
897.563	49
897.666	-385
897.769	113
897.872	525
897.975	-122
898.078	-772
898.181	428
898.284	142
898.387	-171
898.490	29
898.593	789
898.695	199
898.798	591
898.901	271
899.004	121
899.107	-462
899.209	85
899.312	-329
899.415	1193
899.518	-87
899.620	285
899.723	-741
899.826	991
899.928	969
900.031	427
900.133	-47
900.236	105
900.338	-842
900.441	145
900.543	27
900.646	379
900.748	-870
900.851	557
900.953	219
901.055	154
901.158	337
901.260	-86
901.362	410
901.465	344
901.567	-179
901.669	201
901.771	51
901.873	844
901.976	-175
902.078	282
902.180	-407
902.282	-74
902.384	-59
902.486	82
902.588	-830
902.690	-86
902.792	57
902.894	879
902.996	-746
903.098	-186
903.200	-359
903.302	616
903.404	-321
903.505	-279
903.607	93
903.709	355
903.811	-462
903.913	763
904.014	-84
904.116	-233
904.218	-159
904.319	327
904.421	124
904.523	-365
904.624	-106
904.726	843
904.827	-151
904.929	-159
905.030	-24
905.132	345
905.233	263
905.335	207
905.436	703
905.537	-56
905.639	-136
905.740	450
905.841	-10
905.943	214
906.044	-340
906.145	260
906.247	-90
906.348	191
906.449	-127
906.550	921
906.651	-642
906.752	398
906.854	-398
906.955	441
907.056	5
907.157	725
907.258	-378
907.359	30
907.460	397
907.561	1041
907.662	-255
907.762	217
907.863	-298
907.964	-211
908.065	-957
908.166	-58
908.267	759
908.367	-208
908.468	-391
908.569	359
908.670	-108
908.770	619
908.871	-292
908.971	-137
909.072	-500
909.173	293
909.273	-842
909.374	281
909.474	-390
909.575	-27
909.675	-733
909.776	-155
909.876	-916
909.977	-930
910.077	-690
910.177	-8
910.278	-149
910.378	-392
910.478	45
910.579	267
910.679	-710
910.779	-260
910.879	113
910.980	420
911.080	-172
911.180	-599
911.280	-206
911.380	-371
911.480	-644
911.580	-893
911.680	-394
911.780	25
911.880	193
911.980	-459
912.080	42
912.180	761
912.280	-418
912.380	-518
912.480	-598
912.580	280
912.679	-678
912.779	-620
912.879	-673
912.979	-365
913.078	-445
913.178	162
913.278	-665
913.377	-268
913.477	-461
913.577	-313
913.676	886
913.776	-135
913.875	-200
913.975	653
914.074	-51
914.174	-543
914.273	-938
914.373	-106
914.472	-92
914.572	-310
914.671	-342
914.770	-670
914.870	-353
914.969	-136
915.068	-370
915.167	265
915.267	-628
915.366	49
915.465	-187
915.564	143
915.663	-506
915.763	148
915.862	321
915.961	-510
916.060	-344
916.159	-365
916.258	-1135
916.357	55
916.456	-518
916.555	-15
916.654	-444
916.752	36
916.851	-797
916.950	-94
917.049	-642
917.148	674
917.247	-387
917.345	-182
917.444	-379
917.543	-143
917.642	629
917.740	-69
917.839	464
917.937	83
918.036	-17
918.135	-26
918.233	-315
918.332	140
918.430	214
918.529	293
918.627	-648
918.726	-64
918.824	-730
918.923	68
919.021	-257
919.119	-374
919.218	-363
919.316	159
919.414	-800
919.512	420
919.611	-924
919.709	512
919.807	-154
919.905	92
920.003	-620
920.102	478
920.200	-857
920.298	-744
920.396	-383
920.494	-457
920.592	-453
920.690	-968
920.788	-725
920.886	552
920.984	282
921.082	-894
921.180	88
921.277	94
921.375	-50
921.473	856
921.571	-333
921.669	447
921.766	-492
921.864	436
921.962	281
922.060	752
922.157	-455
922.255	724
922.352	-678
922.450	538
922.548	282
922.645	84
922.743	234
922.840	1155
922.938	929
923.035	523
923.133	1307
923.230	1325
923.327	1585
923.425	1096
923.522	691
923.619	1772
923.717	-272
923.814	495
923.911	591
924.008	1055
924.106	-31
924.203	750
924.300	484
924.397	909
924.494	1033
924.591	971
924.688	279
924.786	504
924.883	695
924.979	553
925.077	762
925.173	1255
925.270	1021
925.367	1084
925.464	305
925.561	1391
925.658	857
925.755	785
925.852	749
925.948	1048
926.045	834
926.142	729
926.239	-17
926.335	349
926.432	1324
926.529	900
926.625	1334
926.722	193
926.818	261
926.915	231
927.011	1023
927.108	654
927.204	745
927.301	1292
927.397	895
927.494	990
927.590	77
927.687	30
927.783	638
927.879	562
927.976	753
928.072	1013
928.168	-16
928.264	188
928.361	602
928.457	1541
928.553	1196
928.649	547
928.745	730
928.841	281
928.937	-264
929.033	1071
929.129	457
929.225	247
929.321	-231
929.417	287
929.513	180
929.609	775
929.705	240
929.801	1319
929.897	-977
929.993	101
930.089	48
930.184	1139
930.280	849
930.376	787
930.471	932
930.567	175
930.663	321
930.758	143
930.854	442
930.950	279
931.045	684
931.141	979
931.236	427
931.332	1065
931.427	-307
931.523	216
931.618	836
931.714	-172
931.809	-44
931.905	393
932.000	-373
932.095	145
932.191	-50
932.286	924
932.381	97
932.476	139
932.572	324
932.667	688
932.762	215
932.857	911
932.952	-256
933.047	668
933.142	-256
933.237	13
933.332	-109
933.427	873
933.522	-445
933.617	461
933.712	108
933.807	517
933.902	-115
933.997	535
934.092	202
934.187	-233
934.282	-30
934.376	451
934.471	893
934.566	-57
934.661	-263
934.755	597
934.850	-323
934.945	115
935.039	-311
935.134	35
935.228	264
935.323	269
935.417	718
935.512	-149
935.606	149
935.701	-140
935.795	-262
935.890	470
935.984	277
936.079	85
936.173	-658
936.267	46
936.362	-242
936.456	231
936.550	845
936.644	-221
936.738	-533
936.833	406
936.927	-61
937.021	270
937.115	-269
937.209	-116
937.303	518
937.397	196
937.491	-418
937.585	165
937.679	-75
937.773	444
937.867	-284
937.961	155
938.055	140
938.149	611
938.243	-387
938.337	167
938.430	-574
938.524	1027
938.618	-882
938.712	691
938.805	-377
938.899	45
938.993	-547
939.086	-139
939.180	-318
939.274	83
939.367	-365
939.461	169
939.554	-431
939.648	-405
939.741	122
939.835	-58
939.928	136
940.022	472
940.115	-633
940.208	313
940.302	-201
940.395	997
940.488	-1022
940.582	828
940.675	-494
940.768	-1
940.861	-495
940.954	599
941.048	-1089
941.141	512
941.234	-754
941.327	266
941.420	577
941.513	51
941.606	19
941.699	1120
941.792	-910
941.885	627
941.978	96
942.071	208
942.164	-222
942.257	-237
942.349	438
942.442	56
942.535	-302
942.628	451
942.721	414
942.813	-759
942.906	434
942.999	-475
943.091	-171
943.184	-181
943.277	-506
943.369	-1287
943.462	-784
943.554	345
943.647	-952
943.739	473
943.832	-304
943.924	-1018
944.017	-41
944.109	-60
944.201	74
944.294	-499
944.386	-419
944.478	-414
944.571	128
944.663	-221
944.755	-79
944.847	-713
944.940	134
945.032	-783
945.124	-511
945.216	151
945.308	-538
945.400	-34
945.492	-598
945.584	-161
945.676	-230
945.768	-331
945.860	-278
945.952	-22
946.044	-237
946.136	108
946.228	-1111
946.320	-800
946.412	212
946.503	398
946.595	86
946.687	40
946.779	-1096
946.870	-163
946.962	-830
947.054	188
947.145	237
947.237	-1107
947.329	-858
947.420	-541
947.512	-758
947.603	-271
947.695	-921
947.786	-783
947.878	-1098
947.969	-132
948.061	-695
948.152	-12
948.243	-464
948.335	-207
948.426	-1265
948.517	-583
948.609	-315
948.700	-16
948.791	-469
948.882	165
948.973	-1173
949.065	-76
949.156	-961
949.247	-593
949.338	-593
949.429	-966
949.520	-1262
949.611	-509
949.702	35
949.793	-469
949.884	-372
949.975	-435
950.066	-623
950.157	40
950.247	5
950.338	0
950.429	-486
950.520	-953
950.611	-857
950.701	-831
950.792	-353
950.883	578
950.973	-690
951.064	-425
951.155	-439
951.245	520
951.336	-330
951.427	-737
951.517	396
951.608	-428
951.698	-608
951.788	-211
951.879	-484
951.969	-914
952.060	-837
952.150	-450
952.240	277
952.331	-1091
952.421	-627
952.511	-404
952.602	-612
952.692	-547
952.782	-167
952.872	-571
952.962	-140
953.052	-278
953.143	-1340
953.233	-584
953.323	-290
953.413	-756
953.503	-955
953.593	-80
953.683	-1370
953.773	-555
953.863	-435
953.953	-718
954.042	-825
954.132	-346
954.222	-254
954.312	-762
954.402	-1320
954.492	-187
954.581	-642
954.671	-2
954.761	-1422
954.850	21
954.940	-702
955.030	-91
955.119	-530
955.209	-592
955.298	-793
955.388	-656
955.477	-74
955.567	-1472
955.656	19
955.746	-810
955.835	-1160
955.925	-280
956.014	-285
956.103	-1031
956.193	-1107
956.282	-159
956.371	-341
956.461	-609
956.550	-1015
956.639	-514
956.728	-1296
956.817	-215
956.906	-1507
956.995	-307
957.085	-690
957.174	-1294
957.263	-881
957.352	-776
957.441	-703
957.530	-641
957.619	-218
957.708	-648
957.796	-1175
957.885	-679
957.974	-972
958.063	-217
958.152	-1778
958.241	-832
958.329	-1183
958.418	-444
958.507	-885
958.596	-39
958.684	-1264
958.773	70
958.861	-1552
958.950	-415
959.039	-560
959.127	-49
959.216	-301
959.304	-576
959.393	-132
959.481	-182
959.570	-809
959.658	-1673
959.746	-1185
959.835	9
959.923	-343
960.011	-340
960.100	-134
960.188	-648
960.276	-1275
960.365	-726
960.453	-844
960.541	-1052
960.629	-173
960.717	-655
960.805	-918
960.893	-707
960.981	-1433
961.069	-197
961.158	-559
961.245	-400
961.333	-246
961.421	-671
961.509	-560
961.597	-85
961.685	-998
961.773	-716
961.861	-1183
961.949	1059
962.036	-1252
962.124	-577
962.212	-912
962.299	-520
962.387	-1419
962.475	-1407
962.562	-1528
962.650	-411
962.738	-325
962.825	-1150
962.913	-1343
963.000	-863
963.088	-1305
963.175	-535
963.263	-1026
963.350	-778
963.438	-1361
963.525	-1157
963.612	-896
963.700	330
963.787	961
963.874	-569
963.962	-703
964.049	-768
964.136	-300
964.223	-1260
964.310	-1585
964.398	-159
964.485	-1127
964.572	-1156
964.659	-297
964.746	-894
964.833	-1257
964.920	-1212
965.007	-1282
965.094	-1006
965.181	-384
965.268	237
965.355	-845
965.441	-917
965.528	-1957
965.615	75
965.702	-991
965.789	-1443
965.875	-1140
965.962	19
966.049	-1566
966.136	-231
966.222	-1968
966.309	-223
966.395	-2106
966.482	-99
966.569	-1345
966.655	-947
966.742	-1122
966.828	-681
966.915	-1455
967.001	-453
967.087	-1783
967.174	-1225
967.260	-1408
967.347	-1059
967.433	-807
967.519	-156
967.605	-909
967.692	-582
967.778	-1186
967.864	-1024
967.950	-1122
968.036	-2399
968.123	-692
968.209	-695
968.295	-2060
968.381	701
968.467	-1047
968.553	-1859
968.639	-740
968.725	-908
968.811	-837
968.897	-961
968.983	-1145
969.069	-1082
969.154	-256
969.240	-324
969.326	-1035
969.412	-660
969.497	-2149
969.583	-1421
969.669	-601
969.755	-727
969.840	-1337
969.926	109
970.012	-1687
970.097	-401
970.183	-622
970.268	-911
970.354	-1331
970.439	-2215
970.525	168
970.610	-1453
970.696	-505
970.781	-1203
970.866	-1248
970.952	-317
971.037	-1498
971.122	-1027
971.208	-924
971.293	-1128
971.378	-2794
971.463	-954
971.549	-880
971.634	-1166
971.719	-1217
971.804	-1216
971.889	-29
971.974	-1484
972.059	-1140
972.144	-638
972.229	-1287
972.314	-1021
972.399	-1016
972.484	-1324
972.569	-597
972.654	-1863
972.739	-416
972.824	-894
972.908	-1944
972.993	-1393
973.078	-1278
973.163	-716
973.247	-1254
973.332	-2382
973.417	-163
973.501	-1668
973.586	-1358
973.671	-510
973.755	-1700
973.840	-565
973.924	-627
974.009	-1259
974.093	-1820
974.178	383
974.262	-1289
974.346	-1049
974.431	-1357
974.515	-1189
974.600	-1183
974.684	-41
974.768	-1660
974.852	-655
974.937	-1809
975.021	-740
975.105	-1292
975.189	-1406
975.273	-556
975.358	-820
975.442	-2099
975.526	-379
975.610	-2117
975.694	-1681
975.778	-6
975.862	-1677
975.946	-3252
976.030	390
976.114	-1667
976.198	-863
976.281	-1783
976.365	-730
976.449	-1269
976.533	-724
976.617	-2082
976.700	-1312
976.784	-1133
976.868	-1984
976.951	-1694
977.035	-981
977.119	-1295
977.202	-784
977.286	-1094
977.369	-703
977.453	-1508
977.536	-770
977.620	-974
977.703	-1370
977.787	-2260
977.870	-818
977.953	-239
978.037	-2301
978.120	-546
978.203	-1741
978.287	-1203
978.370	-1841
978.453	-1675
978.536	-877
978.620	-430
978.703	-1640
978.786	-1245
978.869	-1754
978.952	-1876
979.035	-512
979.118	-726
979.201	-1442
979.284	-1383
979.367	-2148
979.450	-1366
979.533	-1242
979.616	-1597
979.699	-160
979.782	-1984
979.865	-285
979.948	-1179
980.030	-1688
980.113	-2099
980.196	-1607
980.279	-1369
980.361	-542
980.444	-1550
980.526	-563
980.609	-1055
980.692	-1612
980.774	-215
980.857	-3037
980.939	-445
981.022	-998
981.104	-1596
981.187	-1812
981.269	-1209
981.352	-871
981.434	-1960
981.516	-1326
981.599	-857
981.681	-1324
981.763	-1994
981.846	-986
981.928	-965
982.010	-1130
982.092	-1630
982.174	-1051
982.256	-1992
982.339	-1744
982.421	-1492
982.503	-1334
982.585	-1731
982.667	-740
982.749	-1756
982.831	-1067
982.913	-2326
982.995	-421
983.077	-1572
983.158	-91
983.240	-2487
983.322	-543
983.404	-869
983.486	-1316
983.568	-1525
983.649	-1159
983.731	-1104
983.813	-1386
983.894	-1679
983.976	-2144
984.058	-1775
984.139	-342
984.221	-1612
984.302	-48
984.384	-1164
984.465	-1072
984.547	-1355
984.628	-2366
984.710	-1617
984.791	-1723
984.872	-1530
984.954	-485
985.035	-681
985.116	-1279
985.198	-1523
985.279	3
985.360	-1841
985.441	-1526
985.522	-841
985.604	-983
985.685	-2567
985.766	-378
985.847	-22
985.928	-1253
986.009	-1397
986.090	-1971
986.171	-185
986.252	-2552
986.333	-1060
986.414	-1114
986.495	-500
986.576	-688
986.656	-2049
986.737	-1040
986.818	-825
986.899	-1063
986.980	-819
987.060	-754
987.141	-1773
987.222	-339
987.302	-1229
987.383	-672
987.464	-1232
987.544	-245
987.625	-1304
987.705	-660
987.786	-770
987.866	-1491
987.947	-1327
988.027	-167
988.108	-1606
988.188	-335
988.268	-1159
988.349	-274
988.429	-1252
988.509	-868
988.589	-1572
988.670	-2502
988.750	-884
988.830	-1453
988.910	-1453
988.990	-1572
989.070	-1062
989.151	-901
989.231	-2348
989.311	-552
989.391	-555
989.471	-1044
989.551	-1576
989.631	-1333
989.711	-974
989.791	-1399
989.870	-2560
989.950	-322
990.030	-1451
990.110	-1614
990.190	-2020
990.269	-1537
990.349	-1193
990.429	-858
990.509	-1603
990.588	-1531
990.668	-1572
990.747	-1228
990.827	-968
990.907	-706
990.986	-1625
991.066	-586
991.145	-2247
991.225	-608
991.304	-2421
991.383	-856
991.463	-1747
991.542	-1011
991.622	-1718
991.701	-1616
991.780	-1359
991.859	-1466
991.939	-859
992.018	-1510
992.097	-1374
992.176	-624
992.256	-1685
992.335	-1914
992.414	-837
992.493	-761
992.572	-1872
992.651	-430
992.730	-1554
992.809	-1582
992.888	-1526
992.967	-2177
993.046	-1008
993.125	-1165
993.203	-1542
993.282	-536
993.361	-1045
993.440	-1211
993.519	-2325
993.597	-1412
993.676	-1794
993.755	-979
993.834	-691
993.912	-1715
993.991	-74
994.069	-1498
994.148	-1046
994.226	-1084
994.305	-1307
994.384	-1975
994.462	-1412
994.540	-1592
994.619	-1567
994.697	-329
994.776	-1765
994.854	-1169
994.932	-2074
995.011	-1940
995.089	-943
995.167	-1241
995.245	-2082
995.324	-1899
995.402	-1708
995.480	-1234
995.558	-1494
995.636	-1635
995.714	-2212
995.792	-489
995.870	-1524
995.948	-1366
996.026	-1516
996.104	-1739
996.182	-1093
996.260	-1831
996.338	-765
996.416	-1947
996.494	-1782
996.572	-560
996.649	-1276
996.727	-2073
996.805	-1285
996.883	-1317
996.960	-1873
997.038	-1050
997.116	-1260
997.193	-1546
997.271	-1484
997.348	-1377
997.426	-1591
997.504	-1819
997.581	-1392
997.658	-850
997.736	-2560
997.813	-1333
997.891	-682
997.968	-1817
998.046	-1823
998.123	-850
998.200	-1430
998.277	-1437
998.355	-424
998.432	-2543
998.509	-1460
998.586	-643
998.663	-1389
998.741	-1205
998.818	-2570
998.895	-1535
998.972	-1701
999.049	-1439
999.126	-1342
999.203	-727
999.280	-1110
999.357	-1253
999.434	-1714
999.511	-863
999.587	-1509
999.664	-1801
999.741	-1239
999.818	-1012
999.895	-1874
999.971	-1906
1000.048	-1191
1000.125	-1473
1000.202	-1972
1000.278	-1005
1000.355	-1317
1000.431	-1279
1000.508	-2124
1000.584	-160
1000.661	-713
1000.738	-1881
1000.814	-2494
1000.890	-1436
1000.967	-1584
1001.043	-1243
1001.120	-2310
1001.196	-1271
1001.272	-2041
1001.349	-1321
1001.425	-1031
1001.501	-2109
1001.577	-1426
1001.654	-1615
1001.730	-1960
1001.806	-1613
1001.882	-2049
1001.958	-490
1002.034	-1237
1002.110	-1319
1002.186	-1534
1002.262	-1633
1002.338	-2727
1002.414	-1291
1002.490	-1095
1002.566	-1919
1002.642	-2140
1002.718	-953
1002.794	-1701
1002.870	-1549
1002.945	-1493
1003.021	-1227
1003.097	-1675
1003.173	-918
1003.248	-1660
1003.324	-1152
1003.400	-788
1003.475	-1643
1003.551	-2061
1003.626	-1900
1003.702	-2285
1003.777	-1124
1003.853	-1967
1003.928	-1446
1004.004	-2299
1004.079	-449
1004.155	-1717
1004.230	-2504
1004.305	-888
1004.381	-1846
1004.456	-1201
1004.531	-995
1004.607	-1583
1004.682	-2156
1004.757	-1633
1004.832	-1013
1004.907	-1726
1004.982	-377
1005.057	-1463
1005.133	-1843
1005.208	-1644
1005.283	-1734
1005.358	-1207
1005.433	-2395
1005.508	-1626
1005.583	-1699
1005.657	-2266
1005.732	-1068
1005.807	-1108
1005.882	-1729
1005.957	-1572
1006.032	-1119
1006.106	-1718
1006.181	-1551
1006.256	-1304
1006.331	-1833
1006.405	-1191
1006.480	-588
1006.554	-1961
1006.629	-1574
1006.704	-2135
1006.778	-1189
1006.853	-1854
1006.927	-2121
1007.002	-1993
1007.076	-1217
1007.150	-1457
1007.225	-1536
1007.299	-1868
1007.373	-2646
1007.448	-2208
1007.522	-933
1007.596	-1199
1007.671	-1367
1007.745	-942
1007.819	-1985
1007.893	-2400
1007.967	-833
1008.041	-2647
1008.115	-738
1008.190	-1841
1008.264	-1119
1008.338	-2478
1008.412	-1850
1008.486	-1367
1008.560	-1658
1008.633	-3299
1008.707	-2177
1008.781	-569
1008.855	-1747
1008.929	-1474
1009.003	-1461
1009.076	-2519
1009.150	-1087
1009.224	-1036
1009.298	-1707
1009.371	-2694
1009.445	-1358
1009.519	-1568
1009.592	-1907
1009.666	-1319
1009.739	-1118
1009.813	-2815
1009.886	-476
1009.960	-2121
1010.033	-611
1010.107	-1339
1010.180	-1942
1010.253	-1902
1010.327	-1984
1010.400	-1670
1010.473	-1592
1010.547	-1438
1010.620	-2248
1010.693	-1767
1010.766	-2801
1010.840	-1102
1010.913	-1568
1010.986	-2400
1011.059	-1148
1011.132	-2154
1011.205	-1815
1011.278	-1984
1011.351	-2094
1011.424	-1899
1011.497	-1913
1011.570	-2554
1011.643	-2254
1011.716	-1658
1011.789	-2347
1011.862	-1460
1011.934	-653
1012.007	-2671
1012.080	-2336
1012.153	-1479
1012.225	-854
1012.298	-1836
1012.371	-1897
1012.443	-1945
1012.516	-1167
1012.588	-1910
1012.661	-1320
1012.733	-2711
1012.806	-1387
1012.879	-2275
1012.951	-2006
1013.023	-1995
1013.096	-1175
1013.168	-2575
1013.241	-1057
1013.313	-1788
1013.385	-1995
1013.458	-1373
1013.530	-1677
1013.602	-2359
1013.674	-990
1013.746	-2683
1013.819	-1497
1013.891	-959
1013.963	-1806
1014.035	-2026
1014.107	-1749
1014.179	-2368
1014.251	-1681
1014.323	-1915
1014.395	-1363
1014.467	-1414
1014.539	-891
1014.611	-1915
1014.683	-1664
1014.754	-2486
1014.826	-3098
1014.898	-2406
1014.970	-2524
1015.042	-1413
1015.113	-1745
1015.185	-2325
1015.257	-2019
1015.328	-1429
1015.400	-1826
1015.471	-2168
1015.543	-2875
1015.615	-1696
1015.686	-2064
1015.757	-3301
1015.829	-1131
1015.901	-2627
1015.972	-2311
1016.043	-1054
1016.115	-1800
1016.186	-2889
1016.257	-2372
1016.328	-1124
1016.400	-615
1016.471	-2659
1016.542	-1114
1016.613	-2252
1016.685	-1521
1016.756	-2524
1016.827	-1338
1016.898	-2345
1016.969	-1455
1017.040	-2190
1017.111	-1778
1017.182	-2357
1017.253	-2004
1017.324	-2545
1017.395	-2177
1017.466	-2386
1017.537	-2356
1017.608	-2032
1017.678	-1143
1017.749	-1941
1017.820	-2192
1017.891	-2097
1017.961	-1722
1018.032	-2028
1018.103	-1870
1018.173	-2372
1018.244	-2268
1018.315	-2447
1018.385	-1524
1018.456	-2115
1018.526	-1767
1018.597	-2897
1018.667	-1681
1018.738	-2087
1018.808	-1332
1018.878	-2388
1018.949	-1908
1019.019	-1625
1019.089	-1551
1019.160	-1980
1019.230	-2079
1019.300	-1696
1019.371	-2000
1019.441	-1991
1019.511	-1341
1019.581	-2897
1019.651	-1949
1019.721	-1663
1019.791	-1648
1019.861	-944
1019.931	-1498
1020.001	-2066
1020.071	-1616
1020.141	-2332
1020.211	-2448
1020.281	-2787
1020.351	-1753
1020.421	-2398
1020.491	-1509
1020.560	-2108
1020.630	-1569
1020.700	-1695
1020.770	-2278
1020.839	-2362
1020.909	-1422
1020.979	-2767
1021.048	-1787
1021.118	-1924
1021.187	-2700
1021.257	-2135
1021.326	-1163
1021.396	-2034
1021.465	-2247
1021.535	-2375
1021.604	-2480
1021.674	-2371
1021.743	-1916
1021.812	-2574
1021.882	-2151
1021.951	-1811
1022.020	-2178
1022.089	-1754
1022.159	-1821
1022.228	-2497
1022.297	-2102
1022.366	-1696
1022.435	-2287
1022.504	-2174
1022.573	-2319
1022.642	-1421
1022.711	-1633
1022.781	-1833
1022.849	-1883
1022.918	-2509
1022.987	-1102
1023.056	-2105
1023.125	-1668
1023.194	-1773
1023.263	-1647
1023.331	-1341
1023.400	-2800
1023.469	-2580
1023.538	-1426
1023.606	-2100
1023.675	-1884
1023.744	-2192
1023.812	-1990
1023.881	-2288
1023.949	-1560
1024.018	-1939
1024.086	-1625
1024.155	-2999
1024.223	-1855
1024.292	-1905
1024.360	-2170
1024.429	-1993
1024.497	-2311
1024.565	-2173
1024.634	-1583
1024.702	-2090
1024.770	-1904
1024.838	-2576
1024.907	-1731
1024.975	-1832
1025.043	-1877
1025.111	-3069
1025.179	-1792
1025.247	-1765
1025.315	-1872
1025.383	-2503
1025.451	-2380
1025.519	-2194
1025.587	-1689
1025.655	-1970
1025.723	-2610
1025.791	-2065
1025.859	-1395
1025.927	-1495
1025.995	-2246
1026.062	-1798
1026.130	-1450
1026.198	-2140
1026.266	-1777
1026.333	-2232
1026.401	-1001
1026.469	-2287
1026.536	-1499
1026.604	-2171
1026.671	-2072
1026.739	-3213
1026.806	-1747
1026.874	-2542
1026.941	-2111
1027.009	-2169
1027.076	-2260
1027.144	-2103
1027.211	-2316
1027.278	-2135
1027.345	-1313
1027.413	-2082
1027.480	-1661
1027.547	-1430
1027.614	-1669
1027.682	-1689
1027.749	-1837
1027.816	-2293
1027.883	-1681
1027.950	-2745
1028.017	-2055
1028.084	-1939
1028.151	-1865
1028.218	-1997
1028.285	-1788
1028.352	-1807
1028.419	-2098
1028.486	-2315
1028.553	-2018
1028.619	-2481
1028.686	-2659
1028.753	-2866
1028.820	-1862
1028.886	-2109
1028.953	-1532
1029.020	-2174
1029.086	-1483
1029.153	-3185
1029.220	-2861
1029.286	-1967
1029.353	-1654
1029.419	-2919
1029.486	-1878
1029.552	-2007
1029.619	-2588
1029.685	-2201
1029.751	-1763
1029.818	-887
1029.884	-1569
1029.951	-1614
1030.017	-2111
1030.083	-2338
1030.149	-2372
1030.216	-2311
1030.282	-2127
1030.348	-1583
1030.414	-2226
1030.480	-2023
1030.546	-2302
1030.612	-1560
1030.678	-1857
1030.744	-1833
1030.810	-1545
1030.876	-2931
1030.942	-2055
1031.008	-2152
1031.074	-1907
1031.140	-2218
1031.206	-1566
1031.272	-2394
1031.337	-1826
1031.403	-2072
1031.469	-2026
1031.534	-1934
1031.600	-1486
1031.666	-2383
1031.731	-1377
1031.797	-2376
1031.863	-2465
1031.928	-2029
1031.994	-1447
1032.059	-2675
1032.125	-2454
1032.190	-2566
1032.256	-1963
1032.321	-3121
1032.386	-1626
1032.452	-1796
1032.517	-1906
1032.582	-1486
1032.647	-1894
1032.713	-2444
1032.778	-1046
1032.843	-2737
1032.908	-1990
1032.974	-2483
1033.039	-2156
1033.104	-1638
1033.169	-2371
1033.234	-2065
1033.299	-1952
1033.364	-1237
1033.429	-2725
1033.494	-1725
1033.559	-2273
1033.624	-2242
1033.688	-1574
1033.753	-3298
1033.818	-2050
1033.883	-2496
1033.948	-2017
1034.013	-2833
1034.077	-1948
1034.142	-2055
1034.207	-1198
1034.271	-1776
1034.336	-1630
1034.400	-2126
1034.465	-1789
1034.530	-2403
1034.594	-2578
1034.658	-2370
1034.723	-2230
1034.787	-2269
1034.852	-1986
1034.916	-2232
1034.981	-2350
1035.045	-2342
1035.109	-2339
1035.173	-2716
1035.238	-2056
1035.302	-2517
1035.366	-1757
1035.430	-1966
1035.495	-2394
1035.559	-1933
1035.623	-2467
1035.687	-3047
1035.751	-2051
1035.815	-1909
1035.879	-2641
1035.943	-2352
1036.007	-2536
1036.071	-2786
1036.135	-1953
1036.198	-1846
1036.262	-1782
1036.326	-1873
1036.390	-1699
1036.454	-1919
1036.517	-1575
1036.581	-2795
1036.645	-1192
1036.709	-1433
1036.772	-1547
1036.836	-2463
1036.900	-1883
1036.963	-2277
1037.026	-1541
1037.090	-2712
1037.154	-1854
1037.217	-2327
1037.280	-2844
1037.344	-2248
1037.407	-2611
1037.471	-2536
1037.534	-2351
1037.597	-2181
1037.661	-2358
1037.724	-2005
1037.787	-2145
1037.850	-3006
1037.913	-2560
1037.977	-1573
1038.040	-2429
1038.103	-2407
1038.166	-1676
1038.229	-2548
1038.292	-2314
1038.355	-2117
1038.418	-1856
1038.481	-2120
1038.544	-2443
1038.607	-2513
1038.670	-2082
1038.732	-2405
1038.795	-2276
1038.858	-2147
1038.921	-1345
1038.984	-2399
1039.046	-2504
1039.109	-3043
1039.172	-2588
1039.234	-2489
1039.297	-2355
1039.360	-2601
1039.422	-2675
1039.485	-3078
1039.547	-2537
1039.610	-3118
1039.672	-1639
1039.734	-2022
1039.797	-3040
1039.859	-2783
1039.922	-3080
1039.984	-2876
1040.046	-2078
1040.109	-2197
1040.171	-2183
1040.233	-2364
1040.295	-2058
1040.358	-2858
1040.420	-1353
1040.482	-3021
1040.544	-2161
1040.606	-1878
1040.668	-1932
1040.730	-2306
1040.792	-1436
1040.854	-2914
1040.916	-2660
1040.978	-2262
1041.040	-1549
1041.102	-2370
1041.164	-2376
1041.225	-2309
1041.287	-2722
1041.349	-1721
1041.411	-2743
1041.472	-2546
1041.534	-1781
1041.596	-2631
1041.657	-2271
1041.719	-2320
1041.781	-1735
1041.842	-2102
1041.904	-1843
1041.965	-3080
1042.027	-2047
1042.088	-2796
1042.150	-2578
1042.211	-2375
1042.272	-1790
1042.334	-2213
1042.395	-2861
1042.456	-2109
1042.518	-2364
1042.579	-2633
1042.640	-1854
1042.701	-2490
1042.763	-2598
1042.824	-2151
1042.885	-1300
1042.946	-1963
1043.007	-2801
1043.068	-2860
1043.129	-2002
1043.190	-2512
1043.251	-2249
1043.312	-2474
1043.373	-2299
1043.434	-3046
1043.495	-2056
1043.556	-1711
1043.616	-2334
1043.677	-2238
1043.738	-2164
1043.799	-2556
1043.859	-2241
1043.920	-2203
1043.981	-1833
1044.041	-2139
1044.102	-2795
1044.162	-2196
1044.223	-2354
1044.284	-2520
1044.344	-1792
1044.405	-2389
1044.465	-2717
1044.525	-3386
1044.586	-2279
1044.646	-2157
1044.707	-1917
1044.767	-1998
1044.827	-2558
1044.887	-2511
1044.948	-1636
1045.008	-2185
1045.068	-2233
1045.128	-1889
1045.188	-2101
1045.249	-1090
1045.309	-2195
1045.369	-1673
1045.429	-1566
1045.489	-2520
1045.549	-1457
1045.609	-3128
1045.669	-1420
1045.729	-1966
1045.789	-1933
1045.848	-2465
1045.908	-2074
1045.968	-2419
1046.028	-2391
1046.088	-2114
1046.147	-2047
1046.207	-2439
1046.267	-2498
1046.326	-1820
1046.386	-1834
1046.446	-1802
1046.505	-1610
1046.565	-1508
1046.624	-1458
1046.684	-1495
1046.743	-732
1046.803	-534
1046.862	80
1046.922	0
