'Start Wavelength	183.907
'End Wavelength	1046.922
'Gate Delay	5.000
'Gate Width (ms)	1.050
'Laser Output Level	0.000
'X Position	0.000
'Y Position	0.000
'Z Position	0.000
'Grid Point Number	1.000
'Shot Number	100.000
183.907	1127.000
183.977	55.000
184.047	508
184.116	327
184.186	374
184.256	701
184.325	19
184.395	318
184.465	910
184.534	615
184.604	-240
184.674	629
184.743	846
184.813	351
184.883	698
184.952	-50
185.022	308
185.092	698
185.161	575
185.231	1056
185.301	1541
185.370	-183
185.440	221
185.509	-196
185.579	782
185.649	417
185.718	460
185.788	342
185.857	597
185.927	781
185.996	1416
186.066	1065
186.136	569
186.205	358
186.275	648
186.344	700
186.414	888
186.483	-139
186.553	928
186.622	2461
186.692	934
186.761	397
186.831	218
186.900	-151
186.970	852
187.039	158
187.109	1262
187.178	831
187.248	937
187.317	1095
187.387	385
187.456	778
187.526	983
187.595	891
187.664	547
187.734	1209
187.803	1548
187.873	804
187.942	1847
188.012	1490
188.081	695
188.150	1372
188.220	1276
188.289	1676
188.358	1502
188.428	580
188.497	526
188.567	1045
188.636	1098
188.705	398
188.775	108
188.844	1058
188.913	881
188.983	410
189.052	587
189.121	437
189.191	698
189.260	1393
189.329	1076
189.399	468
189.468	1223
189.537	1339
189.606	734
189.676	1052
189.745	1229
189.814	1876
189.883	1255
189.953	1113
190.022	1627
190.091	3692
190.161	4335
190.230	2595
190.299	1000
190.368	1233
190.437	720
190.507	1131
190.576	1542
190.645	631
190.714	69
190.783	443
190.853	938
190.922	925
190.991	259
191.060	932
191.129	-93
191.198	736
191.268	1059
191.337	409
191.406	1236
191.475	947
191.544	582
191.613	994
191.682	1323
191.752	1497
191.821	495
191.890	1611
191.959	1092
192.028	1540
192.097	1166
192.166	784
192.235	533
192.304	738
192.373	578
192.442	137
192.511	1359
192.580	795
192.650	1093
192.719	1522
192.788	824
192.857	1411
192.926	1609
192.995	1409
193.064	918
193.133	1701
193.202	2599
193.271	2278
193.340	2480
193.409	2397
193.478	2374
193.547	3364
193.615	4602
193.684	3497
193.753	3222
193.822	2391
193.891	2061
193.960	1047
194.029	1704
194.098	1612
194.167	927
194.236	1556
194.305	430
194.374	1401
194.443	1492
194.512	1384
194.580	1982
194.649	1959
194.718	3227
194.787	1283
194.856	1588
194.925	1527
194.994	1447
195.062	1919
195.131	2374
195.200	2574
195.269	2945
195.338	1882
195.407	2075
195.475	1408
195.544	2246
195.613	1920
195.682	1665
195.751	3359
195.819	2379
195.888	2577
195.957	2765
196.026	3259
196.094	2402
196.163	2884
196.232	2356
196.301	2724
196.369	3158
196.438	1959
196.507	1283
196.576	1852
196.644	1076
196.713	674
196.782	1827
196.850	1633
196.919	1648
196.988	1596
197.056	1385
197.125	1618
197.194	1588
197.262	1790
197.331	892
197.400	1241
197.468	957
197.537	2033
197.606	1300
197.674	2550
197.743	4670
197.812	2021
197.880	4497
197.949	3154
198.017	4482
198.086	3331
198.155	2478
198.223	2376
198.292	5118
198.360	2154
198.429	1713
198.497	1568
198.566	4393
198.635	5551
198.703	2719
198.772	2974
198.840	6615
198.909	5110
198.977	2868
199.046	2018
199.114	2258
199.183	1830
199.251	1666
199.320	1786
199.388	1638
199.457	1349
199.525	2054
199.594	1587
199.662	2065
199.731	1361
199.799	2076
199.867	1233
199.936	1920
200.004	1379
200.073	1516
200.141	1985
200.210	1772
200.278	1824
200.346	2467
200.415	3466
200.483	3527
200.552	1410
200.620	1955
200.688	1977
200.757	2143
200.825	1733
200.893	1889
200.962	1792
201.030	1233
201.098	1546
201.167	2439
201.235	1972
201.303	1968
201.372	2041
201.440	2516
201.508	2974
201.577	2876
201.645	2324
201.713	1404
201.781	1957
201.850	3155
201.918	1819
201.986	1930
202.055	1786
202.123	2504
202.191	2061
202.259	1436
202.327	1909
202.396	2147
202.464	2504
202.532	2693
202.600	7674
202.669	4742
202.737	2430
202.805	1805
202.873	2135
202.941	2397
203.009	1805
203.078	1984
203.146	2131
203.214	2223
203.282	2464
203.350	2524
203.418	2140
203.487	1916
203.555	2276
203.623	2474
203.691	2216
203.759	2123
203.827	1838
203.895	2347
203.963	2267
204.031	1921
204.099	1648
204.168	1577
204.236	2780
204.304	3484
204.372	2868
204.440	2130
204.508	1725
204.576	2058
204.644	2265
204.712	2081
204.780	2323
204.848	2442
204.916	1460
204.984	2245
205.052	2307
205.120	1857
205.188	2023
205.256	2748
205.324	1879
205.392	1952
205.460	3645
205.528	2606
205.596	1976
205.664	2577
205.732	2584
205.799	6671
205.867	10106
205.935	4009
206.003	3140
206.071	2573
206.139	1524
206.207	2155
206.275	2774
206.343	1986
206.411	2438
206.478	2057
206.546	2462
206.614	2134
206.682	2543
206.750	2076
206.818	3789
206.885	3846
206.953	2350
207.021	3128
207.089	2701
207.157	2047
207.225	2223
207.292	2344
207.360	2822
207.428	2728
207.496	2310
207.563	2354
207.631	1882
207.699	1666
207.767	3026
207.834	2929
207.902	3124
207.970	3508
208.038	2463
208.105	2999
208.173	1911
208.241	4109
208.309	3858
208.376	3168
208.444	6177
208.512	3712
208.579	2620
208.647	3560
208.715	3818
208.782	2990
208.850	2550
208.918	2598
208.985	2411
209.053	3251
209.120	3265
209.188	2261
209.256	2743
209.323	2836
209.391	4725
209.459	4389
209.526	3053
209.594	2410
209.661	2854
209.729	3445
209.796	3466
209.864	3550
209.932	1619
209.999	3789
210.067	3811
210.134	4164
210.202	4097
210.269	5521
210.337	4989
210.404	3101
210.472	3126
210.539	3712
210.607	4978
210.674	4929
210.742	3215
210.809	3366
210.877	4971
210.944	5033
211.012	3674
211.079	4966
211.146	3398
211.214	3605
211.281	6339
211.349	5217
211.416	3937
211.484	5050
211.551	4078
211.618	4142
211.686	3579
211.753	3481
211.821	3342
211.888	4161
211.955	3370
212.023	3486
212.090	4092
212.157	4426
212.225	4468
212.292	7777
212.359	13845
212.427	27207
212.494	14327
212.561	7354
212.629	5950
212.696	4414
212.763	5330
212.831	4070
212.898	4209
212.965	3712
213.032	4420
213.100	4964
213.167	4964
213.234	6330
213.301	3729
213.369	3627
213.436	3648
213.503	3959
213.570	5828
213.638	8241
213.705	4131
213.772	5124
213.839	5222
213.906	5120
213.973	5341
214.041	4416
214.108	4162
214.175	4608
214.242	4105
214.309	4239
214.376	4836
214.444	5109
214.511	5859
214.578	4902
214.645	6119
214.712	5651
214.779	5314
214.846	4952
214.913	6851
214.980	6301
215.048	6540
215.115	7188
215.182	6647
215.249	5903
215.316	5026
215.383	4792
215.450	5346
215.517	4827
215.584	4495
215.651	4924
215.718	3812
215.785	5458
215.852	5775
215.919	5935
215.986	6253
216.053	4909
216.120	4091
216.187	6171
216.254	5441
216.321	5636
216.388	4961
216.455	6098
216.522	5809
216.589	8538
216.656	11325
216.722	9972
216.789	7599
216.856	7504
216.923	6778
216.990	6180
217.057	6330
217.124	7809
217.191	7430
217.258	8164
217.324	8770
217.391	9052
217.458	7128
217.525	6415
217.592	5709
217.659	5729
217.725	6803
217.792	8800
217.859	8189
217.926	5320
217.993	4838
218.059	4914
218.126	3954
218.193	4424
218.260	4856
218.327	3518
218.393	4695
218.460	4770
218.527	3715
218.594	4426
218.660	9577
218.727	9627
218.794	5320
218.860	4731
218.927	3545
218.994	3802
219.061	4134
219.127	6392
219.194	7963
219.261	4956
219.327	3649
219.394	4884
219.461	3169
219.527	4244
219.594	7017
219.661	5221
219.727	2811
219.794	5171
219.860	4092
219.927	5235
219.994	7492
220.060	12380
220.127	8562
220.193	6387
220.260	6621
220.326	8153
220.393	12449
220.460	13405
220.526	10052
220.593	6998
220.659	8234
220.726	8175
220.792	16278
220.859	14608
220.925	17038
220.992	22186
221.058	21192
221.125	21823
221.191	16136
221.258	7677
221.324	6214
221.391	6021
221.457	5274
221.524	6027
221.590	7462
221.657	19438
221.723	13876
221.789	13336
221.856	11859
221.922	7039
221.989	5920
222.055	5402
222.121	4762
222.188	7382
222.254	5761
222.321	4885
222.387	4390
222.453	3947
222.520	3783
222.586	3832
222.652	3965
222.719	3046
222.785	4710
222.851	4154
222.918	3986
222.984	3582
223.050	3390
223.116	3691
223.183	4282
223.249	3021
223.315	3338
223.382	3250
223.448	3757
223.514	2786
223.580	3170
223.647	3243
223.713	3340
223.779	4186
223.845	3921
223.911	4357
223.978	3069
224.044	4517
224.110	3119
224.176	3998
224.242	3743
224.309	2872
224.375	3483
224.441	3499
224.507	3259
224.573	3978
224.639	4005
224.705	3374
224.772	3824
224.838	3313
224.904	4449
224.970	3305
225.036	3631
225.102	4157
225.168	4903
225.234	5067
225.300	3903
225.366	3764
225.432	3116
225.499	3545
225.565	4553
225.631	5150
225.697	4603
225.763	5894
225.829	5978
225.895	6769
225.961	10002
226.027	8310
226.093	7261
226.159	10184
226.225	13243
226.291	23951
226.357	34332
226.423	21084
226.489	15047
226.554	9721
226.620	9557
226.686	12887
226.752	18023
226.818	25612
226.884	45200
226.950	37187
227.016	17672
227.082	12341
227.148	10699
227.214	10840
227.279	8609
227.345	5745
227.411	8175
227.477	8259
227.543	16177
227.609	17161
227.674	9184
227.740	7663
227.806	6883
227.872	6112
227.938	5865
228.003	8232
228.069	4872
228.135	4969
228.201	5101
228.267	5284
228.332	6900
228.398	9383
228.464	5067
228.530	4204
228.595	4365
228.661	5181
228.727	8991
228.792	7041
228.858	5556
228.924	5277
228.990	7383
229.055	7309
229.121	7850
229.187	4375
229.252	5899
229.318	4689
229.384	5149
229.449	6700
229.515	4187
229.581	3007
229.646	5762
229.712	6337
229.777	13312
229.843	13649
229.909	10596
229.974	9417
230.040	9207
230.105	7351
230.171	8924
230.236	9341
230.302	12770
230.368	11743
230.433	7173
230.499	6426
230.564	6804
230.630	5945
230.695	6595
230.761	5406
230.826	5245
230.892	9052
230.957	6459
231.023	4707
231.088	4865
231.154	5421
231.219	5208
231.284	8432
231.350	8798
231.415	5744
231.481	5147
231.546	4242
231.612	4660
231.677	4201
231.742	3218
231.808	5464
231.873	4637
231.939	3667
232.004	8642
232.069	9495
232.135	5502
232.200	4941
232.265	3961
232.331	4156
232.396	4274
232.461	3351
232.527	4054
232.592	4167
232.657	5222
232.723	9138
232.788	6778
232.853	5165
232.918	4306
232.984	4729
233.049	4219
233.114	8401
233.179	7865
233.245	11471
233.310	12555
233.375	5338
233.440	4707
233.506	4879
233.571	4246
233.636	4372
233.701	5151
233.766	9437
233.832	10888
233.897	6489
233.962	6287
234.027	8756
234.092	7156
234.157	7119
234.222	7314
234.288	10578
234.353	24359
234.418	22348
234.483	14413
234.548	11444
234.613	9103
234.678	9325
234.743	10405
234.808	26538
234.873	16919
234.938	9195
235.004	7981
235.069	8074
235.134	6993
235.199	7564
235.264	6877
235.329	5633
235.394	6711
235.459	8509
235.524	8716
235.589	7109
235.654	5569
235.719	5205
235.784	5911
235.849	7201
235.913	14904
235.978	16188
236.043	17746
236.108	8643
236.173	7950
236.238	8314
236.303	7199
236.368	8249
236.433	10920
236.498	17968
236.563	12537
236.627	23046
236.692	61576
236.757	49727
236.822	23242
236.887	19637
236.952	16042
237.017	13127
237.081	13795
237.146	17188
237.211	32225
237.276	63269
237.341	93064
237.405	50290
237.470	24706
237.535	18400
237.600	13345
237.664	10801
237.729	9343
237.794	11918
237.859	20349
237.923	16540
237.988	10657
238.053	14145
238.118	15015
238.182	32459
238.247	26403
238.312	17046
238.376	12160
238.441	10302
238.506	9749
238.570	6179
238.635	6829
238.700	6071
238.764	6343
238.829	15978
238.893	18190
238.958	10065
239.023	9998
239.087	7678
239.152	8322
239.216	6400
239.281	6549
239.346	6262
239.410	6830
239.475	8737
239.539	30652
239.604	22235
239.668	9405
239.733	7852
239.797	12714
239.862	28602
239.926	30992
239.991	13180
240.055	7964
240.120	7649
240.184	7767
240.249	6834
240.313	6998
240.378	7771
240.442	20235
240.507	28047
240.571	10404
240.635	16107
240.700	18422
240.764	8897
240.829	7095
240.893	5427
240.957	6547
241.022	18060
241.086	29639
241.151	15877
241.215	7742
241.279	10268
241.344	17073
241.408	10253
241.472	9071
241.537	10356
241.601	8246
241.665	7439
241.730	7542
241.794	8429
241.858	8464
241.922	8370
241.987	9498
242.051	6913
242.115	6992
242.179	7080
242.244	6549
242.308	8176
242.372	8949
242.436	9086
242.501	8215
242.565	7185
242.629	6591
242.693	7606
242.757	5937
242.822	6716
242.886	7722
242.950	8258
243.014	9218
243.078	11259
243.142	10671
243.206	8748
243.271	10082
243.335	9381
243.399	14650
243.463	45364
243.527	92557
243.591	31649
243.655	17515
243.719	12105
243.783	13248
243.847	18118
243.911	21854
243.975	30021
244.040	20674
244.104	10516
244.168	9549
244.232	18028
244.296	20639
244.360	19308
244.424	13307
244.488	11280
244.552	10044
244.615	6917
244.679	7712
244.743	10723
244.807	10877
244.871	8071
244.935	7475
244.999	7056
245.063	8720
245.127	9907
245.191	15216
245.255	14496
245.319	13690
245.383	12858
245.446	10031
245.510	7811
245.574	9587
245.638	10535
245.702	10796
245.766	21618
245.829	13814
245.893	10894
245.957	10221
246.021	11207
246.085	11907
246.149	14556
246.212	30583
246.276	42078
246.340	21219
246.404	15416
246.467	16556
246.531	22083
246.595	14305
246.659	13387
246.722	13322
246.786	17427
246.850	17304
246.913	20372
246.977	11442
247.041	10883
247.104	12762
247.168	13080
247.232	31406
247.295	56069
247.359	28030
247.423	15708
247.486	25382
247.550	16526
247.614	13559
247.677	19244
247.741	11854
247.804	11376
247.868	13333
247.932	28807
247.995	53266
248.059	21558
248.122	13346
248.186	16845
248.249	31404
248.313	88681
248.376	86156
248.440	57638
248.503	25493
248.567	22543
248.630	30194
248.694	39508
248.757	50429
248.821	91309
248.884	56400
248.948	55843
249.011	74746
249.075	104185
249.138	87383
249.202	40304
249.265	26678
249.328	30768
249.392	24851
249.455	19126
249.519	15594
249.582	20656
249.645	30733
249.709	21994
249.772	14798
249.835	15471
249.899	17221
249.962	14740
250.025	15441
250.089	38210
250.152	48197
250.215	25562
250.279	19927
250.342	18989
250.405	17970
250.468	16402
250.532	22069
250.595	33633
250.658	98170
250.721	134458
250.785	56802
250.848	32511
250.911	21407
250.974	19936
251.038	30210
251.101	54949
251.164	30425
251.227	31839
251.290	27516
251.354	40521
251.417	126965
251.480	118092
251.543	96270
251.606	205224
251.669	154434
251.732	73411
251.795	77673
251.859	78002
251.922	140965
251.985	79822
252.048	35987
252.111	30574
252.174	32084
252.237	58764
252.300	108174
252.363	114829
252.426	170996
252.489	81953
252.552	44802
252.615	33768
252.678	38992
252.741	83681
252.804	101935
252.867	178199
252.930	121034
252.993	67112
253.056	43561
253.119	31726
253.182	27050
253.245	43255
253.308	35321
253.371	36064
253.434	32284
253.497	30814
253.559	54589
253.622	40246
253.685	54505
253.748	52464
253.811	26653
253.874	33780
253.937	31150
254.000	26017
254.062	42072
254.125	55438
254.188	47862
254.251	41240
254.314	24106
254.376	44556
254.439	46277
254.502	41603
254.565	43759
254.628	69293
254.690	46382
254.753	26681
254.816	22972
254.878	25902
254.941	44180
255.004	39879
255.067	21628
255.129	23016
255.192	13530
255.255	13792
255.317	17727
255.380	11845
255.443	10295
255.505	10881
255.568	9628
255.631	10309
255.693	11589
255.756	8931
255.819	9050
255.881	8840
255.944	9106
256.006	7449
256.069	8372
256.132	9243
256.194	14192
256.257	30291
256.319	22756
256.382	21344
256.444	13949
256.507	9879
256.569	10690
256.632	11119
256.694	18580
256.757	40708
256.819	95136
256.882	41635
256.944	20120
257.007	19007
257.069	21327
257.132	12974
257.194	11508
257.257	11252
257.319	11192
257.381	13614
257.444	32959
257.506	116990
257.569	123378
257.631	69864
257.693	40026
257.756	21529
257.818	19433
257.880	12974
257.943	12583
258.005	11721
258.067	10156
258.130	10195
258.192	16080
258.254	30008
258.317	16659
258.379	13080
258.441	32611
258.503	27491
258.566	36652
258.628	38676
258.690	12899
258.753	16295
258.815	29550
258.877	17257
258.939	12171
259.001	10660
259.064	9439
259.126	14470
259.188	17284
259.250	12175
259.312	17111
259.375	37319
259.437	23399
259.499	12153
259.561	11696
259.623	11555
259.685	10037
259.747	12313
259.809	34558
259.872	54627
259.934	83751
259.996	61698
260.058	19975
260.120	12714
260.182	10687
260.244	10295
260.306	8975
260.368	10441
260.430	9473
260.492	14594
260.554	29435
260.616	25655
260.678	50002
260.740	55668
260.802	18073
260.864	15155
260.926	13512
260.988	13393
261.050	13005
261.112	18348
261.174	50368
261.236	39989
261.298	17525
261.359	30221
261.421	36901
261.483	14140
261.545	13112
261.607	9049
261.669	10722
261.731	21435
261.793	44387
261.854	21004
261.916	14581
261.978	10569
262.040	11191
262.102	11078
262.164	19833
262.225	14670
262.287	11263
262.349	30639
262.411	20397
262.472	10381
262.534	21454
262.596	38051
262.658	14194
262.719	9860
262.781	14487
262.843	36666
262.904	16456
262.966	13765
263.028	18291
263.090	73748
263.151	143077
263.213	47427
263.275	27607
263.336	15397
263.398	11586
263.459	9994
263.521	11085
263.583	26776
263.644	17764
263.706	9597
263.767	6830
263.829	7081
263.891	6578
263.952	5945
264.014	5376
264.075	7817
264.137	12367
264.198	12435
264.260	5669
264.321	6761
264.383	17304
264.444	23775
264.506	9473
264.567	8887
264.629	9690
264.690	11753
264.752	11692
264.813	9354
264.875	7361
264.936	7769
264.998	6755
265.059	7063
265.120	8303
265.182	14690
265.243	53262
265.305	45660
265.366	14544
265.427	9444
265.489	8731
265.550	7048
265.611	11153
265.673	9267
265.734	7206
265.795	6065
265.857	7097
265.918	8726
265.979	18694
266.040	85377
266.102	61768
266.163	21163
266.224	18557
266.286	11538
266.347	9002
266.408	9455
266.469	10407
266.530	8240
266.592	7276
266.653	20122
266.714	31103
266.775	11121
266.836	8308
266.898	7351
266.959	10802
267.020	8005
267.081	8019
267.142	7289
267.203	6715
267.264	6699
267.326	8140
267.387	7101
267.448	6949
267.509	7844
267.570	7173
267.631	5825
267.692	5748
267.753	6995
267.814	6912
267.875	17073
267.936	32366
267.997	13428
268.058	14390
268.119	10434
268.180	10615
268.241	8823
268.302	7866
268.363	7724
268.424	9133
268.485	9114
268.546	6417
268.607	5581
268.668	6234
268.729	6603
268.790	7283
268.851	8071
268.912	22789
268.972	26873
269.033	15655
269.094	8023
269.155	7778
269.216	7336
269.277	8848
269.338	7569
269.398	7760
269.459	11391
269.520	14910
269.581	19796
269.642	22253
269.702	14812
269.763	11927
269.824	9319
269.885	13542
269.945	19361
270.006	9109
270.067	7411
270.128	6333
270.188	6486
270.249	6971
270.310	6217
270.370	7233
270.431	8431
270.492	6342
270.553	9334
270.613	20492
270.674	35396
270.734	15879
270.795	10090
270.856	15732
270.916	12237
270.977	9657
271.038	11533
271.098	12498
271.159	19811
271.219	17313
271.280	8159
271.340	7751
271.401	10816
271.462	25187
271.522	14480
271.583	9581
271.643	10385
271.704	9830
271.764	13841
271.825	31224
271.885	87516
271.946	103180
272.006	38693
272.066	56278
272.127	81351
272.187	28119
272.248	17861
272.308	20730
272.369	56616
272.429	30670
272.489	28665
272.550	25559
272.610	30660
272.671	21435
272.731	20068
272.791	30919
272.852	19978
272.912	17416
272.972	10455
273.033	10585
273.093	17521
273.153	15408
273.214	10263
273.274	13070
273.334	39876
273.394	75285
273.455	36456
273.515	35573
273.575	67922
273.635	28954
273.696	43622
273.756	73970
273.816	31542
273.876	20674
273.936	40713
273.997	55357
274.057	18096
274.117	17066
274.177	27106
274.237	96157
274.297	73841
274.358	57952
274.418	64000
274.478	48010
274.538	20495
274.598	20270
274.658	56503
274.718	66599
274.778	26889
274.838	16804
274.898	36870
274.958	90525
275.018	80486
275.078	50153
275.138	24405
275.198	14151
275.258	12598
275.318	16864
275.378	31179
275.438	30676
275.498	20152
275.558	46926
275.618	82630
275.678	51549
275.738	37060
275.798	24766
275.858	12228
275.918	10469
275.978	14484
276.038	12369
276.098	10868
276.157	24560
276.217	59170
276.277	26851
276.337	21615
276.397	12602
276.457	16701
276.517	11256
276.576	8690
276.636	8816
276.696	18317
276.756	38665
276.815	25777
276.875	13854
276.935	17253
276.995	13996
277.055	9495
277.114	10519
277.174	17112
277.234	44870
277.293	20565
277.353	12916
277.413	10476
277.472	12305
277.532	12422
277.592	13086
277.651	39214
277.711	59349
277.771	25751
277.830	80404
277.890	58017
277.950	47836
278.009	108490
278.069	41392
278.128	48406
278.188	61862
278.248	32751
278.307	70318
278.367	37664
278.426	16433
278.486	12119
278.545	9480
278.605	9551
278.664	9483
278.724	11707
278.783	33585
278.843	70101
278.902	22153
278.962	16414
279.021	17452
279.081	19428
279.140	19347
279.199	17383
279.259	16586
279.318	17537
279.378	21928
279.437	41081
279.496	130829
279.556	279288
279.615	198467
279.675	66229
279.734	43763
279.793	68552
279.853	91681
279.912	37251
279.971	22079
280.031	22262
280.090	40241
280.149	62843
280.208	54805
280.268	187574
280.327	168910
280.386	52012
280.445	46050
280.505	39720
280.564	19359
280.623	16437
280.682	28294
280.742	38028
280.801	14739
280.860	11397
280.919	10521
280.978	9069
281.037	8678
281.097	8056
281.156	8307
281.215	9231
281.274	13404
281.333	50246
281.392	32939
281.451	10313
281.510	9648
281.569	9024
281.628	7036
281.688	6950
281.747	10247
281.806	9249
281.865	7158
281.924	7672
281.983	7639
282.042	5306
282.101	6617
282.160	7116
282.219	6404
282.278	9301
282.337	30914
282.396	18820
282.454	9731
282.513	14776
282.572	45939
282.631	25024
282.690	10271
282.749	9716
282.808	12113
282.867	11618
282.926	11396
282.985	6871
283.043	6568
283.102	8296
283.161	10047
283.220	22284
283.279	43597
283.338	15045
283.396	9978
283.455	10312
283.514	11605
283.573	19119
283.631	12739
283.690	9187
283.749	10175
283.808	23431
283.866	23618
283.925	9952
283.984	10428
284.043	16298
284.101	14654
284.160	9778
284.219	10815
284.277	12273
284.336	22013
284.395	62845
284.453	44979
284.512	19593
284.570	28540
284.629	22755
284.688	20525
284.746	21862
284.805	24795
284.863	32792
284.922	39682
284.981	47467
285.039	69663
285.098	121879
285.156	245924
285.215	344502
285.273	346406
285.332	236587
285.390	137987
285.449	87955
285.507	62636
285.566	47148
285.624	35300
285.683	28183
285.741	23197
285.799	20267
285.858	18956
285.916	17359
285.975	14021
286.033	11761
286.091	10059
286.150	9832
286.208	9979
286.267	12201
286.325	14126
286.383	22074
286.442	16012
286.500	9584
286.558	8254
286.616	8610
286.675	13254
286.733	11916
286.791	11050
286.850	12138
286.908	16460
286.966	26170
287.024	11226
287.083	8216
287.141	7858
287.199	9007
287.257	16067
287.315	10760
287.374	12535
287.432	28428
287.490	17511
287.548	12375
287.606	9047
287.664	9336
287.723	13438
287.781	15387
287.839	9445
287.897	12233
287.955	15653
288.013	24189
288.071	54575
288.129	183993
288.187	373401
288.245	178933
288.303	66423
288.361	39061
288.419	27861
288.477	19876
288.535	16364
288.593	12367
288.651	10603
288.709	8746
288.767	8766
288.825	8855
288.883	6618
288.941	5882
288.999	6138
289.057	6417
289.115	5266
289.173	5216
289.231	7253
289.289	7295
289.346	5827
289.404	10121
289.462	17387
289.520	17679
289.578	8591
289.636	4969
289.694	4711
289.751	5020
289.809	5186
289.867	6067
289.925	8658
289.983	10301
290.040	6524
290.098	6035
290.156	9179
290.214	10411
290.271	6810
290.329	5598
290.387	4327
290.444	4813
290.502	4121
290.560	4424
290.617	4810
290.675	4755
290.733	5513
290.790	7069
290.848	5059
290.906	6919
290.963	5807
291.021	5726
291.078	5078
291.136	6403
291.194	18237
291.251	35582
291.309	11708
291.366	5574
291.424	7275
291.481	7102
291.539	6382
291.596	6124
291.654	4575
291.711	4744
291.769	7972
291.826	18974
291.884	11640
291.941	6775
291.999	6958
292.056	9568
292.114	8729
292.171	6561
292.228	7721
292.286	9926
292.343	19244
292.401	21297
292.458	11070
292.515	9299
292.573	11980
292.630	11338
292.687	10590
292.745	8137
292.802	9977
292.859	20488
292.917	49660
292.974	28675
293.031	9875
293.089	7806
293.146	6879
293.203	6060
293.260	5341
293.318	7359
293.375	6571
293.432	5378
293.489	5698
293.546	6312
293.604	12192
293.661	34459
293.718	74963
293.775	34706
293.832	19242
293.889	15717
293.947	16070
294.004	11658
294.061	12786
294.118	23979
294.175	36168
294.232	24307
294.289	12278
294.346	9577
294.403	9241
294.460	9340
294.517	8120
294.574	7219
294.631	7380
294.688	9924
294.745	26666
294.802	74182
294.859	55741
294.916	26132
294.973	18890
295.030	17407
295.087	15326
295.144	10369
295.201	8345
295.258	8999
295.315	12654
295.372	37132
295.429	61635
295.486	25942
295.542	13476
295.599	16936
295.656	23803
295.713	32029
295.770	51842
295.827	19637
295.883	10565
295.940	12289
295.997	21828
296.054	19859
296.111	9826
296.167	7333
296.224	4943
296.281	5957
296.338	5873
296.394	7084
296.451	10233
296.508	28468
296.564	46552
296.621	33448
296.678	72481
296.734	91729
296.791	34307
296.848	20118
296.904	24280
296.961	50670
297.018	67189
297.074	44187
297.131	18031
297.187	16082
297.244	24892
297.301	71125
297.357	108450
297.414	39524
297.470	17231
297.527	11876
297.583	10149
297.640	11986
297.696	9137
297.753	7166
297.809	5683
297.866	4932
297.922	5902
297.979	6106
298.035	8974
298.092	15698
298.148	39874
298.204	35750
298.261	19920
298.317	35318
298.374	80778
298.430	47450
298.486	24586
298.543	17577
298.599	14887
298.656	16883
298.712	32007
298.768	64965
298.824	41090
298.881	16188
298.937	10178
298.993	10088
299.050	14442
299.106	12012
299.162	9881
299.218	10520
299.275	9041
299.331	11699
299.387	23943
299.443	79705
299.500	78037
299.556	32053
299.612	17251
299.668	15833
299.724	22857
299.780	22546
299.837	14944
299.893	22768
299.949	67545
300.005	74537
300.061	65434
300.117	96520
300.173	46618
300.229	24575
300.285	29787
300.341	33567
300.397	16776
300.453	11009
300.510	9796
300.566	11473
300.622	17048
300.678	44655
300.734	75865
300.790	64865
300.845	73145
300.901	52319
300.957	71515
301.013	49168
301.069	21302
301.125	17140
301.181	17558
301.237	12914
301.293	9109
301.349	7796
301.405	7634
301.461	6708
301.516	7256
301.572	11534
301.628	23704
301.684	19313
301.740	26014
301.796	40876
301.851	29326
301.907	52694
301.963	53595
302.019	86608
302.074	195397
302.130	186067
302.186	83629
302.242	36546
302.297	25916
302.353	26208
302.409	45487
302.464	37379
302.520	35630
302.576	79721
302.631	83997
302.687	48854
302.743	21087
302.798	13293
302.854	11037
302.910	12260
302.965	15129
303.021	27325
303.076	26262
303.132	34763
303.187	39782
303.243	19881
303.299	10828
303.354	8591
303.410	7562
303.465	6848
303.521	7138
303.576	8752
303.632	12332
303.687	24784
303.743	63121
303.798	51303
303.853	21279
303.909	12799
303.964	12503
304.020	20731
304.075	31540
304.130	29180
304.186	50983
304.241	49011
304.297	37449
304.352	19193
304.358	18443
304.407	12365
304.449	12122
304.463	12049
304.518	13686
304.539	12951
304.573	11805
304.629	12118
304.630	12282
304.684	20205
304.720	41222
304.739	51714
304.794	72626
304.811	61103
304.850	33835
304.902	16958
304.905	15884
304.960	10953
304.992	11222
305.015	11375
305.071	9967
305.083	9340
305.126	7168
305.173	6553
305.181	6469
305.236	5591
305.264	6540
305.292	7457
305.347	9312
305.354	9288
305.402	9225
305.445	10361
305.457	10674
305.512	14355
305.535	14670
305.567	15158
305.622	15461
305.626	15938
305.678	26697
305.716	52916
305.733	62466
305.788	70111
305.807	60651
305.843	44528
305.897	60884
305.898	61056
305.953	60197
305.988	39021
306.008	27362
306.063	17240
306.078	15589
306.118	11947
306.168	8803
306.173	8533
306.228	8153
306.259	7313
306.283	6688
306.338	5706
306.349	5929
306.393	6904
306.440	7376
306.448	7445
306.503	7609
306.530	8086
306.558	9795
306.613	18215
306.620	19898
306.668	32329
306.711	52925
306.723	56429
306.778	44629
306.801	34314
306.833	22288
306.888	11663
306.892	11263
306.943	8361
306.982	7847
306.997	7545
307.052	6041
307.072	5741
307.107	5787
307.162	6069
307.163	6084
307.217	7272
307.253	8022
307.272	8185
307.327	8599
307.343	8507
307.381	9066
307.434	11385
307.436	11735
307.491	21456
307.524	31958
307.546	35159
307.600	41710
307.614	36945
307.655	22081
307.704	12302
307.710	11710
307.765	11513
307.795	12756
307.819	13421
307.874	15373
307.885	15298
307.929	15297
307.975	16537
307.984	17667
308.038	28945
308.065	37891
308.093	64232
308.148	132754
308.156	147895
308.202	215744
308.246	249805
308.257	243662
308.312	134076
308.336	97571
308.366	75745
308.421	47091
308.426	44544
308.475	28565
308.517	20669
308.530	19145
308.585	15963
308.607	15118
308.639	14519
308.694	14065
308.697	14139
308.748	16700
308.787	19527
308.803	19500
308.857	17440
308.877	16504
308.912	17291
308.967	20553
308.967	20637
309.021	32470
309.058	43197
309.076	54473
309.130	97162
309.148	113729
309.185	190788
309.238	319817
309.239	320452
309.293	335110
309.328	300655
309.348	258832
309.402	125493
309.418	93184
309.457	65897
309.508	43150
309.511	42636
309.566	42480
309.598	44596
309.620	49186
309.674	64638
309.688	68895
309.729	64457
309.778	50185
309.783	49178
309.837	38175
309.868	33928
309.892	42280
309.946	67579
309.959	75468
310.001	85100
310.049	87460
310.055	84615
310.109	48405
310.139	28480
310.163	21399
310.218	12814
310.229	11609
310.272	9613
310.319	8016
310.326	7750
310.381	6376
310.409	5812
310.435	5493
310.489	4682
310.499	4635
310.543	4724
310.589	4919
310.598	4876
310.652	4547
310.679	4425
310.706	4372
310.760	4336
310.769	4350
310.814	4053
310.859	3575
310.868	3610
310.923	4136
310.948	4370
310.977	4704
311.031	5407
311.038	5499
311.085	5234
311.128	4983
311.139	4950
311.193	4708
311.218	4569
311.247	4405
311.301	4311
311.308	4290
311.356	3876
311.398	3466
311.410	3537
311.464	4086
311.488	4300
311.518	4720
311.572	5505
311.578	5612
311.626	7598
311.668	9371
311.680	8845
311.734	6080
311.758	4926
311.788	4923
311.842	5003
311.847	5019
311.896	6376
311.937	7615
311.950	7519
312.004	7046
312.027	6848
312.058	5999
312.112	4492
312.117	4351
312.165	4278
312.207	4237
312.297	4412
312.386	4267
312.476	8283
312.566	14614
312.656	5986
312.745	4028
312.835	4784
312.925	5360
313.015	3159
313.104	3744
313.194	4739
313.284	5188
313.374	8331
313.463	6041
313.553	4728
313.643	4503
313.732	3586
313.822	3524
313.912	5345
314.001	6407
314.091	6025
314.180	7156
314.270	8303
314.360	9645
314.449	7070
314.539	4568
314.628	4575
314.718	6197
314.808	5682
314.897	5672
314.987	5749
315.076	10246
315.166	8961
315.255	8461
315.345	8241
315.434	8152
315.524	7842
315.613	12330
315.703	16415
315.792	35570
315.881	85402
315.971	29429
316.060	17079
316.150	14027
316.239	10100
316.328	5826
316.418	5434
316.507	7203
316.597	10310
316.686	7825
316.775	9094
316.865	8441
316.954	4894
317.043	5060
317.133	6023
317.222	4878
317.311	5317
317.400	6041
317.490	12237
317.579	11649
317.668	10599
317.757	21460
317.847	61834
317.936	151954
318.025	55653
318.114	33243
318.203	16393
318.293	14989
318.382	18427
318.471	18587
318.560	18596
318.649	18563
318.738	7669
318.828	10897
318.917	8659
319.006	9820
319.095	21462
319.184	37540
319.273	36727
319.362	21604
319.451	8711
319.540	11948
319.629	32056
319.718	29141
319.807	12205
319.896	28067
319.985	47517
320.074	20173
320.163	6921
320.252	8824
320.341	7436
320.430	9760
320.519	17229
320.608	7524
320.697	7174
320.786	9293
320.875	14502
320.964	21687
321.053	31701
321.142	47683
321.230	33809
321.319	39776
321.408	57305
321.497	24691
321.586	25156
321.675	21782
321.764	17071
321.852	19339
321.941	40002
322.030	22382
322.119	37620
322.207	57627
322.296	21097
322.385	17655
322.474	41361
322.562	84308
322.651	32438
322.740	37636
322.829	32416
322.917	21595
323.006	21774
323.095	17919
323.183	10018
323.272	18349
323.361	31104
323.449	36152
323.538	18318
323.626	32523
323.715	14290
323.804	13447
323.892	34758
323.981	18989
324.069	7703
324.158	15569
324.246	12727
324.335	18547
324.424	20458
324.512	9043
324.601	10859
324.689	13639
324.778	17402
324.866	12101
324.954	5252
325.043	9131
325.131	10439
325.220	12515
325.308	12873
325.397	15600
325.485	7887
325.574	5631
325.662	5600
325.750	7441
325.839	4351
325.927	5949
326.015	5838
326.104	6675
326.192	6220
326.280	5082
326.369	6311
326.457	13954
326.545	20688
326.634	6711
326.722	3769
326.810	5228
326.898	5651
326.987	9477
327.075	18880
327.163	11115
327.251	5678
327.340	6161
327.428	6928
327.516	5556
327.604	4852
327.692	4540
327.781	4494
327.869	6407
327.957	7671
328.045	6984
328.133	4301
328.221	4364
328.309	4828
328.397	7424
328.485	8470
328.574	20344
328.662	45679
328.750	13726
328.838	5406
328.926	4996
329.014	5822
329.102	9956
329.190	17233
329.278	10341
329.366	4319
329.454	3650
329.542	3017
329.630	4034
329.718	4304
329.806	6857
329.893	4333
329.981	4388
330.069	6956
330.157	23839
330.245	53818
330.333	24893
330.421	8268
330.509	23508
330.597	59977
330.684	23870
330.772	6662
330.860	5541
330.948	5808
331.036	4588
331.123	2367
331.211	3223
331.299	4365
331.387	9925
331.475	11096
331.562	4389
331.650	3550
331.738	4192
331.825	2931
331.913	3536
332.001	3317
332.089	3598
332.176	6502
332.264	13811
332.352	10665
332.439	6636
332.527	4086
332.614	4168
332.702	4140
332.790	5856
332.877	11824
332.965	14370
333.052	7126
333.140	13495
333.228	17273
333.315	5512
333.403	4943
333.490	9826
333.578	16555
333.665	28190
333.753	11440
333.840	5578
333.928	5481
334.015	11243
334.103	21758
334.190	34044
334.278	10809
334.365	10514
334.452	9783
334.540	6623
334.627	7810
334.715	10236
334.802	20298
334.889	57368
334.977	43644
335.064	15625
335.151	8713
335.239	6794
335.326	9420
335.413	28059
335.501	20051
335.588	7671
335.675	7272
335.762	8287
335.850	9893
335.937	14107
336.024	31850
336.111	62313
336.199	33730
336.286	12780
336.373	6195
336.460	4902
336.547	4836
336.635	7533
336.722	5693
336.809	5444
336.896	10900
336.983	23417
337.070	40813
337.157	35480
337.245	29359
337.332	13352
337.419	4605
337.506	3953
337.593	4465
337.680	14722
337.767	19318
337.854	12775
337.941	12451
338.028	12274
338.115	5297
338.202	6474
338.289	15284
338.376	29532
338.463	10624
338.550	17354
338.637	9751
338.724	8916
338.811	7347
338.898	3896
338.984	3851
339.071	4756
339.158	12018
339.245	25335
339.332	10753
339.419	11164
339.506	6231
339.593	3933
339.679	5745
339.766	4562
339.853	12677
339.940	17880
340.027	5948
340.113	9437
340.200	10252
340.287	7185
340.374	14446
340.460	15366
340.547	7679
340.634	22926
340.720	57693
340.807	20883
340.894	5123
340.980	6457
341.067	6074
341.154	7804
341.240	19153
341.327	23224
341.414	7040
341.500	6948
341.587	5197
341.674	7851
341.760	22998
341.847	19127
341.933	5052
342.020	3672
342.106	3778
342.193	11325
342.279	13043
342.366	14986
342.452	17274
342.539	12266
342.625	38449
342.712	55940
342.798	22477
342.885	7856
342.971	3059
343.058	3095
343.144	5224
343.230	4190
343.317	5322
343.403	3725
343.490	3553
343.576	3519
343.662	5764
343.749	7074
343.835	9275
343.921	24650
344.008	130089
344.094	185389
344.180	39985
344.267	24016
344.353	66569
344.439	48747
344.525	23833
344.612	9272
344.698	10925
344.784	5741
344.870	4751
344.957	8656
345.043	10628
345.129	12415
345.215	16877
345.301	8615
345.387	5005
345.474	3103
345.560	3675
345.646	4219
345.732	4970
345.818	6724
345.904	6351
345.990	7454
346.076	5467
346.162	5927
346.249	5192
346.335	5320
346.421	8753
346.507	38911
346.593	74754
346.679	14886
346.765	5629
346.851	8123
346.937	6649
347.023	6222
347.108	8551
347.194	5517
347.280	5662
347.366	11690
347.452	41560
347.538	104594
347.624	77777
347.710	43521
347.796	7554
347.882	5150
347.967	4517
348.053	4958
348.139	4732
348.225	5307
348.311	5644
348.397	5503
348.482	8578
348.568	7993
348.654	5986
348.740	10737
348.825	9667
348.911	17055
348.997	62000
349.083	74016
349.168	10472
349.254	6271
349.340	5453
349.425	5386
349.511	9405
349.597	11251
349.682	30320
349.768	64077
349.854	19986
349.939	5448
350.025	5026
350.110	3900
350.196	4064
350.282	3675
350.367	3647
350.453	6943
350.538	6231
350.624	9189
350.709	5296
350.795	5703
350.880	4755
350.966	6625
351.051	6657
351.137	4631
351.222	8321
351.308	33376
351.393	50292
351.479	11256
351.564	5652
351.649	5692
351.735	3899
351.820	5050
351.906	5113
351.991	11562
352.076	49886
352.162	43279
352.247	10493
352.332	10831
352.418	15756
352.503	30432
352.588	103583
352.673	53290
352.759	14548
352.844	8509
352.929	13204
353.014	12450
353.100	11108
353.185	19941
353.270	29631
353.355	18415
353.441	6512
353.526	10518
353.611	28301
353.696	21936
353.781	13835
353.866	6759
353.952	11216
354.037	32764
354.122	51945
354.207	41609
354.292	12095
354.377	6973
354.462	7596
354.547	10200
354.632	8188
354.717	15460
354.802	16392
354.887	7004
354.972	4811
355.057	4773
355.142	4895
355.227	10151
355.312	19343
355.397	48225
355.482	77938
355.567	28682
355.652	30061
355.737	31974
355.822	84516
355.907	43557
355.991	10040
356.076	7475
356.161	6161
356.246	5400
356.331	8659
356.416	30343
356.501	134751
356.585	94592
356.670	16980
356.755	13916
356.840	29079
356.924	130525
357.009	280255
357.094	83320
357.179	27146
357.263	15928
357.348	18173
357.433	15499
357.517	16278
357.602	12726
357.687	9502
357.771	13126
357.856	11822
357.941	20181
358.025	102578
358.110	268998
358.195	99464
358.279	20862
358.364	23319
358.448	85407
358.533	154151
358.617	105275
358.702	95651
358.787	33365
358.871	27517
358.956	16009
359.040	6595
359.125	5435
359.209	6197
359.294	8225
359.378	12944
359.462	17943
359.547	8951
359.631	5900
359.716	5384
359.800	5979
359.885	8350
359.969	8378
360.053	7769
360.138	8952
360.222	16889
360.306	25323
360.391	14819
360.475	29298
360.559	46256
360.644	61138
360.728	36096
360.812	91548
360.896	163818
360.981	71664
361.065	28328
361.149	13136
361.233	12287
361.318	9908
361.402	11082
361.486	10028
361.570	9155
361.654	15142
361.739	43684
361.823	141978
361.907	144662
361.991	28826
362.075	31519
362.159	50428
362.243	32929
362.327	40603
362.411	41775
362.495	19583
362.580	9934
362.664	9418
362.748	10570
362.832	15530
362.916	33076
363.000	96308
363.084	205797
363.168	190652
363.252	44076
363.336	21223
363.420	26629
363.503	46044
363.587	30154
363.671	15225
363.755	17598
363.839	20952
363.923	13439
364.007	31010
364.091	23545
364.175	32118
364.258	76595
364.342	105650
364.426	151143
364.510	70077
364.594	31055
364.677	52196
364.761	164548
364.845	89832
364.929	46757
365.013	31836
365.096	32910
365.180	26364
365.264	27111
365.347	49060
365.431	16083
365.515	11076
365.598	9316
365.682	8334
365.766	8946
365.849	8454
365.933	11139
366.017	9401
366.100	5025
366.184	4265
366.267	6415
366.351	7114
366.435	6929
366.518	4713
366.602	5767
366.685	7551
366.769	8367
366.852	13566
366.936	23904
367.019	13389
367.103	7279
367.186	7334
367.270	5637
367.353	5355
367.436	7220
367.520	6617
367.603	12418
367.687	21576
367.770	27787
367.853	18149
367.937	59611
368.020	66420
368.104	19512
368.187	28091
368.270	31224
368.353	24226
368.437	22359
368.520	28104
368.603	31326
368.687	75441
368.770	88035
368.853	24000
368.936	23939
369.020	15434
369.103	8238
369.186	6498
369.269	9016
369.352	24548
369.436	23661
369.519	13658
369.602	6086
369.685	10913
369.768	9629
369.851	7635
369.934	5827
370.018	14568
370.101	26080
370.184	14652
370.267	11724
370.350	21076
370.433	34134
370.516	97620
370.599	102131
370.682	46832
370.765	69982
370.848	79045
370.931	117470
371.014	32099
371.097	10970
371.180	7822
371.263	5615
371.346	4476
371.429	5686
371.511	7980
371.594	18171
371.677	18261
371.760	14892
371.843	30469
371.926	136615
372.009	206349
372.091	58956
372.174	61644
372.257	105846
372.340	35690
372.423	28237
372.505	17860
372.588	15694
372.671	60710
372.754	126050
372.836	43699
372.919	24799
373.002	29068
373.085	18564
373.167	29940
373.250	71412
373.332	121933
373.415	189951
373.498	291847
373.580	109084
373.663	202516
373.746	187646
373.828	42901
373.911	19223
373.993	20883
374.076	35267
374.159	24062
374.241	48255
374.324	116064
374.406	59996
374.489	124593
374.571	242478
374.654	82265
374.736	65007
374.819	169340
374.901	238321
374.983	189835
375.066	32526
375.148	15389
375.231	36873
375.313	43739
375.395	20883
375.478	9239
375.560	10335
375.643	17945
375.725	70661
375.807	201521
375.890	101620
375.972	32129
376.054	23472
376.136	19255
376.219	16894
376.301	80302
376.383	161550
376.465	56673
376.548	49278
376.630	65852
376.712	144846
376.794	47466
376.877	9234
376.959	7506
377.041	7684
377.123	8679
377.205	6786
377.287	4766
377.369	6936
377.452	8732
377.534	5604
377.616	7320
377.698	6451
377.780	5954
377.862	7859
377.944	7185
378.026	3449
378.108	5602
378.190	5139
378.272	4747
378.354	3582
378.436	4942
378.518	12127
378.600	27018
378.682	36788
378.764	85234
378.846	44110
378.928	20717
379.010	26966
379.091	11242
379.173	7713
379.255	7802
379.337	15308
379.419	55914
379.501	102939
379.583	28218
379.664	16125
379.746	42270
379.828	90647
379.910	109247
379.991	69238
380.073	13440
380.155	10820
380.237	7687
380.318	5792
380.400	8720
380.482	25934
380.564	29789
380.645	32442
380.727	24361
380.809	13102
380.890	11342
380.972	7874
381.053	8136
381.135	11562
381.217	43373
381.298	81783
381.380	31018
381.461	46815
381.543	171091
381.624	146009
381.706	26510
381.787	15330
381.869	22133
381.951	95033
382.032	254493
382.113	122686
382.195	27558
382.276	24563
382.358	68545
382.439	137744
382.521	161257
382.602	210295
382.684	111076
382.765	210063
382.846	219330
382.928	263916
383.009	123313
383.090	161177
383.172	459302
383.253	452732
383.334	174366
383.416	200967
383.497	90973
383.578	65087
383.659	142404
383.741	439585
383.822	723553
383.903	299699
383.984	172393
384.066	252902
384.147	121819
384.228	32826
384.309	30142
384.390	20450
384.471	16136
384.553	18646
384.634	26515
384.715	21238
384.796	12318
384.877	26457
384.958	88452
385.039	78007
385.120	26475
385.201	15989
385.282	15057
385.363	14371
385.444	14953
385.525	36074
385.606	107918
385.687	68315
385.768	18620
385.849	37347
385.930	143106
386.011	171279
386.092	39052
386.173	12675
386.254	9484
386.335	11132
386.416	17313
386.496	62232
386.577	66408
386.658	19560
386.739	15104
386.820	10089
386.901	9226
386.981	9757
387.062	11398
387.143	33038
387.224	90382
387.304	57009
387.385	22979
387.466	11444
387.547	14716
387.627	16041
387.708	48937
387.789	157155
387.869	137765
387.950	30139
388.031	9135
388.111	6666
388.192	13116
388.273	14096
388.353	11986
388.434	14737
388.514	41190
388.595	139801
388.676	148486
388.756	75329
388.837	82795
388.917	34408
388.998	10407
389.078	10499
389.159	11171
389.239	10008
389.320	17859
389.400	14060
389.480	39129
389.561	77477
389.641	28816
389.722	20378
389.802	27020
389.883	45561
389.963	93451
390.043	36987
390.124	12830
390.204	42389
390.284	97506
390.365	43673
390.445	52641
390.525	152483
390.605	129054
390.686	41330
390.766	16378
390.846	9330
390.927	8087
391.007	8629
391.087	10514
391.167	10481
391.247	7623
391.328	10706
391.408	12070
391.488	7865
391.568	8409
391.648	16743
391.728	20445
391.808	21857
391.888	23519
391.969	59316
392.049	65467
392.129	24959
392.209	48676
392.289	92249
392.369	36935
392.449	22237
392.529	22579
392.609	25700
392.689	45123
392.769	105337
392.849	73456
392.929	69478
393.009	136906
393.089	117562
393.169	169875
393.248	458638
393.328	1096365
393.408	1053325
393.488	328010
393.568	113886
393.648	58818
393.728	39351
393.807	29344
393.887	24872
393.967	22764
394.047	25044
394.127	26700
394.206	41217
394.286	140916
394.366	499857
394.446	446838
394.525	93656
394.605	29042
394.685	25125
394.764	36665
394.844	48626
394.924	33427
395.003	22118
395.083	18117
395.163	15700
395.242	16190
395.322	14543
395.402	11605
395.481	15349
395.561	34646
395.640	70636
395.720	66379
395.799	53676
395.879	36476
395.958	50573
396.038	198324
396.117	654465
396.197	602587
396.276	152712
396.356	53265
396.435	42609
396.515	45825
396.594	71978
396.673	149796
396.753	455115
396.832	1002539
396.912	686603
396.991	169418
397.070	58900
397.150	35983
397.229	29165
397.308	47479
397.388	58423
397.467	24072
397.546	14370
397.625	13100
397.705	18626
397.784	17750
397.863	9127
397.942	7200
398.022	8658
398.101	20150
398.180	31826
398.259	13803
398.338	10529
398.417	10441
398.497	6796
398.576	8385
398.655	6285
398.734	6545
398.813	6119
398.892	19438
398.971	35409
399.050	11557
399.129	4342
399.208	4559
399.287	5573
399.366	4781
399.445	5002
399.524	5870
399.603	6061
399.682	18454
399.761	31634
399.840	44551
399.919	18930
399.998	6231
400.077	4557
400.156	4239
400.235	5897
400.313	5070
400.392	12160
400.471	62103
400.550	62054
400.629	14103
400.708	8050
400.786	6216
400.865	9960
400.944	11782
401.023	8044
401.102	3453
401.180	3785
401.259	4627
401.338	5478
401.416	10362
401.495	6250
401.574	4660
401.652	5362
401.731	8457
401.810	7060
401.888	3655
401.967	3388
402.046	5229
402.124	9207
402.203	9406
402.281	5266
402.360	8033
402.438	12467
402.517	6998
402.596	4367
402.674	3218
402.753	3218
402.831	4717
402.910	8821
402.988	47153
403.066	101323
403.145	39693
403.223	44339
403.302	86068
403.380	58356
403.459	57865
403.537	16674
403.615	7429
403.694	3153
403.772	3875
403.850	2818
403.929	4074
404.007	6359
404.085	16900
404.164	12971
404.242	5578
404.320	8902
404.398	19027
404.477	66786
404.555	214172
404.633	129777
404.711	20335
404.789	8796
404.868	7030
404.946	3644
405.024	3105
405.102	2871
405.180	3342
405.258	2558
405.336	4481
405.415	5024
405.493	11451
405.571	8869
405.649	3505
405.727	3870
405.805	8166
405.883	7311
405.961	6119
406.039	5040
406.117	4866
406.195	16468
406.273	71764
406.351	174636
406.429	66269
406.507	8730
406.585	6133
406.663	9487
406.740	12889
406.818	8657
406.896	4824
406.974	7415
407.052	28426
407.130	124760
407.208	115501
407.285	18812
407.363	6373
407.441	6475
407.519	5539
407.596	8952
407.674	19365
407.752	46594
407.830	37995
407.907	12129
407.985	6994
408.063	4650
408.141	3291
408.218	6766
408.296	7419
408.373	8670
408.451	10755
408.529	7374
408.606	3803
408.684	3494
408.762	3215
408.839	2268
408.917	3286
408.994	3440
409.072	4123
409.149	4780
409.227	9773
409.304	10705
409.382	9988
409.459	12481
409.537	18283
409.614	14002
409.692	10662
409.769	12161
409.846	20228
409.924	20540
410.001	12431
410.079	9395
410.156	9645
410.233	8995
410.311	7261
410.388	5479
410.465	6045
410.543	3975
410.620	5468
410.697	8729
410.775	9027
410.852	3930
410.929	9327
411.006	9192
411.083	5314
411.161	8580
411.238	7324
411.315	4744
411.392	5291
411.469	6986
411.547	4820
411.624	2388
411.701	3754
411.778	10671
411.855	18359
411.932	6262
412.009	4914
412.086	2802
412.163	5464
412.240	4228
412.317	5837
412.394	3772
412.471	3412
412.548	4366
412.625	4444
412.702	7225
412.779	10336
412.856	5783
412.933	2236
413.010	3216
413.087	13185
413.164	58076
413.241	51546
413.318	11421
413.395	11406
413.471	14123
413.548	4747
413.625	4574
413.702	5787
413.779	3139
413.855	2048
413.932	2178
414.009	2305
414.086	2914
414.162	3990
414.239	14075
414.316	62512
414.393	92527
414.469	20176
414.546	3807
414.623	2901
414.699	4794
414.776	6270
414.853	3230
414.929	4218
415.006	2930
415.082	2828
415.159	2873
415.236	3490
415.312	6398
415.389	15316
415.465	15656
415.542	6516
415.618	7023
415.695	11624
415.771	7274
415.848	5928
415.924	4012
416.000	2606
416.077	2855
416.153	1505
416.230	1049
416.306	2174
416.383	1254
416.459	2803
416.535	1615
416.612	2272
416.688	2136
416.764	3992
416.841	2287
416.917	2486
416.993	3798
417.069	5277
417.146	7400
417.222	8730
417.298	5241
417.374	4034
417.451	5940
417.527	9389
417.603	7970
417.679	6294
417.755	4755
417.831	2589
417.908	2183
417.984	2043
418.060	4463
418.136	18054
418.212	16099
418.288	4348
418.364	3773
418.440	5489
418.516	6667
418.592	7930
418.668	25800
418.744	37400
418.820	20022
418.896	3586
418.972	2762
419.048	6684
419.124	18212
419.200	8976
419.276	2650
419.352	2210
419.428	3066
419.504	6751
419.579	7361
419.655	5786
419.731	8790
419.807	30955
419.883	44486
419.959	20703
420.034	7553
420.110	24356
420.186	70991
420.262	34427
420.337	8107
420.413	7153
420.489	3738
420.565	3974
420.640	4426
420.716	5396
420.792	2458
420.867	5396
420.943	5450
421.019	12918
421.094	7714
421.170	4795
421.245	3779
421.321	6332
421.397	5065
421.472	11518
421.548	27916
421.623	22375
421.699	10902
421.774	10852
421.850	12226
421.925	19624
422.001	15715
422.076	14524
422.152	20527
422.227	30401
422.302	36139
422.378	55810
422.453	104056
422.529	235442
422.604	467808
422.679	602698
422.755	449682
422.830	179421
422.905	80369
422.981	45176
423.056	31158
423.131	23653
423.207	19138
423.282	20782
423.357	29288
423.432	17098
423.508	24225
423.583	43660
423.658	22027
423.733	9628
423.808	11623
423.883	15718
423.959	12945
424.034	11291
424.109	9047
424.184	5475
424.259	5276
424.334	4698
424.409	3582
424.484	5955
424.559	5511
424.634	5904
424.709	9947
424.784	9658
424.859	6430
424.934	17190
425.009	59755
425.084	70628
425.159	16263
425.234	4110
425.309	2627
425.384	3285
425.459	1663
425.534	3527
425.609	1649
425.683	2240
425.758	3469
425.833	4176
425.908	8653
425.983	43997
426.058	80013
426.132	21309
426.207	4619
426.282	5662
426.357	2348
426.431	2803
426.506	2768
426.581	3521
426.655	3333
426.730	4002
426.805	3671
426.879	4305
426.954	4707
427.029	17910
427.103	90491
427.178	151482
427.253	45046
427.327	7281
427.402	3746
427.476	4463
427.551	1695
427.625	3124
427.700	2515
427.774	1990
427.849	2654
427.923	2585
427.998	2999
428.072	4090
428.147	15384
428.221	75409
428.296	156590
428.370	56486
428.444	8018
428.519	6496
428.593	7853
428.667	7463
428.742	9932
428.816	21411
428.890	102766
428.965	115760
429.039	24564
429.113	9495
429.188	4262
429.262	4280
429.336	15868
429.410	37939
429.485	14018
429.559	8116
429.633	5143
429.707	5262
429.781	22043
429.855	110422
429.930	127198
430.004	40166
430.078	37725
430.152	66554
430.226	209987
430.300	158025
430.374	24420
430.448	10270
430.522	19397
430.596	35146
430.670	47899
430.744	200857
430.818	200272
430.892	33536
430.966	7259
431.040	4439
431.114	1546
431.188	2118
431.262	1700
431.336	2246
431.410	7699
431.484	18549
431.557	10570
431.631	3311
431.705	6695
431.779	43638
431.853	143713
431.927	67978
432.000	8738
432.074	3539
432.148	3258
432.222	2662
432.295	2123
432.369	2690
432.443	10654
432.516	74095
432.590	140616
432.664	35521
432.737	5598
432.811	2207
432.885	1643
432.958	1856
433.032	903
433.106	1211
433.179	990
433.253	1484
433.326	726
433.400	982
433.473	696
433.547	761
433.620	3558
433.694	9594
433.767	5110
433.841	1468
433.914	1078
433.988	868
434.061	1602
434.134	1338
434.208	324
434.281	465
434.355	303
434.428	1249
434.501	864
434.575	1026
434.648	1994
434.721	932
434.795	1338
434.868	845
434.941	637
435.014	1310
435.088	1576
435.161	3747
435.234	8840
435.307	8040
435.381	4473
435.454	6064
435.527	8678
435.600	8286
435.673	6158
435.746	4604
435.819	3728
435.892	2783
435.966	1345
436.039	1387
436.112	1403
436.185	753
436.258	605
436.331	424
436.404	198
436.477	781
436.550	1179
436.623	1462
436.696	1353
436.769	2036
436.842	694
436.915	2226
436.987	3802
437.060	1400
437.133	880
437.206	355
437.279	1682
437.352	988
437.425	1318
437.498	4141
437.570	11675
437.643	6981
437.716	1262
437.789	966
437.861	4496
437.934	8231
438.007	2133
438.080	1954
438.152	4099
438.225	14794
438.298	97050
438.370	192301
438.443	57516
438.516	10875
438.588	2488
438.661	1736
438.734	2130
438.806	3505
438.879	3784
438.951	3652
439.024	3847
439.096	2139
439.169	1661
439.241	1391
439.314	775
439.386	2395
439.459	2013
439.531	2337
439.604	301
439.676	1024
439.749	296
439.821	-29
439.893	922
439.966	1098
440.038	2200
440.110	2735
440.183	1903
440.255	1896
440.327	6153
440.400	40577
440.472	133320
440.544	59106
440.617	7984
440.689	4281
440.761	7093
440.833	9148
440.905	3466
440.978	1432
441.050	626
441.122	1910
441.194	1330
441.266	1579
441.338	1581
441.411	10346
441.483	57794
441.555	52968
441.627	8475
441.699	3563
441.771	1823
441.843	1852
441.915	1022
441.987	2288
442.059	638
442.131	3001
442.203	4163
442.275	6059
442.347	6967
442.419	17390
442.491	94345
442.563	160673
442.635	45698
442.706	20804
442.778	12052
442.850	4629
442.922	3005
442.994	4878
443.066	6201
443.137	4799
443.209	5521
443.281	10699
443.353	24641
443.425	111835
443.496	315055
443.568	249913
443.640	73982
443.711	14379
443.783	6519
443.855	4033
443.926	1852
443.998	2549
444.070	2986
444.141	4222
444.213	8992
444.285	9443
444.356	6031
444.428	3179
444.499	755
444.571	2294
444.642	1448
444.714	4760
444.785	8411
444.857	6168
444.928	6138
445.000	4452
445.071	6922
445.143	9284
445.214	9929
445.285	18994
445.357	53440
445.428	218761
445.500	384013
445.571	229092
445.642	112437
445.714	32980
445.785	14913
445.856	10005
445.928	11551
445.999	6035
446.070	4322
446.141	9187
446.213	8677
446.284	3147
446.355	2011
446.426	2342
446.497	1832
446.569	4551
446.640	9664
446.711	7084
446.782	1875
446.853	1650
446.924	3976
446.995	3368
447.066	1279
447.138	1724
447.209	282
447.280	393
447.351	213
447.422	436
447.493	1597
447.564	5572
447.635	7685
447.706	1476
447.777	646
447.847	-337
447.918	-210
447.989	1063
448.060	1815
448.131	3728
448.202	7362
448.273	6186
448.344	1560
448.414	2306
448.485	1148
448.556	917
448.627	-375
448.698	860
448.768	148
448.839	316
448.910	1447
448.981	2950
449.051	1054
449.122	317
449.193	7
449.263	495
449.334	-8
449.405	4650
449.475	11094
449.546	3805
449.616	2284
449.687	1058
449.758	913
449.828	941
449.899	764
449.969	82
450.040	614
450.110	867
450.181	759
450.251	898
450.322	569
450.392	941
450.463	441
450.533	278
450.604	82
450.674	28
450.744	955
450.815	325
450.885	105
450.955	1075
451.026	731
451.096	799
451.166	110
451.237	3664
451.307	3778
451.377	785
451.447	208
451.518	153
451.588	517
451.658	1139
451.728	1321
451.799	6040
451.869	3758
451.939	74
452.009	283
452.079	465
452.149	879
452.219	2197
452.289	5451
452.360	2891
452.430	1879
452.500	3744
452.570	4526
452.640	7518
452.710	19699
452.780	18421
452.850	22403
452.920	16109
452.990	4008
453.060	3035
453.129	5272
453.199	3497
453.269	10234
453.339	12213
453.409	14221
453.479	23919
453.549	27411
453.619	24827
453.688	5879
453.758	1044
453.828	358
453.898	900
453.968	434
454.037	413
454.087	182
454.107	71
454.168	15
454.177	-16
454.247	-434
454.249	-406
454.316	-278
454.330	-111
454.386	515
454.411	1318
454.456	2471
454.492	2516
454.525	2537
454.574	1680
454.595	1285
454.655	299
454.665	135
454.734	1388
454.736	1467
454.804	3360
454.817	3835
454.873	5345
454.898	4921
454.943	3935
454.979	2735
455.013	1665
455.060	1379
455.082	1353
455.141	2572
455.152	2761
455.221	4778
455.222	4852
455.291	7348
455.303	7626
455.360	8265
455.384	12296
455.430	18556
455.465	14678
455.499	11091
455.546	7627
455.569	5957
455.627	4832
455.638	4583
455.707	1717
455.708	1737
455.777	1237
455.789	1200
455.846	1118
455.869	1224
455.916	1359
455.950	1255
455.985	1070
456.031	1340
456.054	1489
456.112	1989
456.124	2020
456.193	718
456.193	696
456.262	1630
456.274	1711
456.332	1757
456.355	1918
456.401	2233
456.436	1797
456.470	1284
456.516	1330
456.540	1292
456.597	1027
456.609	968
456.678	1608
456.678	1593
456.747	953
456.759	1083
456.817	1548
456.840	1449
456.886	1287
456.920	1492
456.955	1724
457.001	1805
457.024	1769
457.082	2661
457.093	2821
457.162	2512
457.163	2536
457.232	2481
457.243	2302
457.301	1541
457.324	1795
457.370	2376
457.405	2717
457.439	3019
457.485	2553
457.508	2351
457.566	3160
457.577	3333
457.646	4674
457.647	4709
457.715	9438
457.727	10617
457.784	19293
457.808	25705
457.853	34496
457.889	38258
457.922	34248
457.969	20445
457.991	20548
458.050	28050
458.060	29845
458.129	57936
458.130	58541
458.198	54856
458.211	49433
458.267	22196
458.292	14148
458.336	9895
458.372	9578
458.405	13792
458.453	20963
458.474	28231
458.533	55804
458.543	58498
458.611	96098
458.614	96341
458.680	48209
458.694	37171
458.749	15653
458.775	10406
458.818	6949
458.855	5705
458.887	5072
458.936	4054
458.955	3780
459.016	4145
459.024	4208
459.093	4441
459.097	4434
459.162	4431
459.177	4638
459.230	5885
459.257	6767
459.299	6612
459.338	5568
459.368	5288
459.418	5509
459.437	5197
459.499	4151
459.505	4179
459.574	4897
459.579	4913
459.643	4483
459.659	4485
459.711	4672
459.740	4719
459.780	4821
459.820	5081
459.849	5012
459.900	4471
459.917	4332
459.981	4417
459.986	4427
460.054	4234
460.061	4252
460.123	4993
460.141	5317
460.191	7691
460.222	9217
460.260	10469
460.302	12135
460.328	10844
460.382	7135
460.397	6756
460.462	4804
460.465	4850
460.534	7282
460.543	7589
460.602	17596
460.623	21556
460.671	34491
460.703	45970
460.739	45504
460.783	40521
460.808	32794
460.864	8386
460.876	6929
460.944	5213
460.945	5196
461.013	5077
461.024	5164
461.081	6571
461.104	7155
461.150	6712
461.184	6119
461.218	5779
461.264	5473
461.286	5386
461.345	5340
461.355	5277
461.423	4491
461.425	4472
461.491	4150
461.505	4238
461.559	5795
461.585	6292
461.628	8030
461.665	10102
461.696	11298
461.745	13483
461.764	12338
461.825	6023
461.832	5971
461.901	7188
461.905	7277
461.969	5835
461.985	5392
462.037	4815
462.065	4665
462.105	4818
462.145	4989
462.173	5767
462.225	7004
462.241	7395
462.305	9575
462.310	9505
462.378	7585
462.385	7369
462.446	7209
462.465	7206
462.514	7172
462.545	7194
462.582	6708
462.625	6106
462.650	5964
462.705	5534
462.718	5530
462.785	5505
462.786	5509
462.854	5712
462.865	5739
462.922	6876
462.945	7420
462.990	7080
463.025	6409
463.058	5724
463.104	5167
463.126	5241
463.184	5192
463.194	5376
463.262	6633
463.264	6684
463.330	6623
463.344	6581
463.398	6996
463.424	7015
463.466	6456
463.504	6227
463.533	6519
463.583	6745
463.601	6965
463.663	7969
463.669	8148
463.737	10022
463.743	10219
463.805	11994
463.823	12296
463.873	12445
463.903	12777
463.940	13654
463.982	14534
464.008	12806
464.062	8737
464.076	8362
464.142	6650
464.144	6676
464.211	7250
464.221	7374
464.279	8525
464.301	8990
464.347	9218
464.381	9289
464.414	8700
464.461	7862
464.482	8057
464.540	8474
464.550	8481
464.617	8510
464.620	8499
464.685	11594
464.699	12331
464.753	13698
464.779	14204
464.820	14413
464.859	14634
464.888	13295
464.938	10821
464.956	10839
465.018	10979
465.023	11005
465.091	10730
465.098	10728
465.158	10124
465.177	9913
465.226	10042
465.257	9956
465.293	10893
465.336	12103
465.361	13435
465.416	16472
465.428	16887
465.495	19017
465.496	19038
465.563	17217
465.575	16912
465.631	19058
465.654	19952
465.698	15619
465.734	11705
465.765	10906
465.813	9905
465.833	10111
465.893	10791
465.900	10774
465.968	10407
465.972	10355
466.035	10561
466.052	10621
466.102	11110
466.131	11367
466.170	11099
466.210	10728
466.237	11080
466.290	11708
466.304	11710
466.369	11595
466.372	11665
466.439	13086
466.449	13270
466.506	13257
466.528	13190
466.573	15378
466.607	17003
466.641	21635
466.687	28041
466.708	30943
466.766	38835
466.775	37094
466.842	23287
466.845	22590
466.909	17714
466.925	16507
466.977	15741
467.004	15326
467.044	15364
467.083	15336
467.111	16620
467.163	18942
467.178	19499
467.242	21627
467.245	21635
467.312	20878
467.321	20735
467.379	18513
467.400	17649
467.446	18711
467.480	19416
467.559	17476
467.638	14720
467.717	16004
467.796	19900
467.875	24857
467.955	19216
468.034	18139
468.113	26566
468.192	35992
468.271	21554
468.350	21039
468.429	25330
468.508	28111
468.588	21894
468.667	16876
468.746	18320
468.825	17718
468.904	14510
468.983	15069
469.062	18652
469.141	21665
469.220	14811
469.299	13885
469.378	14240
469.456	18695
469.535	17977
469.614	14942
469.693	15133
469.772	16490
469.851	18964
469.930	17331
470.009	16348
470.088	18908
470.166	19759
470.245	30224
470.324	39132
470.403	27471
470.482	20334
470.560	17247
470.639	20439
470.718	23698
470.797	18807
470.875	17586
470.954	21419
471.033	21566
471.111	14172
471.190	13613
471.269	12293
471.347	12511
471.426	13515
471.505	14586
471.583	15051
471.662	15339
471.740	13267
471.819	14185
471.898	12973
471.976	14193
472.055	12303
472.133	13629
472.212	14069
472.290	14484
472.369	13039
472.447	12747
472.526	12391
472.604	13868
472.683	15720
472.761	18862
472.839	16123
472.918	14543
472.996	13406
473.075	14068
473.153	14561
473.231	13128
473.310	16373
473.388	16165
473.466	13558
473.545	18921
473.623	28747
473.701	31629
473.780	16371
473.858	14071
473.936	17079
474.014	15248
474.093	15629
474.171	16523
474.249	18032
474.327	14934
474.405	13128
474.484	14126
474.562	14614
474.640	13650
474.718	12893
474.796	13932
474.874	13559
474.952	12771
475.030	11878
475.108	13669
475.187	14527
475.265	16687
475.343	27735
475.421	35836
475.499	14349
475.577	12685
475.655	13251
475.733	16776
475.811	22899
475.889	21913
475.966	19049
476.044	14162
476.122	20152
476.200	28463
476.278	23083
476.356	11953
476.434	12630
476.512	17583
476.590	25750
476.667	23799
476.745	11669
476.823	13595
476.901	11873
476.979	10868
477.056	11899
477.134	11798
477.212	13619
477.290	13983
477.367	11018
477.445	9838
477.523	10515
477.601	10851
477.678	11526
477.756	11338
477.834	11454
477.911	11461
477.989	11886
478.066	11856
478.144	12120
478.222	18181
478.299	36824
478.377	38164
478.454	11203
478.532	10844
478.609	11801
478.687	16036
478.764	10825
478.842	12664
478.919	15556
478.997	15591
479.074	10045
479.152	9886
479.229	11549
479.307	10206
479.384	9377
479.461	9844
479.539	8518
479.616	10656
479.694	9985
479.771	10291
479.848	10690
479.926	10448
480.003	13133
480.080	11135
480.157	9909
480.235	9835
480.312	10632
480.389	10230
480.467	11318
480.544	13148
480.621	11863
480.698	11081
480.775	12232
480.853	10435
480.930	10071
481.007	9568
481.084	10826
481.161	11978
481.238	10923
481.315	8786
481.392	9398
481.470	10092
481.547	9689
481.624	9692
481.701	9933
481.778	10600
481.855	10922
481.932	11625
482.009	15608
482.086	15126
482.163	13698
482.240	22623
482.317	47898
482.393	42098
482.470	13533
482.547	11547
482.624	11637
482.701	11137
482.778	9382
482.855	10136
482.932	9828
483.009	10419
483.085	11351
483.162	14382
483.239	15222
483.316	13505
483.393	13504
483.469	11100
483.546	11499
483.623	12215
483.699	9875
483.776	10507
483.853	12026
483.930	14962
484.006	20695
484.083	31547
484.160	30823
484.236	51738
484.313	45702
484.389	32949
484.466	28984
484.543	29504
484.619	30024
484.696	31744
484.772	30006
484.849	27815
484.925	25794
485.002	25847
485.078	24955
485.155	26117
485.231	24041
485.308	23492
485.384	24134
485.461	25657
485.537	29884
485.614	34490
485.690	24589
485.766	23894
485.843	27776
485.919	48524
485.995	60044
486.072	26325
486.148	22389
486.224	21655
486.301	22950
486.377	25107
486.453	23403
486.530	23936
486.606	31091
486.682	35764
486.758	32959
486.835	35256
486.911	33733
486.987	46154
487.063	86686
487.139	154927
487.215	108983
487.292	44785
487.368	29749
487.444	32193
487.520	39173
487.596	45874
487.672	67677
487.748	197374
487.824	360410
487.900	139030
487.976	41312
488.052	32367
488.128	34233
488.204	30769
488.280	25043
488.356	26926
488.432	32054
488.508	42806
488.584	30018
488.660	27718
488.736	26775
488.812	30245
488.888	39344
488.964	53998
489.039	131601
489.115	240101
489.191	155759
489.267	30092
489.343	22777
489.418	20142
489.494	19341
489.570	18488
489.646	20157
489.722	19094
489.797	18794
489.873	21754
489.949	31193
490.024	32288
490.100	19484
490.176	20266
490.251	27933
490.327	45571
490.403	25840
490.478	18590
490.554	15681
490.629	16412
490.705	16545
490.781	19212
490.856	18488
490.932	22742
491.007	26025
491.083	22828
491.158	17684
491.234	17992
491.309	25122
491.385	27730
491.460	18673
491.536	19774
491.611	20810
491.686	25083
491.762	36855
491.837	84188
491.913	152856
491.988	193376
492.063	313515
492.139	68704
492.214	21755
492.289	18043
492.365	16226
492.440	22190
492.515	19985
492.590	16594
492.666	14596
492.741	17135
492.816	20283
492.891	15098
492.967	15219
493.042	15705
493.117	14812
493.192	15481
493.267	19519
493.342	44291
493.418	64846
493.493	22437
493.568	13416
493.643	13972
493.718	15998
493.793	23797
493.868	40902
493.943	32847
494.018	19573
494.093	13952
494.168	13527
494.243	13179
494.318	12907
494.393	12151
494.468	13428
494.543	14785
494.618	18265
494.693	16831
494.768	11551
494.842	13803
494.917	13901
494.992	15536
495.067	13714
495.142	13529
495.217	15436
495.292	16693
495.366	19826
495.441	24408
495.516	32289
495.591	45074
495.665	164425
495.740	498799
495.815	257851
495.890	27621
495.964	15830
496.039	17213
496.114	14446
496.188	15287
496.263	17085
496.338	13494
496.412	13165
496.487	16995
496.561	23561
496.636	28398
496.710	16348
496.785	18043
496.860	17021
496.934	15600
497.009	17162
497.083	15925
497.158	13971
497.232	16995
497.307	20476
497.381	19059
497.455	17308
497.530	18497
497.604	16512
497.679	17059
497.753	22220
497.827	31862
497.902	32767
497.976	32005
498.050	44731
498.125	146259
498.199	206814
498.273	74282
498.348	59192
498.422	45489
498.496	41200
498.570	41227
498.645	21504
498.719	17607
498.793	19516
498.867	25134
498.941	28492
499.016	52927
499.090	164200
499.164	87882
499.238	15872
499.312	16186
499.386	25920
499.460	22429
499.534	14885
499.609	16866
499.683	19130
499.757	17737
499.831	24794
499.905	91004
499.979	116820
500.053	25470
500.127	33043
500.201	45502
500.275	23034
500.349	17656
500.422	20220
500.496	30847
500.570	81900
500.644	104572
500.718	120427
500.792	44667
500.866	15078
500.940	16023
501.013	15447
501.087	16378
501.161	39746
501.235	50353
501.309	32802
501.382	81145
501.456	102597
501.530	35329
501.603	31306
501.677	20049
501.751	11438
501.825	14187
501.898	16063
501.972	34486
502.046	30017
502.119	14580
502.193	24793
502.266	44285
502.340	26159
502.413	18640
502.487	33755
502.561	23635
502.634	14763
502.708	19539
502.781	17654
502.855	12937
502.928	10123
503.002	9878
503.075	8831
503.149	9076
503.222	9570
503.295	10057
503.369	10282
503.442	12820
503.516	23611
503.589	59593
503.662	48853
503.736	20312
503.809	33362
503.882	38171
503.956	47074
504.029	66696
504.102	120535
504.175	202581
504.249	78516
504.322	27279
504.395	19478
504.468	13987
504.542	10941
504.615	9569
504.688	11587
504.761	10738
504.834	14943
504.907	20785
504.980	47207
505.053	20895
505.127	24869
505.200	28518
505.273	11212
505.346	9580
505.419	8300
505.492	9045
505.565	8037
505.638	8159
505.711	7119
505.784	7228
505.857	7217
505.930	8529
506.003	7204
506.076	9582
506.149	9091
506.221	9154
506.294	10341
506.367	15384
506.440	49575
506.513	45581
506.586	13896
506.659	10559
506.731	11069
506.804	13574
506.877	26512
506.950	14662
507.022	8717
507.095	9434
507.168	12740
507.241	12698
507.313	10305
507.386	12756
507.459	24255
507.531	17147
507.604	10151
507.677	10824
507.749	8185
507.822	13555
507.894	31180
507.967	39272
508.040	19090
508.112	14559
508.185	14253
508.257	14229
508.330	27631
508.402	15731
508.475	10818
508.547	12270
508.620	11276
508.692	14123
508.765	13039
508.837	10580
508.909	10610
508.982	11717
509.054	14108
509.127	13291
509.199	9936
509.271	9906
509.344	9161
509.416	10147
509.488	9301
509.560	11066
509.633	12226
509.705	17358
509.777	15044
509.849	25168
509.922	18959
509.994	10819
510.066	9534
510.138	10948
510.210	21124
510.283	21614
510.355	17012
510.427	16081
510.499	15002
510.571	13077
510.643	15323
510.715	29512
510.787	33096
510.859	14973
510.931	17143
511.003	29692
511.076	30534
511.148	12716
511.219	11256
511.291	14042
511.363	15307
511.435	12665
511.507	10642
511.579	11920
511.651	12331
511.723	12192
511.795	11120
511.867	10913
511.939	11127
512.010	14582
512.082	16385
512.154	13448
512.226	14343
512.298	18961
512.369	34770
512.441	26969
512.513	29444
512.585	20265
512.656	18776
512.728	22066
512.800	17239
512.871	13455
512.943	14214
513.015	14204
513.086	15883
513.158	18906
513.230	18261
513.301	29957
513.373	43591
513.444	22007
513.516	15638
513.588	16413
513.659	19117
513.731	26884
513.802	22074
513.874	43839
513.945	107973
514.016	40427
514.088	16044
514.159	18384
514.231	25726
514.302	34021
514.374	20945
514.445	16042
514.516	19671
514.588	17902
514.659	14985
514.730	19477
514.802	24430
514.873	20401
514.944	19762
515.016	18963
515.087	24750
515.158	20739
515.229	23449
515.301	17873
515.372	21350
515.443	15759
515.514	14868
515.585	13196
515.656	14564
515.728	13988
515.799	14316
515.870	16070
515.941	17012
516.012	16513
516.083	22083
516.154	25302
516.225	39158
516.296	37091
516.367	31075
516.438	34723
516.509	46658
516.580	61340
516.651	148096
516.722	654554
516.793	431643
516.864	69256
516.935	56960
517.006	58129
517.077	77854
517.148	178589
517.219	546388
517.289	1145623
517.360	242865
517.431	58089
517.502	26535
517.573	22996
517.643	21814
517.714	24577
517.785	26788
517.856	28607
517.926	35706
517.997	44072
518.068	58680
518.138	77708
518.209	107220
518.280	324233
518.350	1467102
518.421	841533
518.492	98773
518.562	46011
518.633	41135
518.703	43114
518.774	71634
518.845	188592
518.915	239233
518.986	75740
519.056	41913
519.127	71070
519.197	94994
519.268	110581
519.338	55279
519.408	24532
519.479	47934
519.549	41497
519.620	21722
519.690	15109
519.760	13499
519.831	16562
519.901	19419
519.971	13532
520.042	13029
520.112	13822
520.182	19101
520.253	30088
520.323	13630
520.393	12922
520.463	17788
520.534	10271
520.604	15086
520.674	12604
520.744	12011
520.814	19157
520.885	27202
520.955	20297
521.025	56708
521.095	36165
521.165	12811
521.235	12456
521.305	11381
521.375	12253
521.445	15003
521.515	25862
521.585	30802
521.655	34306
521.725	22140
521.795	18342
521.865	10291
521.935	13150
522.005	12433
522.075	10844
522.145	11809
522.215	11629
522.285	15759
522.355	17338
522.424	25385
522.494	27887
522.564	25622
522.634	55898
522.704	229175
522.774	122811
522.843	20725
522.913	17899
522.983	26844
523.053	21100
523.122	18852
523.192	26314
523.262	108483
523.331	148505
523.401	24982
523.471	12933
523.540	14816
523.610	11418
523.680	10686
523.749	10139
523.819	11000
523.888	10568
523.958	9731
524.027	10625
524.097	10111
524.166	10794
524.236	15197
524.305	15268
524.375	10972
524.444	9749
524.514	11714
524.583	9386
524.653	10872
524.722	12401
524.791	9426
524.861	12008
524.930	10119
524.999	12323
525.069	20790
525.138	13763
525.207	11952
525.277	11918
525.346	13511
525.415	12601
525.484	14287
525.554	14124
525.623	15120
525.692	15878
525.761	18103
525.830	22086
525.900	26581
525.969	39063
526.038	66603
526.107	114479
526.176	386964
526.245	409508
526.314	128751
526.383	184581
526.452	311653
526.522	399114
526.591	567889
526.660	179627
526.729	92686
526.797	80639
526.867	131957
526.935	559580
527.004	1048436
527.073	765986
527.142	89148
527.211	31414
527.280	26150
527.349	29559
527.418	14736
527.487	14279
527.555	11842
527.624	10273
527.693	8896
527.762	12724
527.831	10093
527.899	10972
527.968	10968
528.037	11108
528.106	14873
528.174	34405
528.243	24063
528.312	26115
528.380	51567
528.449	16981
528.518	10742
528.586	7876
528.655	9589
528.723	8417
528.792	8165
528.861	8782
528.929	6419
528.998	9114
529.066	8984
529.135	12366
529.203	10346
529.272	11525
529.340	15331
529.409	15363
529.477	11931
529.545	12480
529.614	14976
529.682	14178
529.751	16456
529.819	17983
529.887	18639
529.956	15985
530.024	17272
530.092	15252
530.161	18775
530.229	33738
530.297	23642
530.365	17748
530.434	16853
530.502	17138
530.570	16965
530.638	13128
530.707	15671
530.775	17604
530.843	12910
530.911	15350
530.979	14133
531.047	15990
531.115	15974
531.183	14826
531.252	14009
531.320	14754
531.388	12696
531.456	14524
531.524	15592
531.592	16770
531.660	19645
531.728	16587
531.796	15945
531.864	16180
531.932	16890
532.000	16633
532.067	19020
532.135	21334
532.203	24124
532.271	26482
532.339	35123
532.407	101664
532.475	81448
532.542	34263
532.610	34497
532.678	42946
532.746	125932
532.814	452881
532.881	160757
532.949	31774
533.017	22427
533.084	18067
533.152	17122
533.220	18072
533.287	22134
533.355	18810
533.423	16974
533.490	17165
533.558	17265
533.625	18151
533.693	18322
533.761	18447
533.828	18768
533.896	18375
533.963	34317
534.031	47293
534.098	63998
534.166	37735
534.233	18572
534.300	19145
534.368	19862
534.435	18235
534.503	18781
534.570	21255
534.637	22153
534.705	26870
534.772	27648
534.840	37665
534.907	146155
534.974	292362
535.041	52638
535.109	20236
535.176	16170
535.243	17589
535.310	18048
535.378	18092
535.445	15267
535.512	14826
535.579	14730
535.646	13911
535.714	14164
535.781	17308
535.848	17222
535.915	17332
535.982	15373
536.049	16862
536.116	16549
536.183	16370
536.250	16748
536.317	16493
536.384	19814
536.451	30309
536.518	35630
536.585	24808
536.652	27205
536.719	41562
536.786	39873
536.853	26921
536.920	35423
536.987	59871
537.053	57687
537.120	184951
537.187	240885
537.254	31665
537.321	17430
537.388	19055
537.454	14488
537.521	13987
537.588	13810
537.654	16674
537.721	17843
537.788	19225
537.855	14999
537.921	16626
537.988	17398
538.055	16201
538.121	16289
538.188	18065
538.254	25340
538.321	62461
538.388	46312
538.454	17911
538.521	15917
538.587	14941
538.654	14423
538.720	15513
538.787	15134
538.853	14485
538.920	18028
538.986	18212
539.053	15206
539.119	16615
539.185	18527
539.252	20852
539.318	36034
539.385	29772
539.451	21840
539.517	23333
539.583	23668
539.650	46740
539.716	165538
539.782	67613
539.849	20014
539.915	18938
539.981	18377
540.047	25806
540.114	22213
540.180	20663
540.246	21588
540.312	29171
540.378	57708
540.444	68795
540.510	54670
540.576	187200
540.643	85998
540.709	19557
540.775	17560
540.841	16006
540.907	17683
540.973	21716
541.039	27431
541.105	39307
541.171	21902
541.237	17676
541.303	18199
541.369	21487
541.435	26785
541.500	53053
541.566	41570
541.632	17961
541.698	15037
541.764	15037
541.830	13912
541.896	13478
541.961	15104
542.027	16655
542.093	17374
542.159	18578
542.224	19575
542.290	26857
542.356	47319
542.421	69371
542.487	30738
542.553	19831
542.618	18339
542.684	19180
542.750	20579
542.815	22600
542.881	33218
542.947	136703
543.012	152236
543.078	23211
543.143	17181
543.209	18442
543.274	18894
543.340	21926
543.405	46720
543.471	110768
543.536	30465
543.602	15777
543.667	14993
543.732	15504
543.798	13172
543.863	15741
543.928	13970
543.994	12885
544.059	14295
544.124	15095
544.190	14805
544.255	17184
544.320	17725
544.386	18901
544.451	27109
544.516	34746
544.581	29889
544.646	76179
544.712	177770
544.777	42334
544.842	17971
544.907	16711
544.972	15688
545.037	16100
545.102	17790
545.168	18144
545.233	19120
545.298	20471
545.363	22431
545.428	26456
545.493	46907
545.558	132736
545.623	69683
545.688	19520
545.753	18297
545.818	17705
545.883	18102
545.947	17360
546.012	18779
546.077	19363
546.142	20741
546.207	21404
546.272	29123
546.337	34610
546.401	24953
546.466	22806
546.531	21620
546.596	24721
546.661	27281
546.725	25586
546.790	23318
546.855	25771
546.919	25825
546.984	29312
547.049	30822
547.113	34882
547.178	36992
547.243	40983
547.307	46409
547.372	54586
547.436	55493
547.501	53494
547.565	58980
547.630	62924
547.695	60891
547.759	54218
547.823	52348
547.888	52692
547.952	53869
548.017	54625
548.081	59454
548.146	60659
548.210	58960
548.274	62021
548.339	62398
548.403	56883
548.468	51838
548.532	51282
548.596	53251
548.660	52112
548.725	57276
548.789	64667
548.853	64519
548.917	59428
548.982	57811
549.046	55320
549.110	47242
549.174	47825
549.238	52417
549.303	58746
549.367	63096
549.431	60814
549.495	56317
549.559	54781
549.623	62558
549.687	73016
549.751	83630
549.815	84452
549.879	82196
549.943	76591
550.007	80677
550.071	82331
550.135	86309
550.199	78003
550.263	70044
550.327	65321
550.391	66387
550.455	72952
550.519	75647
550.582	82521
550.646	102058
550.710	114207
550.774	92956
550.838	91688
550.901	93142
550.965	100588
551.029	104731
551.093	111930
551.156	121918
551.220	144087
551.284	181865
551.347	140404
551.411	110528
551.475	107500
551.538	98759
551.602	94409
551.666	87308
551.729	81513
551.793	78369
551.856	78367
551.920	75905
551.983	76833
552.047	73531
552.110	75395
552.174	74550
552.237	79097
552.301	73726
552.364	69401
552.428	68042
552.491	69619
552.554	73465
552.618	71105
552.681	73676
552.745	74593
552.808	87446
552.871	112902
552.934	88638
552.998	75894
553.061	71273
553.124	68781
553.187	65867
553.251	69164
553.314	69475
553.377	69537
553.440	74001
553.503	85125
553.567	106820
553.630	79235
553.693	71768
553.756	72618
553.819	71122
553.882	67492
553.945	67529
554.008	67616
554.071	67198
554.134	68229
554.197	65562
554.260	63285
554.323	67286
554.386	67111
554.449	68120
554.512	68478
554.575	65584
554.638	64902
554.701	64417
554.764	63545
554.827	60536
554.889	60381
554.952	55300
555.015	53519
555.078	56488
555.141	57007
555.203	55458
555.266	54949
555.329	56302
555.391	53731
555.454	55181
555.517	54579
555.580	49319
555.642	49078
555.705	47444
555.768	47038
555.830	47218
555.893	44769
555.955	42706
556.018	42987
556.080	43212
556.143	44178
556.206	44093
556.268	44733
556.330	43954
556.393	44684
556.455	40174
556.518	42408
556.580	44410
556.643	39532
556.705	37388
556.767	37612
556.830	37421
556.892	40168
556.955	56737
557.017	50150
557.079	36514
557.142	35090
557.204	38115
557.266	66830
557.328	67105
557.391	33688
557.453	30316
557.515	30959
557.577	35753
557.639	41090
557.701	32991
557.764	31656
557.826	32428
557.888	34135
557.950	37347
558.012	40039
558.074	47695
558.136	89151
558.198	288878
558.260	155461
558.322	44488
558.384	46146
558.446	50715
558.508	58406
558.570	71562
558.632	103965
558.694	160844
558.756	153800
558.818	358783
558.880	1169681
558.942	552470
559.003	308343
559.065	213439
559.127	68076
559.189	62421
559.251	66985
559.312	86444
559.374	178938
559.436	716165
559.498	554119
559.559	88950
559.621	64603
559.683	66880
559.744	95407
559.806	281023
559.868	640001
559.929	171297
559.991	65187
560.052	82063
560.114	248351
560.176	229881
560.237	129628
560.299	290119
560.360	94401
560.422	27961
560.483	22865
560.545	19591
560.606	18491
560.667	17739
560.729	17806
560.790	16343
560.852	16618
560.913	16289
560.974	16631
561.036	16520
561.097	17122
561.158	17537
561.220	18920
561.281	18075
561.342	19925
561.403	21941
561.465	27793
561.526	64921
561.587	116798
561.648	37245
561.709	18365
561.771	17190
561.832	15359
561.893	15907
561.954	15401
562.015	15383
562.076	16044
562.137	14477
562.198	15460
562.259	15700
562.320	16417
562.381	17499
562.442	27246
562.503	24803
562.564	15407
562.625	14402
562.686	14001
562.747	15324
562.808	16093
562.869	13497
562.930	14476
562.991	14123
563.051	14971
563.112	14123
563.173	14437
563.234	13791
563.294	14560
563.355	14507
563.416	15778
563.477	14213
563.537	14618
563.598	15069
563.659	14929
563.720	14814
563.780	14901
563.841	17019
563.901	15323
563.962	12897
564.023	12741
564.083	14472
564.144	14966
564.204	14155
564.265	12901
564.325	13629
564.386	16739
564.446	17024
564.507	13029
564.567	13641
564.628	14430
564.688	12841
564.749	13788
564.809	13748
564.869	14452
564.930	14220
564.990	14703
565.050	14781
565.111	14421
565.171	13869
565.231	13898
565.292	14481
565.352	12919
565.412	14706
565.472	14432
565.532	16661
565.593	15094
565.653	14892
565.713	14853
565.773	14832
565.833	19643
565.893	28591
565.953	17533
566.013	14499
566.074	14336
566.134	14165
566.194	18054
566.254	22531
566.314	19380
566.374	13412
566.434	13486
566.494	13339
566.554	13398
566.614	14631
566.673	14623
566.733	15119
566.793	15510
566.853	16191
566.913	15635
566.973	15205
567.033	16919
567.092	16279
567.152	15968
567.212	15913
567.272	15374
567.331	15889
567.391	16074
567.451	16599
567.511	18108
567.570	18120
567.630	16718
567.690	15625
567.749	15752
567.809	17462
567.868	19441
567.928	19826
567.988	19703
568.047	22148
568.107	25474
568.166	32079
568.226	47349
568.285	71148
568.345	59987
568.404	46221
568.464	39678
568.523	34839
568.582	35934
568.642	39926
568.701	46210
568.761	63226
568.820	107778
568.879	112217
568.939	77580
568.998	55762
569.057	41831
569.116	33797
569.176	28169
569.235	24799
569.294	22402
569.353	20552
569.413	18835
569.472	17021
569.531	16698
569.590	15761
569.649	15353
569.708	14933
569.767	14833
569.827	16121
569.886	15584
569.945	14689
570.004	14880
570.063	13801
570.122	16181
570.181	15496
570.240	14383
570.299	14933
570.358	14685
570.417	14352
570.475	12994
570.534	14691
570.593	16144
570.652	15480
570.711	15595
570.770	13454
570.829	14657
570.887	15703
570.946	20299
571.005	16184
571.064	13893
571.122	13565
571.181	14938
571.240	12777
571.299	11756
571.357	11532
571.416	12121
571.475	12289
571.533	13693
571.592	11557
571.650	12074
571.709	11050
571.768	13464
571.826	14327
571.885	12663
571.943	11769
572.002	11295
572.060	11689
572.119	11066
572.177	10845
572.236	11550
572.294	11740
572.352	11151
572.411	12535
572.469	11173
572.528	11085
572.586	12008
572.644	11307
572.703	13605
572.761	11312
572.819	10246
572.877	10237
572.936	9704
572.994	9768
573.052	9828
573.110	11126
573.169	12618
573.227	11524
573.285	10733
573.343	9477
573.401	9886
573.459	10237
573.517	10086
573.576	10833
573.634	11863
573.692	10900
573.750	10670
573.808	10093
573.866	10118
573.924	10513
573.982	11115
574.040	9675
574.098	10770
574.155	8909
574.213	10587
574.271	10237
574.329	10696
574.387	10851
574.445	9373
574.503	9189
574.560	9292
574.618	9102
574.676	9505
574.734	9599
574.792	11192
574.849	10458
574.907	8873
574.965	8597
575.022	7830
575.080	9241
575.138	9693
575.195	9618
575.253	10055
575.311	12240
575.368	11118
575.426	8849
575.483	9381
575.541	8228
575.598	8740
575.656	9303
575.713	9087
575.771	8964
575.828	9478
575.886	8680
575.943	10327
576.001	9110
576.058	9229
576.115	8454
576.173	10203
576.230	11040
576.287	15155
576.345	13823
576.402	9291
576.459	9223
576.517	9437
576.574	9500
576.631	9477
576.688	8129
576.746	7500
576.803	8647
576.860	8502
576.917	9189
576.974	8576
577.031	9037
577.089	8986
577.146	8334
577.203	8532
577.260	9079
577.317	8830
577.374	8688
577.431	9156
577.488	9516
577.545	9064
577.602	8677
577.659	8440
577.716	8417
577.773	8511
577.830	8026
577.886	8811
577.943	8995
578.000	8005
578.057	8837
578.114	9260
578.171	8756
578.227	9260
578.284	8136
578.341	8626
578.398	8111
578.454	9250
578.511	9300
578.568	9855
578.625	8507
578.681	8356
578.738	8139
578.794	8053
578.851	9258
578.908	9735
578.964	10234
579.021	11491
579.077	9401
579.134	9421
579.190	8651
579.247	9708
579.303	8121
579.360	9160
579.416	9524
579.473	9554
579.529	8199
579.586	9505
579.642	9412
579.698	8833
579.755	8737
579.811	9029
579.867	9600
579.924	8973
579.980	9525
580.036	9165
580.093	9059
580.149	10029
580.205	10830
580.261	10958
580.317	9385
580.374	9698
580.430	10069
580.486	10622
580.542	9535
580.598	10518
580.619	10488
580.654	10447
580.692	10258
580.710	10189
580.765	10004
580.767	10013
580.823	9383
580.838	9502
580.879	9853
580.911	10635
580.935	11232
580.984	9578
580.991	9368
581.047	9929
581.057	9879
581.103	9703
581.130	9815
581.159	9969
581.203	9237
581.215	9054
581.270	9122
581.276	9138
581.326	9403
581.349	8955
581.382	8307
581.422	9700
581.438	10282
581.494	9964
581.494	9949
581.550	9503
581.567	9685
581.606	10089
581.640	10165
581.661	10245
581.713	10097
581.717	10094
581.773	9300
581.786	9280
581.829	9273
581.859	9158
581.885	9070
581.932	10274
581.940	10492
581.996	9761
582.004	9814
582.052	10238
582.077	9881
582.107	9451
582.150	10279
582.163	10529
582.219	8991
582.223	9031
582.274	9594
582.296	9868
582.330	10342
582.368	9930
582.386	9767
582.441	9316
582.441	9319
582.497	10186
582.514	10125
582.552	10228
582.587	10537
582.608	10693
582.659	9999
582.663	9939
582.719	10038
582.732	10107
582.774	10474
582.805	10318
582.830	10172
582.877	11202
582.885	11366
582.941	11134
582.950	11141
582.996	11314
583.023	11696
583.052	12122
583.095	11904
583.107	11777
583.162	11130
583.168	11119
583.218	11337
583.240	11098
583.273	10696
583.313	10779
583.328	10808
583.384	9675
583.385	9705
583.439	10465
583.458	10325
583.494	10172
583.531	10225
583.549	10180
583.603	9776
583.605	9768
583.660	9877
583.676	9977
583.715	10242
583.748	10036
583.770	9868
583.820	9782
583.825	9761
583.881	9172
583.893	9336
583.936	10157
583.965	9881
583.991	9488
584.038	9784
584.046	9887
584.101	10028
584.110	9977
584.156	9262
584.183	9686
584.211	10322
584.255	10016
584.266	9900
584.321	9815
584.328	9857
584.376	10273
584.400	10217
584.431	10157
584.472	10207
584.486	10124
584.541	10143
584.545	10147
584.596	10284
584.617	10338
584.651	10604
584.689	10811
584.706	10766
584.761	10892
584.762	10896
584.816	10996
584.834	11218
584.871	11462
584.906	11660
584.926	11679
584.978	11524
584.980	11521
585.035	12384
585.051	12626
585.090	13314
585.123	14031
585.145	14332
585.195	14488
585.200	14560
585.254	17152
585.267	17751
585.309	19380
585.340	21170
585.364	22471
585.412	23427
585.419	23509
585.473	26808
585.484	27612
585.528	31985
585.556	37859
585.583	45363
585.628	69092
585.637	76217
585.692	156981
585.700	180467
585.747	296814
585.772	251643
585.801	177835
585.845	71536
585.856	50141
585.910	26702
585.917	25383
585.965	20984
585.989	19237
586.019	16810
586.061	15592
586.074	15342
586.128	15247
586.133	15318
586.183	15222
586.205	15030
586.237	15100
586.277	14379
586.292	14028
586.346	13604
586.349	13645
586.401	13936
586.421	14031
586.455	14291
586.493	14029
586.509	13988
586.564	14151
586.565	14215
586.618	15878
586.637	16207
586.672	16869
586.709	16666
586.727	16477
586.781	17919
586.781	17895
586.835	16619
586.853	16155
586.889	14828
586.925	14449
586.944	14297
586.996	14091
586.998	14075
587.052	14840
587.068	14943
587.106	15347
587.140	15596
587.161	15427
587.212	15561
587.215	15559
587.269	15818
587.284	15939
587.323	16348
587.356	16895
587.377	16999
587.427	17327
587.431	17368
587.485	17834
587.499	18143
587.539	18414
587.571	18450
587.593	18796
587.643	20413
587.648	20550
587.702	21424
587.715	21876
587.755	22127
587.786	22417
587.810	23141
587.858	24682
587.864	24793
587.917	26157
587.930	26628
587.971	28495
588.001	29979
588.025	30952
588.073	33041
588.079	33389
588.133	37545
588.145	38688
588.187	42089
588.217	44515
588.241	47397
588.288	54937
588.295	55810
588.348	64282
588.360	66427
588.402	75693
588.431	83247
588.456	89556
588.503	103324
588.510	105330
588.564	126577
588.575	131765
588.617	153227
588.646	170897
588.671	189763
588.718	234364
588.725	243879
588.778	336779
588.789	362744
588.832	528609
588.861	666995
588.886	854686
588.932	1241793
588.939	1275019
588.993	1393723
589.004	1408323
589.047	1108167
589.075	858423
589.100	687071
589.147	394542
589.154	372388
589.207	266908
589.218	251413
589.261	226503
589.290	217824
589.314	220384
589.361	239885
589.368	247972
589.421	338038
589.433	364636
589.475	568164
589.504	740351
589.528	916661
589.576	1227206
589.582	1206928
589.635	903924
589.647	823155
589.689	492472
589.718	287331
589.742	222165
589.790	133283
589.795	127338
589.849	90781
589.861	84133
589.902	69097
589.932	60104
589.955	55559
590.004	47803
590.009	46921
590.062	40115
590.075	38736
590.115	35231
590.146	33188
590.168	32092
590.218	29932
590.222	29624
590.275	27152
590.289	26596
590.328	25429
590.360	24669
590.381	23945
590.431	22620
590.435	22477
590.488	21239
590.503	21027
590.541	20653
590.574	20576
590.594	20207
590.645	19448
590.647	19349
590.700	18186
590.716	17967
590.753	17542
590.787	17364
590.806	17375
590.859	17511
590.859	17445
590.912	16765
590.930	16646
590.965	16633
591.001	16663
591.018	16420
591.071	15925
591.072	15976
591.124	16330
591.143	16570
591.177	16261
591.214	15986
591.230	15769
591.283	15561
591.285	15595
591.336	15555
591.356	15846
591.389	16445
591.427	16938
591.442	16285
591.495	14086
591.498	13978
591.547	13868
591.569	13994
591.600	13926
591.640	13897
591.653	13911
591.706	14183
591.711	14265
591.759	13828
591.782	13718
591.811	13801
591.853	13917
591.864	13771
591.917	13362
591.924	13365
591.969	13301
591.995	13344
592.022	13231
592.066	13180
592.075	13158
592.127	13423
592.137	13530
592.180	13423
592.208	13444
592.233	13468
592.279	13671
592.285	13601
592.338	13543
592.350	13573
592.390	12933
592.421	12597
592.443	12697
592.491	13094
592.495	13087
592.548	13855
592.562	14124
592.600	13256
592.633	12637
592.653	12549
592.704	12434
592.705	12503
592.775	12515
592.846	13041
592.916	12877
592.987	13657
593.058	13443
593.128	13038
593.199	12839
593.270	12580
593.341	12085
593.411	13832
593.482	12927
593.553	13610
593.623	12442
593.694	13076
593.764	13272
593.835	13785
593.906	13718
593.976	13968
594.047	13751
594.117	14879
594.188	14602
594.258	14096
594.329	14226
594.399	14851
594.470	15223
594.540	15245
594.611	15295
594.681	15092
594.751	14705
594.822	16292
594.892	16746
594.963	16232
595.033	16294
595.103	16212
595.174	17281
595.244	18902
595.314	18877
595.384	18592
595.455	18909
595.525	19959
595.595	19711
595.665	19542
595.736	18571
595.806	19504
595.876	18948
595.946	19288
596.016	20578
596.087	21360
596.157	21213
596.227	20670
596.297	22217
596.367	22780
596.437	23703
596.507	24334
596.577	24279
596.647	24955
596.717	25306
596.787	26885
596.857	25712
596.927	26412
596.997	26114
597.067	27101
597.137	27366
597.207	28452
597.277	28021
597.347	26640
597.417	26291
597.487	27332
597.557	26393
597.626	27371
597.696	27822
597.766	27287
597.836	26232
597.906	25250
597.975	24396
598.045	25028
598.115	25000
598.185	27449
598.254	31145
598.324	33591
598.394	33056
598.464	32185
598.533	31842
598.603	31622
598.672	28831
598.742	30079
598.812	30257
598.881	30359
598.951	30976
599.020	30718
599.090	31774
599.159	33075
599.229	30629
599.299	30479
599.368	31152
599.437	30471
599.507	28418
599.576	28005
599.646	27125
599.715	27628
599.785	26952
599.854	26814
599.924	26322
599.993	26113
600.062	26404
600.132	26287
600.201	27629
600.270	33032
600.340	34372
600.409	34427
600.478	33626
600.547	35392
600.617	32976
600.686	25910
600.755	24244
600.824	24368
600.894	21922
600.963	22561
601.032	22376
601.101	23620
601.170	21407
601.239	20523
601.308	21116
601.378	22044
601.447	21173
601.516	22140
601.585	22401
601.654	23700
601.723	23005
601.792	23359
601.861	24026
601.930	25747
601.999	26641
602.068	25327
602.137	26568
602.206	27031
602.275	27051
602.343	28525
602.412	27697
602.481	26686
602.550	26585
602.619	27823
602.688	28231
602.756	27958
602.825	28863
602.894	28488
602.963	29269
603.032	29451
603.100	28540
603.169	29334
603.238	29088
603.307	29721
603.375	28811
603.444	30187
603.513	29317
603.581	30002
603.650	31342
603.719	29169
603.787	28341
603.856	30064
603.924	30241
603.993	32086
604.061	32909
604.130	34655
604.198	36116
604.267	35390
604.335	34871
604.404	37364
604.472	36856
604.541	37495
604.609	38225
604.678	38718
604.746	38122
604.815	40824
604.883	40458
604.951	39988
605.020	40523
605.088	40344
605.156	39528
605.225	41741
605.293	40946
605.361	40617
605.429	41025
605.498	42262
605.566	43492
605.634	46545
605.702	45623
605.771	47490
605.839	47629
605.907	46677
605.975	45313
606.043	45735
606.111	43600
606.180	45349
606.248	42696
606.316	43492
606.384	42837
606.452	43711
606.520	43522
606.588	43061
606.656	42459
606.724	42127
606.792	38175
606.860	36498
606.928	31729
606.996	30893
607.064	30272
607.132	30825
607.200	32462
607.267	34747
607.335	34409
607.403	37007
607.471	34098
607.539	33111
607.607	34130
607.674	30355
607.742	30848
607.810	30021
607.878	30021
607.946	29464
608.013	30713
608.081	32123
608.149	32453
608.216	33108
608.284	33869
608.352	33388
608.419	33837
608.487	34705
608.555	32609
608.622	33867
608.690	35090
608.757	39468
608.825	39163
608.893	39340
608.960	37890
609.028	36259
609.095	34048
609.163	34918
609.230	31746
609.298	30446
609.365	30535
609.432	33091
609.500	35813
609.567	40123
609.635	46406
609.702	49036
609.769	46981
609.837	38084
609.904	32258
609.971	33909
610.039	37910
610.106	48209
610.173	81238
610.241	184976
610.308	123599
610.375	45211
610.442	33951
610.509	31697
610.577	32715
610.644	33009
610.711	32504
610.778	34931
610.845	36042
610.912	38842
610.980	39372
611.047	40693
611.114	39514
611.181	38960
611.248	36497
611.315	39653
611.382	40781
611.449	42411
611.516	44337
611.583	43078
611.650	42780
611.717	44143
611.784	45805
611.851	49316
611.918	51806
611.984	63503
612.051	86807
612.118	160111
612.185	397010
612.252	290497
612.319	72030
612.386	55965
612.452	52848
612.519	49642
612.586	48681
612.653	49401
612.719	49513
612.786	48800
612.853	43980
612.919	42811
612.986	43439
613.053	42744
613.120	38864
613.186	37481
613.253	39114
613.319	39201
613.386	37826
613.453	40207
613.519	39290
613.586	41196
613.652	44964
613.719	41759
613.785	41178
613.852	39614
613.918	39358
613.985	41009
614.051	43445
614.118	52204
614.184	51992
614.250	39704
614.317	40182
614.383	39807
614.449	39108
614.516	40255
614.582	38750
614.648	38769
614.715	38311
614.781	37194
614.847	38372
614.914	36596
614.980	36280
615.046	36693
615.112	37678
615.179	38160
615.245	38539
615.311	39457
615.377	42280
615.443	43932
615.509	41264
615.575	41335
615.642	40460
615.708	41488
615.774	44895
615.840	49926
615.906	56149
615.972	72192
616.038	109296
616.104	206234
616.170	478403
616.236	478123
616.302	102320
616.368	69388
616.434	51313
616.500	47640
616.565	50615
616.631	63095
616.697	53889
616.763	55180
616.829	74413
616.895	128846
616.961	126740
617.026	57224
617.092	39945
617.158	39219
617.224	37031
617.289	35685
617.355	34812
617.421	32958
617.487	33049
617.552	31618
617.618	31534
617.684	31214
617.749	32209
617.815	30366
617.880	29597
617.946	28843
618.012	28738
618.077	30355
618.143	29554
618.208	29858
618.274	31301
618.339	32860
618.405	26951
618.470	26250
618.536	25098
618.601	26012
618.667	23372
618.732	23703
618.798	21528
618.863	23204
618.928	21657
618.994	23171
619.059	23519
619.124	27314
619.190	24494
619.255	22247
619.320	22242
619.386	22247
619.451	20895
619.516	21809
619.581	20678
619.647	21689
619.712	21885
619.777	20167
619.842	21280
619.907	20932
619.972	21455
620.038	21462
620.103	21375
620.168	20798
620.233	20927
620.298	20473
620.363	21383
620.428	21750
620.493	22816
620.558	23126
620.623	23494
620.688	23331
620.753	22127
620.818	23650
620.883	23965
620.948	23476
621.013	22724
621.078	22883
621.143	21573
621.207	24170
621.272	22948
621.337	22514
621.402	22301
621.467	23041
621.532	22012
621.596	21634
621.661	20778
621.726	21933
621.791	21094
621.855	21534
621.920	21050
621.985	21826
622.049	22571
622.114	22168
622.179	22186
622.243	22969
622.308	23147
622.373	24888
622.437	23869
622.502	22321
622.566	22086
622.631	22239
622.695	23662
622.760	23860
622.824	22820
622.889	23378
622.953	23955
623.018	27986
623.082	28076
623.147	24514
623.211	23591
623.276	25205
623.340	21520
623.404	22115
623.469	21658
623.533	22011
623.597	21675
623.662	21015
623.726	19658
623.790	18983
623.854	18187
623.919	18317
623.983	19153
624.047	19293
624.111	19568
624.176	19611
624.240	19148
624.304	21197
624.368	20310
624.432	19265
624.496	20617
624.560	21686
624.625	22908
624.689	21202
624.753	22031
624.817	21229
624.881	20262
624.945	19340
625.009	18487
625.073	18932
625.137	19206
625.201	21503
625.265	22103
625.329	19742
625.393	19465
625.456	20365
625.520	19844
625.584	22127
625.648	20550
625.712	21728
625.776	22098
625.839	23092
625.903	16719
625.967	14903
626.031	17426
626.095	20690
626.158	18956
626.222	14808
626.286	13623
626.349	12128
626.413	11459
626.477	13679
626.540	12131
626.604	12119
626.668	12112
626.731	11411
626.795	12061
626.858	11839
626.922	11743
626.986	11775
627.049	11056
627.113	12783
627.176	12860
627.240	11183
627.303	11366
627.366	11612
627.430	11399
627.493	11844
627.557	10720
627.620	12373
627.684	10722
627.747	12629
627.810	10968
627.874	11143
627.937	7950
628.000	10935
628.064	9008
628.127	8523
628.190	7999
628.253	8342
628.317	7481
628.380	7835
628.443	7632
628.506	7737
628.569	7940
628.632	6350
628.696	6780
628.759	6547
628.822	5631
628.885	6653
628.948	6061
629.011	7203
629.074	6335
629.137	6374
629.200	4806
629.263	6806
629.326	4822
629.389	6090
629.452	5326
629.515	6008
629.578	4641
629.641	6317
629.704	5059
629.767	5975
629.830	5469
629.892	5723
629.955	5764
630.018	6615
630.081	4688
630.144	7796
630.207	5292
630.269	6666
630.332	4715
630.395	5223
630.458	4913
630.520	4696
630.583	6336
630.646	5652
630.708	5071
630.771	4833
630.834	5411
630.896	5103
630.959	4294
631.021	5646
631.084	4362
631.146	4977
631.209	5333
631.272	4665
631.334	5158
631.397	5213
631.459	4558
631.522	6355
631.584	5204
631.646	6187
631.709	6152
631.771	7214
631.834	7016
631.896	6362
631.958	4718
632.021	5886
632.083	3930
632.145	5342
632.208	4496
632.270	5959
632.332	3584
632.395	4574
632.457	5268
632.519	4240
632.581	5572
632.643	4834
632.706	4698
632.768	3567
632.830	5192
632.892	4694
632.954	4164
633.016	5286
633.078	4180
633.141	4523
633.203	3918
633.265	4221
633.327	4831
633.389	4885
633.451	5905
633.513	5455
633.575	5977
633.637	5230
633.698	5069
633.760	5437
633.822	5198
633.884	4859
633.946	4731
634.008	5305
634.070	5693
634.132	6644
634.193	6415
634.255	7625
634.317	7658
634.379	7931
634.441	5487
634.502	5582
634.564	4837
634.626	5360
634.687	5305
634.749	5122
634.811	4501
634.873	4409
634.934	5467
634.996	5280
635.057	4261
635.119	3971
635.181	4067
635.242	4821
635.304	3055
635.365	6938
635.427	4725
635.488	4730
635.550	4065
635.611	4879
635.673	3103
635.734	5633
635.796	4653
635.857	6289
635.918	5509
635.980	6806
636.041	6250
636.102	8270
636.164	6896
636.225	7583
636.286	4496
636.348	5660
636.409	5295
636.470	4051
636.531	4230
636.593	4335
636.654	4413
636.715	3494
636.776	4041
636.838	3950
636.899	4850
636.960	3281
637.021	3522
637.082	3543
637.143	4087
637.204	3729
637.265	2723
637.326	4680
637.387	4070
637.448	3122
637.509	3441
637.570	3792
637.631	3813
637.692	2993
637.753	2687
637.814	3606
637.875	3443
637.936	4245
637.997	3483
638.058	3367
638.119	2717
638.179	2874
638.240	2077
638.301	4255
638.362	2395
638.423	3316
638.483	3701
638.544	2364
638.605	2291
638.666	1942
638.726	3338
638.787	3110
638.848	3106
638.908	2709
638.969	2304
639.030	3245
639.090	2772
639.151	2554
639.211	3825
639.272	4289
639.332	6036
639.393	5085
639.453	2213
639.514	2752
639.574	3345
639.635	2761
639.695	2654
639.756	2682
639.816	3035
639.877	3250
639.937	5722
639.997	8148
640.058	2629
640.118	2274
640.178	3483
640.239	2574
640.299	2701
640.359	2128
640.420	2772
640.480	3899
640.540	2919
640.600	3208
640.661	3439
640.721	2383
640.781	4109
640.841	2787
640.901	2975
640.961	3185
641.021	3255
641.082	3384
641.142	3911
641.202	3783
641.262	1015
641.322	3184
641.382	1206
641.442	3291
641.502	2502
641.562	2774
641.622	2132
641.682	3480
641.742	3115
641.802	3247
641.861	2340
641.921	2641
641.981	3707
642.041	3677
642.101	3124
642.161	2007
642.221	1551
642.280	2861
642.340	1229
642.400	1806
642.460	2995
642.519	2553
642.579	1218
642.639	2966
642.698	278
642.758	3977
642.818	2755
642.877	1513
642.937	1940
642.997	3087
643.056	4108
643.116	2150
643.175	3575
643.235	2265
643.294	2195
643.354	2824
643.414	4252
643.473	6357
643.532	6927
643.592	11690
643.651	17825
643.711	32528
643.770	56461
643.830	123865
643.889	326465
643.948	116286
644.008	14408
644.067	6500
644.126	4786
644.186	3950
644.245	4070
644.304	2079
644.363	3780
644.423	2959
644.482	2749
644.541	3210
644.600	1854
644.659	5478
644.719	4966
644.778	9327
644.837	12348
644.896	25885
644.955	66093
645.014	34172
645.073	4928
645.132	3051
645.191	3188
645.250	2772
645.309	3804
645.368	3246
645.427	5117
645.486	5775
645.545	13741
645.604	5250
645.663	2649
645.722	2870
645.781	3793
645.840	4935
645.898	6098
645.957	10982
646.016	15085
646.075	28472
646.134	50355
646.192	121304
646.251	243397
646.310	52055
646.369	8316
646.427	6723
646.486	3423
646.545	3983
646.603	3340
646.662	3111
646.721	2672
646.779	3150
646.838	2112
646.896	4508
646.955	5381
647.014	7496
647.072	12914
647.131	39049
647.189	28461
647.248	3022
647.306	2913
647.365	2575
647.423	358
647.481	2962
647.540	450
647.598	1851
647.657	1961
647.715	2765
647.773	935
647.832	2216
647.890	392
647.948	1393
648.007	1936
648.065	-95
648.123	1130
648.181	2331
648.240	1318
648.298	877
648.356	227
648.414	2245
648.472	1444
648.531	1507
648.589	1761
648.647	1383
648.705	1391
648.763	936
648.821	1572
648.879	1538
648.937	1834
648.995	2832
649.053	4141
649.111	7408
649.169	12052
649.227	20263
649.285	37053
649.343	113376
649.401	86214
649.459	14108
649.516	8616
649.574	3470
649.632	7245
649.690	10756
649.748	5238
649.806	5413
649.863	10873
649.921	25358
649.979	25453
650.037	4342
650.094	-98
650.152	2370
650.210	483
650.268	1831
650.325	1256
650.383	191
650.440	-81
650.498	1317
650.556	1024
650.613	423
650.671	908
650.728	204
650.786	551
650.843	1371
650.901	222
650.958	671
651.016	555
651.073	511
651.131	-250
651.188	-707
651.246	41
651.303	-480
651.360	469
651.418	254
651.475	860
651.532	652
651.590	927
651.647	279
651.704	135
651.762	-254
651.819	1146
651.876	325
651.933	824
651.990	745
652.048	-439
652.105	-182
652.162	883
652.219	-53
652.276	-45
652.333	1136
652.390	-1538
652.448	-317
652.505	-67
652.562	443
652.619	267
652.676	730
652.733	1399
652.790	592
652.847	-1164
652.904	1064
652.961	-1324
653.017	-222
653.074	420
653.131	39
653.188	-675
653.245	550
653.302	-817
653.359	343
653.415	893
653.472	-343
653.529	734
653.586	380
653.642	-234
653.699	983
653.756	-1624
653.813	-250
653.869	451
653.926	-448
653.983	-309
654.039	302
654.096	147
654.152	752
654.209	-1373
654.266	315
654.322	-1781
654.379	1160
654.435	148
654.492	-373
654.548	591
654.605	1385
654.661	866
654.717	371
654.774	64
654.830	206
654.887	348
654.943	638
655.000	323
655.056	759
655.112	681
655.168	-123
655.225	-48
655.281	504
655.337	0
655.394	-182
655.450	-84
655.506	107
655.562	-652
655.618	1880
655.675	-846
655.731	351
655.787	-794
655.843	44
655.899	-260
655.955	763
656.011	190
656.067	203
656.123	1232
656.179	1135
656.235	1392
656.291	30
656.347	912
656.403	-179
656.459	-652
656.515	454
656.571	-434
656.627	923
656.683	133
656.739	602
656.795	-149
656.850	-95
656.906	292
656.962	1000
657.018	-743
657.074	443
657.129	-370
657.185	1566
657.241	2575
657.297	3036
657.352	486
657.408	342
657.464	528
657.519	247
657.575	-1300
657.630	-800
657.686	-607
657.742	-1141
657.797	-26
657.853	-336
657.908	1160
657.964	-263
658.019	-501
658.075	537
658.130	-401
658.186	-1088
658.241	85
658.297	-260
658.352	-597
658.407	4
658.463	-511
658.518	-395
658.573	-275
658.629	-916
658.684	-725
658.739	476
658.795	-811
658.850	-1
658.905	-875
658.960	62
659.016	-1087
659.071	150
659.126	50
659.181	-640
659.236	760
659.291	2152
659.346	167
659.401	1098
659.457	753
659.512	306
659.567	716
659.622	-12
659.677	-696
659.732	-1275
659.787	-632
659.842	-160
659.897	-257
659.952	-58
660.007	-460
660.061	133
660.116	-382
660.171	-122
660.226	-497
660.281	752
660.336	-859
660.391	358
660.445	-1041
660.500	87
660.555	-302
660.610	-555
660.664	244
660.719	-24
660.774	-399
660.828	216
660.883	-153
660.938	98
660.992	-1253
661.047	597
661.101	-931
661.156	45
661.211	-1007
661.265	-143
661.320	-995
661.374	-79
661.429	-985
661.483	207
661.538	-700
661.592	-684
661.647	-1056
661.701	123
661.755	-95
661.810	639
661.864	-1506
661.919	-439
661.973	-147
662.027	-1551
662.081	-1298
662.136	-138
662.190	-692
662.244	407
662.299	-524
662.353	-103
662.407	-543
662.461	-655
662.515	-267
662.569	-439
662.624	-389
662.678	7
662.732	-404
662.786	-472
662.840	-544
662.894	-532
662.948	-1132
663.002	76
663.056	-254
663.110	-229
663.164	-693
663.218	-134
663.272	-1724
663.326	-354
663.380	-302
663.434	-402
663.488	-617
663.542	572
663.595	-127
663.649	-714
663.703	-193
663.757	-423
663.811	-1477
663.864	-403
663.918	446
663.972	-546
664.026	-310
664.079	-27
664.133	-193
664.187	-15
664.240	-387
664.294	-192
664.348	-54
664.401	-75
664.455	-22
664.508	470
664.562	11
664.615	-107
664.669	-1036
664.722	-47
664.776	-706
664.829	32
664.883	-126
664.936	17
664.990	-960
665.043	-325
665.097	-1268
665.150	-366
665.203	-1488
665.257	140
665.310	-172
665.363	726
665.417	-373
665.470	-34
665.523	-422
665.576	135
665.630	-269
665.683	-325
665.736	-469
665.789	-328
665.842	-1469
665.895	61
665.949	-110
666.002	-309
666.055	-606
666.108	28
666.161	-1207
666.214	-582
666.267	-44
666.320	415
666.373	480
666.426	67
666.479	-1143
666.532	19
666.585	294
666.638	391
666.691	-413
666.744	601
666.796	-212
666.849	-88
666.902	-939
666.955	-362
667.008	-1219
667.060	-67
667.113	-599
667.166	-479
667.219	-896
667.271	-435
667.324	-515
667.377	135
667.430	-625
667.482	-73
667.535	91
667.587	764
667.640	531
667.693	424
667.745	586
667.798	2977
667.850	-195
667.903	526
667.955	-584
668.008	546
668.060	-453
668.113	-795
668.165	-918
668.218	-115
668.270	-528
668.322	-613
668.375	-374
668.427	627
668.479	-941
668.532	248
668.584	-561
668.636	445
668.689	-337
668.741	-670
668.793	-97
668.845	-488
668.898	-339
668.950	-377
669.002	166
669.054	385
669.106	-1508
669.158	292
669.211	-678
669.263	-74
669.315	-11
669.367	-177
669.419	-470
669.471	780
669.523	318
669.575	2140
669.627	693
669.679	-3
669.731	-1
669.783	163
669.835	612
669.886	728
669.938	-711
669.990	196
670.042	-328
670.094	169
670.146	75
670.197	833
670.249	630
670.301	789
670.353	1338
670.404	3353
670.456	5098
670.508	8234
670.560	11673
670.611	19326
670.663	31022
670.715	71405
670.766	161526
670.818	91118
670.869	11310
670.921	4109
670.972	1610
671.024	1054
671.075	1019
671.127	1759
671.178	19
671.230	585
671.281	452
671.333	600
671.384	110
671.436	653
671.487	1694
671.538	2098
671.590	2964
671.641	6043
671.692	11379
671.744	24885
671.795	23745
671.846	7077
671.897	1647
671.949	1007
672.000	254
672.051	542
672.102	203
672.153	-101
672.204	-169
672.256	106
672.307	-340
672.358	-245
672.409	106
672.460	-316
672.511	-512
672.562	-674
672.613	-929
672.664	-737
672.715	-138
672.766	-106
672.817	-876
672.868	-360
672.919	-741
672.970	-91
673.021	-505
673.071	-185
673.122	-30
673.173	-84
673.224	-277
673.275	-98
673.326	-322
673.376	-312
673.427	-1084
673.478	-255
673.528	131
673.579	-391
673.630	-260
673.680	373
673.731	-904
673.782	4
673.832	-405
673.883	-472
673.934	-536
673.984	487
674.035	-754
674.085	430
674.136	-682
674.186	-165
674.237	-916
674.287	588
674.338	-123
674.388	-235
674.438	-1619
674.489	118
674.539	-521
674.589	82
674.640	-792
674.690	634
674.740	-1462
674.791	675
674.841	-232
674.891	285
674.942	101
674.992	63
675.042	-811
675.092	-145
675.142	-355
675.193	91
675.243	-698
675.293	-476
675.343	-1197
675.393	-113
675.443	-697
675.493	-144
675.543	-1432
675.593	-104
675.643	-1415
675.693	336
675.743	161
675.793	-500
675.843	-1215
675.893	-130
675.943	-373
675.993	-514
676.043	-951
676.093	-98
676.142	-593
676.192	-289
676.242	-883
676.292	-119
676.341	-760
676.391	364
676.441	-805
676.491	-1086
676.540	-666
676.590	-400
676.640	-1080
676.689	-338
676.739	-428
676.789	-727
676.838	-1424
676.888	472
676.937	-640
676.987	138
677.037	-740
677.086	-732
677.136	6
677.185	-568
677.235	-596
677.284	1
677.333	-726
677.383	-357
677.432	-942
677.482	-742
677.531	-375
677.580	-95
677.630	-535
677.679	-854
677.728	-565
677.778	339
677.827	-537
677.876	-378
677.925	-795
677.975	-667
678.024	-770
678.073	-129
678.122	-411
678.171	-147
678.220	-65
678.269	-577
678.319	-473
678.368	-758
678.417	-15
678.466	1002
678.515	-314
678.564	-373
678.613	-1797
678.662	-736
678.711	-1066
678.760	-818
678.809	-1431
678.857	-653
678.906	-68
678.955	-862
679.004	-727
679.053	-543
679.102	-637
679.151	-291
679.199	-707
679.248	-836
679.297	-939
679.346	-691
679.394	-2073
679.443	-96
679.492	-69
679.540	106
679.589	325
679.638	-661
679.686	-1754
679.735	-1169
679.784	-682
679.832	-406
679.881	-848
679.929	-492
679.978	-621
680.026	-776
680.075	-965
680.123	-1088
680.172	-1178
680.220	-125
680.268	-389
680.317	-516
680.365	-1029
680.414	-749
680.462	-1096
680.510	56
680.559	-579
680.607	-440
680.655	-1350
680.703	-807
680.752	-679
680.800	-565
680.848	-1032
680.896	-1059
680.945	-750
680.993	-729
681.041	-1396
681.089	-109
681.137	40
681.185	-176
681.233	-1463
681.258	-990
681.281	-548
681.329	-1045
681.377	-887
681.380	-891
681.425	-1043
681.473	-560
681.502	-642
681.521	-715
681.569	-626
681.617	-485
681.624	-571
681.665	-1155
681.713	-100
681.745	-45
681.761	-23
681.809	-664
681.857	324
681.867	149
681.904	-476
681.952	-722
681.989	-610
682.000	-587
682.048	-646
682.096	-1081
682.111	-997
682.143	-841
682.191	-302
682.233	-1
682.239	44
682.286	-368
682.334	-1174
682.354	-994
682.382	-784
682.430	93
682.476	-654
682.477	-674
682.525	-305
682.572	-1045
682.598	-601
682.620	-211
682.667	-760
682.715	-328
682.720	-349
682.763	-648
682.810	-371
682.841	-457
682.857	-495
682.905	299
682.952	-417
682.963	-245
683.000	310
683.047	-777
683.085	-607
683.095	-557
683.142	-602
683.190	617
683.206	137
683.237	-793
683.284	362
683.328	-650
683.332	-730
683.379	-422
683.426	-535
683.449	-451
683.473	-421
683.521	-754
683.568	-471
683.571	-451
683.615	-176
683.662	218
683.693	-219
683.709	-483
683.757	-95
683.804	-349
683.814	-315
683.851	-166
683.898	-390
683.936	-130
683.945	-89
683.992	-85
684.039	-266
684.057	-460
684.086	-704
684.133	-345
684.179	-824
684.180	-848
684.227	174
684.274	-179
684.300	133
684.321	426
684.368	-1033
684.415	259
684.422	150
684.462	-601
684.509	-430
684.543	-387
684.556	-346
684.603	-301
684.649	-474
684.665	-134
684.696	510
684.743	-166
684.786	105
684.790	127
684.837	-105
684.883	580
684.908	195
684.930	-204
684.977	261
685.023	-428
685.029	-395
685.070	-99
685.117	-554
685.150	-279
685.164	-176
685.210	-368
685.257	340
685.272	272
685.303	178
685.350	-322
685.393	44
685.396	65
685.443	487
685.490	388
685.514	331
685.536	241
685.583	-55
685.629	-36
685.636	-128
685.675	-655
685.722	135
685.757	-210
685.768	-301
685.815	280
685.861	763
685.878	659
685.908	358
685.954	-141
686.000	513
686.000	525
686.047	-269
686.093	525
686.121	303
686.139	130
686.185	147
686.232	124
686.242	175
686.278	345
686.324	153
686.363	169
686.370	169
686.416	-124
686.463	38
686.484	-26
686.509	-57
686.555	-532
686.601	-8
686.606	41
686.647	397
686.693	424
686.727	243
686.739	201
686.785	-60
686.831	619
686.848	554
686.877	334
686.923	391
686.969	-326
686.969	-329
687.015	711
687.061	316
687.090	598
687.107	722
687.153	494
687.199	394
687.211	217
687.245	-288
687.291	772
687.332	-93
687.336	-168
687.382	627
687.428	18
687.453	270
687.474	454
687.520	275
687.565	731
687.574	696
687.611	627
687.657	847
687.695	415
687.702	348
687.748	1109
687.794	1171
687.816	1146
687.839	926
687.885	613
687.931	243
687.937	271
687.976	684
688.022	742
688.058	643
688.067	594
688.113	557
688.158	318
688.179	128
688.204	41
688.249	635
688.295	850
688.300	888
688.340	951
688.386	1184
688.421	826
688.431	762
688.477	885
688.522	514
688.542	845
688.567	1179
688.613	216
688.658	839
688.663	844
688.703	1090
688.749	923
688.784	1039
688.794	1015
688.839	1190
688.884	608
688.905	621
688.930	716
688.975	912
689.020	1090
689.026	1027
689.065	577
689.110	617
689.146	780
689.155	856
689.201	1008
689.246	774
689.267	962
689.291	1113
689.336	1232
689.381	1042
689.388	1092
689.426	1244
689.471	1112
689.509	963
689.516	946
689.561	825
689.606	976
689.630	939
689.651	1015
689.696	514
689.741	1512
689.750	1516
689.785	1403
689.830	1099
689.871	1493
689.875	1525
689.920	1076
689.965	1117
689.992	1117
690.010	1160
690.054	1088
690.099	1278
690.112	1138
690.144	744
690.189	512
690.233	429
690.233	433
690.278	810
690.323	497
690.354	865
690.367	1057
690.412	907
690.457	1656
690.474	1657
690.501	1381
690.546	1443
690.590	878
690.595	872
690.635	1275
690.680	1164
690.716	1365
690.724	1332
690.769	911
690.813	1167
690.836	987
690.857	1120
690.902	1590
690.946	1889
690.957	2068
690.991	2474
691.035	2279
691.077	2696
691.080	2715
691.124	2413
691.168	2383
691.198	2269
691.213	2122
691.257	1893
691.301	1096
691.318	1147
691.346	1506
691.390	1422
691.434	1658
691.439	1665
691.478	1529
691.522	1505
691.559	1094
691.567	1077
691.611	1436
691.655	1523
691.680	1624
691.699	1602
691.743	1590
691.787	1591
691.800	1561
691.831	1590
691.875	1539
691.919	1610
691.921	1611
691.964	1490
692.008	1104
692.041	1052
692.052	1173
692.096	1276
692.139	1511
692.162	1709
692.183	1717
692.227	1523
692.271	1260
692.282	1264
692.315	1524
692.359	1803
692.402	2131
692.403	2136
692.447	1579
692.490	1693
692.523	1434
692.534	1451
692.578	1627
692.622	1524
692.643	1638
692.666	1668
692.709	1768
692.753	1521
692.763	1504
692.797	1465
692.840	1376
692.884	1315
692.884	1322
692.928	1403
692.971	1689
693.004	1670
693.015	1653
693.059	1675
693.102	2020
693.124	2064
693.146	2056
693.189	1897
693.233	1862
693.245	1950
693.276	2310
693.320	1788
693.363	2053
693.365	2044
693.407	1705
693.450	1906
693.485	1516
693.493	1523
693.537	2012
693.580	1995
693.605	2268
693.624	2441
693.667	2298
693.710	2689
693.725	2684
693.753	3184
693.797	4309
693.840	5240
693.845	5374
693.883	5279
693.926	4560
693.966	4252
693.970	4217
694.013	3457
694.056	3121
694.086	2690
694.099	2599
694.142	2208
694.185	2006
694.206	1883
694.229	1948
694.272	1791
694.315	2355
694.326	2285
694.358	2152
694.401	2525
694.444	2707
694.446	2714
694.487	2848
694.530	2523
694.566	2593
694.573	2565
694.616	1915
694.659	1771
694.686	1489
694.702	1560
694.745	2040
694.787	1949
694.806	2133
694.830	2153
694.873	2023
694.916	1840
694.926	1759
694.959	1827
695.002	2409
695.044	2385
695.046	2389
695.087	2425
695.130	2159
695.166	2362
695.172	2412
695.215	2117
695.258	2114
695.286	2191
695.301	2221
695.343	2135
695.386	2036
695.406	2001
695.428	2007
695.471	1889
695.514	1756
695.526	1724
695.556	1785
695.599	2281
695.641	2191
695.646	2219
695.684	2311
695.726	2090
695.766	2036
695.769	2044
695.811	1838
695.854	1858
695.886	1851
695.896	1903
695.938	2194
695.981	2067
696.005	2119
696.023	2150
696.065	2180
696.108	2515
696.125	2461
696.150	2520
696.192	2898
696.235	3011
696.245	3105
696.277	2980
696.319	2529
696.361	2383
696.365	2342
696.404	2569
696.446	2881
696.485	3253
696.488	3253
696.530	2913
696.572	2507
696.604	2478
696.614	2565
696.656	2606
696.698	2788
696.724	2849
696.740	2884
696.783	3049
696.825	3095
696.844	3127
696.867	3130
696.909	3093
696.951	3074
696.964	3045
696.992	2799
697.034	2538
697.076	2109
697.083	2038
697.118	2408
697.160	2910
697.202	3433
697.203	3435
697.244	3135
697.286	2783
697.323	2509
697.327	2550
697.369	2932
697.411	3144
697.442	3329
697.453	3241
697.494	2847
697.536	2491
697.562	2227
697.578	2452
697.620	3061
697.661	3596
697.682	3885
697.703	3744
697.744	3384
697.786	3117
697.801	2988
697.828	3376
697.869	3985
697.911	4520
697.921	4672
697.952	4164
697.994	3320
698.035	2575
698.040	2463
698.077	2598
698.118	2874
698.160	3066
698.160	3057
698.201	3031
698.243	2848
698.279	2830
698.284	2877
698.325	3144
698.367	3444
698.399	3612
698.408	3566
698.449	3370
698.491	3137
698.518	2986
698.532	3079
698.573	3303
698.614	3549
698.638	3670
698.656	3562
698.697	3308
698.738	3020
698.757	2890
698.779	3060
698.820	3327
698.862	3625
698.877	3724
698.903	3796
698.944	3885
698.985	3975
698.996	3990
699.026	3871
699.067	3689
699.116	3464
699.235	3398
699.354	3692
699.474	2814
699.593	3436
699.713	3362
699.832	3756
699.951	3636
700.070	3722
700.190	2800
700.309	4174
700.428	3098
700.547	4070
700.667	2458
700.786	4006
700.905	3001
701.024	4572
701.143	2227
701.262	3928
701.381	3603
701.500	3537
701.619	3362
701.738	3842
701.857	3318
701.976	3744
702.095	2990
702.214	3441
702.333	3458
702.452	3745
702.571	3116
702.690	3741
702.809	3412
702.928	4183
703.047	2970
703.165	3281
703.284	2552
703.403	4111
703.522	2871
703.640	3341
703.759	4145
703.878	4502
703.997	3381
704.115	3457
704.234	2904
704.353	2600
704.471	2275
704.590	3009
704.708	2526
704.827	3018
704.946	2516
705.064	2400
705.183	2687
705.301	3210
705.420	3297
705.538	3156
705.656	2397
705.775	2850
705.893	3063
706.012	3918
706.130	2534
706.249	3356
706.367	2364
706.485	3646
706.604	1998
706.722	3375
706.840	3156
706.958	4606
707.077	2716
707.195	3012
707.313	2714
707.431	2344
707.549	2303
707.668	2973
707.786	2397
707.904	2707
708.022	1955
708.140	3216
708.258	2837
708.376	4270
708.494	1787
708.612	3086
708.730	2716
708.848	2764
708.966	2100
709.084	4173
709.202	2718
709.320	2654
709.438	2280
709.556	2695
709.674	1825
709.791	3719
709.909	1602
710.027	2159
710.145	2435
710.263	3498
710.380	2933
710.498	3161
710.616	1638
710.733	3250
710.851	2606
710.969	3624
711.086	1411
711.204	3440
711.322	2020
711.439	2978
711.557	2708
711.674	3330
711.792	2204
711.909	2203
712.027	1871
712.144	2670
712.262	2049
712.379	3236
712.497	1929
712.614	3377
712.732	2734
712.849	2909
712.966	2782
713.084	3965
713.201	2550
713.318	3410
713.436	2363
713.553	1829
713.670	2427
713.787	2737
713.905	2340
714.022	3406
714.139	2540
714.256	4543
714.373	4842
714.490	9582
714.608	25719
714.725	122631
714.842	139850
714.959	9584
715.076	3411
715.193	3089
715.310	2836
715.427	2745
715.544	2155
715.661	3144
715.778	3001
715.895	3417
716.011	2100
716.128	2536
716.245	2309
716.362	3137
716.479	3897
716.596	3218
716.713	2303
716.829	3210
716.946	2036
717.063	2527
717.180	1940
717.296	2072
717.413	1556
717.530	2488
717.646	1870
717.763	2128
717.880	1814
717.996	1741
718.113	1764
718.229	2383
718.346	1744
718.462	2299
718.579	2968
718.695	6740
718.812	2694
718.928	2836
719.045	2105
719.161	2116
719.277	1430
719.394	2966
719.510	2152
719.626	2439
719.743	2206
719.859	4575
719.975	7911
720.092	31721
720.208	77776
720.324	11093
720.440	2784
720.557	3246
720.673	4190
720.789	4588
720.905	3441
721.021	2854
721.137	1207
721.253	2093
721.369	1715
721.486	1751
721.602	1753
721.718	2881
721.834	1482
721.950	2004
722.066	1068
722.181	2266
722.297	2808
722.413	2616
722.529	1850
722.645	1956
722.761	1133
722.877	2083
722.993	1815
723.108	2065
723.224	1901
723.340	2289
723.456	1647
723.571	2237
723.687	1615
723.803	2699
723.918	1459
724.034	1501
724.150	1040
724.265	1755
724.381	883
724.497	2320
724.612	1099
724.728	1445
724.843	890
724.959	1235
725.074	1460
725.190	2733
725.305	883
725.421	1718
725.536	1861
725.651	1473
725.767	398
725.882	1961
725.997	480
726.113	2567
726.228	1638
726.343	1997
726.459	1018
726.574	1205
726.689	989
726.804	2269
726.920	1262
727.035	1451
727.150	1628
727.265	1921
727.380	2168
727.495	2661
727.610	891
727.725	1778
727.841	1352
727.956	2615
728.071	1702
728.186	1503
728.301	1012
728.416	2235
728.531	1397
728.645	1450
728.760	1401
728.875	2456
728.990	1675
729.105	1896
729.220	1372
729.335	1746
729.449	1343
729.564	1651
729.679	857
729.794	1666
729.908	935
730.023	1496
730.138	1380
730.253	1375
730.367	1751
730.482	1805
730.596	1124
730.711	1522
730.826	1937
730.940	1900
731.055	900
731.169	1457
731.284	1496
731.398	1378
731.513	1569
731.627	1410
731.742	1582
731.856	2442
731.970	1733
732.085	2430
732.199	3011
732.313	4966
732.428	11468
732.542	43326
732.656	27794
732.771	5265
732.885	1911
732.999	3126
733.113	1975
733.227	2412
733.342	2278
733.456	2761
733.570	1572
733.684	2565
733.798	2240
733.912	1845
734.026	1320
734.140	2291
734.254	1486
734.368	1990
734.482	1859
734.596	2059
734.710	1749
734.824	2600
734.938	1764
735.052	2198
735.166	1868
735.280	2152
735.393	2067
735.507	2021
735.621	1544
735.735	1792
735.849	1574
735.962	2181
736.076	1898
736.190	2236
736.303	1615
736.417	2304
736.531	1399
736.644	1712
736.758	1571
736.872	2959
736.985	1876
737.099	1744
737.212	1047
737.326	2152
737.439	1683
737.553	2118
737.666	1696
737.780	2145
737.893	1837
738.007	2496
738.120	1816
738.233	1810
738.347	1135
738.460	1918
738.573	2132
738.687	1875
738.800	1996
738.913	2635
739.026	2177
739.140	1824
739.253	1431
739.366	2045
739.479	626
739.592	1038
739.705	868
739.818	2041
739.932	1073
740.045	1948
740.158	890
740.271	2079
740.384	1513
740.497	2111
740.610	2253
740.723	1838
740.836	1989
740.949	2369
741.062	1682
741.174	2395
741.287	990
741.400	1646
741.513	1702
741.626	2545
741.739	1458
741.851	2413
741.964	1630
742.077	2032
742.189	1311
742.302	3452
742.415	3037
742.527	1989
742.640	1109
742.753	285
742.865	1747
742.978	1980
743.090	1424
743.203	1542
743.316	312
743.428	1047
743.541	1088
743.653	555
743.766	411
743.878	1129
743.990	911
744.103	2536
744.215	4140
744.327	2966
744.440	1971
744.552	2775
744.664	1372
744.777	553
744.889	1039
745.001	1831
745.113	1107
745.226	1385
745.338	1164
745.450	1138
745.562	1777
745.674	1000
745.786	1256
745.898	1536
746.010	1112
746.122	474
746.234	464
746.347	1280
746.459	990
746.570	1006
746.682	2083
746.794	5970
746.906	3425
747.018	972
747.130	1534
747.242	1209
747.354	662
747.466	1268
747.577	1168
747.689	1891
747.801	1115
747.913	944
748.024	378
748.136	1049
748.248	1148
748.359	1586
748.471	968
748.583	895
748.694	524
748.806	835
748.918	832
749.029	2409
749.141	693
749.252	2367
749.364	425
749.475	2784
749.587	1186
749.698	1449
749.809	778
749.921	1319
750.032	-225
750.144	966
750.255	831
750.366	913
750.478	1171
750.589	1183
750.700	836
750.811	1727
750.923	1181
751.034	2362
751.145	3530
751.256	1122
751.367	303
751.479	1068
751.590	384
751.701	734
751.812	354
751.923	780
752.034	349
752.145	1357
752.256	582
752.367	558
752.478	570
752.589	1343
752.700	1044
752.811	951
752.922	209
753.032	1181
753.143	311
753.254	1059
753.365	1054
753.476	1377
753.586	463
753.697	710
753.808	269
753.919	537
754.029	142
754.140	1476
754.251	-406
754.361	431
754.472	639
754.582	834
754.693	250
754.804	964
754.914	423
755.025	1056
755.135	558
755.246	380
755.356	480
755.466	1722
755.577	708
755.687	509
755.798	275
755.908	429
756.018	416
756.129	919
756.239	664
756.349	925
756.460	162
756.570	1118
756.680	481
756.790	1372
756.900	1823
757.011	1093
757.121	707
757.231	-162
757.341	129
757.451	-227
757.561	366
757.671	878
757.781	152
757.891	1383
758.001	36
758.111	660
758.221	1143
758.331	922
758.441	1201
758.551	1791
758.661	189
758.771	1194
758.880	87
758.990	1435
759.100	-70
759.210	-3
759.320	807
759.429	1251
759.539	481
759.649	500
759.758	70
759.868	1935
759.978	-532
760.087	1620
760.197	1181
760.307	694
760.416	1024
760.526	295
760.635	986
760.745	1255
760.854	1077
760.964	1481
761.073	1393
761.182	256
761.292	450
761.401	1101
761.511	884
761.620	763
761.729	-42
761.839	604
761.948	416
762.057	302
762.166	1097
762.276	315
762.385	814
762.494	1253
762.603	344
762.712	821
762.822	-328
762.931	985
763.040	66
763.149	1246
763.258	244
763.367	1236
763.476	196
763.585	1152
763.694	179
763.803	813
763.912	1230
764.021	1252
764.130	1565
764.238	569
764.347	891
764.456	1501
764.565	835
764.674	1794
764.783	1034
764.891	1071
765.000	969
765.109	1456
765.217	1423
765.326	1690
765.435	1435
765.543	2185
765.652	3137
765.761	3265
765.869	5212
765.978	9845
766.086	16833
766.195	38026
766.303	103340
766.412	307818
766.520	279312
766.629	59796
766.737	19453
766.846	11771
766.954	7204
767.062	6174
767.171	3335
767.279	3469
767.387	2679
767.496	2145
767.604	1950
767.712	2126
767.820	1881
767.928	2307
768.037	1131
768.145	1537
768.253	1049
768.361	895
768.469	1006
768.577	871
768.685	1505
768.793	2238
768.901	940
769.009	1715
769.117	1487
769.225	2694
769.333	4044
769.441	6114
769.549	14062
769.657	35636
769.765	124611
769.873	276547
769.981	91085
770.088	16518
770.196	6556
770.304	6076
770.412	3607
770.519	2729
770.627	1732
770.735	2061
770.842	1441
770.950	1757
771.058	106
771.165	2577
771.273	677
771.380	1509
771.488	1915
771.595	1931
771.703	1411
771.810	2222
771.918	196
772.025	2487
772.133	991
772.240	1902
772.348	1613
772.455	2008
772.562	1091
772.670	1060
772.777	923
772.884	762
772.991	400
773.099	2075
773.206	248
773.313	1830
773.420	1077
773.528	231
773.635	880
773.742	1302
773.849	1050
773.956	1147
774.063	400
774.170	1794
774.277	1225
774.384	2325
774.491	551
774.598	1427
774.705	1368
774.812	1954
774.919	1171
775.026	2226
775.133	717
775.239	956
775.346	796
775.453	1291
775.560	556
775.667	1475
775.773	752
775.880	1506
775.987	76
776.093	1864
776.200	1261
776.307	1306
776.413	540
776.520	903
776.627	902
776.733	1114
776.840	-523
776.946	2253
777.053	3317
777.159	8712
777.266	5634
777.372	7485
777.478	8089
777.585	4180
777.691	762
777.798	1077
777.904	478
778.010	1644
778.117	745
778.223	1083
778.329	791
778.435	959
778.542	263
778.648	537
778.754	754
778.860	697
778.966	694
779.072	1197
779.178	344
779.284	774
779.391	-793
779.497	212
779.603	1031
779.708	231
779.815	1251
779.920	4823
780.026	6869
780.132	1503
780.238	60
780.344	567
780.450	2036
780.556	1154
780.661	-371
780.767	949
780.873	-24
780.979	399
781.085	-179
781.190	467
781.296	-279
781.402	370
781.507	81
781.613	-55
781.719	-410
781.824	631
781.930	537
782.035	19
782.141	-359
782.246	565
782.352	654
782.457	799
782.563	77
782.668	505
782.773	-413
782.879	309
782.984	246
783.090	1134
783.195	1010
783.300	779
783.405	544
783.511	280
783.616	490
783.721	770
783.826	-174
783.932	613
784.037	354
784.142	433
784.247	-550
784.352	1014
784.457	-64
784.562	267
784.667	-9
784.772	-527
784.877	-120
784.982	810
785.087	-186
785.192	895
785.297	-275
785.402	4
785.507	41
785.611	950
785.716	-356
785.821	875
785.926	-87
786.031	335
786.135	-206
786.240	204
786.345	-1026
786.450	374
786.554	-187
786.659	111
786.763	-1175
786.868	838
786.973	75
787.077	-424
787.182	-209
787.286	-28
787.391	-219
787.495	18
787.600	-229
787.704	75
787.809	230
787.913	-10
788.017	-328
788.122	793
788.226	-933
788.330	192
788.435	-371
788.539	46
788.643	-501
788.747	261
788.852	-99
788.956	-858
789.060	-59
789.164	18
789.268	-346
789.372	562
789.476	-803
789.580	46
789.684	-953
789.788	1010
789.892	-221
789.996	-723
790.100	348
790.204	-256
790.308	-817
790.412	-548
790.516	79
790.620	-665
790.724	-70
790.828	-164
790.931	-655
791.035	965
791.139	-509
791.242	-132
791.346	-22
791.450	-248
791.554	-568
791.657	-884
791.761	483
791.864	493
791.968	-1291
792.072	284
792.175	-531
792.279	-153
792.382	-252
792.486	1130
792.589	-774
792.693	731
792.796	-1469
792.899	897
793.003	198
793.106	-338
793.209	-466
793.313	1236
793.416	-1861
793.519	140
793.623	-269
793.726	294
793.829	-74
793.932	-911
794.035	-735
794.138	306
794.242	157
794.345	276
794.448	506
794.551	1197
794.654	2712
794.757	3458
794.860	-817
794.963	-302
795.066	-1359
795.169	854
795.272	-1359
795.375	-174
795.477	-935
795.580	775
795.683	-927
795.786	287
795.889	-1781
795.991	868
796.094	112
796.197	-895
796.300	53
796.402	-287
796.505	-1050
796.608	-712
796.710	-222
796.813	-593
796.915	-1328
797.018	495
797.120	-408
797.223	-1051
797.326	-333
797.428	52
797.530	-405
797.633	-80
797.735	-983
797.838	-423
797.940	-259
798.042	7
798.145	-1016
798.247	100
798.349	-827
798.452	-235
798.554	-119
798.656	-608
798.758	681
798.860	-302
798.962	-299
799.065	-462
799.167	-1234
799.269	1136
799.371	-3
799.473	278
799.575	-1226
799.677	-185
799.779	420
799.881	-576
799.983	-81
800.085	-347
800.187	83
800.289	-779
800.390	-619
800.492	348
800.594	238
800.696	-350
800.798	-535
800.899	-780
801.001	-1062
801.103	-752
801.205	-919
801.306	-332
801.408	-570
801.509	-912
801.611	-795
801.713	-233
801.814	-1610
801.916	-725
802.017	-770
802.119	-761
802.220	-1550
802.322	-1600
802.423	423
802.525	-1321
802.626	-868
802.727	-62
802.829	-1213
802.930	-1400
803.031	387
803.133	-921
803.234	-844
803.335	-694
803.436	-1939
803.538	-149
803.639	-1776
803.740	-258
803.841	-791
803.942	-632
804.043	-754
804.144	-473
804.245	-1039
804.346	-740
804.447	-1039
804.548	-187
804.649	258
804.750	-6
804.851	-1640
804.952	-196
805.053	-1030
805.154	-1483
805.255	-377
805.355	-97
805.456	-918
805.557	-874
805.658	-1732
805.758	-210
805.859	-1058
805.960	-1012
806.061	-946
806.161	-385
806.262	-1282
806.362	-1097
806.463	-1261
806.564	-515
806.664	-1410
806.765	-883
806.865	-902
806.966	-1018
807.066	-1111
807.166	7
807.267	-938
807.367	-522
807.468	-655
807.568	-1424
807.668	-827
807.769	448
807.869	-1003
807.969	-51
808.069	-696
808.170	-347
808.270	-1368
808.370	-126
808.470	58
808.570	-1186
808.670	-1232
808.770	200
808.870	-1127
808.970	65
809.070	-1587
809.170	-1151
809.271	-866
809.370	-188
809.470	-644
809.570	-854
809.670	-2116
809.770	-13
809.870	-573
809.970	186
810.070	-527
810.169	-383
810.269	-2020
810.369	363
810.469	-1099
810.568	-901
810.668	-1421
810.768	-617
810.867	-1046
810.967	-289
811.066	-1317
811.166	-552
811.265	-283
811.365	-291
811.464	-561
811.564	-464
811.663	-1289
811.763	-1295
811.862	-380
811.962	-718
812.061	-1399
812.160	-555
812.260	-1186
812.359	-333
812.458	-1414
812.557	245
812.657	-1382
812.756	-854
812.855	-1204
812.954	-737
813.053	-503
813.153	-39
813.252	-1352
813.351	-141
813.450	-762
813.549	-1001
813.648	-1415
813.747	-718
813.846	-1130
813.945	-537
814.044	-1514
814.143	-818
814.242	-476
814.341	-1456
814.439	-142
814.538	-517
814.637	-1361
814.736	-572
814.835	-789
814.933	-289
815.032	-865
815.131	386
815.229	-111
815.328	938
815.427	-741
815.525	-359
815.624	-331
815.722	-1300
815.821	350
815.919	21
816.018	-849
816.116	1375
816.215	-260
816.313	1213
816.412	-423
816.510	333
816.609	186
816.707	1368
816.805	-321
816.904	-239
817.002	-138
817.100	673
817.198	1055
817.296	-72
817.395	-1222
817.493	738
817.591	11
817.689	841
817.787	949
817.885	2254
817.983	4727
818.081	14089
818.179	34491
818.277	93582
818.375	70385
818.473	14335
818.571	4568
818.669	3554
818.767	3075
818.865	4694
818.963	2966
819.061	6254
819.158	12294
819.256	29773
819.354	72176
819.452	173763
819.549	93521
819.647	17440
819.745	5453
819.842	3564
819.940	2025
820.038	1248
820.135	988
820.233	1901
820.330	733
820.428	700
820.525	566
820.623	115
820.720	42
820.818	324
820.915	228
821.012	1505
821.110	-674
821.207	1380
821.304	-1388
821.402	724
821.499	1912
821.596	2838
821.693	1728
821.791	619
821.888	-382
821.985	2544
822.082	91
822.179	976
822.276	20
822.373	1147
822.470	-619
822.567	191
822.664	-1003
822.761	365
822.858	-1040
822.955	427
823.052	-439
823.149	20
823.246	-902
823.343	-325
823.440	-157
823.536	203
823.633	-732
823.730	-745
823.827	-866
823.923	584
824.020	624
824.117	417
824.213	-728
824.310	497
824.407	-1382
824.503	115
824.600	-1223
824.696	-168
824.793	-464
824.889	-927
824.986	-1073
825.082	-831
825.179	-384
825.275	-567
825.371	-757
825.468	-483
825.564	-2053
825.660	316
825.757	-931
825.853	-339
825.949	-1971
826.045	-479
826.142	-1097
826.238	-58
826.334	-896
826.430	-352
826.526	-749
826.622	-634
826.718	-266
826.814	-685
826.910	709
827.006	-633
827.102	-1181
827.198	194
827.294	-969
827.390	-125
827.486	-952
827.582	-1076
827.678	-1326
827.774	-48
827.869	-1804
827.965	1145
828.061	-1363
828.157	-73
828.252	-538
828.348	-210
828.444	-499
828.539	-816
828.635	-2049
828.731	-637
828.826	-1644
828.922	609
829.017	-1581
829.113	-336
829.208	-1528
829.304	-830
829.399	-910
829.495	-363
829.590	-716
829.685	-774
829.781	-443
829.876	-17
829.971	-1186
830.066	198
830.162	-679
830.257	286
830.352	-1085
830.447	230
830.543	-406
830.638	-1349
830.733	-489
830.828	-799
830.923	-1340
831.018	-479
831.113	-1210
831.208	-1055
831.303	-1591
831.398	34
831.493	-1134
831.588	-146
831.683	-1276
831.778	-797
831.873	-1148
831.967	286
832.062	-1876
832.157	-710
832.252	188
832.346	-195
832.441	-63
832.536	258
832.631	1872
832.725	295
832.820	-573
832.914	-588
833.009	-1335
833.104	-285
833.198	-1001
833.293	-1006
833.387	-1302
833.482	-291
833.576	-1577
833.670	-278
833.765	-958
833.859	-860
833.954	-496
834.048	-195
834.142	-389
834.237	-1047
834.331	-718
834.425	478
834.519	-1153
834.613	-99
834.708	-981
834.802	93
834.896	-625
834.990	-1115
835.084	-1132
835.178	-425
835.272	-659
835.366	-752
835.460	-401
835.554	-333
835.648	-1465
835.742	-399
835.836	-1823
835.930	-1980
836.024	-1034
836.117	138
836.211	-783
836.305	-1200
836.399	-959
836.493	-1318
836.586	82
836.680	-466
836.774	-1473
836.867	-45
836.961	-1784
837.055	-481
837.148	-1361
837.242	-233
837.335	-1664
837.429	-315
837.522	-1448
837.616	-663
837.709	-485
837.803	-491
837.896	-768
837.989	-1794
838.083	-1371
838.176	-76
838.269	-993
838.363	-557
838.456	-1213
838.549	154
838.642	-478
838.735	1540
838.829	-893
838.922	-764
839.015	-874
839.108	-543
839.201	-1086
839.294	268
839.387	-1191
839.480	-1249
839.573	-471
839.666	-680
839.759	-1550
839.852	-1054
839.945	-997
840.038	-1218
840.131	-750
840.223	-805
840.316	-289
840.409	-469
840.502	-1653
840.594	382
840.687	-1989
840.780	-1130
840.873	-1533
840.965	-563
841.058	-1378
841.150	-529
841.243	-1086
841.336	-999
841.428	-1312
841.521	-1234
841.613	-985
841.706	90
841.798	-1189
841.890	-832
841.983	-1815
842.075	-153
842.167	-770
842.260	-1371
842.352	-825
842.444	-802
842.537	-606
842.629	-516
842.721	-1282
842.813	-778
842.905	-2441
842.997	-287
843.090	-1248
843.182	-439
843.274	-1349
843.366	540
843.458	235
843.550	113
843.642	-1672
843.734	35
843.826	-899
843.918	-568
844.009	-567
844.101	-1755
844.193	-1144
844.285	-863
844.377	-888
844.469	611
844.560	983
844.652	2170
844.744	-916
844.835	-881
844.927	-1947
845.019	-924
845.110	-1796
845.202	-75
845.293	-674
845.385	-231
845.476	-1202
845.568	-545
845.659	-2360
845.751	175
845.842	-1746
845.934	-1369
846.025	-1910
846.116	-497
846.208	-160
846.299	-1027
846.390	-1709
846.482	-412
846.573	-914
846.664	-353
846.755	-817
846.846	-239
846.937	-2033
847.029	-983
847.120	-1683
847.211	-1181
847.302	-454
847.393	-1194
847.484	-899
847.575	-654
847.666	-1481
847.757	-1462
847.847	-1317
847.938	-648
848.029	-1195
848.120	-1384
848.211	-1713
848.302	-1692
848.392	-2006
848.483	-287
848.574	-2033
848.664	-797
848.755	-1003
848.846	-680
848.936	-1500
849.027	-477
849.118	-868
849.208	-1367
849.299	-815
849.389	856
849.480	2822
849.570	7079
849.661	12983
849.751	24902
849.841	7695
849.932	756
850.022	-1107
850.112	648
850.203	-1247
850.293	-546
850.383	-1404
850.474	-1107
850.564	-831
850.654	-708
850.744	-1392
850.834	-952
850.924	-807
851.014	-483
851.104	-1116
851.194	-1456
851.284	-1056
851.374	-249
851.464	-2195
851.554	-601
851.644	-1239
851.734	-491
851.824	-1404
851.914	-1308
852.004	-921
852.094	-1762
852.183	-1043
852.273	-126
852.363	-2356
852.452	-645
852.542	-1093
852.632	-791
852.721	-1353
852.811	-434
852.901	-897
852.990	-1350
853.080	-1406
853.169	-562
853.259	-749
853.348	-668
853.438	-635
853.527	1180
853.617	1286
853.706	4995
853.795	9831
853.885	22994
853.974	46680
854.063	84151
854.152	139543
854.242	53244
854.331	6390
854.420	1947
854.509	1201
854.598	930
854.687	-514
854.777	-338
854.866	-708
854.955	-1112
855.044	-990
855.133	-1342
855.222	-1203
855.311	-961
855.400	-1187
855.488	-560
855.577	-1554
855.666	-443
855.755	-1027
855.844	-1229
855.933	-1633
856.021	-951
856.110	-513
856.199	-891
856.288	-1187
856.376	-1567
856.465	-1413
856.554	-669
856.642	-1267
856.731	-1260
856.819	-1156
856.908	-1471
856.996	-1416
857.085	-1371
857.173	-1287
857.262	-858
857.350	-1237
857.438	-1232
857.527	-629
857.615	-1215
857.703	-921
857.792	-776
857.880	-1296
857.968	-1241
858.056	-1434
858.145	-689
858.233	-742
858.321	-1133
858.409	-1338
858.497	-1175
858.585	-1814
858.673	-96
858.761	-1107
858.849	-1401
858.937	-2128
859.025	-872
859.113	-890
859.201	-677
859.289	-364
859.377	-612
859.465	-703
859.552	7
859.640	-1321
859.728	-506
859.816	-1875
859.903	-1207
859.991	-1642
860.079	-84
860.166	-1939
860.254	50
860.342	-1689
860.429	-1278
860.517	-1197
860.604	-723
860.692	-772
860.779	-660
860.867	-1528
860.954	-122
861.042	-2099
861.129	-138
861.216	-804
861.304	-1573
861.391	-1090
861.478	-1322
861.565	-1185
861.653	86
861.740	-2218
861.827	-1381
861.914	-2244
862.001	-976
862.089	-2124
862.176	-517
862.263	-1373
862.350	-666
862.437	-1343
862.524	-501
862.611	-976
862.698	20
862.785	-575
862.871	1149
862.958	-815
863.045	-521
863.132	-1404
863.219	-413
863.306	-1762
863.392	-249
863.479	-1732
863.566	-1187
863.652	-1174
863.739	-1239
863.826	-1704
863.912	-815
863.999	-1525
864.086	-908
864.172	-1015
864.259	-217
864.345	-430
864.432	-113
864.518	-752
864.604	-844
864.691	-776
864.777	-716
864.863	-99
864.950	-165
865.036	-879
865.122	993
865.209	791
865.295	634
865.381	321
865.467	830
865.553	1177
865.639	2474
865.726	5565
865.812	12832
865.898	23796
865.984	36429
866.070	68852
866.156	80429
866.242	20258
866.328	3217
866.414	1363
866.499	1389
866.585	785
866.671	1369
866.757	215
866.843	930
866.928	-851
867.014	151
867.100	650
867.186	284
867.271	-60
867.357	796
867.442	499
867.528	608
867.614	309
867.699	836
867.785	1194
867.870	1527
867.956	2002
868.041	1746
868.127	751
868.212	1380
868.297	1914
868.383	954
868.468	932
868.553	3005
868.639	2038
868.724	4064
868.809	3954
868.894	1147
868.979	-64
869.065	682
869.150	-1219
869.235	-585
869.320	-691
869.405	-729
869.490	-207
869.575	-430
869.660	122
869.745	607
869.830	-464
869.915	-69
870.000	-90
870.085	-37
870.169	-178
870.254	1024
870.339	-564
870.424	-896
870.509	-784
870.593	469
870.678	-59
870.763	-78
870.847	292
870.932	347
871.016	-116
871.101	414
871.186	13
871.270	-109
871.355	-954
871.439	-502
871.523	-455
871.608	-655
871.692	-260
871.777	564
871.861	-627
871.945	-808
872.030	-757
872.114	-917
872.198	-787
872.282	295
872.367	-842
872.451	-482
872.535	-123
872.619	-171
872.703	-685
872.787	111
872.871	-404
872.955	-265
873.039	-916
873.123	-960
873.207	-614
873.291	314
873.375	-304
873.459	-308
873.543	-480
873.627	96
873.711	-1146
873.794	477
873.878	-1341
873.962	-1579
874.045	-735
874.129	39
874.137	-11
874.213	-510
874.245	-552
874.296	-626
874.352	-982
874.380	-1155
874.460	-619
874.464	-599
874.547	-1336
874.568	-1017
874.631	-68
874.676	-459
874.714	-793
874.784	522
874.798	783
874.881	179
874.892	108
874.965	-388
874.999	-287
875.048	-183
875.107	-289
875.131	-311
875.215	57
875.215	57
875.298	-240
875.323	-473
875.381	-960
875.430	-597
875.465	-347
875.538	-527
875.548	-563
875.631	160
875.646	74
875.714	-241
875.753	-236
875.798	-249
875.861	-600
875.881	-724
875.964	-776
875.968	-754
876.047	-300
876.076	-266
876.130	-156
876.183	-65
876.213	-37
876.291	546
876.296	577
876.379	-366
876.398	-263
876.462	175
876.506	-164
876.545	-472
876.613	350
876.628	542
876.711	-227
876.721	-166
876.794	384
876.828	356
876.877	152
876.935	466
876.960	619
877.043	549
877.043	550
877.125	1270
877.150	1093
877.208	556
877.258	987
877.291	1289
877.365	226
877.374	89
877.456	1001
877.472	950
877.539	979
877.579	1058
877.622	1079
877.687	1157
877.704	1149
877.787	1206
877.794	1137
877.869	515
877.901	772
877.952	1122
878.008	647
878.034	480
878.115	1152
878.117	1169
878.199	175
878.222	443
878.282	1297
878.329	1330
878.364	1192
878.437	1325
878.447	1349
878.529	-135
878.544	57
878.611	991
878.651	755
878.694	781
878.758	1850
878.776	2071
878.858	1134
878.865	1117
878.941	709
878.972	684
879.023	822
879.078	643
879.105	733
879.185	1814
879.187	1832
879.269	2013
879.292	2058
879.351	2049
879.399	1744
879.433	1506
879.506	1157
879.516	1182
879.598	1095
879.613	1158
879.680	1298
879.720	1495
879.762	1636
879.827	1156
879.844	1070
879.926	1384
879.933	1416
880.007	1997
880.040	2211
880.089	2537
880.147	2323
880.171	2254
880.253	3712
880.254	3707
880.335	5342
880.360	6061
880.417	9751
880.467	13132
880.499	16057
880.574	22386
880.580	21728
880.662	9687
880.680	7378
880.744	4117
880.787	1954
880.825	1675
880.893	2188
880.907	2239
880.989	1596
881.000	1571
881.070	2060
881.106	2194
881.152	1868
881.213	1602
881.233	1694
881.315	1473
881.319	1489
881.396	2158
881.426	2018
881.478	1554
881.532	2143
881.559	2414
881.639	1301
881.641	1288
881.722	2403
881.745	2258
881.803	1866
881.852	1935
881.885	2158
881.958	2251
881.966	2247
882.047	3030
882.064	2895
882.129	2780
882.171	3499
882.210	5240
882.277	7382
882.291	7197
882.372	5919
882.383	5679
882.454	3698
882.489	2947
882.535	2834
882.596	2585
882.616	2554
882.697	2108
882.702	2100
882.778	2132
882.808	1957
882.859	1926
882.914	2048
882.940	2224
883.020	2911
883.021	2924
883.102	2397
883.127	2497
883.183	3132
883.233	2996
883.264	2672
883.339	2499
883.345	2499
883.426	1864
883.445	1885
883.507	2462
883.551	2420
883.587	2567
883.657	3378
883.668	3518
883.749	3696
883.763	3761
883.830	2752
883.869	2290
883.910	2119
883.975	1520
883.991	1659
884.072	2311
884.081	2404
884.152	3252
884.187	3636
884.233	3618
884.292	3569
884.314	3429
884.394	2404
884.398	2361
884.475	2153
884.504	1859
884.555	2005
884.610	2668
884.636	2991
884.716	3522
884.716	3538
884.797	3758
884.821	3733
884.877	3171
884.927	2669
884.958	2639
885.033	2571
885.038	2558
885.118	2251
885.139	2101
885.199	2190
885.244	2407
885.279	2669
885.350	2947
885.359	3014
885.439	3800
885.456	3817
885.520	3137
885.561	2972
885.600	2848
885.667	2504
885.680	2736
885.760	3987
885.773	4155
885.840	3291
885.878	2833
885.920	2915
885.984	2866
886.000	2970
886.080	3662
886.089	3701
886.160	4188
886.195	4407
886.240	4059
886.300	3682
886.320	3806
886.400	4170
886.406	4164
886.480	4436
886.511	4677
886.560	5623
886.616	6257
886.640	5771
886.720	4578
886.722	4521
886.800	3572
886.827	3315
886.879	3798
886.932	4098
886.959	4352
887.038	5352
887.039	5362
887.119	4261
887.143	3976
887.198	4285
887.248	4319
887.278	4133
887.354	3632
887.358	3669
887.437	4140
887.459	4277
887.517	4495
887.564	4573
887.596	4379
887.669	3911
887.676	3882
887.755	3256
887.774	3113
887.835	3515
887.880	3754
887.914	3842
887.985	4015
887.994	4119
888.073	4847
888.090	4981
888.153	5140
888.195	5181
888.232	4886
888.300	4308
888.311	4309
888.391	4238
888.405	4198
888.470	3847
888.510	3566
888.549	3664
888.615	3923
888.628	4068
888.708	4667
888.720	4759
888.787	4377
888.825	4117
888.866	3871
888.930	3430
888.945	3522
889.024	3954
889.035	3996
889.103	4466
889.140	4653
889.182	4415
889.245	4092
889.261	4183
889.340	4526
889.349	4547
889.419	4562
889.454	4531
889.498	4106
889.559	3504
889.577	3617
889.656	4040
889.664	4069
889.735	4450
889.768	4602
889.814	4529
889.873	4399
889.978	4082
890.083	5132
890.187	4828
890.292	4771
890.397	4784
890.501	3683
890.606	3627
890.710	4739
890.815	5472
890.919	5566
891.024	4392
891.128	4636
891.233	3844
891.337	5543
891.442	5311
891.546	4558
891.650	4988
891.755	3948
891.859	5891
891.963	5762
892.068	5388
892.172	4923
892.276	3911
892.380	4383
892.484	5790
892.589	6557
892.693	5775
892.797	4729
892.901	4023
893.005	4045
893.109	5216
893.213	5773
893.317	4370
893.421	3642
893.525	3063
893.629	4065
893.733	5248
893.837	4978
893.941	3936
894.045	3269
894.148	3494
894.252	5356
894.356	4953
894.460	5964
894.564	4062
894.667	3865
894.771	3392
894.875	3504
894.978	4389
895.082	5063
895.186	4893
895.289	4900
895.393	4650
895.496	5156
895.600	4014
895.703	3156
895.807	4215
895.910	4517
896.014	4019
896.117	4381
896.221	3978
896.324	4789
896.427	3253
896.531	3070
896.634	3945
896.737	4076
896.840	4577
896.944	4070
897.047	4549
897.150	5032
897.253	4231
897.356	3319
897.460	4826
897.563	4413
897.666	5290
897.769	4369
897.872	3419
897.975	4514
898.078	3906
898.181	3643
898.284	3620
898.387	6046
898.490	5050
898.593	3484
898.695	4059
898.798	3260
898.901	3209
899.004	4093
899.107	3856
899.209	4365
899.312	5318
899.415	4505
899.518	3666
899.620	3322
899.723	5219
899.826	9050
899.928	12076
900.031	5851
900.133	5057
900.236	3570
900.338	3106
900.441	3114
900.543	3253
900.646	3574
900.748	3534
900.851	4392
900.953	4386
901.055	3836
901.158	4832
901.260	3790
901.362	3629
901.465	3158
901.567	4680
901.669	4483
901.771	3760
901.873	4276
901.976	4155
902.078	4186
902.180	3205
902.282	4470
902.384	3880
902.486	4910
902.588	4518
902.690	4461
902.792	3632
902.894	4124
902.996	3977
903.098	4341
903.200	3813
903.302	3012
903.404	3243
903.505	3908
903.607	4054
903.709	5090
903.811	4373
903.913	3616
904.014	3553
904.116	3062
904.218	2599
904.319	3984
904.421	3914
904.523	3983
904.624	3843
904.726	3855
904.827	3553
904.929	2929
905.030	3917
905.132	5006
905.233	4471
905.335	2691
905.436	3376
905.537	3285
905.639	3575
905.740	3865
905.841	4493
905.943	3623
906.044	3646
906.145	3322
906.247	3172
906.348	3485
906.449	4072
906.550	3925
906.651	3839
906.752	3058
906.854	3916
906.955	2935
907.056	3971
907.157	4526
907.258	3837
907.359	3687
907.460	3303
907.561	3180
907.662	3637
907.762	3430
907.863	4061
907.964	5155
908.065	3541
908.166	3032
908.267	3712
908.367	3569
908.468	3362
908.569	4193
908.670	5699
908.770	6325
908.871	7397
908.971	5214
909.072	4736
909.173	2912
909.273	3662
909.374	4078
909.474	3793
909.575	3556
909.675	3772
909.776	4203
909.876	4277
909.977	3943
910.077	3972
910.177	4470
910.278	4324
910.378	3847
910.478	4566
910.579	4802
910.679	4073
910.779	3951
910.879	4967
910.980	3963
911.080	3887
911.180	4277
911.280	3410
911.380	3565
911.480	4031
911.580	4818
911.680	4268
911.780	5286
911.880	5213
911.980	2830
912.080	3474
912.180	3803
912.280	4078
912.380	3659
912.480	2458
912.580	4189
912.679	3117
912.779	4844
912.879	4831
912.979	3301
913.078	3276
913.178	3310
913.278	3077
913.377	4166
913.477	3696
913.577	3770
913.676	4333
913.776	4344
913.875	3520
913.975	4905
914.074	3146
914.174	3880
914.273	3199
914.373	3118
914.472	4119
914.572	3631
914.671	3858
914.770	3893
914.870	3301
914.969	3938
915.068	3711
915.167	4928
915.267	3773
915.366	3569
915.465	3659
915.564	4566
915.663	4547
915.763	3427
915.862	4304
915.961	4256
916.060	3879
916.159	3514
916.258	3651
916.357	3088
916.456	3871
916.555	4374
916.654	4448
916.752	4234
916.851	3811
916.950	3858
917.049	3635
917.148	3716
917.247	3801
917.345	3061
917.444	3718
917.543	3404
917.642	3514
917.740	4025
917.839	4989
917.937	4722
918.036	4651
918.135	3537
918.233	4101
918.332	3536
918.430	3528
918.529	3575
918.627	3462
918.726	4297
918.824	4155
918.923	4155
919.021	3644
919.119	3496
919.218	3354
919.316	3761
919.414	4052
919.512	4740
919.611	4281
919.709	4847
919.807	4518
919.905	4895
920.003	4888
920.102	4556
920.200	5305
920.298	4616
920.396	4236
920.494	4185
920.592	4124
920.690	5168
920.788	4985
920.886	4255
920.984	5723
921.082	5597
921.180	5544
921.277	5531
921.375	5600
921.473	6461
921.571	5531
921.669	5388
921.766	5343
921.864	6791
921.962	5673
922.060	5948
922.157	5412
922.255	6246
922.352	5571
922.450	6556
922.548	5795
922.645	7022
922.743	8283
922.840	10876
922.938	12435
923.035	11459
923.133	10826
923.230	12346
923.327	13750
923.425	13130
923.522	13140
923.619	11801
923.717	11165
923.814	11330
923.911	10767
924.008	11184
924.106	10986
924.203	10503
924.300	11202
924.397	11151
924.494	11580
924.591	11518
924.688	11740
924.786	10857
924.883	10558
924.979	10993
925.077	10154
925.173	9978
925.270	11101
925.367	11179
925.464	11048
925.561	11862
925.658	12711
925.755	11075
925.852	12896
925.948	11310
926.045	10237
926.142	11395
926.239	10889
926.335	10158
926.432	10673
926.529	10973
926.625	10628
926.722	9504
926.818	9726
926.915	10483
927.011	9549
927.108	10183
927.204	10610
927.301	9296
927.397	10517
927.494	11027
927.590	9373
927.687	9519
927.783	10427
927.879	10169
927.976	8855
928.072	8551
928.168	10009
928.264	9393
928.361	9924
928.457	10225
928.553	9453
928.649	9022
928.745	9783
928.841	9037
928.937	9266
929.033	8945
929.129	9214
929.225	9911
929.321	8650
929.417	8411
929.513	10285
929.609	8555
929.705	7908
929.801	9326
929.897	8327
929.993	8544
930.089	9127
930.184	8292
930.280	9401
930.376	9214
930.471	8176
930.567	7552
930.663	8511
930.758	7898
930.854	8335
930.950	8618
931.045	8535
931.141	7906
931.236	9596
931.332	9249
931.427	7710
931.523	9581
931.618	8631
931.714	6903
931.809	8436
931.905	8983
932.000	6513
932.095	6704
932.191	8456
932.286	9435
932.381	7506
932.476	8199
932.572	7803
932.667	6853
932.762	7750
932.857	8332
932.952	8936
933.047	7153
933.142	7168
933.237	7625
933.332	7715
933.427	8956
933.522	7647
933.617	7467
933.712	7145
933.807	8551
933.902	9230
933.997	8614
934.092	5819
934.187	7406
934.282	8132
934.376	8536
934.471	8661
934.566	7455
934.661	7121
934.755	8065
934.850	7682
934.945	7827
935.039	6794
935.134	6583
935.228	8151
935.323	9751
935.417	7513
935.512	6548
935.606	5879
935.701	7402
935.795	8454
935.890	7820
935.984	7034
936.079	5491
936.173	7097
936.267	7060
936.362	6233
936.456	7117
936.550	8180
936.644	7339
936.738	5730
936.833	5872
936.927	5376
937.021	6266
937.115	6832
937.209	6519
937.303	6997
937.397	6415
937.491	6611
937.585	7743
937.679	6995
937.773	6267
937.867	5445
937.961	5359
938.055	7125
938.149	6837
938.243	5078
938.337	5476
938.430	6139
938.524	6118
938.618	6319
938.712	6148
938.805	6062
938.899	6732
938.993	7530
939.086	5136
939.180	4465
939.274	5973
939.367	6926
939.461	7597
939.554	4949
939.648	5740
939.741	5935
939.835	5712
939.928	7615
940.022	6952
940.115	6409
940.208	6976
940.302	7748
940.395	7789
940.488	5609
940.582	7024
940.675	5206
940.768	6321
940.861	6595
940.954	5865
941.048	5199
941.141	5174
941.234	6978
941.327	7855
941.420	9413
941.513	7350
941.606	5785
941.699	6668
941.792	6707
941.885	6053
941.978	5440
942.071	5413
942.164	5198
942.257	5029
942.349	5057
942.442	5996
942.535	4804
942.628	5044
942.721	5996
942.813	5260
942.906	6262
942.999	5479
943.091	4825
943.184	5253
943.277	4936
943.369	4426
943.462	4738
943.554	5350
943.647	5507
943.739	6667
943.832	5662
943.924	3684
944.017	4705
944.109	4118
944.201	5052
944.294	5591
944.386	4681
944.478	4128
944.571	4384
944.663	4345
944.755	4953
944.847	4408
944.940	5059
945.032	4583
945.124	3780
945.216	5265
945.308	5374
945.400	5603
945.492	4714
945.584	5938
945.676	5672
945.768	5437
945.860	6053
945.952	5869
946.044	5099
946.136	4616
946.228	4777
946.320	4930
946.412	4536
946.503	5054
946.595	5078
946.687	4792
946.779	4234
946.870	4064
946.962	4725
947.054	4020
947.145	5219
947.237	5428
947.329	4238
947.420	4623
947.512	3660
947.603	3574
947.695	3780
947.786	3751
947.878	4208
947.969	4351
948.061	5035
948.152	4221
948.243	3919
948.335	3449
948.426	3911
948.517	4473
948.609	4943
948.700	4364
948.791	3721
948.882	3772
948.973	3588
949.065	4296
949.156	4754
949.247	3353
949.338	3887
949.429	4122
949.520	3401
949.611	3952
949.702	4528
949.793	3919
949.884	4699
949.975	3875
950.066	3707
950.157	3095
950.247	4443
950.338	3096
950.429	3297
950.520	4188
950.611	3335
950.701	4553
950.792	4905
950.883	4557
950.973	3659
951.064	4523
951.155	3553
951.245	5081
951.336	4538
951.427	4550
951.517	4933
951.608	3831
951.698	4047
951.788	2364
951.879	3246
951.969	3123
952.060	3843
952.150	3664
952.240	4625
952.331	3151
952.421	4993
952.511	2611
952.602	3242
952.692	2694
952.782	3148
952.872	3384
952.962	3539
953.052	3514
953.143	3395
953.233	2984
953.323	3462
953.413	3267
953.503	3669
953.593	3381
953.683	3828
953.773	3289
953.863	2660
953.953	2866
954.042	3240
954.132	4278
954.222	4303
954.312	2840
954.402	2798
954.492	2582
954.581	4332
954.671	3791
954.761	2808
954.850	4152
954.940	2354
955.030	3012
955.119	2676
955.209	3325
955.298	2953
955.388	3424
955.477	3772
955.567	1727
955.656	2900
955.746	2550
955.835	2276
955.925	2662
956.014	3736
956.103	3426
956.193	4442
956.282	3122
956.371	3531
956.461	3187
956.550	3425
956.639	2743
956.728	4069
956.817	3866
956.906	3132
956.995	4052
957.085	2151
957.174	4433
957.263	2340
957.352	2338
957.441	3212
957.530	3494
957.619	3875
957.708	2712
957.796	2616
957.885	2670
957.974	2583
958.063	3102
958.152	2069
958.241	3216
958.329	2804
958.418	2847
958.507	3028
958.596	3640
958.684	3015
958.773	4379
958.861	2918
958.950	2877
959.039	2582
959.127	3031
959.216	2675
959.304	2211
959.393	3122
959.481	3826
959.570	3434
959.658	3150
959.746	2609
959.835	3341
959.923	3368
960.011	2848
960.100	3746
960.188	3703
960.276	2503
960.365	2688
960.453	2663
960.541	2588
960.629	2401
960.717	2621
960.805	1953
960.893	2942
960.981	2864
961.069	3605
961.158	4041
961.245	4291
961.333	3658
961.421	2611
961.509	3908
961.597	2598
961.685	3170
961.773	3109
961.861	3121
961.949	3029
962.036	2668
962.124	2835
962.212	2122
962.299	2606
962.387	2081
962.475	2553
962.562	2974
962.650	3656
962.738	3682
962.825	2397
962.913	2718
963.000	2602
963.088	3384
963.175	3153
963.263	2920
963.350	3390
963.438	3450
963.525	2554
963.612	4462
963.700	5947
963.787	7842
963.874	5369
963.962	3234
964.049	2134
964.136	2672
964.223	2312
964.310	2631
964.398	2201
964.485	2913
964.572	3337
964.659	3376
964.746	2703
964.833	2649
964.920	2204
965.007	2624
965.094	2533
965.181	2953
965.268	2642
965.355	3050
965.441	2812
965.528	2585
965.615	3585
965.702	2579
965.789	2931
965.875	3552
965.962	3780
966.049	2824
966.136	3078
966.222	3466
966.309	4077
966.395	3024
966.482	2856
966.569	3268
966.655	3134
966.742	2277
966.828	3056
966.915	2434
967.001	2740
967.087	1960
967.174	1616
967.260	2740
967.347	3241
967.433	4328
967.519	6355
967.605	3796
967.692	2220
967.778	2364
967.864	2353
967.950	1942
968.036	2578
968.123	2355
968.209	2827
968.295	2593
968.381	3216
968.467	2766
968.553	2236
968.639	3822
968.725	3558
968.811	5117
968.897	3551
968.983	3345
969.069	1194
969.154	2283
969.240	2517
969.326	2063
969.412	2259
969.497	2016
969.583	1884
969.669	2760
969.755	2425
969.840	3895
969.926	3840
970.012	4577
970.097	6945
970.183	4750
970.268	3597
970.354	2900
970.439	2433
970.525	4629
970.610	3056
970.696	2468
970.781	2949
970.866	1510
970.952	2335
971.037	2087
971.122	2978
971.208	2044
971.293	2636
971.378	1928
971.463	1353
971.549	2732
971.634	2825
971.719	2934
971.804	1950
971.889	3269
971.974	2092
972.059	2375
972.144	2010
972.229	2474
972.314	1891
972.399	1917
972.484	1742
972.569	2704
972.654	1576
972.739	3585
972.824	3403
972.908	1799
972.993	1710
973.078	2024
973.163	2065
973.247	2701
973.332	1825
973.417	3077
973.501	2335
973.586	2376
973.671	3370
973.755	2141
973.840	3566
973.924	3720
974.009	3023
974.093	3961
974.178	3882
974.262	3266
974.346	2366
974.431	2448
974.515	2079
974.600	2240
974.684	2351
974.768	1634
974.852	2691
974.937	1424
975.021	3008
975.105	2706
975.189	1955
975.273	2237
975.358	2022
975.442	1710
975.526	2571
975.610	2267
975.694	1798
975.778	3025
975.862	1992
975.946	748
976.030	3500
976.114	2354
976.198	2101
976.281	2179
976.365	2101
976.449	1795
976.533	2565
976.617	1430
976.700	1413
976.784	1684
976.868	2210
976.951	2918
977.035	1833
977.119	1748
977.202	2768
977.286	1626
977.369	2568
977.453	3958
977.536	3110
977.620	2291
977.703	2677
977.787	1689
977.870	2653
977.953	2469
978.037	1711
978.120	3236
978.203	2745
978.287	3731
978.370	2612
978.453	1684
978.536	1460
978.620	3172
978.703	2806
978.786	1518
978.869	1695
978.952	2269
979.035	3602
979.118	1842
979.201	1380
979.284	2193
979.367	1850
979.450	1964
979.533	1383
979.616	1570
979.699	1628
979.782	1839
979.865	2054
979.948	1930
980.030	1908
980.113	1557
980.196	1126
980.279	2504
980.361	2431
980.444	1647
980.526	1828
980.609	2457
980.692	3327
980.774	2490
980.857	1042
980.939	2624
981.022	1965
981.104	1710
981.187	1610
981.269	2317
981.352	2454
981.434	1229
981.516	1882
981.599	1905
981.681	1810
981.763	2251
981.846	2081
981.928	1620
982.010	1184
982.092	1813
982.174	2242
982.256	1682
982.339	1736
982.421	1645
982.503	1646
982.585	681
982.667	2459
982.749	1878
982.831	1673
982.913	1121
982.995	2304
983.077	2023
983.158	3054
983.240	740
983.322	2395
983.404	2802
983.486	2107
983.568	2658
983.649	2118
983.731	2155
983.813	1409
983.894	1955
983.976	1790
984.058	2043
984.139	2085
984.221	862
984.302	2058
984.384	982
984.465	1268
984.547	1789
984.628	770
984.710	2175
984.791	2144
984.872	2037
984.954	827
985.035	2797
985.116	1678
985.198	1345
985.279	3405
985.360	1910
985.441	1860
985.522	2151
985.604	1803
985.685	636
985.766	2473
985.847	2571
985.928	1082
986.009	2697
986.090	1777
986.171	1902
986.252	1888
986.333	1920
986.414	1028
986.495	1654
986.576	1615
986.656	2098
986.737	2312
986.818	2596
986.899	1385
986.980	2017
987.060	1950
987.141	1211
987.222	2225
987.302	2203
987.383	2653
987.464	1889
987.544	3094
987.625	1911
987.705	2578
987.786	3271
987.866	1896
987.947	2513
988.027	2291
988.108	1876
988.188	2472
988.268	1841
988.349	1885
988.429	2189
988.509	1830
988.589	1244
988.670	1269
988.750	3034
988.830	1918
988.910	2323
988.990	2024
989.070	1822
989.151	1722
989.231	857
989.311	1763
989.391	1117
989.471	1345
989.551	1422
989.631	1747
989.711	650
989.791	1218
989.870	737
989.950	2159
990.030	1101
990.110	1065
990.190	702
990.269	681
990.349	1634
990.429	2016
990.509	1347
990.588	1348
990.668	1149
990.747	1116
990.827	805
990.907	1651
990.986	1134
991.066	1831
991.145	1320
991.225	1428
991.304	708
991.383	1982
991.463	1110
991.542	1648
991.622	807
991.701	829
991.780	1002
991.859	1598
991.939	1696
992.018	1482
992.097	1170
992.176	858
992.256	819
992.335	472
992.414	1234
992.493	1055
992.572	958
992.651	1906
992.730	501
992.809	1316
992.888	490
992.967	602
993.046	1724
993.125	-264
993.203	501
993.282	1516
993.361	352
993.440	489
993.519	867
993.597	745
993.676	1228
993.755	1370
993.834	515
993.912	428
993.991	1398
994.069	390
994.148	301
994.226	934
994.305	909
994.384	1068
994.462	929
994.540	-442
994.619	-71
994.697	1153
994.776	783
994.854	1164
994.932	92
995.011	1270
995.089	417
995.167	1188
995.245	934
995.324	865
995.402	1254
995.480	-231
995.558	-115
995.636	472
995.714	785
995.792	1593
995.870	292
995.948	76
996.026	490
996.104	-903
996.182	1176
996.260	75
996.338	230
996.416	180
996.494	150
996.572	793
996.649	-132
996.727	-339
996.805	508
996.883	108
996.960	707
997.038	1062
997.116	-7
997.193	-485
997.271	-457
997.348	-102
997.426	777
997.504	-370
997.581	819
997.658	-405
997.736	-400
997.813	-425
997.891	703
997.968	361
998.046	186
998.123	-342
998.200	746
998.277	-663
998.355	615
998.432	-1533
998.509	418
998.586	888
998.663	547
998.741	-654
998.818	332
998.895	494
998.972	136
999.049	243
999.126	-347
999.203	491
999.280	64
999.357	-206
999.434	-687
999.511	-64
999.587	343
999.664	-627
999.741	294
999.818	567
999.895	156
999.971	-571
1000.048	-14
1000.125	-47
1000.202	-298
1000.278	-681
1000.355	253
1000.431	-224
1000.508	-123
1000.584	-821
1000.661	159
1000.738	-691
1000.814	-78
1000.890	171
1000.967	-576
1001.043	563
1001.120	-755
1001.196	1214
1001.272	-184
1001.349	-1360
1001.425	-389
1001.501	68
1001.577	-454
1001.654	307
1001.730	300
1001.806	-195
1001.882	-1290
1001.958	-107
1002.034	-567
1002.110	276
1002.186	-1065
1002.262	-860
1002.338	-1312
1002.414	546
1002.490	262
1002.566	-1066
1002.642	-1116
1002.718	127
1002.794	-43
1002.870	-1596
1002.945	-296
1003.021	611
1003.097	-84
1003.173	314
1003.248	-581
1003.324	-512
1003.400	-563
1003.475	-1193
1003.551	-680
1003.626	-459
1003.702	-111
1003.777	-302
1003.853	-795
1003.928	-981
1004.004	-205
1004.079	-9
1004.155	-453
1004.230	-1348
1004.305	1293
1004.381	493
1004.456	-940
1004.531	-498
1004.607	-308
1004.682	-338
1004.757	-281
1004.832	-492
1004.907	-1035
1004.982	-650
1005.057	-428
1005.133	-750
1005.208	-543
1005.283	-870
1005.358	83
1005.433	-1138
1005.508	645
1005.583	-694
1005.657	-928
1005.732	-112
1005.807	-1735
1005.882	-491
1005.957	-293
1006.032	-302
1006.106	-981
1006.181	-283
1006.256	-100
1006.331	-240
1006.405	-1000
1006.480	-1304
1006.554	-194
1006.629	-1379
1006.704	-907
1006.778	-937
1006.853	-204
1006.927	-1114
1007.002	-772
1007.076	-1171
1007.150	-798
1007.225	-1081
1007.299	-515
1007.373	-1673
1007.448	-6
1007.522	643
1007.596	-746
1007.671	-1339
1007.745	-1247
1007.819	-974
1007.893	-659
1007.967	-303
1008.041	-1770
1008.115	-288
1008.190	-855
1008.264	-1097
1008.338	-980
1008.412	-381
1008.486	-506
1008.560	-911
1008.633	-962
1008.707	-933
1008.781	-133
1008.855	-1415
1008.929	-553
1009.003	-1461
1009.076	-1804
1009.150	-910
1009.224	-1274
1009.298	-803
1009.371	-1611
1009.445	-692
1009.519	-1123
1009.592	-1274
1009.666	-123
1009.739	-379
1009.813	-943
1009.886	-691
1009.960	-1417
1010.033	-1176
1010.107	-1256
1010.180	-1627
1010.253	-952
1010.327	-689
1010.400	-151
1010.473	-947
1010.547	-413
1010.620	-1190
1010.693	-918
1010.766	-1523
1010.840	-1520
1010.913	-1101
1010.986	-1202
1011.059	-792
1011.132	-1719
1011.205	-935
1011.278	-1134
1011.351	-1208
1011.424	-1002
1011.497	-998
1011.570	-1151
1011.643	-907
1011.716	-1394
1011.789	-1324
1011.862	-601
1011.934	-1329
1012.007	-1309
1012.080	-721
1012.153	-1079
1012.225	-941
1012.298	-1706
1012.371	-1738
1012.443	-849
1012.516	-969
1012.588	-858
1012.661	-852
1012.733	-2139
1012.806	-925
1012.879	-1741
1012.951	-1999
1013.023	-1656
1013.096	-2264
1013.168	-2494
1013.241	-1607
1013.313	-1807
1013.385	-1981
1013.458	-1091
1013.530	-773
1013.602	-1086
1013.674	-864
1013.746	-1423
1013.819	-976
1013.891	-914
1013.963	-1055
1014.035	-991
1014.107	-487
1014.179	-785
1014.251	-1961
1014.323	-1329
1014.395	-1493
1014.467	-1468
1014.539	-612
1014.611	-2106
1014.683	-1423
1014.754	-444
1014.826	-1195
1014.898	-1138
1014.970	-1713
1015.042	-1111
1015.113	-392
1015.185	-856
1015.257	-1783
1015.328	-835
1015.400	-1936
1015.471	-1273
1015.543	-1800
1015.615	-1018
1015.686	-1507
1015.757	-949
1015.829	-1118
1015.901	-1883
1015.972	-840
1016.043	-2046
1016.115	-1149
1016.186	-1430
1016.257	-2009
1016.328	-1185
1016.400	-1147
1016.471	-1644
1016.542	-1647
1016.613	-1187
1016.685	-1736
1016.756	-1346
1016.827	-1360
1016.898	-1320
1016.969	-820
1017.040	-735
1017.111	-1953
1017.182	-1725
1017.253	-1118
1017.324	-1324
1017.395	-1880
1017.466	-1023
1017.537	-1279
1017.608	-1389
1017.678	-1292
1017.749	-111
1017.820	-715
1017.891	-2225
1017.961	-1961
1018.032	-2164
1018.103	-1820
1018.173	-1975
1018.244	-2018
1018.315	-2308
1018.385	-1529
1018.456	-1253
1018.526	-1664
1018.597	-1612
1018.667	-1635
1018.738	-1526
1018.808	-1799
1018.878	-1406
1018.949	-2151
1019.019	-1362
1019.089	-1391
1019.160	-858
1019.230	-2965
1019.300	-2119
1019.371	-1990
1019.441	-792
1019.511	-942
1019.581	-1986
1019.651	-1463
1019.721	-1753
1019.791	-1942
1019.861	-1239
1019.931	-2196
1020.001	-2204
1020.071	-1942
1020.141	-1958
1020.211	-2248
1020.281	-2423
1020.351	-1485
1020.421	-1034
1020.491	-277
1020.560	-2230
1020.630	-1505
1020.700	-886
1020.770	-2005
1020.839	-1539
1020.909	-1524
1020.979	-1656
1021.048	-2025
1021.118	-2267
1021.187	-1587
1021.257	-1534
1021.326	-1162
1021.396	-2415
1021.465	-1127
1021.535	-2389
1021.604	-1421
1021.674	-1063
1021.743	-1484
1021.812	-1862
1021.882	-1597
1021.951	-1251
1022.020	-1266
1022.089	-1440
1022.159	-2041
1022.228	-1666
1022.297	-1425
1022.366	-2627
1022.435	-1076
1022.504	-1410
1022.573	-1268
1022.642	-1696
1022.711	-2393
1022.781	-1566
1022.849	-1189
1022.918	-1953
1022.987	-2139
1023.056	-2286
1023.125	-1668
1023.194	-1407
1023.263	-1831
1023.331	-1618
1023.400	-1398
1023.469	-1676
1023.538	-1454
1023.606	-1888
1023.675	-1180
1023.744	-1785
1023.812	-1749
1023.881	-1369
1023.949	-1588
1024.018	-1250
1024.086	-1723
1024.155	-1641
1024.223	-2321
1024.292	-2045
1024.360	-1847
1024.429	-1519
1024.497	-2301
1024.565	-1500
1024.634	-1425
1024.702	-1373
1024.770	-1283
1024.838	-1219
1024.907	-1073
1024.975	-2050
1025.043	-1260
1025.111	-1875
1025.179	-1278
1025.247	-1826
1025.315	-1665
1025.383	-1502
1025.451	-2247
1025.519	-1772
1025.587	-2404
1025.655	-1420
1025.723	-2215
1025.791	-1523
1025.859	-1298
1025.927	-883
1025.995	-1462
1026.062	-1494
1026.130	-1966
1026.198	-2137
1026.266	-1589
1026.333	-1739
1026.401	-1200
1026.469	-1796
1026.536	-1425
1026.604	-1365
1026.671	-1992
1026.739	-2019
1026.806	-1942
1026.874	-1479
1026.941	-2115
1027.009	-2122
1027.076	-2504
1027.144	-1242
1027.211	-1863
1027.278	-2146
1027.345	-1988
1027.413	-1493
1027.480	-1901
1027.547	-1817
1027.614	-2605
1027.682	-1686
1027.749	-2021
1027.816	-1800
1027.883	-947
1027.950	-2018
1028.017	-1938
1028.084	-1276
1028.151	-2718
1028.218	-1787
1028.285	-2045
1028.352	-1392
1028.419	-1662
1028.486	-1501
1028.553	-1913
1028.619	-2000
1028.686	-1377
1028.753	-2285
1028.820	-1870
1028.886	-1955
1028.953	-2423
1029.020	-2104
1029.086	-1654
1029.153	-2128
1029.220	-2178
1029.286	-1668
1029.353	-2347
1029.419	-1664
1029.486	-2424
1029.552	-2030
1029.619	-1246
1029.685	-1952
1029.751	-1965
1029.818	-675
1029.884	-2535
1029.951	-1837
1030.017	-1699
1030.083	-1737
1030.149	-1862
1030.216	-2177
1030.282	-1396
1030.348	-1755
1030.414	-1728
1030.480	-887
1030.546	-1897
1030.612	-1754
1030.678	-2424
1030.744	-2041
1030.810	-2327
1030.876	-1835
1030.942	-1986
1031.008	-1844
1031.074	-2388
1031.140	-2109
1031.206	-2249
1031.272	-2090
1031.337	-1397
1031.403	-1911
1031.469	-2202
1031.534	-2053
1031.600	-2023
1031.666	-2583
1031.731	-1891
1031.797	-1388
1031.863	-1625
1031.928	-2308
1031.994	-1880
1032.059	-1791
1032.125	-1445
1032.190	-2443
1032.256	-2319
1032.321	-2178
1032.386	-1817
1032.452	-890
1032.517	-1669
1032.582	-1640
1032.647	-2019
1032.713	-1635
1032.778	-2292
1032.843	-1889
1032.908	-2352
1032.974	-2145
1033.039	-2606
1033.104	-1448
1033.169	-2346
1033.234	-1646
1033.299	-1784
1033.364	-1134
1033.429	-1056
1033.494	-387
1033.559	-1481
1033.624	-1834
1033.688	-1206
1033.753	-1672
1033.818	-2286
1033.883	-1626
1033.948	-1445
1034.013	-752
1034.077	-137
1034.142	479
1034.207	190
1034.271	2645
1034.336	4007
1034.400	2884
1034.465	1259
1034.530	-245
1034.594	-1261
1034.658	-1523
1034.723	-1788
1034.787	-1359
1034.852	-1956
1034.916	-2044
1034.981	-1637
1035.045	-1505
1035.109	-1545
1035.173	-1298
1035.238	-2702
1035.302	-1469
1035.366	-1323
1035.430	-1581
1035.495	-2381
1035.559	-1939
1035.623	-1950
1035.687	-1657
1035.751	-2026
1035.815	-2191
1035.879	-1556
1035.943	-1649
1036.007	-2589
1036.071	-2441
1036.135	-2129
1036.198	-1239
1036.262	-2649
1036.326	-1677
1036.390	-1872
1036.454	-1836
1036.517	-1027
1036.581	-1420
1036.645	-289
1036.709	-215
1036.772	-1683
1036.836	-1022
1036.900	-2038
1036.963	-1967
1037.026	-2637
1037.090	-2401
1037.154	-2651
1037.217	-1850
1037.280	-2917
1037.344	-2338
1037.407	-2376
1037.471	-1718
1037.534	-2622
1037.597	-2765
1037.661	-2242
1037.724	-1131
1037.787	-1943
1037.850	-2236
1037.913	-2176
1037.977	-1123
1038.040	-2613
1038.103	-1879
1038.166	-2123
1038.229	-2036
1038.292	-2683
1038.355	-2249
1038.418	-2025
1038.481	-1804
1038.544	-1262
1038.607	-1520
1038.670	-2348
1038.732	-2152
1038.795	-2744
1038.858	-1256
1038.921	-1530
1038.984	-2694
1039.046	-2708
1039.109	-1938
1039.172	-2146
1039.234	-2137
1039.297	-2687
1039.360	-1869
1039.422	-2097
1039.485	-1444
1039.547	-2010
1039.610	-2490
1039.672	-1842
1039.734	-2261
1039.797	-1809
1039.859	-2982
1039.922	-2299
1039.984	-1424
1040.046	-2150
1040.109	-1881
1040.171	-2174
1040.233	-2565
1040.295	-2406
1040.358	-1585
1040.420	-2920
1040.482	-1809
1040.544	-2668
1040.606	-2216
1040.668	-2369
1040.730	-2360
1040.792	-3274
1040.854	-2058
1040.916	-2123
1040.978	-2370
1041.040	-1294
1041.102	-2184
1041.164	-2087
1041.225	-2413
1041.287	-2314
1041.349	-2670
1041.411	-2018
1041.472	-2451
1041.534	-3248
1041.596	-1998
1041.657	-1635
1041.719	-2812
1041.781	-2675
1041.842	-2056
1041.904	-2425
1041.965	-1627
1042.027	-2378
1042.088	-1725
1042.150	-2208
1042.211	-1498
1042.272	-1567
1042.334	-2639
1042.395	-2088
1042.456	-1860
1042.518	-2469
1042.579	-1876
1042.640	-2268
1042.701	-2054
1042.763	-2951
1042.824	-2576
1042.885	-2008
1042.946	-1617
1043.007	-1976
1043.068	-2017
1043.129	-2441
1043.190	-1864
1043.251	-1923
1043.312	-2765
1043.373	-1968
1043.434	-2081
1043.495	-2643
1043.556	-2291
1043.616	-2352
1043.677	-2694
1043.738	-1898
1043.799	-2240
1043.859	-2016
1043.920	-1835
1043.981	-2146
1044.041	-1684
1044.102	-2457
1044.162	-2091
1044.223	-2570
1044.284	-2033
1044.344	-2370
1044.405	-2168
1044.465	-2120
1044.525	-2563
1044.586	-2220
1044.646	-2401
1044.707	-1872
1044.767	-2955
1044.827	-2686
1044.887	-2192
1044.948	-1627
1045.008	-2334
1045.068	-2565
1045.128	-2293
1045.188	-1966
1045.249	-1332
1045.309	-1756
1045.369	-2005
1045.429	-600
1045.489	-2164
1045.549	-1796
1045.609	-2279
1045.669	-2977
1045.729	-1507
1045.789	-2047
1045.848	-1854
1045.908	-1662
1045.968	-1804
1046.028	-1993
1046.088	-2064
1046.147	-2013
1046.207	-2661
1046.267	-1288
1046.326	-1271
1046.386	-2097
1046.446	-1357
1046.505	-1094
1046.565	-1736
1046.624	-899
1046.684	-968
1046.743	-1460
1046.803	-1021
1046.862	-1067
1046.922	0
