'Start Wavelength	183.907
'End Wavelength	1046.922
'Gate Delay	5.000
'Gate Width (ms)	1.050
'Laser Output Level	0.000
'X Position	0.000
'Y Position	0.000
'Z Position	0.000
'Grid Point Number	1.000
'Shot Number	100.000
183.907	167.000
183.977	-338.000
184.047	223
184.116	458
184.186	234
184.256	106
184.325	369
184.395	-908
184.465	869
184.534	44
184.604	-509
184.674	-177
184.743	-9
184.813	333
184.883	421
184.952	-394
185.022	12
185.092	741
185.161	629
185.231	-232
185.301	709
185.370	340
185.440	407
185.509	-188
185.579	-69
185.649	262
185.718	-288
185.788	492
185.857	-321
185.927	279
185.996	-111
186.066	22
186.136	823
186.205	-185
186.275	341
186.344	137
186.414	54
186.483	-142
186.553	865
186.622	1481
186.692	693
186.761	-205
186.831	438
186.900	24
186.970	889
187.039	960
187.109	2287
187.178	1004
187.248	100
187.317	1136
187.387	709
187.456	866
187.526	685
187.595	1872
187.664	854
187.734	1839
187.803	1719
187.873	1339
187.942	1835
188.012	1292
188.081	1046
188.150	838
188.220	2139
188.289	1747
188.358	1309
188.428	818
188.497	756
188.567	901
188.636	37
188.705	122
188.775	564
188.844	470
188.913	1945
188.983	701
189.052	657
189.121	34
189.191	988
189.260	1947
189.329	1331
189.399	1552
189.468	1020
189.537	184
189.606	1149
189.676	862
189.745	807
189.814	1738
189.883	727
189.953	1088
190.022	2267
190.091	3367
190.161	4877
190.230	1925
190.299	1379
190.368	1222
190.437	535
190.507	320
190.576	935
190.645	396
190.714	1129
190.783	223
190.853	1637
190.922	1555
190.991	1611
191.060	1464
191.129	157
191.198	2433
191.268	1553
191.337	1030
191.406	2199
191.475	-48
191.544	805
191.613	771
191.682	761
191.752	1369
191.821	624
191.890	1170
191.959	1474
192.028	1662
192.097	597
192.166	580
192.235	879
192.304	1117
192.373	963
192.442	1081
192.511	342
192.580	658
192.650	1212
192.719	1699
192.788	1073
192.857	1464
192.926	1482
192.995	1486
193.064	2123
193.133	3455
193.202	5091
193.271	3989
193.340	3203
193.409	3048
193.478	4505
193.547	5201
193.615	7129
193.684	7215
193.753	4317
193.822	2615
193.891	1953
193.960	1963
194.029	1973
194.098	1962
194.167	1525
194.236	2464
194.305	1445
194.374	1313
194.443	1411
194.512	1544
194.580	1993
194.649	2996
194.718	3185
194.787	1455
194.856	1318
194.925	1798
194.994	2198
195.062	2795
195.131	2861
195.200	3223
195.269	3512
195.338	1765
195.407	2568
195.475	1491
195.544	2488
195.613	3014
195.682	2084
195.751	3356
195.819	3721
195.888	3365
195.957	4039
196.026	3102
196.094	3496
196.163	3414
196.232	3299
196.301	3157
196.369	3234
196.438	2562
196.507	2117
196.576	2018
196.644	1665
196.713	2342
196.782	1815
196.850	1717
196.919	1179
196.988	2210
197.056	1989
197.125	2797
197.194	2303
197.262	1415
197.331	2229
197.400	1948
197.468	1627
197.537	1132
197.606	2567
197.674	3362
197.743	6173
197.812	2792
197.880	5722
197.949	4062
198.017	5246
198.086	4609
198.155	2131
198.223	2498
198.292	6023
198.360	3577
198.429	2193
198.497	2508
198.566	4282
198.635	7369
198.703	3279
198.772	3435
198.840	7654
198.909	6914
198.977	2866
199.046	2510
199.114	2727
199.183	3108
199.251	2631
199.320	2736
199.388	2590
199.457	2196
199.525	2588
199.594	2456
199.662	1119
199.731	2215
199.799	2690
199.867	2969
199.936	2683
200.004	2500
200.073	2421
200.141	1187
200.210	2703
200.278	1790
200.346	2451
200.415	3708
200.483	4225
200.552	2737
200.620	2241
200.688	2501
200.757	2739
200.825	2646
200.893	2402
200.962	2530
201.030	2174
201.098	1809
201.167	3637
201.235	2024
201.303	2536
201.372	3541
201.440	2918
201.508	3037
201.577	3734
201.645	2845
201.713	2737
201.781	2772
201.850	3720
201.918	3402
201.986	2279
202.055	3261
202.123	2637
202.191	2743
202.259	2680
202.327	2804
202.396	2457
202.464	2786
202.532	4764
202.600	10064
202.669	6687
202.737	3965
202.805	2797
202.873	3005
202.941	3130
203.009	3002
203.078	2959
203.146	3222
203.214	3162
203.282	1925
203.350	3579
203.418	3234
203.487	3437
203.555	2406
203.623	3481
203.691	2137
203.759	3185
203.827	2122
203.895	3698
203.963	3351
204.031	3546
204.099	3296
204.168	3049
204.236	3240
204.304	4499
204.372	3695
204.440	3733
204.508	3070
204.576	3036
204.644	3073
204.712	2786
204.780	3337
204.848	3403
204.916	3001
204.984	3224
205.052	3592
205.120	3685
205.188	3621
205.256	3125
205.324	3688
205.392	2795
205.460	3621
205.528	3824
205.596	4109
205.664	3402
205.732	3199
205.799	7677
205.867	12887
205.935	4577
206.003	4844
206.071	3105
206.139	4031
206.207	3958
206.275	3520
206.343	3792
206.411	3616
206.478	4007
206.546	3872
206.614	3680
206.682	4200
206.750	3009
206.818	4776
206.885	4666
206.953	2601
207.021	4306
207.089	3187
207.157	3129
207.225	3992
207.292	3540
207.360	3794
207.428	4036
207.496	3762
207.563	3378
207.631	3971
207.699	3766
207.767	3650
207.834	3533
207.902	4051
207.970	3891
208.038	3625
208.105	3708
208.173	4324
208.241	5375
208.309	5221
208.376	5408
208.444	8125
208.512	5414
208.579	3600
208.647	5098
208.715	6587
208.782	4123
208.850	3814
208.918	4338
208.985	4397
209.053	4710
209.120	4808
209.188	4502
209.256	4165
209.323	3030
209.391	7000
209.459	5885
209.526	4405
209.594	4667
209.661	4360
209.729	5386
209.796	4706
209.864	5254
209.932	4365
209.999	6003
210.067	5381
210.134	6339
210.202	4918
210.269	8571
210.337	7039
210.404	5817
210.472	4101
210.539	4218
210.607	4629
210.674	6845
210.742	5694
210.809	4876
210.877	6341
210.944	6936
211.012	5002
211.079	7223
211.146	5164
211.214	4987
211.281	6866
211.349	7336
211.416	6006
211.484	7169
211.551	5400
211.618	5654
211.686	5284
211.753	4814
211.821	5585
211.888	5399
211.955	5657
212.023	5253
212.090	5483
212.157	5078
212.225	7123
212.292	8851
212.359	14987
212.427	31752
212.494	18597
212.561	8782
212.629	7231
212.696	6517
212.763	6098
212.831	5430
212.898	6012
212.965	4803
213.032	5857
213.100	7636
213.167	6402
213.234	8052
213.301	5146
213.369	5457
213.436	4506
213.503	4900
213.570	6349
213.638	6095
213.705	5295
213.772	5154
213.839	6774
213.906	8161
213.973	7311
214.041	6711
214.108	5632
214.175	6162
214.242	6339
214.309	5805
214.376	7318
214.444	6727
214.511	7456
214.578	6502
214.645	6796
214.712	8009
214.779	7425
214.846	6397
214.913	7237
214.980	8210
215.048	9881
215.115	10217
215.182	9190
215.249	6759
215.316	6430
215.383	6582
215.450	6478
215.517	6875
215.584	5936
215.651	5851
215.718	5691
215.785	8051
215.852	7875
215.919	8940
215.986	8012
216.053	6970
216.120	6208
216.187	7181
216.254	6696
216.321	6803
216.388	6911
216.455	7569
216.522	7179
216.589	9306
216.656	14275
216.722	15100
216.789	10340
216.856	9830
216.923	9350
216.990	8777
217.057	8463
217.124	10683
217.191	10515
217.258	12177
217.324	13917
217.391	12807
217.458	11206
217.525	8481
217.592	8351
217.659	7911
217.725	9263
217.792	11475
217.859	11301
217.926	6723
217.993	6037
218.059	5989
218.126	4863
218.193	5777
218.260	4931
218.327	4159
218.393	5547
218.460	5115
218.527	4940
218.594	6397
218.660	11465
218.727	12120
218.794	6443
218.860	5162
218.927	4590
218.994	4326
219.061	4295
219.127	7269
219.194	10211
219.261	6016
219.327	4125
219.394	5480
219.461	4083
219.527	4570
219.594	7547
219.661	5882
219.727	3663
219.794	5580
219.860	4161
219.927	5578
219.994	8756
220.060	16302
220.127	11901
220.193	8356
220.260	8201
220.326	12837
220.393	17057
220.460	20583
220.526	14370
220.593	11983
220.659	12044
220.726	12061
220.792	21085
220.859	22099
220.925	27222
220.992	31535
221.058	29980
221.125	29373
221.191	21658
221.258	11513
221.324	9464
221.391	8151
221.457	6241
221.524	7029
221.590	8538
221.657	21564
221.723	16506
221.789	14352
221.856	13946
221.922	8724
221.989	5734
222.055	6358
222.121	5812
222.188	8041
222.254	7115
222.321	5381
222.387	3976
222.453	4466
222.520	4804
222.586	4463
222.652	4526
222.719	5183
222.785	5800
222.851	4171
222.918	3135
222.984	5303
223.050	6430
223.116	4545
223.183	5288
223.249	3326
223.315	3851
223.382	4194
223.448	4509
223.514	3660
223.580	3237
223.647	3355
223.713	2084
223.779	4013
223.845	4294
223.911	5073
223.978	2660
224.044	4079
224.110	3803
224.176	3813
224.242	2938
224.309	2829
224.375	3455
224.441	3627
224.507	3302
224.573	3720
224.639	4228
224.705	3574
224.772	2921
224.838	2948
224.904	5004
224.970	4993
225.036	3432
225.102	3620
225.168	4913
225.234	4696
225.300	3402
225.366	4003
225.432	3212
225.499	3825
225.565	4905
225.631	5137
225.697	5008
225.763	5958
225.829	7243
225.895	8079
225.961	12756
226.027	11331
226.093	10268
226.159	12454
226.225	17564
226.291	36654
226.357	53825
226.423	34756
226.489	21191
226.554	14038
226.620	13331
226.686	16664
226.752	26311
226.818	39002
226.884	68557
226.950	59387
227.016	29855
227.082	19091
227.148	14232
227.214	14237
227.279	13737
227.345	12549
227.411	9703
227.477	10388
227.543	19202
227.609	23770
227.674	15046
227.740	10570
227.806	7600
227.872	6860
227.938	6978
228.003	14421
228.069	6912
228.135	5557
228.201	5820
228.267	5483
228.332	6622
228.398	9418
228.464	7226
228.530	3974
228.595	4216
228.661	5190
228.727	10475
228.792	8993
228.858	5619
228.924	4937
228.990	7800
229.055	7039
229.121	8379
229.187	4938
229.252	6807
229.318	4908
229.384	7061
229.449	10221
229.515	3957
229.581	3791
229.646	5172
229.712	6511
229.777	15696
229.843	17010
229.909	11108
229.974	12988
230.040	11597
230.105	7938
230.171	9170
230.236	11575
230.302	15986
230.368	13830
230.433	6866
230.499	7108
230.564	10929
230.630	7308
230.695	5999
230.761	5707
230.826	3700
230.892	10062
230.957	5910
231.023	4660
231.088	4866
231.154	5134
231.219	5116
231.284	9040
231.350	9738
231.415	5154
231.481	5590
231.546	3806
231.612	4577
231.677	3514
231.742	3525
231.808	6336
231.873	4102
231.939	3224
232.004	9088
232.069	11722
232.135	5412
232.200	4776
232.265	3229
232.331	3463
232.396	3802
232.461	2994
232.527	2815
232.592	3760
232.657	3955
232.723	7754
232.788	6383
232.853	4080
232.918	3385
232.984	3498
233.049	4312
233.114	6138
233.179	6416
233.245	9235
233.310	12025
233.375	3691
233.440	5051
233.506	4476
233.571	3415
233.636	4422
233.701	4630
233.766	7775
233.832	10819
233.897	6213
233.962	5645
234.027	8688
234.092	6408
234.157	5659
234.222	6486
234.288	8965
234.353	21526
234.418	21265
234.483	13379
234.548	9661
234.613	8501
234.678	8221
234.743	8474
234.808	23159
234.873	15235
234.938	8577
235.004	6629
235.069	6859
235.134	5491
235.199	5814
235.264	4960
235.329	4603
235.394	5835
235.459	7283
235.524	7160
235.589	6030
235.654	4889
235.719	4695
235.784	5646
235.849	6757
235.913	12097
235.978	13793
236.043	16439
236.108	8240
236.173	6910
236.238	8290
236.303	6027
236.368	6513
236.433	9947
236.498	17418
236.563	14621
236.627	28783
236.692	84446
236.757	79828
236.822	35670
236.887	23719
236.952	19938
237.017	15063
237.081	17593
237.146	22221
237.211	44391
237.276	86888
237.341	128981
237.405	77771
237.470	34763
237.535	23135
237.600	14632
237.664	11715
237.729	10068
237.794	14153
237.859	27660
237.923	19469
237.988	11525
238.053	14094
238.118	14413
238.182	29719
238.247	28610
238.312	15421
238.376	11941
238.441	10055
238.506	10217
238.570	5881
238.635	6739
238.700	5399
238.764	4681
238.829	13880
238.893	17728
238.958	11382
239.023	11324
239.087	7242
239.152	8134
239.216	6273
239.281	5576
239.346	5615
239.410	5447
239.475	6796
239.539	26545
239.604	23152
239.668	8431
239.733	7654
239.797	10757
239.862	29595
239.926	31269
239.991	13728
240.055	8101
240.120	6218
240.184	7367
240.249	5635
240.313	6482
240.378	6097
240.442	16403
240.507	28222
240.571	10593
240.635	13485
240.700	18469
240.764	9019
240.829	6877
240.893	3894
240.957	7027
241.022	14733
241.086	27104
241.151	15129
241.215	7030
241.279	9984
241.344	15188
241.408	9927
241.472	7325
241.537	8571
241.601	8266
241.665	6810
241.730	7023
241.794	8464
241.858	8521
241.922	8098
241.987	7601
242.051	6248
242.115	7120
242.179	7678
242.244	5513
242.308	7393
242.372	7795
242.436	10618
242.501	8221
242.565	6170
242.629	5734
242.693	7388
242.757	5114
242.822	7585
242.886	7720
242.950	7395
243.014	6730
243.078	9371
243.142	11135
243.206	8088
243.271	7786
243.335	9947
243.399	13186
243.463	41241
243.527	103605
243.591	37669
243.655	17300
243.719	10281
243.783	11448
243.847	17827
243.911	21645
243.975	29965
244.040	22741
244.104	13551
244.168	8915
244.232	15731
244.296	21157
244.360	20103
244.424	12966
244.488	10055
244.552	8601
244.615	6038
244.679	7300
244.743	10868
244.807	12171
244.871	8531
244.935	7195
244.999	5793
245.063	7652
245.127	9594
245.191	13564
245.255	14515
245.319	12931
245.383	12663
245.446	9357
245.510	6760
245.574	9123
245.638	9096
245.702	8451
245.766	25414
245.829	15264
245.893	9648
245.957	8701
246.021	10354
246.085	9902
246.149	12231
246.212	32824
246.276	52847
246.340	24564
246.404	15422
246.467	15506
246.531	25995
246.595	15482
246.659	13251
246.722	12608
246.786	17365
246.850	17937
246.913	23897
246.977	10603
247.041	9719
247.104	13120
247.168	11851
247.232	30327
247.295	68623
247.359	36296
247.423	15736
247.486	28461
247.550	18606
247.614	13183
247.677	19797
247.741	11970
247.804	11288
247.868	11826
247.932	28435
247.995	63491
248.059	25803
248.122	12884
248.186	15923
248.249	28635
248.313	102413
248.376	112895
248.440	72258
248.503	27940
248.567	21896
248.630	30315
248.694	42139
248.757	51978
248.821	111771
248.884	69693
248.948	58278
249.011	84854
249.075	127478
249.138	112517
249.202	44943
249.265	25634
249.328	26337
249.392	21878
249.455	18887
249.519	15182
249.582	19202
249.645	31477
249.709	23895
249.772	15721
249.835	13973
249.899	15718
249.962	14133
250.025	13942
250.089	37749
250.152	55053
250.215	26778
250.279	18925
250.342	18372
250.405	17680
250.468	16861
250.532	20682
250.595	30569
250.658	95261
250.721	159426
250.785	67276
250.848	37521
250.911	22168
250.974	19858
251.038	28449
251.101	64113
251.164	32260
251.227	32142
251.290	29666
251.354	38216
251.417	130090
251.480	139165
251.543	96235
251.606	226878
251.669	190685
251.732	83453
251.795	87837
251.859	86796
251.922	153529
251.985	102111
252.048	43885
252.111	32696
252.174	31060
252.237	56890
252.300	129151
252.363	121278
252.426	203745
252.489	104027
252.552	54409
252.615	38291
252.678	37982
252.741	92078
252.804	110505
252.867	201705
252.930	148068
252.993	89678
253.056	51251
253.119	40688
253.182	28678
253.245	41113
253.308	34595
253.371	34280
253.434	31758
253.497	32597
253.559	60272
253.622	45555
253.685	50700
253.748	55130
253.811	27092
253.874	29538
253.937	28590
254.000	23762
254.062	40702
254.125	68729
254.188	60687
254.251	54965
254.314	24939
254.376	43529
254.439	50531
254.502	42244
254.565	43737
254.628	80080
254.690	47860
254.753	27270
254.816	21712
254.878	24168
254.941	44377
255.004	51297
255.067	21396
255.129	22512
255.192	14680
255.255	13228
255.317	15831
255.380	11984
255.443	9203
255.505	10065
255.568	9338
255.631	11803
255.693	11931
255.756	10004
255.819	9629
255.881	8959
255.944	7777
256.006	9073
256.069	9161
256.132	7607
256.194	11161
256.257	27164
256.319	19902
256.382	19607
256.444	13775
256.507	10571
256.569	10008
256.632	10942
256.694	18572
256.757	46870
256.819	140826
256.882	69006
256.944	27059
257.007	21638
257.069	23061
257.132	16148
257.194	12805
257.257	13204
257.319	13518
257.381	15704
257.444	37641
257.506	150452
257.569	186513
257.631	89155
257.693	52782
257.756	25178
257.818	20088
257.880	14299
257.943	13630
258.005	12227
258.067	11860
258.130	11974
258.192	13767
258.254	28198
258.317	17060
258.379	13476
258.441	33212
258.503	33709
258.566	30074
258.628	41407
258.690	13821
258.753	14169
258.815	28188
258.877	17596
258.939	10774
259.001	11216
259.064	10977
259.126	11297
259.188	15634
259.250	11981
259.312	14657
259.375	35511
259.437	26016
259.499	11692
259.561	10689
259.623	12726
259.685	14491
259.747	11827
259.809	27689
259.872	55013
259.934	79789
259.996	94977
260.058	32007
260.120	14789
260.182	10926
260.244	9139
260.306	8624
260.368	9842
260.430	10018
260.492	28189
260.554	49687
260.616	29802
260.678	48485
260.740	64109
260.802	18450
260.864	16077
260.926	13357
260.988	13836
261.050	12790
261.112	42590
261.174	83420
261.236	51054
261.298	19579
261.359	26374
261.421	38047
261.483	14508
261.545	12286
261.607	8868
261.669	8148
261.731	17330
261.793	43788
261.854	25075
261.916	15360
261.978	17116
262.040	20387
262.102	10648
262.164	16601
262.225	15310
262.287	11041
262.349	30782
262.411	25132
262.472	12455
262.534	16979
262.596	37978
262.658	14398
262.719	9854
262.781	12420
262.843	33385
262.904	18549
262.966	13175
263.028	15805
263.090	61342
263.151	168965
263.213	68953
263.275	47239
263.336	20286
263.398	13419
263.459	9976
263.521	10016
263.583	28911
263.644	22524
263.706	9889
263.767	7211
263.829	7940
263.891	6668
263.952	7122
264.014	7686
264.075	21619
264.137	56895
264.198	24251
264.260	10384
264.321	10937
264.383	28395
264.444	82017
264.506	28871
264.567	15918
264.629	29940
264.690	73309
264.752	27301
264.813	15591
264.875	11161
264.936	12398
264.998	11551
265.059	8741
265.120	9463
265.182	17460
265.243	72160
265.305	85465
265.366	22725
265.427	13603
265.489	11690
265.550	9429
265.611	11990
265.673	13430
265.734	12865
265.795	8553
265.857	7911
265.918	10799
265.979	22020
266.040	116382
266.102	115140
266.163	36055
266.224	30299
266.286	16747
266.347	11411
266.408	11186
266.469	10330
266.530	8941
266.592	8150
266.653	17788
266.714	35442
266.775	12627
266.836	8562
266.898	9076
266.959	20030
267.020	15822
267.081	8407
267.142	6865
267.203	6910
267.264	5852
267.326	8962
267.387	6907
267.448	7048
267.509	7063
267.570	7736
267.631	6045
267.692	6097
267.753	6837
267.814	6826
267.875	16964
267.936	42779
267.997	27534
268.058	21406
268.119	12505
268.180	11385
268.241	9520
268.302	8276
268.363	7332
268.424	9436
268.485	9939
268.546	8973
268.607	6487
268.668	6574
268.729	6769
268.790	8051
268.851	10865
268.912	29648
268.972	34533
269.033	18579
269.094	9239
269.155	6940
269.216	7075
269.277	8459
269.338	7074
269.398	7705
269.459	10550
269.520	13420
269.581	18526
269.642	22274
269.702	16619
269.763	12211
269.824	9081
269.885	12492
269.945	21861
270.006	9384
270.067	7548
270.128	7073
270.188	6297
270.249	7992
270.310	7054
270.370	6223
270.431	7293
270.492	6126
270.553	8242
270.613	19515
270.674	41382
270.734	19205
270.795	11163
270.856	15189
270.916	14399
270.977	9107
271.038	11683
271.098	12074
271.159	19171
271.219	21018
271.280	8832
271.340	7544
271.401	10452
271.462	21953
271.522	14833
271.583	9415
271.643	9951
271.704	8969
271.764	13279
271.825	30651
271.885	95773
271.946	137209
272.006	47310
272.066	58740
272.127	105416
272.187	34592
272.248	20104
272.308	20569
272.369	68084
272.429	41714
272.489	30674
272.550	35732
272.610	31100
272.671	25110
272.731	20122
272.791	33144
272.852	21655
272.912	19136
272.972	10880
273.033	10675
273.093	17200
273.153	20403
273.214	13894
273.274	15445
273.334	57413
273.394	108576
273.455	42953
273.515	39875
273.575	94262
273.635	38464
273.696	42464
273.756	92617
273.816	39775
273.876	21691
273.936	34906
273.997	66585
274.057	22542
274.117	17013
274.177	27521
274.237	120343
274.297	104748
274.358	59693
274.418	77442
274.478	63378
274.538	25577
274.598	18464
274.658	46390
274.718	62741
274.778	28340
274.838	16349
274.898	29602
274.958	85034
275.018	90899
275.078	63858
275.138	27155
275.198	15522
275.258	12409
275.318	15007
275.378	28923
275.438	33650
275.498	19716
275.558	38894
275.618	85665
275.678	70073
275.738	43803
275.798	39759
275.858	26934
275.918	13137
275.978	14350
276.038	13761
276.098	11406
276.157	23258
276.217	69747
276.277	32847
276.337	24776
276.397	13417
276.457	16881
276.517	11932
276.576	9839
276.636	9075
276.696	17869
276.756	39704
276.815	31745
276.875	14810
276.935	15843
276.995	15340
277.055	10219
277.114	10643
277.174	16491
277.234	56085
277.293	26195
277.353	14792
277.413	10679
277.472	12219
277.532	12384
277.592	12386
277.651	33286
277.711	66247
277.771	25234
277.830	81207
277.890	69730
277.950	42603
278.009	121173
278.069	49270
278.128	43614
278.188	66660
278.248	31247
278.307	68484
278.367	45641
278.426	17207
278.486	12817
278.545	9753
278.605	8642
278.664	9638
278.724	11490
278.783	32629
278.843	91000
278.902	28408
278.962	17003
279.021	17004
279.081	15580
279.140	16404
279.199	16777
279.259	14420
279.318	15334
279.378	18927
279.437	33979
279.496	124942
279.556	262045
279.615	213331
279.675	62083
279.734	40403
279.793	60619
279.853	105265
279.912	41583
279.971	21972
280.031	20849
280.090	40292
280.149	79528
280.208	50021
280.268	187332
280.327	194797
280.386	54306
280.445	46340
280.505	48741
280.564	23489
280.623	22196
280.682	29035
280.742	46999
280.801	16847
280.860	14202
280.919	13165
280.978	12317
281.037	10129
281.097	9332
281.156	9403
281.215	9562
281.274	14648
281.333	57768
281.392	47468
281.451	12010
281.510	10295
281.569	10036
281.628	7730
281.688	7611
281.747	10845
281.806	12370
281.865	8642
281.924	7462
281.983	9023
282.042	6794
282.101	7084
282.160	7091
282.219	6949
282.278	9288
282.337	32916
282.396	24429
282.454	11227
282.513	14857
282.572	51509
282.631	33133
282.690	11683
282.749	9196
282.808	13102
282.867	13232
282.926	13043
282.985	8410
283.043	6214
283.102	8300
283.161	11186
283.220	26381
283.279	59772
283.338	18732
283.396	11345
283.455	11388
283.514	12092
283.573	19516
283.631	14270
283.690	10912
283.749	10170
283.808	23431
283.866	28761
283.925	10460
283.984	10371
284.043	15087
284.101	16046
284.160	11765
284.219	18540
284.277	15142
284.336	20821
284.395	68137
284.453	59539
284.512	20995
284.570	27491
284.629	23080
284.688	17779
284.746	19766
284.805	21307
284.863	26631
284.922	33431
284.981	38588
285.039	55283
285.098	100333
285.156	232740
285.215	443576
285.273	441641
285.332	260630
285.390	138801
285.449	86654
285.507	59200
285.566	43558
285.624	32985
285.683	25171
285.741	21018
285.799	18828
285.858	18739
285.916	17113
285.975	12829
286.033	12521
286.091	11506
286.150	9060
286.208	10862
286.267	15153
286.325	13713
286.383	22356
286.442	18949
286.500	10891
286.558	8905
286.616	8652
286.675	13520
286.733	12589
286.791	11347
286.850	13835
286.908	18156
286.966	30457
287.024	13451
287.083	10545
287.141	7971
287.199	8937
287.257	14684
287.315	11476
287.374	12348
287.432	31903
287.490	22022
287.548	13879
287.606	9686
287.664	9082
287.723	15525
287.781	23366
287.839	11976
287.897	13635
287.955	16514
288.013	24170
288.071	51950
288.129	174597
288.187	434716
288.245	225932
288.303	77641
288.361	46365
288.419	39425
288.477	28598
288.535	19628
288.593	14799
288.651	13154
288.709	10033
288.767	9981
288.825	11545
288.883	9000
288.941	9422
288.999	8355
289.057	8872
289.115	8739
289.173	9358
289.231	10169
289.289	10332
289.346	8888
289.404	11385
289.462	18169
289.520	20254
289.578	9957
289.636	7357
289.694	6574
289.751	7065
289.809	6730
289.867	8306
289.925	10185
289.983	13331
290.040	6829
290.098	7191
290.156	9792
290.214	12149
290.271	8417
290.329	7414
290.387	6020
290.444	7491
290.502	5138
290.560	6467
290.617	9489
290.675	8186
290.733	7586
290.790	9768
290.848	7303
290.906	10012
290.963	9549
291.021	8956
291.078	8308
291.136	11768
291.194	34767
291.251	79823
291.309	23372
291.366	10198
291.424	9766
291.481	10692
291.539	9593
291.596	8142
291.654	6196
291.711	6354
291.769	8325
291.826	20307
291.884	13205
291.941	8436
291.999	7548
292.056	9945
292.114	11754
292.171	7194
292.228	9472
292.286	11773
292.343	21985
292.401	26903
292.458	17602
292.515	12307
292.573	13671
292.630	13875
292.687	12468
292.745	11526
292.802	18658
292.859	50016
292.917	67325
292.974	39075
293.031	15294
293.089	12069
293.146	10596
293.203	9217
293.260	8086
293.318	11416
293.375	24553
293.432	13998
293.489	9610
293.546	9455
293.604	14780
293.661	36221
293.718	101422
293.775	58902
293.832	26413
293.889	18631
293.947	19146
294.004	14697
294.061	16424
294.118	31974
294.175	69174
294.232	94081
294.289	38025
294.346	19346
294.403	16322
294.460	13897
294.517	12374
294.574	11626
294.631	11325
294.688	14848
294.745	33405
294.802	116356
294.859	141445
294.916	52987
294.973	28896
295.030	24990
295.087	21171
295.144	15129
295.201	12877
295.258	11822
295.315	15548
295.372	41404
295.429	83628
295.486	37115
295.542	25936
295.599	61386
295.656	110912
295.713	73468
295.770	82729
295.827	34190
295.883	19439
295.940	18292
295.997	28374
296.054	29691
296.111	14344
296.167	11302
296.224	9483
296.281	10141
296.338	10467
296.394	10109
296.451	14248
296.508	37437
296.564	75494
296.621	55107
296.678	87949
296.734	136899
296.791	53199
296.848	29998
296.904	30176
296.961	58944
297.018	89222
297.074	71910
297.131	27670
297.187	21255
297.244	30011
297.301	80684
297.357	149929
297.414	52934
297.470	22997
297.527	19253
297.583	16114
297.640	15618
297.696	12976
297.753	11832
297.809	9180
297.866	7875
297.922	8509
297.979	9619
298.035	10489
298.092	18811
298.148	50050
298.204	50991
298.261	25815
298.317	44354
298.374	111817
298.430	64933
298.486	27832
298.543	21254
298.599	17743
298.656	19445
298.712	31708
298.768	71708
298.824	50289
298.881	19355
298.937	13440
298.993	13268
299.050	17799
299.106	15677
299.162	13046
299.218	13255
299.275	11357
299.331	13502
299.387	26794
299.443	88484
299.500	99309
299.556	41244
299.612	21311
299.668	19948
299.724	25733
299.780	27913
299.837	17807
299.893	25253
299.949	76447
300.005	95663
300.061	77441
300.117	133615
300.173	64977
300.229	29627
300.285	33439
300.341	40079
300.397	21539
300.453	14672
300.510	12875
300.566	14598
300.622	19774
300.678	48539
300.734	90732
300.790	76810
300.845	92658
300.901	59933
300.957	82924
301.013	64660
301.069	26542
301.125	19986
301.181	21817
301.237	15488
301.293	11959
301.349	11624
301.405	9697
301.461	9982
301.516	10589
301.572	13952
301.628	25089
301.684	24369
301.740	33883
301.796	53389
301.851	36413
301.907	58410
301.963	63065
302.019	92730
302.074	239280
302.130	240593
302.186	102939
302.242	44016
302.297	32946
302.353	33358
302.409	55760
302.464	49974
302.520	40340
302.576	88599
302.631	104936
302.687	59651
302.743	27450
302.798	17465
302.854	14390
302.910	15392
302.965	18876
303.021	32676
303.076	30773
303.132	37067
303.187	46425
303.243	23797
303.299	14571
303.354	12870
303.410	11358
303.465	11854
303.521	10328
303.576	12467
303.632	15791
303.687	27218
303.743	77609
303.798	67849
303.853	26375
303.909	17425
303.964	16458
304.020	23167
304.075	35832
304.130	30990
304.186	54544
304.241	55742
304.297	44838
304.352	25413
304.358	24508
304.407	17170
304.449	16287
304.463	16002
304.518	17520
304.539	16868
304.573	15841
304.629	16020
304.630	16204
304.684	25400
304.720	47368
304.739	58346
304.794	92490
304.811	78242
304.850	43875
304.902	23100
304.905	21808
304.960	16151
304.992	16935
305.015	17513
305.071	15684
305.083	15036
305.126	12612
305.173	10320
305.181	9981
305.236	9305
305.264	10057
305.292	10789
305.347	14189
305.354	14326
305.402	15402
305.445	15754
305.457	15809
305.512	19465
305.535	20064
305.567	20885
305.622	21965
305.626	22657
305.678	39274
305.716	72273
305.733	83719
305.788	97617
305.807	84127
305.843	61468
305.897	77571
305.898	77702
305.953	82180
305.988	55304
306.008	40609
306.063	27760
306.078	25379
306.118	20187
306.168	14141
306.173	13646
306.228	11621
306.259	10748
306.283	10139
306.338	10892
306.349	10960
306.393	11497
306.440	14111
306.448	14517
306.503	14708
306.530	16642
306.558	21204
306.613	47278
306.620	50828
306.668	74481
306.711	84524
306.723	83871
306.778	65121
306.801	49748
306.833	31939
306.888	18907
306.892	18332
306.943	14329
306.982	12622
306.997	12188
307.052	12329
307.072	12696
307.107	13735
307.162	17133
307.163	17264
307.217	29751
307.253	34846
307.272	36141
307.327	41084
307.343	37022
307.381	28363
307.434	25398
307.436	25767
307.491	46596
307.524	69065
307.546	77832
307.600	74738
307.614	67269
307.655	40824
307.704	22355
307.710	21544
307.765	24629
307.795	30791
307.819	36743
307.874	62084
307.885	61165
307.929	48767
307.975	36067
307.984	35926
308.038	48289
308.065	59660
308.093	100517
308.148	206502
308.156	228622
308.202	346728
308.246	427062
308.257	414825
308.312	235971
308.336	166145
308.366	126299
308.421	81334
308.426	76962
308.475	50499
308.517	36353
308.530	33736
308.585	28108
308.607	26227
308.639	25621
308.694	27476
308.697	27879
308.748	44869
308.787	66639
308.803	68923
308.857	56490
308.877	48227
308.912	39309
308.967	37702
308.967	37751
309.021	51433
309.058	63578
309.076	80088
309.130	141041
309.148	165821
309.185	291134
309.238	494681
309.239	496264
309.293	531602
309.328	504912
309.348	440260
309.402	223633
309.418	168252
309.457	118706
309.508	71982
309.511	70839
309.566	61711
309.598	58411
309.620	64627
309.674	84282
309.688	89750
309.729	85546
309.778	75027
309.783	73476
309.837	53452
309.868	43572
309.892	51712
309.946	76899
309.959	85218
310.001	111175
310.049	132452
310.055	128232
310.109	75736
310.139	46183
310.163	36174
310.218	22721
310.229	20608
310.272	17652
310.319	14848
310.326	14468
310.381	12851
310.409	11928
310.435	11613
310.489	11284
310.499	11299
310.543	11281
310.589	11447
310.598	11428
310.652	12258
310.679	12028
310.706	11052
310.760	9139
310.769	8852
310.814	7405
310.859	6466
310.868	6582
310.923	7542
310.948	8092
310.977	9160
311.031	11325
311.038	11649
311.085	10885
311.128	9583
311.139	9427
311.193	9013
311.218	8973
311.247	8566
311.301	7498
311.308	7393
311.356	7897
311.398	8602
311.410	8407
311.464	7435
311.488	6926
311.518	7201
311.572	7855
311.578	7966
311.626	11075
311.668	13958
311.680	13831
311.734	12916
311.758	12616
311.788	12685
311.842	12748
311.847	12789
311.896	16102
311.937	19236
311.950	18722
312.004	16592
312.027	15538
312.058	13270
312.112	9531
312.117	9187
312.165	8553
312.207	8071
312.297	12610
312.386	10091
312.476	10755
312.566	21502
312.656	10851
312.745	6933
312.835	8195
312.925	9121
313.015	8090
313.104	9684
313.194	6900
313.284	8237
313.374	11809
313.463	10592
313.553	7850
313.643	6901
313.732	6789
313.822	6749
313.912	8678
314.001	10006
314.091	12546
314.180	15015
314.270	13373
314.360	14974
314.449	13249
314.539	8847
314.628	7843
314.718	10437
314.808	12154
314.897	8047
314.987	9168
315.076	11718
315.166	15570
315.255	13518
315.345	14490
315.434	12997
315.524	13008
315.613	14867
315.703	21738
315.792	34934
315.881	122100
315.971	43078
316.060	27500
316.150	32864
316.239	32030
316.328	14043
316.418	8869
316.507	9051
316.597	13114
316.686	11979
316.775	18652
316.865	33519
316.954	10782
317.043	8005
317.133	8964
317.222	8141
317.311	7977
317.400	7982
317.490	13203
317.579	16178
317.668	14020
317.757	24031
317.847	56912
317.936	210843
318.025	75227
318.114	45733
318.203	27163
318.293	28244
318.382	56636
318.471	41492
318.560	53290
318.649	88969
318.738	21608
318.828	15024
318.917	17702
319.006	19694
319.095	42512
319.184	112636
319.273	64715
319.362	34205
319.451	13279
319.540	12514
319.629	27389
319.718	46675
319.807	23657
319.896	40706
319.985	140569
320.074	51068
320.163	15451
320.252	22294
320.341	20516
320.430	16778
320.519	24563
320.608	14726
320.697	12785
320.786	12517
320.875	17196
320.964	22475
321.053	33991
321.142	46513
321.230	50286
321.319	37950
321.408	83518
321.497	34918
321.586	34909
321.675	36719
321.764	36142
321.852	23988
321.941	48383
322.030	33498
322.119	36610
322.207	86584
322.296	54181
322.385	31342
322.474	37078
322.562	105827
322.651	54090
322.740	39841
322.829	53347
322.917	48619
323.006	30147
323.095	26440
323.183	19692
323.272	28174
323.361	50786
323.449	133709
323.538	47836
323.626	94960
323.715	57445
323.804	27092
323.892	84029
323.981	48601
324.069	18065
324.158	45844
324.246	41712
324.335	19465
324.424	30169
324.512	12763
324.601	16413
324.689	25662
324.778	44949
324.866	34712
324.954	11953
325.043	12578
325.131	23274
325.220	36446
325.308	41107
325.397	30504
325.485	19693
325.574	8087
325.662	8351
325.750	10033
325.839	8174
325.927	7185
326.015	10762
326.104	14984
326.192	20372
326.280	8385
326.369	9032
326.457	13416
326.545	24983
326.634	11472
326.722	6883
326.810	7438
326.898	7796
326.987	9674
327.075	23945
327.163	21824
327.251	11610
327.340	15795
327.428	23002
327.516	8901
327.604	8978
327.692	8633
327.781	10328
327.869	15341
327.957	10188
328.045	11231
328.133	6362
328.221	8546
328.309	8699
328.397	7075
328.485	11459
328.574	16905
328.662	55642
328.750	28684
328.838	10547
328.926	7008
329.014	7502
329.102	11579
329.190	29595
329.278	19019
329.366	6057
329.454	5492
329.542	5894
329.630	5654
329.718	7454
329.806	9118
329.893	8438
329.981	9282
330.069	14710
330.157	49153
330.245	146001
330.333	72292
330.421	15288
330.509	18847
330.597	64424
330.684	40232
330.772	15941
330.860	19167
330.948	24917
331.036	11141
331.123	5044
331.211	6976
331.299	10337
331.387	22448
331.475	35678
331.562	10988
331.650	6895
331.738	8449
331.825	10893
331.913	6503
332.001	6379
332.089	10068
332.176	20266
332.264	44803
332.352	33912
332.439	12399
332.527	8913
332.614	7333
332.702	10115
332.790	8750
332.877	23140
332.965	41753
333.052	14128
333.140	15076
333.228	33317
333.315	10367
333.403	10907
333.490	27134
333.578	23926
333.665	39962
333.753	21120
333.840	8853
333.928	12159
334.015	30742
334.103	48374
334.190	138207
334.278	37569
334.365	19928
334.452	16205
334.540	11054
334.627	14307
334.715	20244
334.802	41038
334.889	163039
334.977	160803
335.064	30983
335.151	15447
335.239	14416
335.326	20808
335.413	73424
335.501	93884
335.588	16610
335.675	11819
335.762	16238
335.850	25780
335.937	24245
336.024	57486
336.111	182237
336.199	84584
336.286	23017
336.373	11875
336.460	9016
336.547	8986
336.635	10836
336.722	10477
336.809	8925
336.896	16558
336.983	46850
337.070	105603
337.157	149860
337.245	106768
337.332	68600
337.419	11885
337.506	8629
337.593	11360
337.680	36963
337.767	96767
337.854	29959
337.941	32603
338.028	36850
338.115	14174
338.202	17432
338.289	32815
338.376	102229
338.463	35258
338.550	59202
338.637	58544
338.724	23348
338.811	30863
338.898	8252
338.984	7321
339.071	9413
339.158	11111
339.245	29808
339.332	19196
339.419	23738
339.506	20597
339.593	5081
339.679	7601
339.766	7150
339.853	10649
339.940	23336
340.027	7848
340.113	8550
340.200	12142
340.287	8530
340.374	11911
340.460	20006
340.547	10264
340.634	16871
340.720	63348
340.807	36017
340.894	7648
340.980	7735
341.067	7988
341.154	8656
341.240	14886
341.327	30488
341.414	9600
341.500	10186
341.587	7984
341.674	7790
341.760	19989
341.847	24304
341.933	9175
342.020	2968
342.106	4709
342.193	8633
342.279	16580
342.366	12701
342.452	21511
342.539	12151
342.625	28841
342.712	69332
342.798	28248
342.885	11728
342.971	4508
343.058	4297
343.144	5484
343.230	5649
343.317	6821
343.403	5765
343.490	5459
343.576	4131
343.662	6618
343.749	7935
343.835	11574
343.921	24498
344.008	135452
344.094	309237
344.180	65605
344.267	25249
344.353	85155
344.439	84670
344.525	32181
344.612	12188
344.698	11018
344.784	7906
344.870	5525
344.957	6458
345.043	12391
345.129	9760
345.215	19091
345.301	11302
345.387	8311
345.474	4107
345.560	4890
345.646	7213
345.732	7182
345.818	7443
345.904	7102
345.990	8708
346.076	9484
346.162	14508
346.249	7817
346.335	5488
346.421	9445
346.507	35930
346.593	123181
346.679	27526
346.765	9072
346.851	8343
346.937	8690
347.023	6280
347.108	8602
347.194	6808
347.280	6972
347.366	11447
347.452	38281
347.538	152911
347.624	104578
347.710	78928
347.796	12610
347.882	6843
347.967	6056
348.053	9681
348.139	6430
348.225	5839
348.311	6602
348.397	4912
348.482	7886
348.568	9914
348.654	5971
348.740	12355
348.825	13467
348.911	17471
348.997	69730
349.083	133737
349.168	21065
349.254	7080
349.340	7296
349.425	5226
349.511	9978
349.597	11172
349.682	23782
349.768	80382
349.854	37523
349.939	7180
350.025	5832
350.110	5014
350.196	5006
350.282	3853
350.367	5402
350.453	11159
350.538	10714
350.624	9374
350.709	10070
350.795	4729
350.880	6188
350.966	6723
351.051	10781
351.137	7775
351.222	7468
351.308	24764
351.393	67529
351.479	16109
351.564	6183
351.649	6593
351.735	5606
351.820	5135
351.906	5943
351.991	9530
352.076	44753
352.162	64842
352.247	14225
352.332	8468
352.418	17670
352.503	23569
352.588	96196
352.673	75674
352.759	17543
352.844	8388
352.929	10391
353.014	14016
353.100	9406
353.185	16460
353.270	25051
353.355	23306
353.441	8830
353.526	8441
353.611	22366
353.696	24299
353.781	14931
353.866	7161
353.952	8667
354.037	22040
354.122	49412
354.207	44122
354.292	15939
354.377	7049
354.462	5959
354.547	9921
354.632	9517
354.717	13827
354.802	17672
354.887	7574
354.972	4765
355.057	4454
355.142	4090
355.227	8253
355.312	15085
355.397	32675
355.482	78533
355.567	36092
355.652	27275
355.737	29370
355.822	95351
355.907	74096
355.991	11982
356.076	5976
356.161	6032
356.246	5828
356.331	8990
356.416	23601
356.501	155753
356.585	155657
356.670	21054
356.755	14162
356.840	22719
356.924	106127
357.009	368111
357.094	130277
357.179	29304
357.263	17372
357.348	18143
357.433	17828
357.517	15781
357.602	12678
357.687	9846
357.771	12482
357.856	16443
357.941	19056
358.025	79457
358.110	346013
358.195	155369
358.279	23868
358.364	19036
358.448	63150
358.533	170964
358.617	119952
358.702	121417
358.787	42674
358.871	23952
358.956	20333
359.040	7108
359.125	5508
359.209	6295
359.294	7075
359.378	12132
359.462	17556
359.547	11325
359.631	7842
359.716	5870
359.800	7393
359.885	12298
359.969	7925
360.053	6166
360.138	5906
360.222	12372
360.306	23574
360.391	17735
360.475	21963
360.559	47654
360.644	62051
360.728	48685
360.812	83825
360.896	231409
360.981	90659
361.065	44205
361.149	12572
361.233	12351
361.318	10528
361.402	12637
361.486	10337
361.570	8331
361.654	13633
361.739	34519
361.823	151394
361.907	227540
361.991	39433
362.075	22698
362.159	50695
362.243	37312
362.327	40452
362.411	52507
362.495	26149
362.580	14279
362.664	10906
362.748	10371
362.832	15571
362.916	29779
363.000	90992
363.084	230137
363.168	287126
363.252	64790
363.336	25101
363.420	32436
363.503	104203
363.587	112595
363.671	23456
363.755	17906
363.839	24727
363.923	13703
364.007	27518
364.091	32004
364.175	48893
364.258	176783
364.342	147282
364.426	190478
364.510	102448
364.594	43229
364.677	47925
364.761	206680
364.845	139628
364.929	44677
365.013	34318
365.096	29067
365.180	34473
365.264	47633
365.347	160048
365.431	65535
365.515	17859
365.598	10148
365.682	10321
365.766	18678
365.849	19779
365.933	12874
366.017	15091
366.100	11518
366.184	5905
366.267	6666
366.351	6526
366.435	6858
366.518	4732
366.602	5355
366.685	6234
366.769	9741
366.852	17179
366.936	27510
367.019	16577
367.103	15020
367.186	22258
367.270	8315
367.353	4589
367.436	7089
367.520	6649
367.603	10828
367.687	16382
367.770	30194
367.853	17050
367.937	60288
368.020	98454
368.104	23980
368.187	21863
368.270	30300
368.353	26257
368.437	36382
368.520	67437
368.603	45364
368.687	69053
368.770	126467
368.853	30139
368.936	28780
369.020	26063
369.103	10841
369.186	7868
369.269	8808
369.352	19191
369.436	26402
369.519	17470
369.602	8344
369.685	9317
369.768	10611
369.851	8335
369.934	5775
370.018	9790
370.101	23755
370.184	17938
370.267	13766
370.350	25520
370.433	39448
370.516	112564
370.599	152061
370.682	47860
370.765	66022
370.848	82073
370.931	158397
371.014	54841
371.097	11334
371.180	8595
371.263	5933
371.346	3517
371.429	6936
371.511	7180
371.594	15742
371.677	24810
371.760	26749
371.843	23558
371.926	122443
372.009	285610
372.091	82345
372.174	58892
372.257	152351
372.340	56229
372.423	39488
372.505	40269
372.588	19161
372.671	46993
372.754	154734
372.836	73710
372.919	51340
373.002	89271
373.085	28925
373.167	24900
373.250	65524
373.332	149280
373.415	187982
373.498	386807
373.580	139492
373.663	215891
373.746	277088
373.828	57016
373.911	24224
373.993	28294
374.076	92436
374.159	80191
374.241	41767
374.324	128481
374.406	82473
374.489	114390
374.571	332280
374.654	129316
374.736	63030
374.819	203292
374.901	280426
374.983	280063
375.066	48536
375.148	20290
375.231	78907
375.313	137098
375.395	50081
375.478	14012
375.560	10244
375.643	16003
375.725	58850
375.807	254471
375.890	184069
375.972	65486
376.054	40050
376.136	56266
376.219	26465
376.301	70606
376.383	221010
376.465	77118
376.548	48361
376.630	59781
376.712	183241
376.794	80120
376.877	10957
376.959	6405
377.041	10409
377.123	20173
377.205	21334
377.287	5336
377.369	6055
377.452	5879
377.534	7083
377.616	6808
377.698	6551
377.780	4847
377.862	7160
377.944	7974
378.026	4318
378.108	5013
378.190	6229
378.272	4506
378.354	4128
378.436	5054
378.518	13136
378.600	41892
378.682	36967
378.764	89889
378.846	67576
378.928	18987
379.010	26482
379.091	13190
379.173	7583
379.255	6948
379.337	12174
379.419	43244
379.501	126931
379.583	47339
379.664	13067
379.746	31832
379.828	86334
379.910	117050
379.991	99488
380.073	16725
380.155	11774
380.237	8088
380.318	6343
380.400	7413
380.482	19318
380.564	29098
380.645	28371
380.727	25221
380.809	15434
380.890	10841
380.972	8229
381.053	8015
381.135	10973
381.217	30424
381.298	89632
381.380	41984
381.461	37794
381.543	181542
381.624	214954
381.706	38090
381.787	19811
381.869	22030
381.951	76777
382.032	299543
382.113	175247
382.195	37548
382.276	25161
382.358	57484
382.439	169365
382.521	179330
382.602	278589
382.684	122681
382.765	226951
382.846	236134
382.928	317343
383.009	173554
383.090	128002
383.172	459272
383.253	669497
383.334	238609
383.416	258363
383.497	127785
383.578	61832
383.659	112215
383.741	404184
383.822	988481
383.903	495748
383.984	190272
384.066	306533
384.147	181204
384.228	40070
384.309	29754
384.390	21474
384.471	16097
384.553	18348
384.634	24864
384.715	24353
384.796	12896
384.877	18987
384.958	81826
385.039	95438
385.120	32862
385.201	17316
385.282	19655
385.363	20728
385.444	17717
385.525	37114
385.606	133130
385.687	111294
385.768	26905
385.849	31789
385.930	136941
386.011	237965
386.092	60756
386.173	15339
386.254	12730
386.335	13687
386.416	14993
386.496	54651
386.577	88839
386.658	30938
386.739	19860
386.820	18949
386.901	14488
386.981	14335
387.062	10094
387.143	23107
387.224	87466
387.304	78328
387.385	29251
387.466	20534
387.547	24562
387.627	19208
387.708	36788
387.789	157163
387.869	191948
387.950	49399
388.031	12344
388.111	11898
388.192	29041
388.273	39040
388.353	22607
388.434	15274
388.514	31376
388.595	153271
388.676	190893
388.756	85232
388.837	79230
388.917	46528
388.998	11470
389.078	10763
389.159	10237
389.239	9617
389.320	17247
389.400	15286
389.480	34897
389.561	96712
389.641	44433
389.722	17000
389.802	26950
389.883	40549
389.963	115627
390.043	68429
390.124	21214
390.204	33020
390.284	98897
390.365	62743
390.445	73368
390.525	201965
390.605	172614
390.686	52112
390.766	19225
390.846	11154
390.927	7892
391.007	10408
391.087	12255
391.167	13796
391.247	10723
391.328	18666
391.408	24354
391.488	18190
391.568	8961
391.648	14673
391.728	19842
391.808	18898
391.888	21590
391.969	53808
392.049	84045
392.129	37820
392.209	45223
392.289	112243
392.369	60740
392.449	48813
392.529	32395
392.609	29527
392.689	40629
392.769	118426
392.849	100646
392.929	77013
393.009	170236
393.089	148328
393.169	162717
393.248	467484
393.328	1370464
393.408	1417524
393.488	492051
393.568	159258
393.648	79352
393.728	51375
393.807	37224
393.887	31535
393.967	26948
394.047	31517
394.127	33831
394.206	51379
394.286	164409
394.366	681948
394.446	720829
394.525	178030
394.605	48910
394.685	38053
394.764	68519
394.844	107081
394.924	73923
395.003	28135
395.083	20709
395.163	18272
395.242	17650
395.322	19167
395.402	13895
395.481	21009
395.561	50303
395.640	120880
395.720	105696
395.799	134884
395.879	101295
395.958	75524
396.038	244977
396.117	886092
396.197	955915
396.276	298252
396.356	102731
396.435	74861
396.515	58460
396.594	73720
396.673	135751
396.753	460143
396.832	1247083
396.912	940166
396.991	256734
397.070	79305
397.150	44014
397.229	32986
397.308	41129
397.388	68302
397.467	34588
397.546	16778
397.625	12364
397.705	17821
397.784	17458
397.863	11658
397.942	8918
398.022	11500
398.101	39636
398.180	103453
398.259	50483
398.338	16100
398.417	11127
398.497	9828
398.576	9394
398.655	6844
398.734	6486
398.813	8571
398.892	35163
398.971	109839
399.050	48585
399.129	7215
399.208	5153
399.287	7070
399.366	5461
399.445	5570
399.524	6335
399.603	6097
399.682	14418
399.761	41097
399.840	119571
399.919	82804
399.998	12608
400.077	4465
400.156	4327
400.235	8758
400.313	5239
400.392	9744
400.471	46307
400.550	71266
400.629	18360
400.708	9874
400.786	10193
400.865	26187
400.944	26335
401.023	12480
401.102	3347
401.180	4674
401.259	4962
401.338	6741
401.416	9923
401.495	8607
401.574	7405
401.652	5221
401.731	8910
401.810	8647
401.888	4776
401.967	3255
402.046	5831
402.124	8840
402.203	11190
402.281	7494
402.360	13239
402.438	32156
402.517	20088
402.596	8016
402.674	6520
402.753	4984
402.831	4149
402.910	7080
402.988	30839
403.066	104849
403.145	55402
403.223	32416
403.302	81849
403.380	58821
403.459	57530
403.537	23751
403.615	9040
403.694	2850
403.772	4133
403.850	3455
403.929	3302
404.007	4562
404.085	11978
404.164	13637
404.242	5013
404.320	9338
404.398	20611
404.477	50223
404.555	223712
404.633	185287
404.711	29578
404.789	10365
404.868	6865
404.946	5692
405.024	3477
405.102	3370
405.180	2515
405.258	3413
405.336	5018
405.415	4933
405.493	11839
405.571	11482
405.649	3275
405.727	4532
405.805	7932
405.883	8356
405.961	9624
406.039	9769
406.117	5497
406.195	11921
406.273	51687
406.351	191939
406.429	104268
406.507	17250
406.585	6325
406.663	7485
406.740	9089
406.818	7946
406.896	5404
406.974	6681
407.052	17007
407.130	111699
407.208	150325
407.285	27945
407.363	5641
407.441	5734
407.519	4613
407.596	6926
407.674	21537
407.752	77716
407.830	68718
407.907	21464
407.985	7853
408.063	5075
408.141	3442
408.218	9368
408.296	9571
408.373	5892
408.451	7594
408.529	6454
408.606	3080
408.684	3399
408.762	2330
408.839	1776
408.917	2649
408.994	4281
409.072	3771
409.149	5110
409.227	9271
409.304	12300
409.382	9810
409.459	11968
409.537	16393
409.614	15022
409.692	10198
409.769	10712
409.846	16633
409.924	23656
410.001	16635
410.079	12195
410.156	8691
410.233	7188
410.311	6147
410.388	5804
410.465	7471
410.543	7471
410.620	4769
410.697	6690
410.775	6550
410.852	3772
410.929	7881
411.006	11200
411.083	7479
411.161	17350
411.238	17462
411.315	9415
411.392	5017
411.469	8178
411.547	9676
411.624	5433
411.701	4330
411.778	6861
411.855	15094
411.932	7082
412.009	3457
412.086	4242
412.163	5466
412.240	6757
412.317	8424
412.394	6812
412.471	2814
412.548	2042
412.625	3996
412.702	6481
412.779	11416
412.856	7238
412.933	1471
413.010	2961
413.087	7750
413.164	42835
413.241	57384
413.318	13439
413.395	7967
413.471	14590
413.548	5618
413.625	4733
413.702	5539
413.779	3969
413.855	2263
413.932	1309
414.009	1051
414.086	2467
414.162	2204
414.239	7707
414.316	40145
414.393	90500
414.469	29227
414.546	4425
414.623	2049
414.699	3632
414.776	4999
414.853	2673
414.929	3630
415.006	3306
415.082	5219
415.159	3665
415.236	2374
415.312	5183
415.389	8596
415.465	13202
415.542	6589
415.618	4029
415.695	8871
415.771	6503
415.848	5060
415.924	5189
416.000	3403
416.077	3239
416.153	571
416.230	907
416.306	1244
416.383	2660
416.459	1765
416.535	1425
416.612	2437
416.688	2262
416.764	2097
416.841	2858
416.917	2567
416.993	3223
417.069	4410
417.146	6937
417.222	8339
417.298	5156
417.374	2870
417.451	3655
417.527	5574
417.603	7687
417.679	4851
417.755	3916
417.831	1223
417.908	2153
417.984	2152
418.060	2478
418.136	10989
418.212	14612
418.288	4746
418.364	3128
418.440	3171
418.516	7368
418.592	10522
418.668	18577
418.744	26987
418.820	19495
418.896	4523
418.972	2279
419.048	3746
419.124	12601
419.200	8073
419.276	2604
419.352	1489
419.428	2339
419.504	3733
419.579	5603
419.655	3587
419.731	5014
419.807	18149
419.883	33245
419.959	21289
420.034	6334
420.110	13836
420.186	58243
420.262	40621
420.337	8609
420.413	6516
420.489	4076
420.565	3559
420.640	3425
420.716	3654
420.792	2721
420.867	4345
420.943	4199
421.019	9991
421.094	6757
421.170	3014
421.245	3233
421.321	4749
421.397	4964
421.472	13539
421.548	41399
421.623	27308
421.699	9122
421.774	8608
421.850	8603
421.925	14128
422.001	13360
422.076	10724
422.152	14052
422.227	23111
422.302	27340
422.378	40523
422.453	74757
422.529	179091
422.604	480744
422.679	697263
422.755	499691
422.830	192416
422.905	77963
422.981	42199
423.056	27587
423.131	20495
423.207	15869
423.282	15867
423.357	23464
423.432	15604
423.508	15154
423.583	31867
423.658	22511
423.733	8730
423.808	10521
423.883	11936
423.959	10585
424.034	8858
424.109	7907
424.184	4518
424.259	4194
424.334	3415
424.409	2687
424.484	3933
424.559	5043
424.634	3413
424.709	7086
424.784	8087
424.859	4923
424.934	9093
425.009	40350
425.084	65124
425.159	21306
425.234	3698
425.309	2006
425.384	2755
425.459	2549
425.534	2970
425.609	3822
425.683	2076
425.758	2614
425.833	3232
425.908	5871
425.983	24681
426.058	67588
426.132	27350
426.207	6135
426.282	9015
426.357	7242
426.431	2653
426.506	3835
426.581	3974
426.655	3722
426.730	2608
426.805	4142
426.879	3995
426.954	4971
427.029	11848
427.103	65828
427.178	158563
427.253	63378
427.327	7574
427.402	7755
427.476	13061
427.551	5456
427.625	4514
427.700	5279
427.774	2608
427.849	4861
427.923	2270
427.998	3349
428.072	4521
428.147	13617
428.221	59419
428.296	178476
428.370	87810
428.444	13517
428.519	13956
428.593	25074
428.667	19887
428.742	25620
428.816	28383
428.890	110833
428.965	161987
429.039	46493
429.113	27458
429.188	10779
429.262	4130
429.336	10409
429.410	30187
429.485	19396
429.559	20596
429.633	15326
429.707	6803
429.781	22418
429.855	121359
429.930	175490
430.004	82676
430.078	109543
430.152	101757
430.226	226901
430.300	214445
430.374	34075
430.448	12638
430.522	40123
430.596	100946
430.670	65399
430.744	191840
430.818	254259
430.892	46786
430.966	8964
431.040	4101
431.114	2983
431.188	2684
431.262	3080
431.336	3054
431.410	13113
431.484	30866
431.557	17922
431.631	4177
431.705	7097
431.779	33912
431.853	154938
431.927	100081
432.000	11997
432.074	5120
432.148	5323
432.222	4706
432.295	2202
432.369	2918
432.443	9418
432.516	63560
432.590	156615
432.664	50457
432.737	6680
432.811	2187
432.885	1314
432.958	1702
433.032	1646
433.106	97
433.179	1007
433.253	599
433.326	1614
433.400	807
433.473	1200
433.547	333
433.620	1078
433.694	5951
433.767	5439
433.841	1768
433.914	971
433.988	720
434.061	2217
434.134	975
434.208	1382
434.281	-40
434.355	1385
434.428	825
434.501	1036
434.575	1457
434.648	1798
434.721	522
434.795	418
434.868	532
434.941	1102
435.014	535
435.088	1542
435.161	2686
435.234	7096
435.307	8268
435.381	5037
435.454	4401
435.527	7413
435.600	8022
435.673	6948
435.746	4659
435.819	4141
435.892	2674
435.966	2205
436.039	1814
436.112	2109
436.185	721
436.258	606
436.331	699
436.404	854
436.477	163
436.550	579
436.623	622
436.696	547
436.769	2059
436.842	968
436.915	2593
436.987	4356
437.060	1342
437.133	-44
437.206	1596
437.279	2034
437.352	389
437.425	1004
437.498	2471
437.570	8055
437.643	6328
437.716	1414
437.789	693
437.861	8255
437.934	21311
438.007	8016
438.080	1542
438.152	3477
438.225	10369
438.298	82497
438.370	215525
438.443	79649
438.516	18487
438.588	3936
438.661	987
438.734	2122
438.806	2719
438.879	3435
438.951	5102
439.024	10463
439.096	2502
439.169	1121
439.241	-283
439.314	1862
439.386	4353
439.459	7910
439.531	10896
439.604	4720
439.676	576
439.749	929
439.821	-314
439.893	1574
439.966	1675
440.038	3629
440.110	3687
440.183	2206
440.255	1541
440.327	5830
440.400	33970
440.472	134621
440.544	76489
440.617	9313
440.689	8194
440.761	11872
440.833	15617
440.905	9493
440.978	2149
441.050	1344
441.122	1229
441.194	982
441.266	1705
441.338	1686
441.411	6523
441.483	41569
441.555	53837
441.627	11452
441.699	7660
441.771	6118
441.843	1867
441.915	1074
441.987	1847
442.059	1837
442.131	2828
442.203	7320
442.275	6564
442.347	7376
442.419	13869
442.491	75024
442.563	180330
442.635	67346
442.706	33593
442.778	21538
442.850	5372
442.922	3304
442.994	4326
443.066	7023
443.137	4740
443.209	5766
443.281	9604
443.353	24488
443.425	95216
443.496	325521
443.568	288708
443.640	96957
443.711	18669
443.783	7846
443.855	4368
443.926	3831
443.998	3404
444.070	5709
444.141	4689
444.213	8072
444.285	8464
444.356	7551
444.428	6179
444.499	3244
444.571	2075
444.642	2184
444.714	3069
444.785	7333
444.857	9342
444.928	20099
445.000	11671
445.071	15538
445.143	16067
445.214	12306
445.285	23339
445.357	64631
445.428	212786
445.500	456987
445.571	268371
445.642	138762
445.714	51385
445.785	35653
445.856	11352
445.928	10753
445.999	8428
446.070	5985
446.141	6519
446.213	8096
446.284	4166
446.355	5515
446.426	3101
446.497	3769
446.569	6943
446.640	10323
446.711	6551
446.782	2664
446.853	4412
446.924	4693
446.995	3087
447.066	4013
447.138	7009
447.209	3987
447.280	911
447.351	553
447.422	597
447.493	3431
447.564	3724
447.635	6106
447.706	2153
447.777	523
447.847	406
447.918	1709
447.989	3218
448.060	5832
448.131	13007
448.202	11393
448.273	6465
448.344	2692
448.414	1304
448.485	1805
448.556	754
448.627	-238
448.698	963
448.768	749
448.839	1637
448.910	6629
448.981	4673
449.051	2429
449.122	760
449.193	1016
449.263	1439
449.334	350
449.405	2565
449.475	9717
449.546	5422
449.616	7951
449.687	5589
449.758	1776
449.828	594
449.899	468
449.969	312
450.040	825
450.110	2713
450.181	3073
450.251	997
450.322	1638
450.392	1122
450.463	1785
450.533	217
450.604	1421
450.674	1170
450.744	1798
450.815	627
450.885	2425
450.955	970
451.026	681
451.096	707
451.166	1803
451.237	9733
451.307	20125
451.377	5970
451.447	1376
451.518	403
451.588	1062
451.658	1418
451.728	5476
451.799	22227
451.869	20100
451.939	3984
452.009	987
452.079	622
452.149	1528
452.219	6674
452.289	25630
452.360	14381
452.430	3528
452.500	3097
452.570	5037
452.640	8049
452.710	26084
452.780	30967
452.850	21439
452.920	15972
452.990	5604
453.060	4379
453.129	6019
453.199	6543
453.269	31688
453.339	54690
453.409	77731
453.479	89047
453.549	125201
453.619	123305
453.688	41111
453.758	7168
453.828	2795
453.898	1268
453.968	1983
454.037	1026
454.087	1419
454.107	1556
454.168	1437
454.177	1396
454.247	1373
454.249	1372
454.316	724
454.330	1286
454.386	3273
454.411	7326
454.456	13064
454.492	14672
454.525	16019
454.574	7639
454.595	4112
454.655	2268
454.665	2058
454.734	4062
454.736	4291
454.804	9643
454.817	13358
454.873	25600
454.898	25630
454.943	24249
454.979	15515
455.013	8249
455.060	4894
455.082	4292
455.141	7139
455.152	7258
455.221	22027
455.222	22384
455.291	29549
455.303	27548
455.360	18916
455.384	22815
455.430	31527
455.465	27423
455.499	22162
455.546	24228
455.569	23701
455.627	13910
455.638	12462
455.707	2383
455.708	2409
455.777	2702
455.789	2624
455.846	2098
455.869	2227
455.916	2472
455.950	2797
455.985	3013
456.031	2761
456.054	2544
456.112	2036
456.124	2000
456.193	1618
456.193	1586
456.262	3651
456.274	4153
456.332	5701
456.355	6126
456.401	5856
456.436	4664
456.470	3621
456.516	2320
456.540	1857
456.597	1931
456.609	1939
456.678	1385
456.678	1365
456.747	1448
456.759	1363
456.817	1139
456.840	1274
456.886	1324
456.920	1477
456.955	1979
457.001	2320
457.024	2756
457.082	4766
457.093	5113
457.162	8186
457.163	8248
457.232	8452
457.243	8087
457.301	4646
457.324	3218
457.370	2245
457.405	2365
457.439	2533
457.485	2315
457.508	2290
457.566	3006
457.577	3128
457.646	4104
457.647	4147
457.715	7929
457.727	8544
457.784	11615
457.808	15361
457.853	21459
457.889	25297
457.922	26045
457.969	17397
457.991	16301
458.050	19058
458.060	19300
458.129	33197
458.130	33564
458.198	39936
458.211	36277
458.267	18833
458.292	13243
458.336	7917
458.372	7752
458.405	9963
458.453	13895
458.474	17342
458.533	32430
458.543	33855
458.611	61626
458.614	61724
458.680	40946
458.694	33575
458.749	14258
458.775	10443
458.818	6628
458.855	5584
458.887	5199
458.936	4917
458.955	4688
459.016	4487
459.024	4500
459.093	5476
459.097	5481
459.162	5315
459.177	5336
459.230	5512
459.257	5981
459.299	6772
459.338	7294
459.368	7406
459.418	7933
459.437	7669
459.499	5547
459.505	5403
459.574	4282
459.579	4288
459.643	4270
459.659	4130
459.711	4385
459.740	4787
459.780	5533
459.820	6064
459.849	6131
459.900	6507
459.917	6506
459.981	6330
459.986	6201
460.054	4574
460.061	4414
460.123	4722
460.141	4892
460.191	6316
460.222	7026
460.260	7193
460.302	8378
460.328	7992
460.382	5551
460.397	5485
460.462	5816
460.465	5855
460.534	7077
460.543	7271
460.602	18584
460.623	23155
460.671	33369
460.703	45593
460.739	48129
460.783	42025
460.808	35258
460.864	10549
460.876	8351
460.944	6522
460.945	6487
461.013	6029
461.024	5901
461.081	6037
461.104	6323
461.150	6178
461.184	5727
461.218	5533
461.264	5242
461.286	5274
461.345	5399
461.355	5462
461.423	6343
461.425	6354
461.491	7045
461.505	7410
461.559	16863
461.585	21222
461.628	36891
461.665	51765
461.696	57731
461.745	69410
461.764	58733
461.825	15514
461.832	14761
461.901	8701
461.905	8564
461.969	8013
461.985	7679
462.037	7086
462.065	7095
462.105	9265
462.145	11279
462.173	17493
462.225	29311
462.241	32531
462.305	47084
462.310	45629
462.378	22019
462.385	18889
462.446	9251
462.465	6900
462.514	7244
462.545	7781
462.582	7453
462.625	6980
462.650	7027
462.705	6975
462.718	7456
462.785	10456
462.786	10582
462.854	17525
462.865	18758
462.922	23426
462.945	25244
462.990	17466
463.025	10488
463.058	9006
463.104	7506
463.126	7300
463.184	7143
463.194	7213
463.262	7067
463.264	7094
463.330	8574
463.344	8664
463.398	9858
463.424	10611
463.466	11050
463.504	11537
463.533	11534
463.583	11428
463.601	11925
463.663	13211
463.669	13562
463.737	18203
463.743	18585
463.805	31657
463.823	35478
463.873	56371
463.903	69616
463.940	74515
463.982	80224
464.008	62870
464.062	22761
464.076	20450
464.142	9437
464.144	9383
464.211	8349
464.221	8313
464.279	8840
464.301	8891
464.347	10361
464.381	11591
464.414	13848
464.461	16892
464.482	17759
464.540	20330
464.550	19173
464.617	10123
464.620	9798
464.685	11206
464.699	11600
464.753	12937
464.779	13607
464.820	14583
464.859	15257
464.888	16312
464.938	18233
464.956	18944
465.018	21377
465.023	20855
465.091	13398
465.098	12606
465.158	11382
465.177	11110
465.226	11798
465.257	12025
465.293	12935
465.336	14102
465.361	15396
465.416	18177
465.428	20230
465.495	31439
465.496	31687
465.563	62489
465.575	67833
465.631	84898
465.654	92108
465.698	54595
465.734	22401
465.765	17804
465.813	11089
465.833	11338
465.893	12735
465.900	12639
465.968	11596
465.972	11499
466.035	10895
466.052	10741
466.102	11710
466.131	12209
466.170	12245
466.210	12190
466.237	12399
466.290	12900
466.304	13266
466.369	14586
466.372	14620
466.439	14921
466.449	14929
466.506	17134
466.528	17954
466.573	27986
466.607	35429
466.641	58775
466.687	91163
466.708	101847
466.766	131247
466.775	120646
466.842	38542
466.845	34571
466.909	21048
466.925	17896
466.977	17205
467.004	16824
467.044	17232
467.083	17603
467.111	18290
467.163	19472
467.178	19685
467.242	20413
467.245	20437
467.312	20148
467.321	20075
467.379	22312
467.400	23060
467.446	25996
467.480	28033
467.559	24232
467.638	18770
467.717	19954
467.796	21301
467.875	24553
467.955	24317
468.034	38696
468.113	107914
468.192	162018
468.271	41980
468.350	18725
468.429	21744
468.508	22488
468.588	19383
468.667	19213
468.746	19672
468.825	18937
468.904	16954
468.983	23501
469.062	42500
469.141	52075
469.220	19994
469.299	17116
469.378	18305
469.456	18055
469.535	18506
469.614	18759
469.693	20286
469.772	31125
469.851	47020
469.930	32821
470.009	16333
470.088	15835
470.166	16823
470.245	19678
470.324	23269
470.403	19105
470.482	17207
470.560	15672
470.639	18506
470.718	20427
470.797	18156
470.875	21103
470.954	35154
471.033	42222
471.111	15519
471.190	12989
471.269	13411
471.347	13404
471.426	16288
471.505	18799
471.583	18362
471.662	16661
471.740	14929
471.819	14745
471.898	13125
471.976	14881
472.055	15203
472.133	19592
472.212	28448
472.290	32273
472.369	19282
472.447	15348
472.526	13199
472.604	13627
472.683	15440
472.761	15866
472.839	15723
472.918	14231
472.996	15118
473.075	22065
473.153	19466
473.231	15630
473.310	20357
473.388	19963
473.466	17199
473.545	17567
473.623	23151
473.701	22506
473.780	15551
473.858	14063
473.936	16510
474.014	15010
474.093	18373
474.171	33854
474.249	52213
474.327	33717
474.405	14235
474.484	13539
474.562	14147
474.640	14941
474.718	16845
474.796	16152
474.874	13258
474.952	12258
475.030	13463
475.108	13407
475.187	14718
475.265	15700
475.343	21475
475.421	25831
475.499	15909
475.577	17670
475.655	25063
475.733	61809
475.811	115771
475.889	104898
475.966	72322
476.044	17354
476.122	20280
476.200	24662
476.278	22483
476.356	16510
476.434	18227
476.512	21097
476.590	27020
476.667	24821
476.745	16542
476.823	16105
476.901	17939
476.979	19075
477.056	17811
477.134	17427
477.212	17340
477.290	17411
477.367	15127
477.445	16004
477.523	16138
477.601	16627
477.678	17350
477.756	24117
477.834	27543
477.911	16850
477.989	16898
478.066	16742
478.144	20028
478.222	20394
478.299	26743
478.377	27020
478.454	14820
478.532	15235
478.609	15929
478.687	17181
478.764	13991
478.842	15420
478.919	16864
478.997	17658
479.074	14957
479.152	22196
479.229	30492
479.307	18420
479.384	12591
479.461	13143
479.539	16859
479.616	22622
479.694	18428
479.771	19605
479.848	21687
479.926	31586
480.003	35710
480.080	15058
480.157	15203
480.235	14790
480.312	15772
480.389	20511
480.467	37855
480.544	50427
480.621	24216
480.698	20545
480.775	24820
480.853	25416
480.930	19105
481.007	18569
481.084	23432
481.161	25235
481.238	26024
481.315	17489
481.392	16136
481.470	16108
481.547	16626
481.624	17346
481.701	17990
481.778	18749
481.855	20896
481.932	36264
482.009	66129
482.086	47580
482.163	19332
482.240	22183
482.317	34118
482.393	30326
482.470	19546
482.547	19924
482.624	17471
482.701	19407
482.778	19659
482.855	14836
482.932	14846
483.009	15469
483.085	17834
483.162	21468
483.239	21496
483.316	17040
483.393	15929
483.469	16713
483.546	20615
483.623	23056
483.699	18147
483.776	17944
483.853	20779
483.930	30914
484.006	89635
484.083	162938
484.160	60590
484.236	49346
484.313	43384
484.389	34801
484.466	31740
484.543	29791
484.619	31800
484.696	34528
484.772	39941
484.849	44922
484.925	32284
485.002	29270
485.078	33272
485.155	35249
485.231	29036
485.308	28655
485.384	30881
485.461	42077
485.537	86762
485.614	115005
485.690	36410
485.766	27999
485.843	30063
485.919	40007
485.995	45201
486.072	26853
486.148	25223
486.224	26321
486.301	27868
486.377	35976
486.453	38443
486.530	31908
486.606	34839
486.682	41791
486.758	68767
486.835	89061
486.911	62149
486.987	110871
487.063	100225
487.139	102655
487.215	73054
487.292	38318
487.368	29874
487.444	34511
487.520	44843
487.596	41697
487.672	50927
487.748	124438
487.824	205525
487.900	97100
487.976	40248
488.052	40087
488.128	49477
488.204	40652
488.280	32388
488.356	37596
488.432	102532
488.508	179034
488.584	54649
488.660	26534
488.736	25705
488.812	27414
488.888	34864
488.964	41705
489.039	91118
489.115	150359
489.191	101238
489.267	31907
489.343	29841
489.418	23457
489.494	21887
489.570	21075
489.646	24897
489.722	25246
489.797	26778
489.873	46240
489.949	128284
490.024	118845
490.100	26103
490.176	22718
490.251	28764
490.327	37982
490.403	26906
490.478	20379
490.554	18195
490.629	18748
490.705	19275
490.781	20871
490.856	23646
490.932	25219
491.007	24287
491.083	25123
491.158	24683
491.234	34212
491.309	97177
491.385	110693
491.460	29188
491.536	26495
491.611	22239
491.686	23925
491.762	31752
491.837	61322
491.913	112676
491.988	156849
492.063	199171
492.139	81049
492.214	46900
492.289	19516
492.365	18035
492.440	23124
492.515	27051
492.590	26782
492.666	20443
492.741	30593
492.816	58159
492.891	30165
492.967	17173
493.042	16160
493.117	15577
493.192	16258
493.267	21465
493.342	50109
493.418	73476
493.493	25359
493.568	14844
493.643	15617
493.718	23732
493.793	42899
493.868	43286
493.943	23809
494.018	18023
494.093	18066
494.168	18882
494.243	14141
494.318	14134
494.393	15026
494.468	13226
494.543	13674
494.618	16449
494.693	18161
494.768	17205
494.842	17397
494.917	13170
494.992	13578
495.067	14085
495.142	12910
495.217	14652
495.292	15317
495.366	19320
495.441	26975
495.516	34432
495.591	41203
495.665	125345
495.740	318394
495.815	170000
495.890	33224
495.964	25077
496.039	25882
496.114	23978
496.188	25748
496.263	26434
496.338	24589
496.412	28796
496.487	34980
496.561	30856
496.636	34321
496.710	25369
496.785	30714
496.860	38697
496.934	27098
497.009	26155
497.083	24159
497.158	24882
497.232	32203
497.307	41793
497.381	30728
497.455	39878
497.530	60795
497.604	38912
497.679	36760
497.753	63449
497.827	84297
497.902	64751
497.976	70459
498.050	151247
498.125	636874
498.199	760076
498.273	115111
498.348	63816
498.422	51682
498.496	46227
498.570	45787
498.645	36396
498.719	38680
498.793	50471
498.867	82742
498.941	107797
499.016	256520
499.090	760234
499.164	343440
499.238	38037
499.312	28658
499.386	34205
499.460	34363
499.534	33110
499.609	41310
499.683	70361
499.757	67189
499.831	113900
499.905	496170
499.979	557293
500.053	102588
500.127	87301
500.201	51015
500.275	35507
500.349	34149
500.422	37863
500.496	51946
500.570	96340
500.644	271567
500.718	583791
500.792	168155
500.866	37924
500.940	51756
501.013	44726
501.087	39776
501.161	60053
501.235	88405
501.309	187499
501.382	529829
501.456	523505
501.530	113123
501.603	198321
501.677	87766
501.751	30818
501.825	36304
501.898	70468
501.972	232316
502.046	169167
502.119	40255
502.193	90234
502.266	253840
502.340	141892
502.413	103157
502.487	234264
502.561	147435
502.634	43136
502.708	26706
502.781	24704
502.855	20877
502.928	19192
503.002	19606
503.075	20981
503.149	23306
503.222	23041
503.295	28355
503.369	35610
503.442	47095
503.516	153815
503.589	446876
503.662	323410
503.736	89855
503.809	199691
503.882	178921
503.956	219708
504.029	226317
504.102	100681
504.175	131853
504.249	63932
504.322	40490
504.395	36044
504.468	23657
504.542	23993
504.615	17970
504.688	15835
504.761	16992
504.834	22892
504.907	23588
504.980	37405
505.053	24980
505.127	23887
505.200	33782
505.273	41016
505.346	25962
505.419	18706
505.492	15717
505.565	13936
505.638	12482
505.711	14685
505.784	13591
505.857	14162
505.930	16315
506.003	14912
506.076	18533
506.149	27314
506.221	38206
506.294	30353
506.367	75597
506.440	291609
506.513	185941
506.586	41646
506.659	23358
506.731	17002
506.804	19579
506.877	30125
506.950	24651
507.022	16045
507.095	23017
507.168	33843
507.241	17374
507.313	12683
507.386	15061
507.459	22173
507.531	14618
507.604	12674
507.677	13647
507.749	10832
507.822	14862
507.894	26707
507.967	33065
508.040	18832
508.112	16828
508.185	17746
508.257	15321
508.330	24210
508.402	18099
508.475	17570
508.547	20671
508.620	19773
508.692	39978
508.765	24277
508.837	13743
508.909	13571
508.982	13180
509.054	16260
509.127	14343
509.199	13106
509.271	12406
509.344	11493
509.416	12220
509.488	12853
509.560	13531
509.633	12911
509.705	17249
509.777	17022
509.849	23861
509.922	17639
509.994	12237
510.066	13666
510.138	13681
510.210	23091
510.283	23900
510.355	20249
510.427	17214
510.499	16496
510.571	16791
510.643	16648
510.715	25564
510.787	24903
510.859	18916
510.931	22269
511.003	27654
511.076	27162
511.148	16410
511.219	16366
511.291	33626
511.363	47382
511.435	17402
511.507	12787
511.579	14437
511.651	14982
511.723	14350
511.795	14107
511.867	15442
511.939	20953
512.010	57669
512.082	49747
512.154	17340
512.226	15691
512.298	19916
512.369	30181
512.441	25162
512.513	26000
512.585	18633
512.656	19129
512.728	23535
512.800	17529
512.871	16964
512.943	17397
513.015	12908
513.086	15344
513.158	17365
513.230	18427
513.301	25993
513.373	33397
513.444	19300
513.516	14458
513.588	14880
513.659	16446
513.731	22293
513.802	19101
513.874	36463
513.945	71556
514.016	29551
514.088	17403
514.159	17404
514.231	22656
514.302	29713
514.374	23929
514.445	23337
514.516	61607
514.588	49919
514.659	25403
514.730	56636
514.802	40660
514.873	20903
514.944	22253
515.016	20261
515.087	23188
515.158	36205
515.229	58641
515.301	22941
515.372	25558
515.443	20311
515.514	16342
515.585	13656
515.656	14561
515.728	14058
515.799	14494
515.870	15608
515.941	17078
516.012	14837
516.083	19721
516.154	22388
516.225	30473
516.296	28317
516.367	23436
516.438	25444
516.509	32076
516.580	40829
516.651	98096
516.722	380800
516.793	273855
516.864	55575
516.935	52024
517.006	51834
517.077	65690
517.148	122054
517.219	328211
517.289	701144
517.360	392297
517.431	149599
517.502	32515
517.573	29527
517.643	27486
517.714	28794
517.785	29935
517.856	30456
517.926	35767
517.997	39343
518.068	44544
518.138	55745
518.209	69231
518.280	208822
518.350	851015
518.421	535137
518.492	70719
518.562	44311
518.633	46678
518.703	43110
518.774	64580
518.845	142146
518.915	174510
518.986	73404
519.056	51240
519.127	70582
519.197	112310
519.268	305801
519.338	240679
519.408	52164
519.479	46698
519.549	38656
519.620	26085
519.690	20818
519.760	22059
519.831	22292
519.901	23965
519.971	19672
520.042	22682
520.112	28936
520.182	28012
520.253	30647
520.323	22382
520.393	21060
520.463	25783
520.534	20434
520.604	37727
520.674	29016
520.744	30283
520.814	41369
520.885	46532
520.955	85974
521.025	368276
521.095	180855
521.165	29828
521.235	26586
521.305	21650
521.375	18349
521.445	20336
521.515	26509
521.585	30147
521.655	30491
521.725	25091
521.795	25469
521.865	19117
521.935	34710
522.005	35203
522.075	19540
522.145	23042
522.215	26893
522.285	40968
522.355	55166
522.424	115345
522.494	105019
522.564	41030
522.634	54849
522.704	161973
522.774	86348
522.843	24530
522.913	20707
522.983	25417
523.053	23009
523.122	21501
523.192	24735
523.262	81453
523.331	102754
523.401	25503
523.471	16831
523.540	18291
523.610	14013
523.680	15449
523.749	16192
523.819	23743
523.888	26762
523.958	16301
524.027	16759
524.097	20443
524.166	17650
524.236	18407
524.305	21074
524.375	17964
524.444	14778
524.514	19328
524.583	18943
524.653	26589
524.722	30626
524.791	19925
524.861	19077
524.930	16715
524.999	17258
525.069	25744
525.138	24820
525.207	31833
525.277	21313
525.346	19177
525.415	18453
525.484	18534
525.554	25130
525.623	26168
525.692	21551
525.761	23935
525.830	22227
525.900	26795
525.969	40893
526.038	58317
526.107	87815
526.176	280748
526.245	301698
526.314	105463
526.383	142704
526.452	233002
526.522	302903
526.591	455920
526.660	142811
526.729	69876
526.797	62141
526.867	105542
526.935	436240
527.004	802284
527.073	600935
527.142	73164
527.211	30931
527.280	25592
527.349	26541
527.418	16137
527.487	15696
527.555	14661
527.624	13334
527.693	12390
527.762	14563
527.831	13583
527.899	14888
527.968	15129
528.037	14694
528.106	17607
528.174	33243
528.243	32774
528.312	41939
528.380	60816
528.449	23026
528.518	15736
528.586	11291
528.655	13623
528.723	13055
528.792	12258
528.861	16175
528.929	14015
528.998	13724
529.066	11797
529.135	12089
529.203	11617
529.272	10766
529.340	12594
529.409	14066
529.477	12817
529.545	20277
529.614	23908
529.682	22582
529.751	30551
529.819	25644
529.887	19564
529.956	12980
530.024	15712
530.092	10725
530.161	14374
530.229	23559
530.297	16378
530.365	12196
530.434	10501
530.502	9860
530.570	11561
530.638	9908
530.707	12468
530.775	14771
530.843	12024
530.911	12543
530.979	11270
531.047	11537
531.115	12387
531.183	11707
531.252	13239
531.320	13094
531.388	11877
531.456	12631
531.524	10667
531.592	12241
531.660	14367
531.728	11767
531.796	12086
531.864	11694
531.932	12555
532.000	12188
532.067	13936
532.135	13715
532.203	16901
532.271	16306
532.339	26927
532.407	70333
532.475	53158
532.542	23727
532.610	24781
532.678	28163
532.746	99147
532.814	329251
532.881	110477
532.949	20806
533.017	15402
533.084	12212
533.152	12357
533.220	12706
533.287	15370
533.355	13493
533.423	12865
533.490	12190
533.558	12777
533.625	13466
533.693	15020
533.761	14886
533.828	15471
533.896	14138
533.963	25095
534.031	33270
534.098	45527
534.166	27435
534.233	14171
534.300	15970
534.368	15611
534.435	14579
534.503	15116
534.570	14637
534.637	16976
534.705	19030
534.772	21291
534.840	27928
534.907	115756
534.974	225410
535.041	44017
535.109	26887
535.176	17175
535.243	13451
535.310	14794
535.378	12792
535.445	12788
535.512	12033
535.579	11978
535.646	12712
535.714	12196
535.781	16535
535.848	15473
535.915	17282
535.982	15585
536.049	15150
536.116	16326
536.183	14924
536.250	14913
536.317	16036
536.384	18547
536.451	26049
536.518	29518
536.585	21207
536.652	26088
536.719	35328
536.786	31274
536.853	22991
536.920	31852
536.987	53083
537.053	44317
537.120	143244
537.187	173532
537.254	25329
537.321	17120
537.388	18100
537.454	14731
537.521	15187
537.588	12995
537.654	16049
537.721	17820
537.788	18174
537.855	14920
537.921	15818
537.988	16473
538.055	15342
538.121	15800
538.188	17178
538.254	24414
538.321	48135
538.388	35869
538.454	18597
538.521	16441
538.587	14668
538.654	14428
538.720	15506
538.787	15675
538.853	16964
538.920	21961
538.986	24149
539.053	19494
539.119	19814
539.185	18492
539.252	20101
539.318	29746
539.385	26532
539.451	22112
539.517	21962
539.583	24123
539.650	45355
539.716	133151
539.782	51023
539.849	18808
539.915	18531
539.981	17957
540.047	21119
540.114	20444
540.180	21545
540.246	19412
540.312	25464
540.378	47622
540.444	54246
540.510	45371
540.576	139593
540.643	64446
540.709	19903
540.775	17661
540.841	17352
540.907	24638
540.973	36200
541.039	29576
541.105	33271
541.171	20948
541.237	18276
541.303	20404
541.369	21222
541.435	24855
541.500	43369
541.566	33030
541.632	17420
541.698	16110
541.764	16656
541.830	16678
541.896	15974
541.961	16522
542.027	16503
542.093	16771
542.159	18536
542.224	19583
542.290	28088
542.356	42096
542.421	53895
542.487	27057
542.553	20017
542.618	24543
542.684	19784
542.750	19476
542.815	22326
542.881	36168
542.947	115873
543.012	110729
543.078	21217
543.143	17848
543.209	19120
543.274	18439
543.340	21510
543.405	41813
543.471	84263
543.536	26322
543.602	18752
543.667	18275
543.732	17935
543.798	15179
543.863	17420
543.928	16174
543.994	14885
544.059	16257
544.124	16147
544.190	16022
544.255	17241
544.320	18137
544.386	18733
544.451	25444
544.516	30063
544.581	27416
544.646	66107
544.712	137371
544.777	36580
544.842	26878
544.907	30140
544.972	24721
545.037	22605
545.102	25663
545.168	25929
545.233	27290
545.298	26895
545.363	32852
545.428	33154
545.493	47688
545.558	105183
545.623	59428
545.688	27308
545.753	26393
545.818	24439
545.883	26312
545.947	25176
546.012	29060
546.077	30745
546.142	27459
546.207	26914
546.272	32288
546.337	36213
546.401	29326
546.466	27489
546.531	26640
546.596	29114
546.661	29890
546.725	28158
546.790	26682
546.855	27478
546.919	27728
546.984	30315
547.049	33839
547.113	41396
547.178	38179
547.243	41243
547.307	46471
547.372	52067
547.436	60012
547.501	47459
547.565	47946
547.630	51234
547.695	53138
547.759	60872
547.823	55815
547.888	44429
547.952	43928
548.017	46274
548.081	54778
548.146	68584
548.210	63341
548.274	49124
548.339	48141
548.403	45007
548.468	42350
548.532	42710
548.596	44427
548.660	43588
548.725	47918
548.789	57848
548.853	61512
548.917	49604
548.982	64868
549.046	67946
549.110	43526
549.174	41076
549.238	43868
549.303	45971
549.367	48887
549.431	47425
549.495	44196
549.559	45318
549.623	47612
549.687	56970
549.751	66664
549.815	65968
549.879	62667
549.943	58903
550.007	62479
550.071	63810
550.135	65727
550.199	58999
550.263	55307
550.327	56910
550.391	74079
550.455	61688
550.519	60281
550.582	62402
550.646	74789
550.710	83017
550.774	69962
550.838	69109
550.901	71910
550.965	75603
551.029	81028
551.093	90332
551.156	107577
551.220	172184
551.284	214110
551.347	126327
551.411	171012
551.475	204877
551.538	83991
551.602	70144
551.666	64596
551.729	60631
551.793	58799
551.856	58843
551.920	56952
551.983	56793
552.047	56514
552.110	55898
552.174	56475
552.237	57952
552.301	54858
552.364	51703
552.428	53096
552.491	52778
552.554	54779
552.618	53996
552.681	57725
552.745	55890
552.808	64401
552.871	80059
552.934	65653
552.998	57894
553.061	59056
553.124	54774
553.187	51422
553.251	53905
553.314	56656
553.377	54154
553.440	59174
553.503	75650
553.567	107841
553.630	63880
553.693	55901
553.756	55850
553.819	54607
553.882	51774
553.945	50139
554.008	50982
554.071	49660
554.134	52035
554.197	48966
554.260	46822
554.323	51654
554.386	51813
554.449	52388
554.512	51485
554.575	47443
554.638	50665
554.701	49701
554.764	47388
554.827	48202
554.889	46138
554.952	41398
555.015	43074
555.078	42970
555.141	44067
555.203	42322
555.266	42893
555.329	44718
555.391	42343
555.454	42081
555.517	43522
555.580	41325
555.642	38012
555.705	38288
555.768	39415
555.830	39791
555.893	37379
555.955	37105
556.018	36263
556.080	36933
556.143	36023
556.206	37498
556.268	38839
556.330	39363
556.393	37534
556.455	39083
556.518	50919
556.580	56209
556.643	35741
556.705	33090
556.767	31679
556.830	34257
556.892	36306
556.955	47475
557.017	41777
557.079	32925
557.142	32306
557.204	35386
557.266	57499
557.328	56791
557.391	30646
557.453	29567
557.515	30226
557.577	35316
557.639	38344
557.701	31651
557.764	29772
557.826	32795
557.888	36234
557.950	36852
558.012	37632
558.074	45288
558.136	83916
558.198	256191
558.260	132736
558.322	46123
558.384	44816
558.446	49438
558.508	55811
558.570	69324
558.632	93672
558.694	136808
558.756	135530
558.818	349595
558.880	1122895
558.942	493209
559.003	275367
559.065	179138
559.127	62436
559.189	60362
559.251	63859
559.312	80077
559.374	169975
559.436	676537
559.498	487844
559.559	81430
559.621	61362
559.683	65256
559.744	96939
559.806	289425
559.868	590824
559.929	151473
559.991	67634
560.052	82920
560.114	233700
560.176	199410
560.237	122945
560.299	262170
560.360	83268
560.422	36020
560.483	32485
560.545	30068
560.606	29601
560.667	27364
560.729	27811
560.790	25147
560.852	26619
560.913	26262
560.974	25953
561.036	26673
561.097	25983
561.158	27052
561.220	26424
561.281	27741
561.342	26561
561.403	30121
561.465	33637
561.526	65603
561.587	98597
561.648	37635
561.709	26968
561.771	26110
561.832	25153
561.893	25657
561.954	23939
562.015	23612
562.076	24249
562.137	24415
562.198	25757
562.259	24332
562.320	24950
562.381	26827
562.442	36093
562.503	32432
562.564	24539
562.625	25309
562.686	24205
562.747	26666
562.808	26364
562.869	25615
562.930	32520
562.991	32051
563.051	29283
563.112	27012
563.173	25086
563.234	24870
563.294	24499
563.355	24508
563.416	25726
563.477	23831
563.537	26103
563.598	27176
563.659	26831
563.720	26539
563.780	26787
563.841	26989
563.901	25430
563.962	24695
564.023	26093
564.083	26546
564.144	25795
564.204	26075
564.265	26778
564.325	30366
564.386	60646
564.446	60689
564.507	27429
564.567	24392
564.628	23795
564.688	23719
564.749	24084
564.809	28961
564.869	34613
564.930	26809
564.990	23400
565.050	22213
565.111	23029
565.171	22751
565.231	23229
565.292	22517
565.352	21924
565.412	22735
565.472	22954
565.532	24759
565.593	24306
565.653	22482
565.713	23327
565.773	25448
565.833	27943
565.893	34979
565.953	25322
566.013	22703
566.074	24794
566.134	33819
566.194	56566
566.254	58576
566.314	38253
566.374	25625
566.434	26436
566.494	25474
566.554	22924
566.614	24275
566.673	24499
566.733	26347
566.793	27983
566.853	28592
566.913	27861
566.973	28387
567.033	29852
567.092	31341
567.152	28295
567.212	28625
567.272	27926
567.331	32447
567.391	29789
567.451	33476
567.511	43877
567.570	47447
567.630	28538
567.690	27416
567.749	26896
567.809	27146
567.868	30051
567.928	33208
567.988	38095
568.047	37848
568.107	40156
568.166	50076
568.226	71958
568.285	104041
568.345	92654
568.404	72889
568.464	62748
568.523	57080
568.582	58105
568.642	61957
568.701	73754
568.761	100431
568.820	161378
568.879	171297
568.939	134572
568.998	97354
569.057	69809
569.116	56231
569.176	47201
569.235	40763
569.294	36095
569.353	34462
569.413	32156
569.472	31800
569.531	29002
569.590	27666
569.649	26424
569.708	23822
569.767	25653
569.827	31735
569.886	29244
569.945	23004
570.004	23702
570.063	23091
570.122	24237
570.181	26938
570.240	29329
570.299	30003
570.358	29680
570.417	24542
570.475	21555
570.534	22335
570.593	23508
570.652	25004
570.711	26325
570.770	23020
570.829	25258
570.887	22545
570.946	25342
571.005	21529
571.064	20157
571.122	22484
571.181	25946
571.240	23696
571.299	20553
571.357	23204
571.416	23559
571.475	26391
571.533	29430
571.592	21937
571.650	24618
571.709	20402
571.768	21124
571.826	20718
571.885	19104
571.943	19470
572.002	20170
572.060	21489
572.119	18648
572.177	18621
572.236	17586
572.294	17196
572.352	18032
572.411	17239
572.469	17769
572.528	17624
572.586	18693
572.644	20489
572.703	28003
572.761	21689
572.819	19224
572.877	18413
572.936	17071
572.994	17121
573.052	17377
573.110	19345
573.169	18644
573.227	16143
573.285	16704
573.343	17156
573.401	17156
573.459	17616
573.517	16955
573.576	17353
573.634	17687
573.692	19204
573.750	17407
573.808	17431
573.866	18506
573.924	25573
573.982	25191
574.040	18167
574.098	17277
574.155	17663
574.213	15890
574.271	16008
574.329	17738
574.387	16427
574.445	15415
574.503	14567
574.560	15047
574.618	14669
574.676	14811
574.734	14299
574.792	15037
574.849	14918
574.907	14163
574.965	14784
575.022	14548
575.080	14375
575.138	14494
575.195	15427
575.253	15224
575.311	16306
575.368	15586
575.426	13711
575.483	14847
575.541	14226
575.598	13709
575.656	16284
575.713	15487
575.771	14782
575.828	15498
575.886	15239
575.943	16304
576.001	17131
576.058	16554
576.115	18562
576.173	20848
576.230	23698
576.287	24410
576.345	20765
576.402	17556
576.459	18320
576.517	18699
576.574	20091
576.631	21199
576.688	18820
576.746	16301
576.803	17215
576.860	15780
576.917	15948
576.974	16775
577.031	15118
577.089	16442
577.146	16941
577.203	15704
577.260	17728
577.317	19235
577.374	21671
577.431	21271
577.488	17273
577.545	15840
577.602	15922
577.659	15200
577.716	14541
577.773	15940
577.830	14610
577.886	15055
577.943	14708
578.000	14938
578.057	17149
578.114	15390
578.171	15158
578.227	15890
578.284	15043
578.341	16366
578.398	16289
578.454	16634
578.511	20491
578.568	23608
578.625	19666
578.681	15941
578.738	14653
578.794	14565
578.851	13888
578.908	15645
578.964	15292
579.021	15888
579.077	15565
579.134	14468
579.190	14627
579.247	13962
579.303	13515
579.360	13666
579.416	14255
579.473	13781
579.529	12914
579.586	13380
579.642	14164
579.698	14227
579.755	15636
579.811	13787
579.867	14057
579.924	13540
579.980	12956
580.036	14545
580.093	14098
580.149	15760
580.205	16744
580.261	15476
580.317	16217
580.374	17992
580.430	20160
580.486	19545
580.542	16302
580.598	16223
580.619	15932
580.654	15445
580.692	14757
580.710	14440
580.765	14227
580.767	14236
580.823	15494
580.838	15388
580.879	15176
580.911	15170
580.935	15182
580.984	14815
580.991	14790
581.047	14966
581.057	14956
581.103	14946
581.130	15223
581.159	15545
581.203	15598
581.215	15636
581.270	15734
581.276	15668
581.326	15123
581.349	15164
581.382	15275
581.422	15819
581.438	16068
581.494	17332
581.494	17305
581.550	15901
581.567	16011
581.606	16287
581.640	15798
581.661	15519
581.713	16041
581.717	16097
581.773	15591
581.786	15652
581.829	15758
581.859	15547
581.885	15482
581.932	15532
581.940	15551
581.996	16152
582.004	16030
582.052	15219
582.077	15152
582.107	15224
582.150	15290
582.163	15278
582.219	16371
582.223	16308
582.274	15675
582.296	15619
582.330	15639
582.368	16636
582.386	17023
582.441	14667
582.441	14668
582.497	15311
582.514	15193
582.552	15144
582.587	15244
582.608	15244
582.659	15413
582.663	15434
582.719	15660
582.732	15496
582.774	15078
582.805	15474
582.830	15748
582.877	16119
582.885	16184
582.941	14707
582.950	14787
582.996	15141
583.023	15437
583.052	15904
583.095	15572
583.107	15429
583.162	16084
583.168	16153
583.218	16874
583.240	16250
583.273	15181
583.313	14846
583.328	14829
583.384	15514
583.385	15499
583.439	14923
583.458	14861
583.494	14777
583.531	14886
583.549	14977
583.603	15468
583.605	15471
583.660	14703
583.676	14505
583.715	14249
583.748	14840
583.770	15279
583.820	16842
583.825	16967
583.881	15839
583.893	15667
583.936	15190
583.965	15159
583.991	15058
584.038	15296
584.046	15338
584.101	15930
584.110	15856
584.156	15628
584.183	15412
584.211	15044
584.255	15108
584.266	15164
584.321	14637
584.328	14729
584.376	15563
584.400	15727
584.431	15960
584.472	15744
584.486	15566
584.541	15914
584.545	15884
584.596	15466
584.617	16007
584.651	17336
584.689	17911
584.706	17839
584.761	17457
584.762	17452
584.816	17149
584.834	17386
584.871	17865
584.906	18135
584.926	18273
584.978	18498
584.980	18508
585.035	19253
585.051	19502
585.090	20278
585.123	21356
585.145	22197
585.195	23961
585.200	24150
585.254	25909
585.267	26756
585.309	29876
585.340	32153
585.364	33613
585.412	35865
585.419	36280
585.473	39823
585.484	40812
585.528	48338
585.556	56776
585.583	75931
585.628	117759
585.637	134498
585.692	275471
585.700	304662
585.747	406558
585.772	357670
585.801	236716
585.845	83718
585.856	65142
585.910	38573
585.917	36117
585.965	30748
585.989	28719
586.019	27153
586.061	25882
586.074	25545
586.128	24849
586.133	24890
586.183	26093
586.205	26550
586.237	26754
586.277	26311
586.292	26364
586.346	26656
586.349	26681
586.401	26849
586.421	27117
586.455	27924
586.493	29455
586.509	30631
586.564	37064
586.565	37473
586.618	57215
586.637	57445
586.672	52158
586.709	39751
586.727	34485
586.781	33270
586.781	33270
586.835	29521
586.853	28744
586.889	28139
586.925	27508
586.944	27269
586.996	28003
586.998	28050
587.052	29247
587.068	29490
587.106	29996
587.140	30325
587.161	30639
587.212	31866
587.215	31921
587.269	32724
587.284	32791
587.323	33516
587.356	34290
587.377	34849
587.427	36287
587.431	36400
587.485	37400
587.499	37692
587.539	38608
587.571	39813
587.593	40936
587.643	42529
587.648	42748
587.702	45867
587.715	46340
587.755	47827
587.786	49300
587.810	50421
587.858	52281
587.864	52753
587.917	58271
587.930	59431
587.971	63465
588.001	66895
588.025	70206
588.073	75333
588.079	76161
588.133	84191
588.145	86042
588.187	94683
588.217	100812
588.241	107055
588.288	120720
588.295	123113
588.348	142622
588.360	146958
588.402	166575
588.431	180682
588.456	194778
588.503	223825
588.510	229511
588.564	276705
588.575	287079
588.617	339308
588.646	377972
588.671	430532
588.718	539014
588.725	569582
588.778	824580
588.789	882487
588.832	1290140
588.861	1586384
588.886	1857290
588.932	2343210
588.939	2349380
588.993	2185999
589.004	2168890
589.047	1966803
589.075	1748709
589.100	1455601
589.147	895167
589.154	858457
589.207	624734
589.218	581718
589.261	533853
589.290	509540
589.314	531604
589.361	586822
589.368	615420
589.421	867447
589.433	927255
589.475	1378809
589.504	1714018
589.528	1893416
589.576	2138514
589.582	2100903
589.635	1691856
589.647	1581194
589.689	1039096
589.718	666157
589.742	542500
589.790	333619
589.795	323278
589.849	239518
589.861	221870
589.902	192778
589.932	170295
589.955	156074
590.004	125167
590.009	123465
590.062	108467
590.075	104793
590.115	96311
590.146	89629
590.168	86487
590.218	79869
590.222	79476
590.275	73472
590.289	71876
590.328	70185
590.360	68387
590.381	66657
590.431	62199
590.435	62063
590.488	59043
590.503	58166
590.541	57001
590.574	55608
590.594	54417
590.645	51535
590.647	51553
590.700	50157
590.716	49678
590.753	48951
590.787	48351
590.806	48175
590.859	47360
590.859	47422
590.912	47021
590.930	46875
590.965	45714
591.001	44502
591.018	44350
591.071	43435
591.072	43363
591.124	42987
591.143	42700
591.177	42391
591.214	42009
591.230	42260
591.283	42878
591.285	42842
591.336	43361
591.356	43483
591.389	43066
591.427	42296
591.442	41817
591.495	39917
591.498	39712
591.547	38529
591.569	37995
591.600	38773
591.640	39642
591.653	39522
591.706	38771
591.711	38642
591.759	39515
591.782	39956
591.811	40331
591.853	40665
591.864	40442
591.917	38720
591.924	38450
591.969	38914
591.995	39148
592.022	38957
592.066	38444
592.075	38846
592.127	41074
592.137	41484
592.180	43101
592.208	43842
592.233	42677
592.279	40215
592.285	40198
592.338	39774
592.350	39619
592.390	39006
592.421	38454
592.443	38770
592.491	39261
592.495	39289
592.548	38815
592.562	38631
592.600	38369
592.633	38021
592.653	37816
592.704	36934
592.705	37177
592.775	38759
592.846	39234
592.916	40110
592.987	42008
593.058	39378
593.128	38587
593.199	38914
593.270	37659
593.341	38103
593.411	39933
593.482	39725
593.553	39440
593.623	40044
593.694	39918
593.764	40714
593.835	39895
593.906	39600
593.976	40956
594.047	41074
594.117	45503
594.188	44998
594.258	42059
594.329	41609
594.399	42827
594.470	43763
594.540	44464
594.611	44075
594.681	45272
594.751	44437
594.822	46646
594.892	48975
594.963	49588
595.033	49147
595.103	50008
595.174	51354
595.244	59126
595.314	64089
595.384	53598
595.455	52641
595.525	54635
595.595	56094
595.665	56002
595.736	55181
595.806	55504
595.876	54851
595.946	57226
596.016	57563
596.087	60242
596.157	60165
596.227	60176
596.297	62788
596.367	65990
596.437	70546
596.507	74980
596.577	76928
596.647	70596
596.717	73189
596.787	73056
596.857	74432
596.927	73589
596.997	74126
597.067	75325
597.137	76883
597.207	75516
597.277	76603
597.347	74323
597.417	71788
597.487	72668
597.557	74188
597.626	75844
597.696	78290
597.766	78970
597.836	81989
597.906	69916
597.975	67245
598.045	68791
598.115	68869
598.185	75333
598.254	83328
598.324	88051
598.394	91417
598.464	88515
598.533	85697
598.603	80550
598.672	78337
598.742	80087
598.812	80769
598.881	82443
598.951	80051
599.020	81238
599.090	84888
599.159	86111
599.229	81753
599.299	79497
599.368	83366
599.437	81119
599.507	74612
599.576	73355
599.646	72098
599.715	71863
599.785	70186
599.854	69637
599.924	70359
599.993	68588
600.062	69357
600.132	71148
600.201	74943
600.270	87285
600.340	90330
600.409	86735
600.478	85297
600.547	87554
600.617	82242
600.686	65409
600.755	59850
600.824	59184
600.894	57616
600.963	56799
601.032	54944
601.101	52878
601.170	50738
601.239	51312
601.308	51900
601.378	50888
601.447	50211
601.516	50005
601.585	52519
601.654	54114
601.723	51048
601.792	53007
601.861	53633
601.930	57423
601.999	59085
602.068	57227
602.137	60386
602.206	58463
602.275	59041
602.343	63151
602.412	62916
602.481	58438
602.550	57211
602.619	60219
602.688	62622
602.756	61571
602.825	62545
602.894	61433
602.963	64240
603.032	64638
603.100	65062
603.169	64366
603.238	65778
603.307	65695
603.375	66714
603.444	67414
603.513	69507
603.581	70537
603.650	72034
603.719	69911
603.787	72657
603.856	73466
603.924	77474
603.993	79236
604.061	81761
604.130	84600
604.198	86293
604.267	85881
604.335	87439
604.404	90288
604.472	90506
604.541	90596
604.609	91818
604.678	92009
604.746	91835
604.815	95006
604.883	96027
604.951	95703
605.020	96939
605.088	100542
605.156	102227
605.225	104707
605.293	103297
605.361	104385
605.429	105854
605.498	109078
605.566	112330
605.634	116333
605.702	120158
605.771	122339
605.839	123660
605.907	120130
605.975	115620
606.043	115166
606.111	112535
606.180	114470
606.248	113788
606.316	113531
606.384	112221
606.452	118097
606.520	124372
606.588	121058
606.656	120027
606.724	116799
606.792	110356
606.860	99513
606.928	90784
606.996	88404
607.064	86204
607.132	89606
607.200	93225
607.267	96582
607.335	98656
607.403	101343
607.471	97858
607.539	93655
607.607	95026
607.674	83749
607.742	84737
607.810	84637
607.878	85912
607.946	86472
608.013	90762
608.081	91884
608.149	93349
608.216	94524
608.284	99669
608.352	98101
608.419	97664
608.487	101123
608.555	95206
608.622	96331
608.690	102844
608.757	112919
608.825	116725
608.893	113241
608.960	110133
609.028	108770
609.095	107422
609.163	100718
609.230	89473
609.298	84122
609.365	87780
609.432	93778
609.500	104092
609.567	117847
609.635	134932
609.702	141009
609.769	135882
609.837	107081
609.904	92227
609.971	97067
610.039	110952
610.106	155900
610.173	311352
610.241	718526
610.308	361413
610.375	125788
610.442	99739
610.509	94128
610.577	94032
610.644	95406
610.711	100580
610.778	99629
610.845	106073
610.912	111834
610.980	116739
611.047	118930
611.114	115413
611.181	110914
611.248	109522
611.315	116424
611.382	117533
611.449	122570
611.516	123748
611.583	123856
611.650	124356
611.717	125807
611.784	130790
611.851	139655
611.918	152922
611.984	186964
612.051	286099
612.118	620980
612.185	1527101
612.252	850074
612.319	212260
612.386	169747
612.452	152571
612.519	144190
612.586	145822
612.653	142996
612.719	147701
612.786	140594
612.853	129410
612.919	125947
612.986	127567
613.053	121060
613.120	113645
613.186	108358
613.253	108979
613.319	109308
613.386	111776
613.453	113197
613.519	116471
613.586	119181
613.652	128918
613.719	121342
613.785	118869
613.852	114855
613.918	112030
613.985	116809
614.051	126238
614.118	137244
614.184	129976
614.250	113755
614.317	115325
614.383	113737
614.449	115908
614.516	114621
614.582	114947
614.648	114372
614.715	113108
614.781	110192
614.847	109657
614.914	110661
614.980	108422
615.046	106946
615.112	109950
615.179	110952
615.245	115715
615.311	117946
615.377	133423
615.443	133981
615.509	120788
615.575	122069
615.642	119802
615.708	124906
615.774	133918
615.840	146438
615.906	167142
615.972	225759
616.038	381625
616.104	794759
616.170	1862468
616.236	1422520
616.302	313894
616.368	225582
616.434	161387
616.500	150618
616.565	167194
616.631	209969
616.697	167790
616.763	178391
616.829	279498
616.895	501815
616.961	446365
617.026	180317
617.092	127544
617.158	119925
617.224	115186
617.289	107993
617.355	102303
617.421	100882
617.487	100674
617.552	95348
617.618	94788
617.684	92578
617.749	95940
617.815	90059
617.880	87560
617.946	88459
618.012	90881
618.077	91631
618.143	87993
618.208	89772
618.274	96250
618.339	97166
618.405	78939
618.470	79926
618.536	79240
618.601	81431
618.667	74910
618.732	71138
618.798	70035
618.863	69813
618.928	68456
618.994	71550
619.059	73593
619.124	81331
619.190	73157
619.255	67992
619.320	69755
619.386	69028
619.451	66717
619.516	66546
619.581	65869
619.647	68282
619.712	67776
619.777	64992
619.842	66656
619.907	68853
619.972	69547
620.038	68735
620.103	65029
620.168	65179
620.233	66565
620.298	65810
620.363	66995
620.428	69160
620.493	70781
620.558	71088
620.623	73136
620.688	71854
620.753	71083
620.818	72474
620.883	73320
620.948	71962
621.013	72952
621.078	71438
621.143	72837
621.207	75058
621.272	72953
621.337	71168
621.402	72102
621.467	77104
621.532	75411
621.596	72721
621.661	69039
621.726	67568
621.791	68159
621.855	70520
621.920	69546
621.985	69984
622.049	73381
622.114	73662
622.179	72424
622.243	74151
622.308	76045
622.373	79762
622.437	77113
622.502	73045
622.566	73508
622.631	70927
622.695	73936
622.760	73544
622.824	72881
622.889	73876
622.953	75868
623.018	91944
623.082	89062
623.147	77740
623.211	76001
623.276	76208
623.340	70623
623.404	69162
623.469	68494
623.533	69721
623.597	68335
623.662	68361
623.726	63776
623.790	58977
623.854	59281
623.919	61189
623.983	61887
624.047	62175
624.111	62462
624.176	64055
624.240	66563
624.304	68909
624.368	64041
624.432	62612
624.496	64953
624.560	69767
624.625	72382
624.689	68045
624.753	69386
624.817	66388
624.881	64715
624.945	59395
625.009	58556
625.073	59400
625.137	63254
625.201	70225
625.265	68139
625.329	61778
625.393	63041
625.456	62941
625.520	64472
625.584	67421
625.648	72215
625.712	83050
625.776	112695
625.839	114228
625.903	68151
625.967	55439
626.031	68043
626.095	86743
626.158	62388
626.222	46207
626.286	44461
626.349	42396
626.413	40975
626.477	44432
626.540	41932
626.604	40510
626.668	39960
626.731	39771
626.795	40825
626.858	41287
626.922	39013
626.986	39081
627.049	38085
627.113	40121
627.176	39769
627.240	37888
627.303	39086
627.366	38091
627.430	39442
627.493	38337
627.557	38466
627.620	39817
627.684	40505
627.747	40353
627.810	36359
627.874	34308
627.937	32769
628.000	36386
628.064	34471
628.127	29888
628.190	30954
628.253	29976
628.317	28851
628.380	27533
628.443	27955
628.506	27957
628.569	26869
628.632	24694
628.696	24824
628.759	24833
628.822	23009
628.885	23654
628.948	24240
629.011	23774
629.074	23989
629.137	22190
629.200	21591
629.263	23610
629.326	20603
629.389	21480
629.452	22304
629.515	21782
629.578	20979
629.641	23172
629.704	22500
629.767	21466
629.830	21808
629.892	20083
629.955	19813
630.018	23750
630.081	22702
630.144	26435
630.207	20890
630.269	22949
630.332	20866
630.395	20136
630.458	20112
630.520	19053
630.583	21522
630.646	19512
630.708	19332
630.771	19372
630.834	21559
630.896	18532
630.959	19632
631.021	18457
631.084	19327
631.146	20680
631.209	21589
631.272	20498
631.334	19414
631.397	20367
631.459	20258
631.522	23173
631.584	22303
631.646	24254
631.709	25746
631.771	29355
631.834	25718
631.896	22480
631.958	19935
632.021	21007
632.083	20312
632.145	19639
632.208	19674
632.270	20441
632.332	17865
632.395	18031
632.457	19412
632.519	17669
632.581	19467
632.643	17338
632.706	18507
632.768	16867
632.830	18099
632.892	18102
632.954	17887
633.016	18337
633.078	17758
633.141	18123
633.203	18559
633.265	18857
633.327	18277
633.389	17816
633.451	19859
633.513	22343
633.575	21366
633.637	22018
633.698	20913
633.760	20486
633.822	20478
633.884	20845
633.946	20851
634.008	21393
634.070	23139
634.132	24937
634.193	26978
634.255	29980
634.317	29235
634.379	29441
634.441	25099
634.502	23263
634.564	21637
634.626	20000
634.687	18805
634.749	18108
634.811	18197
634.873	16997
634.934	17405
634.996	17896
635.057	17485
635.119	17497
635.181	17847
635.242	18203
635.304	17332
635.365	20048
635.427	17701
635.488	18631
635.550	18026
635.611	18114
635.673	18015
635.734	21208
635.796	20784
635.857	24587
635.918	24313
635.980	28334
636.041	29125
636.102	31344
636.164	31614
636.225	31045
636.286	25450
636.348	23566
636.409	20235
636.470	18415
636.531	18992
636.593	18711
636.654	17664
636.715	15948
636.776	15695
636.838	15098
636.899	15631
636.960	15638
637.021	15247
637.082	14521
637.143	14515
637.204	13653
637.265	14400
637.326	15379
637.387	14395
637.448	13364
637.509	14241
637.570	13693
637.631	14405
637.692	13099
637.753	12419
637.814	13594
637.875	13369
637.936	14107
637.997	13144
638.058	13581
638.119	13941
638.179	12655
638.240	12650
638.301	13170
638.362	12012
638.423	12583
638.483	13240
638.544	11245
638.605	12530
638.666	12207
638.726	12005
638.787	12645
638.848	11889
638.908	12505
638.969	12350
639.030	11843
639.090	10239
639.151	10790
639.211	13461
639.272	15735
639.332	23041
639.393	14915
639.453	12759
639.514	13842
639.574	12138
639.635	11230
639.695	12802
639.756	10238
639.816	13127
639.877	14620
639.937	20958
639.997	24680
640.058	11873
640.118	10402
640.178	11907
640.239	11369
640.299	10972
640.359	10263
640.420	11693
640.480	13361
640.540	15427
640.600	15329
640.661	14268
640.721	12781
640.781	16477
640.841	12196
640.901	11918
640.961	12538
641.021	12769
641.082	14543
641.142	17654
641.202	12733
641.262	9661
641.322	10610
641.382	9246
641.442	11225
641.502	10422
641.562	10859
641.622	9809
641.682	11617
641.742	13815
641.802	12896
641.861	11415
641.921	11141
641.981	11850
642.041	13173
642.101	13579
642.161	9563
642.221	9914
642.280	10114
642.340	9322
642.400	8744
642.460	11059
642.519	10341
642.579	10287
642.639	10937
642.698	8372
642.758	12133
642.818	10423
642.877	9324
642.937	11401
642.997	12600
643.056	16423
643.116	10598
643.175	11955
643.235	10441
643.294	12101
643.354	12543
643.414	14565
643.473	19310
643.532	23216
643.592	34588
643.651	59512
643.711	107719
643.770	224576
643.830	563700
643.889	1118384
643.948	228587
644.008	38966
644.067	24171
644.126	18353
644.186	15465
644.245	13657
644.304	10824
644.363	13544
644.423	9746
644.482	11424
644.541	12207
644.600	12716
644.659	16223
644.719	20621
644.778	33106
644.837	59516
644.896	128294
644.955	286373
645.014	81410
645.073	19119
645.132	13565
645.191	14046
645.250	11490
645.309	13805
645.368	14292
645.427	19169
645.486	31954
645.545	53267
645.604	15944
645.663	12238
645.722	11650
645.781	13337
645.840	15686
645.898	21427
645.957	33142
646.016	53699
646.075	101689
646.134	208228
646.192	578622
646.251	772046
646.310	99045
646.369	27716
646.427	21895
646.486	16309
646.545	13050
646.603	11983
646.662	11877
646.721	10542
646.779	9742
646.838	10638
646.896	15120
646.955	20407
647.014	34898
647.072	67250
647.131	182029
647.189	76512
647.248	11994
647.306	9990
647.365	9517
647.423	6575
647.481	9606
647.540	6582
647.598	7266
647.657	7129
647.715	7386
647.773	6931
647.832	7221
647.890	6847
647.948	6453
648.007	7143
648.065	6352
648.123	6340
648.181	8483
648.240	6802
648.298	5885
648.356	5843
648.414	7097
648.472	6395
648.531	6653
648.589	5564
648.647	6142
648.705	6260
648.763	6129
648.821	7148
648.879	7198
648.937	8530
648.995	11459
649.053	15986
649.111	25927
649.169	44656
649.227	82651
649.285	179347
649.343	504810
649.401	207008
649.459	40375
649.516	23359
649.574	13608
649.632	21181
649.690	22060
649.748	17485
649.806	24783
649.863	49114
649.921	128468
649.979	75068
650.037	12202
650.094	6153
650.152	7823
650.210	5950
650.268	5714
650.325	6603
650.383	6236
650.440	4222
650.498	5606
650.556	5993
650.613	4201
650.671	5106
650.728	5325
650.786	5450
650.843	7197
650.901	4843
650.958	5430
651.016	4182
651.073	4237
651.131	4393
651.188	4288
651.246	4898
651.303	3295
651.360	4230
651.418	4572
651.475	4359
651.532	3778
651.590	4033
651.647	3773
651.704	3903
651.762	4362
651.819	4326
651.876	4120
651.933	4223
651.990	4435
652.048	2610
652.105	3750
652.162	4279
652.219	3113
652.276	4658
652.333	4703
652.390	2394
652.448	4031
652.505	4360
652.562	3323
652.619	3347
652.676	4625
652.733	5543
652.790	4219
652.847	2722
652.904	3759
652.961	1704
653.017	3334
653.074	4180
653.131	3880
653.188	3568
653.245	3266
653.302	3317
653.359	3182
653.415	3395
653.472	3574
653.529	4125
653.586	2795
653.642	3542
653.699	3902
653.756	2410
653.813	2548
653.869	3703
653.926	2344
653.983	2421
654.039	2957
654.096	3102
654.152	4841
654.209	2292
654.266	3681
654.322	2386
654.379	4061
654.435	4319
654.492	3711
654.548	5702
654.605	8079
654.661	5314
654.717	4024
654.774	4080
654.830	3864
654.887	3673
654.943	3098
655.000	4268
655.056	4337
655.112	4210
655.168	3691
655.225	3346
655.281	3893
655.337	3603
655.394	6029
655.450	4720
655.506	4904
655.562	6440
655.618	7068
655.675	2797
655.731	4052
655.787	2972
655.843	4517
655.899	2440
655.955	5239
656.011	3140
656.067	2670
656.123	4132
656.179	3761
656.235	4658
656.291	3235
656.347	4423
656.403	3870
656.459	3438
656.515	3640
656.571	4309
656.627	4028
656.683	3576
656.739	3806
656.795	3610
656.850	3765
656.906	5180
656.962	3923
657.018	3141
657.074	4053
657.129	4991
657.185	7252
657.241	15544
657.297	8443
657.352	3552
657.408	3316
657.464	4585
657.519	4164
657.575	1879
657.630	2277
657.686	3330
657.742	2900
657.797	2778
657.853	2369
657.908	3669
657.964	2372
658.019	3281
658.075	2678
658.130	3385
658.186	1828
658.241	3207
658.297	2204
658.352	2755
658.407	3136
658.463	1878
658.518	2507
658.573	3137
658.629	1841
658.684	2821
658.739	3503
658.795	2242
658.850	2663
658.905	2109
658.960	2732
659.016	2620
659.071	3572
659.126	3718
659.181	3233
659.236	6981
659.291	7022
659.346	4194
659.401	3864
659.457	4006
659.512	3246
659.567	4212
659.622	2628
659.677	2163
659.732	2289
659.787	2830
659.842	2978
659.897	3661
659.952	3449
660.007	2280
660.061	3109
660.116	2333
660.171	2253
660.226	3136
660.281	3430
660.336	2467
660.391	3490
660.445	2652
660.500	2881
660.555	3408
660.610	2532
660.664	2943
660.719	1973
660.774	2339
660.828	3355
660.883	3636
660.938	3080
660.992	2497
661.047	3068
661.101	2255
661.156	3328
661.211	1687
661.265	2481
661.320	2265
661.374	2454
661.429	2952
661.483	2798
661.538	1713
661.592	2919
661.647	2817
661.701	3257
661.755	2547
661.810	2675
661.864	3031
661.919	1992
661.973	2934
662.027	2483
662.081	2284
662.136	2384
662.190	2847
662.244	3529
662.299	2642
662.353	2714
662.407	2800
662.461	2895
662.515	2258
662.569	2484
662.624	3424
662.678	3064
662.732	2364
662.786	2538
662.840	2018
662.894	2883
662.948	1707
663.002	2885
663.056	2311
663.110	1876
663.164	3274
663.218	3009
663.272	2335
663.326	3961
663.380	2949
663.434	3516
663.488	2575
663.542	3570
663.595	3430
663.649	2156
663.703	3079
663.757	2735
663.811	2536
663.864	2297
663.918	2893
663.972	2633
664.026	2669
664.079	2404
664.133	2916
664.187	2144
664.240	2741
664.294	1894
664.348	2888
664.401	2525
664.455	2784
664.508	2136
664.562	3015
664.615	2476
664.669	1689
664.722	2878
664.776	2123
664.829	3056
664.883	2670
664.936	2050
664.990	3297
665.043	3467
665.097	2747
665.150	4004
665.203	2689
665.257	3174
665.310	3446
665.363	2616
665.417	3372
665.470	2405
665.523	2931
665.576	3655
665.630	3079
665.683	2497
665.736	3267
665.789	3369
665.842	3362
665.895	2680
665.949	2446
666.002	3292
666.055	3091
666.108	3538
666.161	3730
666.214	2642
666.267	3622
666.320	4196
666.373	3627
666.426	3876
666.479	3153
666.532	3420
666.585	4663
666.638	4124
666.691	3586
666.744	4166
666.796	3869
666.849	3285
666.902	3625
666.955	2693
667.008	2516
667.060	2794
667.113	2672
667.166	2017
667.219	2780
667.271	3149
667.324	3135
667.377	2890
667.430	3157
667.482	3571
667.535	3132
667.587	3293
667.640	3574
667.693	4358
667.745	6696
667.798	7318
667.850	3647
667.903	3162
667.955	3136
668.008	2750
668.060	4602
668.113	3501
668.165	3568
668.218	4112
668.270	3456
668.322	3778
668.375	3111
668.427	4192
668.479	2717
668.532	3731
668.584	3637
668.636	3875
668.689	3669
668.741	2559
668.793	4034
668.845	2755
668.898	2962
668.950	4309
669.002	2818
669.054	3449
669.106	3707
669.158	3902
669.211	2617
669.263	3684
669.315	4213
669.367	3949
669.419	4248
669.471	5167
669.523	5426
669.575	7217
669.627	5378
669.679	4431
669.731	4842
669.783	4493
669.835	5275
669.886	4219
669.938	4080
669.990	4067
670.042	3142
670.094	3100
670.146	3986
670.197	3932
670.249	3955
670.301	4791
670.353	6493
670.404	7418
670.456	10068
670.508	15109
670.560	23601
670.611	38005
670.663	64932
670.715	158130
670.766	239366
670.818	62828
670.869	11098
670.921	7168
670.972	6993
671.024	5500
671.075	3988
671.127	4311
671.178	4174
671.230	4013
671.281	4512
671.333	4853
671.384	5138
671.436	5892
671.487	7728
671.538	11012
671.590	15814
671.641	24827
671.692	44798
671.744	82410
671.795	47138
671.846	15428
671.897	8536
671.949	6269
672.000	5367
672.051	4653
672.102	4714
672.153	3605
672.204	4437
672.256	4681
672.307	3719
672.358	3656
672.409	4304
672.460	3828
672.511	3162
672.562	3081
672.613	3042
672.664	3539
672.715	3979
672.766	3412
672.817	3041
672.868	3393
672.919	3558
672.970	3025
673.021	2887
673.071	2656
673.122	2278
673.173	2606
673.224	3086
673.275	3325
673.326	3153
673.376	2876
673.427	2775
673.478	3132
673.528	3464
673.579	2830
673.630	2503
673.680	4034
673.731	2551
673.782	2730
673.832	3229
673.883	3377
673.934	3157
673.984	2603
674.035	3229
674.085	3537
674.136	2991
674.186	4289
674.237	4246
674.287	5332
674.338	3777
674.388	3586
674.438	3192
674.489	3665
674.539	4183
674.589	3182
674.640	3789
674.690	3780
674.740	3676
674.791	3899
674.841	3122
674.891	3426
674.942	2782
674.992	3549
675.042	3324
675.092	2735
675.142	3503
675.193	3409
675.243	2613
675.293	2901
675.343	2170
675.393	3638
675.443	4011
675.493	3469
675.543	2205
675.593	3091
675.643	3328
675.693	3343
675.743	3301
675.793	2928
675.843	1869
675.893	2663
675.943	2865
675.993	3427
676.043	3154
676.093	3086
676.142	1539
676.192	2832
676.242	1923
676.292	1692
676.341	2461
676.391	2535
676.441	2562
676.491	2434
676.540	2341
676.590	3080
676.640	2320
676.689	2631
676.739	2474
676.789	2195
676.838	2871
676.888	1903
676.937	2323
676.987	2195
677.037	1704
677.086	1557
677.136	2140
677.185	2436
677.235	2241
677.284	2415
677.333	2332
677.383	1908
677.432	1792
677.482	1909
677.531	1775
677.580	1596
677.630	2617
677.679	1615
677.728	2559
677.778	2345
677.827	2011
677.876	1928
677.925	1861
677.975	1624
678.024	2165
678.073	2039
678.122	2206
678.171	2039
678.220	3494
678.269	3309
678.319	3355
678.368	3076
678.417	3023
678.466	2708
678.515	2770
678.564	2860
678.613	3166
678.662	2129
678.711	2349
678.760	2293
678.809	2328
678.857	2793
678.906	2143
678.955	2284
679.004	1973
679.053	1756
679.102	2388
679.151	3087
679.199	1525
679.248	2089
679.297	2452
679.346	2442
679.394	2155
679.443	2777
679.492	1733
679.540	1646
679.589	2391
679.638	2504
679.686	1949
679.735	2262
679.784	2500
679.832	2640
679.881	1102
679.929	2013
679.978	2253
680.026	1871
680.075	2611
680.123	1888
680.172	1957
680.220	1789
680.268	2134
680.317	2260
680.365	1434
680.414	1974
680.462	1959
680.510	2124
680.559	2106
680.607	1568
680.655	1399
680.703	2202
680.752	2142
680.800	960
680.848	1389
680.896	1276
680.945	1485
680.993	1712
681.041	1454
681.089	2158
681.137	1833
681.185	946
681.233	1601
681.258	1513
681.281	1417
681.329	2040
681.377	1025
681.380	1078
681.425	1846
681.473	1664
681.502	1900
681.521	2034
681.569	2155
681.617	1328
681.624	1395
681.665	1756
681.713	2015
681.745	1799
681.761	1676
681.809	2254
681.857	1946
681.867	1857
681.904	1498
681.952	1696
681.989	2105
682.000	2212
682.048	1769
682.096	2072
682.111	1828
682.143	1283
682.191	1983
682.233	2552
682.239	2620
682.286	1712
682.334	1655
682.354	1929
682.382	2313
682.430	2921
682.476	2450
682.477	2428
682.525	1549
682.572	2190
682.598	2380
682.620	2568
682.667	2373
682.715	2056
682.720	2068
682.763	1996
682.810	1971
682.841	1957
682.857	1940
682.905	1721
682.952	2127
682.963	2187
683.000	2363
683.047	2159
683.085	2815
683.095	2988
683.142	2070
683.190	2357
683.206	2322
683.237	2217
683.284	2292
683.328	2363
683.332	2358
683.379	2423
683.426	2131
683.449	2256
683.473	2356
683.521	2120
683.568	2901
683.571	2870
683.615	2366
683.662	2328
683.693	2376
683.709	2376
683.757	2300
683.804	3464
683.814	3200
683.851	2290
683.898	2845
683.936	3021
683.945	3060
683.992	2863
684.039	2389
684.057	2456
684.086	2532
684.133	2754
684.179	2626
684.180	2613
684.227	3049
684.274	2821
684.300	2971
684.321	3061
684.368	1748
684.415	3008
684.422	2889
684.462	2118
684.509	2655
684.543	2783
684.556	2837
684.603	2783
684.649	2367
684.665	2283
684.696	2118
684.743	3183
684.786	3157
684.790	3153
684.837	2432
684.883	3486
684.908	3740
684.930	3918
684.977	3546
685.023	3126
685.029	3208
685.070	3727
685.117	2641
685.150	2919
685.164	3053
685.210	3970
685.257	3495
685.272	3442
685.303	3301
685.350	3780
685.393	3153
685.396	3106
685.443	4006
685.490	4378
685.514	4076
685.536	3671
685.583	3825
685.629	3982
685.636	3928
685.675	3749
685.722	3538
685.757	3907
685.768	3970
685.815	3694
685.861	3624
685.878	3569
685.908	3599
685.954	3436
686.000	4078
686.000	4087
686.047	3654
686.093	5311
686.121	5117
686.139	4838
686.185	4450
686.232	3813
686.242	3750
686.278	3566
686.324	4209
686.363	3513
686.370	3408
686.416	3574
686.463	3264
686.484	3455
686.509	3711
686.555	3490
686.601	3730
686.606	3770
686.647	3957
686.693	3692
686.727	3711
686.739	3764
686.785	4169
686.831	4199
686.848	4056
686.877	3705
686.923	3500
686.969	3522
686.969	3522
687.015	3658
687.061	4499
687.090	4323
687.107	4118
687.153	3880
687.199	3934
687.211	3792
687.245	3692
687.291	3661
687.332	4224
687.336	4249
687.382	4376
687.428	4412
687.453	3935
687.474	3608
687.520	4009
687.565	3761
687.574	3768
687.611	3909
687.657	4489
687.695	4234
687.702	4196
687.748	4914
687.794	5096
687.816	5125
687.839	4900
687.885	4400
687.931	3835
687.937	3747
687.976	3663
688.022	4127
688.058	4725
688.067	4809
688.113	4134
688.158	3968
688.179	3829
688.204	3838
688.249	3957
688.295	4090
688.300	4111
688.340	4265
688.386	4697
688.421	4260
688.431	4077
688.477	4558
688.522	4075
688.542	4120
688.567	4368
688.613	4070
688.658	4423
688.663	4442
688.703	4476
688.749	3986
688.784	4428
688.794	4580
688.839	4313
688.884	4730
688.905	4555
688.930	4306
688.975	4833
689.020	4716
689.026	4692
689.065	4447
689.110	4363
689.146	4195
689.155	4182
689.201	4292
689.246	4380
689.267	4059
689.291	3743
689.336	4350
689.381	3955
689.388	3980
689.426	4142
689.471	4256
689.509	4077
689.516	4070
689.561	4238
689.606	4809
689.630	4666
689.651	4504
689.696	4328
689.741	5370
689.750	5344
689.785	5186
689.830	4837
689.871	4513
689.875	4481
689.920	4226
689.965	4417
689.992	4230
690.010	4199
690.054	4267
690.099	4387
690.112	4477
690.144	4568
690.189	4158
690.233	3800
690.233	3805
690.278	3984
690.323	3934
690.354	4350
690.367	4613
690.412	4429
690.457	4637
690.474	4920
690.501	5021
690.546	4058
690.590	4352
690.595	4248
690.635	3968
690.680	4301
690.716	4597
690.724	4639
690.769	4778
690.813	5371
690.836	5458
690.857	5574
690.902	5117
690.946	5478
690.957	5532
690.991	6293
691.035	7128
691.077	8411
691.080	8425
691.124	7739
691.168	7196
691.198	6707
691.213	6447
691.257	6156
691.301	5365
691.318	5209
691.346	5189
691.390	4768
691.434	4400
691.439	4397
691.478	4678
691.522	4975
691.559	4665
691.567	4655
691.611	5276
691.655	5083
691.680	5344
691.699	5372
691.743	5417
691.787	5077
691.800	4959
691.831	4999
691.875	5599
691.919	5510
691.921	5514
691.964	5624
692.008	5429
692.041	5418
692.052	5483
692.096	5148
692.139	5706
692.162	5634
692.183	5442
692.227	5280
692.271	4920
692.282	4937
692.315	5258
692.359	4966
692.402	5537
692.403	5553
692.447	5471
692.490	5614
692.523	5809
692.534	5814
692.578	5438
692.622	5410
692.643	5534
692.666	5701
692.709	5507
692.753	5245
692.763	5239
692.797	5484
692.840	5490
692.884	5618
692.884	5632
692.928	5798
692.971	6081
693.004	6058
693.015	5977
693.059	5693
693.102	5842
693.124	5624
693.146	5491
693.189	5284
693.233	5393
693.245	5349
693.276	5433
693.320	5599
693.363	5650
693.365	5639
693.407	5677
693.450	5819
693.485	5882
693.493	5957
693.537	6198
693.580	6300
693.605	6511
693.624	6733
693.667	7383
693.710	7648
693.725	7842
693.753	9232
693.797	11327
693.840	13606
693.845	13774
693.883	12376
693.926	10951
693.966	9505
693.970	9394
694.013	8373
694.056	7308
694.086	6382
694.099	6279
694.142	6381
694.185	6240
694.206	6129
694.229	6273
694.272	6686
694.315	6998
694.326	7012
694.358	6910
694.401	7071
694.444	6945
694.446	6931
694.487	6876
694.530	6512
694.566	6489
694.573	6503
694.616	6238
694.659	6260
694.686	6029
694.702	5884
694.745	5852
694.787	5455
694.806	5309
694.830	5363
694.873	5506
694.916	5626
694.926	5649
694.959	5823
695.002	5847
695.044	6006
695.046	6000
695.087	5951
695.130	5728
695.166	5733
695.172	5815
695.215	5918
695.258	6170
695.286	6382
695.301	6412
695.343	6485
695.386	6345
695.406	6260
695.428	6259
695.471	6484
695.514	6406
695.526	6460
695.556	6574
695.599	6620
695.641	6607
695.646	6578
695.684	6432
695.726	6147
695.766	6025
695.769	6038
695.811	6157
695.854	5996
695.886	6044
695.896	6086
695.938	5852
695.981	5867
696.005	5817
696.023	5915
696.065	6113
696.108	6265
696.125	6352
696.150	6500
696.192	6644
696.235	6901
696.245	6931
696.277	6900
696.319	6681
696.361	6620
696.365	6596
696.404	6778
696.446	6971
696.485	6966
696.488	6985
696.530	7061
696.572	7263
696.604	7300
696.614	7298
696.656	7254
696.698	7161
696.724	7088
696.740	6989
696.783	6564
696.825	6557
696.844	6363
696.867	6454
696.909	6719
696.951	6768
696.964	6849
696.992	6943
697.034	6854
697.076	6927
697.083	6907
697.118	7132
697.160	7354
697.202	7631
697.203	7617
697.244	7427
697.286	7275
697.323	6956
697.327	6981
697.369	7131
697.411	7259
697.442	7386
697.453	7482
697.494	7675
697.536	7914
697.562	8056
697.578	8100
697.620	8164
697.661	8200
697.682	8189
697.703	8165
697.744	8101
697.786	8115
697.801	8046
697.828	8250
697.869	8555
697.911	8785
697.921	8864
697.952	8472
697.994	7829
698.035	7162
698.040	7062
698.077	7131
698.118	7148
698.160	7232
698.160	7210
698.201	7577
698.243	7924
698.279	8256
698.284	8276
698.325	8183
698.367	8117
698.399	8056
698.408	8014
698.449	7685
698.491	7414
698.518	7173
698.532	7344
698.573	7837
698.614	8326
698.638	8574
698.656	8447
698.697	8092
698.738	7762
698.757	7574
698.779	7671
698.820	7825
698.862	7964
698.877	8001
698.903	8061
698.944	8105
698.985	8157
698.996	8151
699.026	8132
699.067	8077
699.116	7991
699.235	7067
699.354	7368
699.474	8452
699.593	9113
699.713	7985
699.832	8169
699.951	9384
700.070	8676
700.190	6820
700.309	8254
700.428	8035
700.547	7714
700.667	8495
700.786	9437
700.905	6665
701.024	7954
701.143	7490
701.262	7156
701.381	7321
701.500	7635
701.619	8273
701.738	7624
701.857	7410
701.976	7594
702.095	7745
702.214	8431
702.333	8359
702.452	7540
702.571	7295
702.690	7296
702.809	6327
702.928	7711
703.047	7729
703.165	7391
703.284	6919
703.403	6801
703.522	8005
703.640	7468
703.759	8397
703.878	10538
703.997	6845
704.115	6762
704.234	6471
704.353	7010
704.471	6691
704.590	6352
704.708	6773
704.827	6326
704.946	5759
705.064	6792
705.183	6246
705.301	7830
705.420	8453
705.538	9247
705.656	7253
705.775	7629
705.893	10162
706.012	10573
706.130	8088
706.249	8446
706.367	7394
706.485	9406
706.604	8321
706.722	8232
706.840	9699
706.958	10948
707.077	9081
707.195	7846
707.313	6703
707.431	7338
707.549	6591
707.668	6262
707.786	7830
707.904	6294
708.022	6387
708.140	7158
708.258	7349
708.376	7353
708.494	6461
708.612	8487
708.730	10545
708.848	9929
708.966	8811
709.084	9055
709.202	7341
709.320	8479
709.438	7881
709.556	9190
709.674	8267
709.791	8712
709.909	7369
710.027	7828
710.145	7217
710.263	8444
710.380	7970
710.498	8202
710.616	7965
710.733	8149
710.851	7945
710.969	8189
711.086	7789
711.204	7449
711.322	7660
711.439	7799
711.557	7346
711.674	7603
711.792	6724
711.909	7111
712.027	7298
712.144	7550
712.262	7296
712.379	8368
712.497	10511
712.614	10762
712.732	9413
712.849	9328
712.966	9600
713.084	12042
713.201	8591
713.318	9650
713.436	9533
713.553	9167
713.670	10386
713.787	11239
713.905	10295
714.022	9461
714.139	9613
714.256	11974
714.373	15191
714.490	29566
714.608	81443
714.725	346299
714.842	276851
714.959	21217
715.076	11051
715.193	9695
715.310	9399
715.427	9098
715.544	8828
715.661	8550
715.778	8239
715.895	9263
716.011	8619
716.128	8051
716.245	8166
716.362	10835
716.479	9456
716.596	8198
716.713	7994
716.829	7236
716.946	7764
717.063	6934
717.180	7163
717.296	7057
717.413	6111
717.530	7573
717.646	6724
717.763	7567
717.880	6896
717.996	6928
718.113	7109
718.229	6730
718.346	6545
718.462	7436
718.579	8863
718.695	13397
718.812	9241
718.928	9513
719.045	6581
719.161	5379
719.277	5981
719.394	7691
719.510	6890
719.626	7523
719.743	9047
719.859	13190
719.975	23407
720.092	95475
720.208	179887
720.324	19551
720.440	8135
720.557	9239
720.673	11934
720.789	14345
720.905	24251
721.021	8568
721.137	5515
721.253	6885
721.369	6101
721.486	6533
721.602	8580
721.718	6301
721.834	4742
721.950	5661
722.066	5985
722.181	5799
722.297	6164
722.413	6213
722.529	5926
722.645	5383
722.761	5651
722.877	5377
722.993	5426
723.108	6765
723.224	5349
723.340	5739
723.456	5044
723.571	5429
723.687	5570
723.803	5967
723.918	4621
724.034	5137
724.150	5303
724.265	5919
724.381	10807
724.497	11202
724.612	4884
724.728	4542
724.843	4921
724.959	6003
725.074	10513
725.190	10506
725.305	5204
725.421	5276
725.536	4095
725.651	4973
725.767	4966
725.882	5198
725.997	4379
726.113	4931
726.228	4063
726.343	4392
726.459	3528
726.574	4646
726.689	3504
726.804	4379
726.920	4210
727.035	4672
727.150	4535
727.265	5356
727.380	4059
727.495	4850
727.610	3827
727.725	4632
727.841	4195
727.956	5414
728.071	5657
728.186	4168
728.301	3752
728.416	4706
728.531	3634
728.645	3794
728.760	4657
728.875	4626
728.990	5105
729.105	4704
729.220	4358
729.335	4706
729.449	3596
729.564	3543
729.679	3746
729.794	4123
729.908	4515
730.023	3634
730.138	3949
730.253	4522
730.367	3783
730.482	3516
730.596	2999
730.711	4588
730.826	4718
730.940	4972
731.055	5100
731.169	3351
731.284	3315
731.398	3913
731.513	4353
731.627	3564
731.742	5268
731.856	5982
731.970	4646
732.085	6342
732.199	7346
732.313	13114
732.428	34856
732.542	104853
732.656	49362
732.771	9928
732.885	5421
732.999	5832
733.113	6023
733.227	5506
733.342	4218
733.456	5322
733.570	4204
733.684	4800
733.798	4305
733.912	4738
734.026	3746
734.140	4538
734.254	5133
734.368	8038
734.482	7726
734.596	4623
734.710	4742
734.824	4423
734.938	3926
735.052	4518
735.166	5288
735.280	4783
735.393	3828
735.507	4863
735.621	5439
735.735	7658
735.849	4636
735.962	4104
736.076	4854
736.190	5011
736.303	5191
736.417	7061
736.531	4114
736.644	4556
736.758	3263
736.872	4377
736.985	3864
737.099	3825
737.212	3068
737.326	4862
737.439	3963
737.553	3843
737.666	4751
737.780	3706
737.893	3602
738.007	3116
738.120	3408
738.233	4521
738.347	3905
738.460	4326
738.573	3568
738.687	3322
738.800	4083
738.913	4374
739.026	4127
739.140	3800
739.253	3136
739.366	3728
739.479	3036
739.592	3601
739.705	3453
739.818	4457
739.932	3650
740.045	3502
740.158	2493
740.271	3350
740.384	2645
740.497	4074
740.610	4566
740.723	3958
740.836	3749
740.949	4127
741.062	5523
741.174	4590
741.287	3727
741.400	3609
741.513	4043
741.626	5180
741.739	3466
741.851	3840
741.964	3662
742.077	3756
742.189	3251
742.302	5040
742.415	4445
742.527	3680
742.640	2860
742.753	3345
742.865	3255
742.978	3188
743.090	3512
743.203	3274
743.316	2459
743.428	2498
743.541	2563
743.653	2722
743.766	2816
743.878	2545
743.990	3713
744.103	3768
744.215	3509
744.327	3790
744.440	4258
744.552	5057
744.664	3741
744.777	3105
744.889	2281
745.001	2622
745.113	2814
745.226	3359
745.338	2519
745.450	3137
745.562	2551
745.674	2792
745.786	1931
745.898	2843
746.010	2025
746.122	2952
746.234	2582
746.347	3405
746.459	2687
746.570	1973
746.682	3514
746.794	4196
746.906	2204
747.018	2701
747.130	2935
747.242	2822
747.354	1842
747.466	3164
747.577	2851
747.689	2811
747.801	2453
747.913	2420
748.024	2496
748.136	1786
748.248	2290
748.359	2173
748.471	2579
748.583	2202
748.694	1887
748.806	2361
748.918	2869
749.029	2640
749.141	2997
749.252	2258
749.364	3009
749.475	6036
749.587	3883
749.698	2953
749.809	2913
749.921	2594
750.032	2845
750.144	2512
750.255	2551
750.366	2508
750.478	2161
750.589	2582
750.700	2204
750.811	3322
750.923	3221
751.034	7047
751.145	6508
751.256	2905
751.367	2547
751.479	2870
751.590	1960
751.701	2600
751.812	1423
751.923	2554
752.034	2139
752.145	2157
752.256	2697
752.367	3110
752.478	1278
752.589	2686
752.700	2773
752.811	1414
752.922	2421
753.032	2332
753.143	2578
753.254	1360
753.365	2331
753.476	3230
753.586	2508
753.697	2491
753.808	2020
753.919	2381
754.029	1825
754.140	2196
754.251	1181
754.361	1409
754.472	2529
754.582	2053
754.693	2155
754.804	2128
754.914	2111
755.025	2396
755.135	1799
755.246	2617
755.356	1325
755.466	2910
755.577	2546
755.687	1948
755.798	2181
755.908	1649
756.018	1842
756.129	2405
756.239	1548
756.349	2598
756.460	2022
756.570	2555
756.680	1826
756.790	2123
756.900	2579
757.011	1843
757.121	2328
757.231	2284
757.341	1572
757.451	1482
757.561	1823
757.671	1889
757.781	1561
757.891	2202
758.001	927
758.111	2698
758.221	2515
758.331	2462
758.441	1892
758.551	3099
758.661	2755
758.771	2071
758.880	1865
758.990	2314
759.100	2070
759.210	2412
759.320	1896
759.429	2356
759.539	1971
759.649	2522
759.758	2801
759.868	3861
759.978	2605
760.087	2862
760.197	2993
760.307	3086
760.416	2232
760.526	2582
760.635	3099
760.745	3518
760.854	2404
760.964	3583
761.073	3131
761.182	3412
761.292	2954
761.401	3944
761.511	2589
761.620	2262
761.729	2064
761.839	2057
761.948	2459
762.057	3141
762.166	2361
762.276	1795
762.385	2401
762.494	1900
762.603	1954
762.712	2770
762.822	2012
762.931	2654
763.040	2187
763.149	1643
763.258	1576
763.367	2657
763.476	1865
763.585	2671
763.694	2311
763.803	3594
763.912	2257
764.021	3031
764.130	2308
764.238	2741
764.347	2299
764.456	3000
764.565	2220
764.674	3009
764.783	2318
764.891	3254
765.000	3539
765.109	3990
765.217	3324
765.326	5011
765.435	5559
765.543	6238
765.652	6672
765.761	8075
765.869	11856
765.978	20012
766.086	37952
766.195	80110
766.303	223690
766.412	540597
766.520	355292
766.629	86759
766.737	34616
766.846	20869
766.954	13241
767.062	12223
767.171	8638
767.279	6831
767.387	4700
767.496	5579
767.604	5040
767.712	5101
767.820	4969
767.928	3421
768.037	3515
768.145	4165
768.253	3916
768.361	3703
768.469	3075
768.577	3651
768.685	4266
768.793	3450
768.901	3532
769.009	5052
769.117	4937
769.225	6538
769.333	9838
769.441	14400
769.549	30945
769.657	78387
769.765	261391
769.873	403656
769.981	110211
770.088	25822
770.196	13214
770.304	11004
770.412	8092
770.519	6049
770.627	4809
770.735	4159
770.842	3742
770.950	4164
771.058	3501
771.165	3858
771.273	3555
771.380	3543
771.488	3653
771.595	3869
771.703	2944
771.810	3942
771.918	2889
772.025	3726
772.133	3211
772.240	3774
772.348	3232
772.455	3966
772.562	2886
772.670	2950
772.777	3132
772.884	4106
772.991	2607
773.099	3380
773.206	2393
773.313	4038
773.420	3072
773.528	2807
773.635	2365
773.742	3307
773.849	3381
773.956	2953
774.063	2185
774.170	2664
774.277	3608
774.384	3495
774.491	2317
774.598	4542
774.705	2914
774.812	3678
774.919	2850
775.026	3413
775.133	3386
775.239	2873
775.346	2529
775.453	2693
775.560	2335
775.667	2832
775.773	1280
775.880	4003
775.987	1673
776.093	3106
776.200	2470
776.307	2173
776.413	2714
776.520	2640
776.627	2429
776.733	2633
776.840	1339
776.946	3969
777.053	2415
777.159	5488
777.266	1642
777.372	4672
777.478	3816
777.585	3642
777.691	2188
777.798	2924
777.904	3472
778.010	3600
778.117	3271
778.223	2413
778.329	2229
778.435	2491
778.542	2351
778.648	2625
778.754	2050
778.860	2853
778.966	2394
779.072	3064
779.178	2191
779.284	2471
779.391	1656
779.497	1744
779.603	3405
779.708	1830
779.815	4920
779.920	13251
780.026	14776
780.132	3991
780.238	1528
780.344	2307
780.450	3205
780.556	1746
780.661	1417
780.767	2627
780.873	2434
780.979	2465
781.085	1171
781.190	2721
781.296	2189
781.402	1525
781.507	1984
781.613	2366
781.719	1410
781.824	2964
781.930	2408
782.035	2251
782.141	2522
782.246	1429
782.352	2054
782.457	1426
782.563	2197
782.668	1822
782.773	1858
782.879	1835
782.984	2342
783.090	2849
783.195	3496
783.300	3895
783.405	1916
783.511	2028
783.616	1386
783.721	2253
783.826	1397
783.932	2986
784.037	1777
784.142	2667
784.247	1626
784.352	1920
784.457	2038
784.562	2326
784.667	1457
784.772	2473
784.877	1542
784.982	2253
785.087	1320
785.192	2461
785.297	1722
785.402	1758
785.507	1919
785.611	2020
785.716	2025
785.821	2381
785.926	1799
786.031	1594
786.135	1331
786.240	2387
786.345	722
786.450	2271
786.554	2134
786.659	2396
786.763	527
786.868	1703
786.973	3105
787.077	1064
787.182	942
787.286	1995
787.391	1267
787.495	1860
787.600	1189
787.704	973
787.809	2262
787.913	727
788.017	1405
788.122	1513
788.226	1217
788.330	1162
788.435	1544
788.539	2003
788.643	674
788.747	1889
788.852	1033
788.956	885
789.060	1870
789.164	1716
789.268	955
789.372	1954
789.476	1531
789.580	1507
789.684	415
789.788	1447
789.892	436
789.996	2213
790.100	364
790.204	1787
790.308	1610
790.412	1580
790.516	1052
790.620	918
790.724	1217
790.828	919
790.931	682
791.035	2852
791.139	1122
791.242	1824
791.346	1765
791.450	1650
791.554	334
791.657	243
791.761	2421
791.864	1935
791.968	1007
792.072	2451
792.175	933
792.279	2079
792.382	1187
792.486	2010
792.589	1013
792.693	2415
792.796	371
792.899	2995
793.003	1611
793.106	690
793.209	1270
793.313	2836
793.416	119
793.519	2223
793.623	2685
793.726	3117
793.829	1384
793.932	2211
794.035	1257
794.138	2044
794.242	2240
794.345	2029
794.448	1650
794.551	3637
794.654	7044
794.757	8078
794.860	2182
794.963	1809
795.066	1411
795.169	2499
795.272	614
795.375	1448
795.477	127
795.580	1362
795.683	-271
795.786	1344
795.889	31
795.991	2397
796.094	2173
796.197	-123
796.300	1456
796.402	519
796.505	431
796.608	669
796.710	1696
796.813	940
796.915	1101
797.018	2063
797.120	811
797.223	-292
797.326	2459
797.428	1624
797.530	1085
797.633	790
797.735	2442
797.838	1521
797.940	1561
798.042	-30
798.145	633
798.247	1301
798.349	-493
798.452	1399
798.554	583
798.656	495
798.758	1920
798.860	860
798.962	559
799.065	1066
799.167	-314
799.269	2124
799.371	1791
799.473	1982
799.575	950
799.677	1976
799.779	2379
799.881	2152
799.983	1800
800.085	1119
800.187	1183
800.289	313
800.390	610
800.492	1829
800.594	1301
800.696	721
800.798	1124
800.899	583
801.001	575
801.103	1084
801.205	970
801.306	897
801.408	-474
801.509	1908
801.611	707
801.713	883
801.814	-112
801.916	1060
802.017	-25
802.119	441
802.220	1424
802.322	-1271
802.423	2347
802.525	140
802.626	697
802.727	2273
802.829	1526
802.930	-596
803.031	2093
803.133	1095
803.234	302
803.335	243
803.436	-481
803.538	529
803.639	132
803.740	821
803.841	496
803.942	1826
804.043	1590
804.144	672
804.245	1246
804.346	276
804.447	-66
804.548	1919
804.649	1110
804.750	867
804.851	188
804.952	1267
805.053	914
805.154	-192
805.255	1534
805.355	568
805.456	-158
805.557	791
805.658	-1148
805.758	1872
805.859	861
805.960	1421
806.061	-767
806.161	837
806.262	791
806.362	-537
806.463	146
806.564	687
806.664	378
806.765	796
806.865	600
806.966	410
807.066	35
807.166	1568
807.267	1105
807.367	555
807.468	1189
807.568	-155
807.668	1274
807.769	1534
807.869	206
807.969	889
808.069	388
808.170	960
808.270	-277
808.370	1119
808.470	974
808.570	-119
808.670	619
808.770	1469
808.870	-133
808.970	1099
809.070	-167
809.170	1247
809.271	893
809.370	863
809.470	819
809.570	775
809.670	-797
809.770	1581
809.870	1179
809.970	848
810.070	-351
810.169	904
810.269	4
810.369	1779
810.469	-166
810.568	1114
810.668	372
810.768	269
810.867	176
810.967	812
811.066	-20
811.166	-159
811.265	1244
811.365	519
811.464	410
811.564	493
811.663	638
811.763	227
811.862	432
811.962	1849
812.061	204
812.160	-88
812.260	-878
812.359	700
812.458	254
812.557	1345
812.657	1650
812.756	935
812.855	579
812.954	470
813.053	362
813.153	677
813.252	343
813.351	668
813.450	64
813.549	130
813.648	313
813.747	670
813.846	939
813.945	358
814.044	63
814.143	940
814.242	671
814.341	519
814.439	239
814.538	1095
814.637	254
814.736	1108
814.835	936
814.933	1146
815.032	942
815.131	719
815.229	965
815.328	2029
815.427	1025
815.525	2561
815.624	1115
815.722	1048
815.821	1525
815.919	1297
816.018	65
816.116	2784
816.215	1375
816.313	1560
816.412	1635
816.510	2479
816.609	3037
816.707	2051
816.805	1953
816.904	806
817.002	1113
817.100	2745
817.198	2282
817.296	1958
817.395	2557
817.493	3786
817.591	3406
817.689	4537
817.787	5010
817.885	9796
817.983	17912
818.081	41595
818.179	103981
818.277	251514
818.375	167832
818.473	37618
818.571	15501
818.669	10941
818.767	10071
818.865	10149
818.963	12566
819.061	19104
819.158	35532
819.256	84611
819.354	207340
819.452	410344
819.549	206710
819.647	49669
819.745	20740
819.842	13775
819.940	10168
820.038	6785
820.135	5137
820.233	5538
820.330	3549
820.428	2987
820.525	3797
820.623	2342
820.720	1979
820.818	2356
820.915	2241
821.012	1977
821.110	449
821.207	1760
821.304	1187
821.402	2072
821.499	2240
821.596	1897
821.693	1717
821.791	2108
821.888	1530
821.985	4436
822.082	1933
822.179	2552
822.276	260
822.373	1825
822.470	1208
822.567	959
822.664	337
822.761	1762
822.858	-20
822.955	1124
823.052	285
823.149	1153
823.246	1273
823.343	714
823.440	1280
823.536	880
823.633	-12
823.730	885
823.827	439
823.923	787
824.020	1411
824.117	464
824.213	211
824.310	1655
824.407	220
824.503	845
824.600	1086
824.696	1054
824.793	1648
824.889	937
824.986	187
825.082	346
825.179	1781
825.275	1028
825.371	189
825.468	1600
825.564	-107
825.660	980
825.757	576
825.853	910
825.949	-41
826.045	734
826.142	-272
826.238	780
826.334	604
826.430	455
826.526	448
826.622	503
826.718	789
826.814	-97
826.910	623
827.006	512
827.102	449
827.198	1129
827.294	662
827.390	832
827.486	415
827.582	506
827.678	223
827.774	1130
827.869	-578
827.965	1994
828.061	-453
828.157	121
828.252	370
828.348	256
828.444	454
828.539	-66
828.635	222
828.731	694
828.826	222
828.922	892
829.017	-26
829.113	666
829.208	142
829.304	427
829.399	1442
829.495	926
829.590	732
829.685	-47
829.781	785
829.876	848
829.971	-638
830.066	-196
830.162	-353
830.257	224
830.352	-328
830.447	862
830.543	563
830.638	-1003
830.733	780
830.828	349
830.923	746
831.018	235
831.113	168
831.208	-695
831.303	-180
831.398	336
831.493	-482
831.588	821
831.683	-581
831.778	466
831.873	-25
831.967	997
832.062	-1317
832.157	-350
832.252	709
832.346	-221
832.441	898
832.536	1144
832.631	2565
832.725	2466
832.820	-358
832.914	-803
833.009	-409
833.104	648
833.198	425
833.293	350
833.387	-225
833.482	511
833.576	-59
833.670	796
833.765	411
833.859	61
833.954	546
834.048	717
834.142	97
834.237	634
834.331	-446
834.425	867
834.519	-174
834.613	88
834.708	-698
834.802	729
834.896	-312
834.990	777
835.084	293
835.178	423
835.272	368
835.366	562
835.460	459
835.554	373
835.648	577
835.742	690
835.836	214
835.930	-755
836.024	24
836.117	1229
836.211	254
836.305	1015
836.399	667
836.493	-527
836.586	1040
836.680	-671
836.774	-943
836.867	548
836.961	-398
837.055	-254
837.148	220
837.242	-144
837.335	-339
837.429	-2
837.522	248
837.616	126
837.709	1521
837.803	274
837.896	729
837.989	-91
838.083	544
838.176	2052
838.269	819
838.363	762
838.456	126
838.549	1454
838.642	1159
838.735	3087
838.829	1210
838.922	-277
839.015	71
839.108	-304
839.201	210
839.294	109
839.387	715
839.480	-823
839.573	-306
839.666	716
839.759	79
839.852	-1089
839.945	-325
840.038	195
840.131	-30
840.223	-172
840.316	294
840.409	-805
840.502	-1236
840.594	844
840.687	-961
840.780	438
840.873	-1076
840.965	641
841.058	898
841.150	1687
841.243	-155
841.336	285
841.428	93
841.521	66
841.613	-453
841.706	-72
841.798	-720
841.890	-172
841.983	-1111
842.075	791
842.167	-781
842.260	902
842.352	891
842.444	32
842.537	1676
842.629	2405
842.721	808
842.813	267
842.905	-1108
842.997	227
843.090	-224
843.182	1518
843.274	1744
843.366	6252
843.458	7474
843.550	4092
843.642	70
843.734	548
843.826	-238
843.918	614
844.009	-373
844.101	478
844.193	-859
844.285	-562
844.377	924
844.469	334
844.560	-702
844.652	363
844.744	-354
844.835	154
844.927	483
845.019	-290
845.110	-653
845.202	665
845.293	-817
845.385	-741
845.476	-534
845.568	1007
845.659	-72
845.751	-121
845.842	-208
845.934	-193
846.025	-761
846.116	139
846.208	253
846.299	-322
846.390	-22
846.482	168
846.573	792
846.664	542
846.755	126
846.846	661
846.937	-910
847.029	-199
847.120	-1489
847.211	-247
847.302	879
847.393	-443
847.484	-337
847.575	-543
847.666	-1499
847.757	106
847.847	-491
847.938	676
848.029	-844
848.120	350
848.211	-1202
848.302	-1496
848.392	379
848.483	434
848.574	568
848.664	-455
848.755	-602
848.846	-102
848.936	-600
849.027	1190
849.118	-622
849.208	16
849.299	992
849.389	1883
849.480	5198
849.570	11647
849.661	22882
849.751	37342
849.841	10918
849.932	1916
850.022	-956
850.112	-278
850.203	-96
850.293	429
850.383	-447
850.474	21
850.564	-668
850.654	379
850.744	-34
850.834	461
850.924	-499
851.014	403
851.104	-700
851.194	279
851.284	168
851.374	754
851.464	-512
851.554	-206
851.644	631
851.734	567
851.824	-335
851.914	-493
852.004	58
852.094	-477
852.183	40
852.273	-98
852.363	-541
852.452	658
852.542	-729
852.632	-617
852.721	369
852.811	-232
852.901	348
852.990	656
853.080	-201
853.169	67
853.259	903
853.348	233
853.438	1387
853.527	2107
853.617	3439
853.706	8178
853.795	14665
853.885	35873
853.974	68487
854.063	127959
854.152	192749
854.242	63659
854.331	8602
854.420	3433
854.509	2353
854.598	2057
854.687	1471
854.777	1736
854.866	453
854.955	708
855.044	-221
855.133	-124
855.222	-37
855.311	-215
855.400	-292
855.488	-521
855.577	-202
855.666	1024
855.755	-16
855.844	307
855.933	-615
856.021	35
856.110	-506
856.199	177
856.288	-971
856.376	-127
856.465	-1088
856.554	-174
856.642	-1060
856.731	88
856.819	128
856.908	-384
856.996	-195
857.085	-218
857.173	215
857.262	225
857.350	180
857.438	-439
857.527	-75
857.615	-83
857.703	-611
857.792	-394
857.880	-333
857.968	-814
858.056	-505
858.145	-477
858.233	-722
858.321	-912
858.409	201
858.497	-858
858.585	-393
858.673	-727
858.761	-972
858.849	389
858.937	-755
859.025	-85
859.113	-309
859.201	-1007
859.289	-188
859.377	-257
859.465	-460
859.552	678
859.640	-108
859.728	-160
859.816	-434
859.903	548
859.991	-603
860.079	-549
860.166	-730
860.254	-744
860.342	-1092
860.429	-829
860.517	-765
860.604	-451
860.692	-750
860.779	-643
860.867	-638
860.954	-216
861.042	98
861.129	143
861.216	-521
861.304	-369
861.391	-479
861.478	-549
861.565	-621
861.653	943
861.740	-1066
861.827	-431
861.914	31
862.001	-456
862.089	-728
862.176	-216
862.263	-1071
862.350	-490
862.437	-1111
862.524	-540
862.611	-741
862.698	-317
862.785	233
862.871	361
862.958	-553
863.045	-682
863.132	-569
863.219	-714
863.306	-1462
863.392	565
863.479	-50
863.566	-341
863.652	-261
863.739	-1481
863.826	-538
863.912	-125
863.999	-815
864.086	304
864.172	-255
864.259	-353
864.345	-1213
864.432	-138
864.518	-41
864.604	-385
864.691	-1297
864.777	-71
864.863	-334
864.950	828
865.036	-292
865.122	696
865.209	358
865.295	707
865.381	654
865.467	1560
865.553	2570
865.639	3400
865.726	7131
865.812	16161
865.898	33548
865.984	51035
866.070	96680
866.156	98449
866.242	20749
866.328	3778
866.414	2066
866.499	1455
866.585	1891
866.671	1551
866.757	1409
866.843	1128
866.928	183
867.014	-115
867.100	552
867.186	580
867.271	-394
867.357	1111
867.442	701
867.528	1089
867.614	-73
867.699	-6
867.785	780
867.870	647
867.956	-171
868.041	1138
868.127	392
868.212	677
868.297	673
868.383	575
868.468	177
868.553	1556
868.639	1526
868.724	3344
868.809	2628
868.894	1043
868.979	-316
869.065	1058
869.150	-287
869.235	494
869.320	-233
869.405	454
869.490	-480
869.575	430
869.660	-643
869.745	1167
869.830	-407
869.915	-103
870.000	315
870.085	-405
870.169	-625
870.254	582
870.339	-778
870.424	-648
870.509	-997
870.593	344
870.678	-474
870.763	384
870.847	36
870.932	-29
871.016	268
871.101	-397
871.186	-97
871.270	108
871.355	-384
871.439	76
871.523	-723
871.608	-144
871.692	-183
871.777	569
871.861	12
871.945	-449
872.030	282
872.114	-356
872.198	-983
872.282	-740
872.367	99
872.451	-155
872.535	-576
872.619	614
872.703	-216
872.787	-474
872.871	-980
872.955	28
873.039	-954
873.123	-1281
873.207	-323
873.291	-236
873.375	-315
873.459	9
873.543	17
873.627	-727
873.711	-766
873.794	-325
873.878	-1001
873.962	-891
874.045	-1032
874.129	-375
874.137	-410
874.213	-764
874.245	-674
874.296	-522
874.352	-1075
874.380	-1357
874.460	-61
874.464	-8
874.547	-661
874.568	-487
874.631	11
874.676	-51
874.714	-99
874.784	542
874.798	665
874.881	42
874.892	-23
874.965	-433
874.999	-560
875.048	-767
875.107	-183
875.131	60
875.215	-55
875.215	-55
875.298	-101
875.323	-512
875.381	-1450
875.430	-550
875.465	32
875.538	-965
875.548	-1090
875.631	-413
875.646	-326
875.714	-6
875.753	-177
875.798	-253
875.861	-86
875.881	-71
875.964	-395
875.968	-354
876.047	451
876.076	255
876.130	-132
876.183	-243
876.213	-282
876.291	390
876.296	421
876.379	598
876.398	345
876.462	-335
876.506	-491
876.545	-688
876.613	-63
876.628	100
876.711	-95
876.721	21
876.794	822
876.828	308
876.877	-419
876.935	-65
876.960	84
877.043	90
877.043	90
877.125	451
877.150	380
877.208	128
877.258	640
877.291	1054
877.365	1062
877.374	1034
877.456	1067
877.472	880
877.539	446
877.579	455
877.622	202
877.687	227
877.704	289
877.787	838
877.794	771
877.869	108
877.901	336
877.952	686
878.008	378
878.034	226
878.115	472
878.117	477
878.199	-112
878.222	-105
878.282	-11
878.329	137
878.364	238
878.437	307
878.447	328
878.529	288
878.544	342
878.611	476
878.651	294
878.694	203
878.758	319
878.776	328
878.858	236
878.865	273
878.941	417
878.972	199
879.023	51
879.078	-246
879.105	-248
879.185	299
879.187	304
879.269	1091
879.292	819
879.351	-23
879.399	-211
879.433	-152
879.506	1
879.516	1
879.598	645
879.613	537
879.680	134
879.720	338
879.762	366
879.827	-107
879.844	-89
879.926	801
879.933	758
880.007	-233
880.040	-148
880.089	347
880.147	971
880.171	1207
880.253	2251
880.254	2253
880.335	2501
880.360	2809
880.417	4074
880.467	5654
880.499	6597
880.574	7802
880.580	7695
880.662	2443
880.680	1851
880.744	1091
880.787	632
880.825	305
880.893	477
880.907	481
880.989	222
881.000	278
881.070	886
881.106	524
881.152	34
881.213	543
881.233	626
881.315	-480
881.319	-455
881.396	759
881.426	717
881.478	348
881.532	602
881.559	818
881.639	241
881.641	225
881.722	540
881.745	528
881.803	797
881.852	794
881.885	530
881.958	-136
881.966	-147
882.047	962
882.064	840
882.129	463
882.171	786
882.210	1615
882.277	2811
882.291	2639
882.372	1560
882.383	1396
882.454	1201
882.489	914
882.535	599
882.596	712
882.616	846
882.697	966
882.702	977
882.778	751
882.808	649
882.859	438
882.914	225
882.940	414
883.020	928
883.021	931
883.102	767
883.127	738
883.183	968
883.233	990
883.264	938
883.339	1104
883.345	1095
883.426	99
883.445	152
883.507	1010
883.551	1221
883.587	1067
883.657	982
883.668	1050
883.749	906
883.763	975
883.830	564
883.869	284
883.910	432
883.975	668
883.991	684
884.072	769
884.081	741
884.152	705
884.187	886
884.233	1149
884.292	1109
884.314	973
884.394	452
884.398	436
884.475	476
884.504	407
884.555	477
884.610	666
884.636	677
884.716	615
884.716	621
884.797	725
884.821	670
884.877	829
884.927	1189
884.958	1219
885.033	1063
885.038	1028
885.118	186
885.139	73
885.199	933
885.244	1391
885.279	1180
885.350	1011
885.359	1041
885.439	994
885.456	922
885.520	311
885.561	224
885.600	647
885.667	1025
885.680	971
885.760	765
885.773	721
885.840	894
885.878	914
885.920	939
885.984	1152
886.000	1145
886.080	1115
886.089	1053
886.160	809
886.195	929
886.240	1421
886.300	1778
886.320	1616
886.400	1080
886.406	1032
886.480	1445
886.511	1744
886.560	1766
886.616	1470
886.640	1541
886.720	1676
886.722	1670
886.800	1015
886.827	899
886.879	1052
886.932	979
886.959	1056
887.038	1298
887.039	1308
887.119	1425
887.143	1447
887.198	1321
887.248	1207
887.278	1302
887.354	1389
887.358	1394
887.437	1280
887.459	1318
887.517	1264
887.564	1028
887.596	1053
887.669	1293
887.676	1275
887.755	828
887.774	742
887.835	1065
887.880	1307
887.914	1491
887.985	1649
887.994	1597
888.073	1178
888.090	1093
888.153	1474
888.195	1679
888.232	1523
888.300	1238
888.311	1305
888.391	1718
888.405	1792
888.470	1432
888.510	1181
888.549	1669
888.615	2539
888.628	2411
888.708	1459
888.720	1310
888.787	1404
888.825	1446
888.866	1293
888.930	1021
888.945	1186
889.024	2106
889.035	2213
889.103	1899
889.140	1695
889.182	1738
889.245	1836
889.261	1790
889.340	1503
889.349	1464
889.419	1842
889.454	2027
889.498	1904
889.559	1710
889.577	1729
889.656	1781
889.664	1782
889.735	1787
889.768	1777
889.814	1723
889.873	1641
889.978	1614
890.083	1910
890.187	1758
890.292	2002
890.397	1731
890.501	2301
890.606	1223
890.710	2481
890.815	1405
890.919	2048
891.024	2015
891.128	1724
891.233	1587
891.337	1848
891.442	2161
891.546	2144
891.650	1399
891.755	1478
891.859	3071
891.963	2074
892.068	2076
892.172	913
892.276	1085
892.380	1621
892.484	1700
892.589	1746
892.693	1682
892.797	1395
892.901	1422
893.005	2170
893.109	2019
893.213	1911
893.317	1687
893.421	1681
893.525	1638
893.629	1601
893.733	2218
893.837	2237
893.941	1422
894.045	1809
894.148	1448
894.252	1713
894.356	1189
894.460	2316
894.564	1770
894.667	2413
894.771	2058
894.875	1295
894.978	1716
895.082	1921
895.186	1975
895.289	2514
895.393	1225
895.496	2689
895.600	1036
895.703	1368
895.807	1454
895.910	2522
896.014	1688
896.117	1071
896.221	1686
896.324	1881
896.427	1470
896.531	2125
896.634	1403
896.737	1642
896.840	1142
896.944	2638
897.047	1649
897.150	1971
897.253	1432
897.356	1805
897.460	1223
897.563	1600
897.666	1843
897.769	1962
897.872	1359
897.975	1555
898.078	838
898.181	886
898.284	1141
898.387	1923
898.490	1665
898.593	1045
898.695	1392
898.798	2097
898.901	2593
899.004	1862
899.107	554
899.209	1741
899.312	1054
899.415	2161
899.518	1405
899.620	1582
899.723	1509
899.826	3496
899.928	3439
900.031	1661
900.133	1226
900.236	1650
900.338	1099
900.441	2357
900.543	423
900.646	1023
900.748	1738
900.851	1724
900.953	1188
901.055	1820
901.158	1413
901.260	2094
901.362	910
901.465	1178
901.567	1841
901.669	1897
901.771	1383
901.873	998
901.976	1223
902.078	2149
902.180	600
902.282	1720
902.384	1117
902.486	1765
902.588	2235
902.690	3469
902.792	1930
902.894	2452
902.996	738
903.098	1143
903.200	1790
903.302	1702
903.404	1428
903.505	1126
903.607	1679
903.709	1899
903.811	1326
903.913	2107
904.014	892
904.116	1209
904.218	1949
904.319	1100
904.421	1403
904.523	1567
904.624	1337
904.726	1633
904.827	1254
904.929	1416
905.030	838
905.132	1921
905.233	1184
905.335	1395
905.436	913
905.537	1180
905.639	1320
905.740	2052
905.841	1622
905.943	1671
906.044	713
906.145	1512
906.247	1660
906.348	1567
906.449	1583
906.550	1508
906.651	1301
906.752	1442
906.854	728
906.955	1304
907.056	842
907.157	1635
907.258	1680
907.359	1385
907.460	611
907.561	1117
907.662	1057
907.762	2722
907.863	326
907.964	1349
908.065	1575
908.166	1221
908.267	1152
908.367	1494
908.468	1032
908.569	714
908.670	2432
908.770	3264
908.871	2457
908.971	3061
909.072	3513
909.173	1163
909.273	587
909.374	801
909.474	1153
909.575	1541
909.675	1633
909.776	1293
909.876	1505
909.977	1951
910.077	1466
910.177	1920
910.278	950
910.378	639
910.478	960
910.579	945
910.679	1218
910.779	1504
910.879	1545
910.980	1484
911.080	1072
911.180	1187
911.280	528
911.380	618
911.480	941
911.580	1828
911.680	1401
911.780	2682
911.880	1165
911.980	1178
912.080	165
912.180	2124
912.280	1346
912.380	1573
912.480	642
912.580	1139
912.679	653
912.779	1625
912.879	1428
912.979	552
913.078	537
913.178	114
913.278	1313
913.377	1550
913.477	565
913.577	758
913.676	1073
913.776	1226
913.875	1106
913.975	1473
914.074	798
914.174	715
914.273	308
914.373	1629
914.472	485
914.572	1448
914.671	903
914.770	873
914.870	921
914.969	1779
915.068	780
915.167	1289
915.267	781
915.366	962
915.465	702
915.564	487
915.663	1660
915.763	1533
915.862	1426
915.961	1475
916.060	421
916.159	1248
916.258	1143
916.357	1941
916.456	1728
916.555	1869
916.654	1555
916.752	1686
916.851	1555
916.950	1392
917.049	1008
917.148	996
917.247	1876
917.345	1888
917.444	855
917.543	1236
917.642	738
917.740	484
917.839	773
917.937	1517
918.036	806
918.135	1835
918.233	1069
918.332	1190
918.430	733
918.529	1554
918.627	857
918.726	760
918.824	1129
918.923	1084
919.021	25
919.119	841
919.218	653
919.316	1383
919.414	247
919.512	1136
919.611	892
919.709	916
919.807	539
919.905	781
920.003	1120
920.102	1157
920.200	-35
920.298	770
920.396	879
920.494	1352
920.592	421
920.690	1213
920.788	1162
920.886	853
920.984	1574
921.082	1167
921.180	1888
921.277	1760
921.375	1162
921.473	1840
921.571	1477
921.669	1655
921.766	1224
921.864	1503
921.962	1332
922.060	753
922.157	1669
922.255	1998
922.352	997
922.450	1300
922.548	1917
922.645	1225
922.743	1406
922.840	3376
922.938	3043
923.035	2746
923.133	2208
923.230	2881
923.327	3162
923.425	3422
923.522	3178
923.619	2248
923.717	1908
923.814	2401
923.911	1815
924.008	3222
924.106	2208
924.203	2049
924.300	2729
924.397	2800
924.494	2957
924.591	4027
924.688	2626
924.786	2800
924.883	3483
924.979	2919
925.077	1543
925.173	2304
925.270	2649
925.367	2546
925.464	2813
925.561	2624
925.658	3632
925.755	4670
925.852	2535
925.948	2501
926.045	2138
926.142	2580
926.239	3088
926.335	3366
926.432	2300
926.529	2920
926.625	2499
926.722	2566
926.818	2539
926.915	2621
927.011	2153
927.108	3505
927.204	1930
927.301	2905
927.397	2035
927.494	2479
927.590	2318
927.687	2583
927.783	2671
927.879	2641
927.976	2022
928.072	2185
928.168	2219
928.264	2067
928.361	1914
928.457	2272
928.553	1953
928.649	2992
928.745	2098
928.841	2846
928.937	2720
929.033	2522
929.129	2196
929.225	1948
929.321	1778
929.417	2084
929.513	2169
929.609	2119
929.705	1352
929.801	2302
929.897	1915
929.993	1717
930.089	1436
930.184	2306
930.280	2087
930.376	2309
930.471	1526
930.567	2049
930.663	2263
930.758	2348
930.854	1773
930.950	1331
931.045	1419
931.141	1878
931.236	2591
931.332	2156
931.427	1429
931.523	2954
931.618	1808
931.714	1987
931.809	2261
931.905	3021
932.000	937
932.095	1675
932.191	2679
932.286	2355
932.381	2015
932.476	1357
932.572	1347
932.667	2012
932.762	1315
932.857	1738
932.952	1625
933.047	1882
933.142	1106
933.237	1691
933.332	1401
933.427	2507
933.522	760
933.617	1973
933.712	1695
933.807	1774
933.902	2180
933.997	1917
934.092	1223
934.187	1856
934.282	2581
934.376	2572
934.471	1933
934.566	1780
934.661	1811
934.755	1361
934.850	1695
934.945	1781
935.039	1210
935.134	1925
935.228	1621
935.323	2832
935.417	758
935.512	1999
935.606	1164
935.701	1118
935.795	1429
935.890	740
935.984	2224
936.079	624
936.173	2540
936.267	1900
936.362	1039
936.456	1867
936.550	1680
936.644	1591
936.738	1332
936.833	1378
936.927	1418
937.021	1718
937.115	1808
937.209	860
937.303	2107
937.397	1668
937.491	1128
937.585	1580
937.679	699
937.773	1514
937.867	915
937.961	1926
938.055	1693
938.149	1999
938.243	1359
938.337	1512
938.430	1204
938.524	1939
938.618	1327
938.712	1428
938.805	1508
938.899	1434
938.993	1068
939.086	472
939.180	783
939.274	2104
939.367	1744
939.461	1400
939.554	593
939.648	1265
939.741	1022
939.835	1512
939.928	1120
940.022	1305
940.115	1806
940.208	1610
940.302	1076
940.395	1695
940.488	430
940.582	1534
940.675	796
940.768	1106
940.861	1080
940.954	2337
941.048	667
941.141	1370
941.234	1936
941.327	1008
941.420	2021
941.513	2129
941.606	574
941.699	1925
941.792	1153
941.885	1493
941.978	1888
942.071	2047
942.164	175
942.257	1332
942.349	1034
942.442	1905
942.535	511
942.628	646
942.721	960
942.813	782
942.906	1237
942.999	1479
943.091	628
943.184	1070
943.277	-316
943.369	989
943.462	240
943.554	1109
943.647	487
943.739	1306
943.832	1315
943.924	507
944.017	816
944.109	886
944.201	1073
944.294	1910
944.386	1030
944.478	430
944.571	522
944.663	1846
944.755	802
944.847	1445
944.940	260
945.032	675
945.124	477
945.216	1635
945.308	674
945.400	1681
945.492	775
945.584	1823
945.676	501
945.768	784
945.860	687
945.952	1554
946.044	933
946.136	619
946.228	175
946.320	736
946.412	875
946.503	19
946.595	581
946.687	924
946.779	423
946.870	465
946.962	387
947.054	1195
947.145	853
947.237	1357
947.329	730
947.420	798
947.512	1215
947.603	497
947.695	1249
947.786	757
947.878	-231
947.969	879
948.061	552
948.152	94
948.243	934
948.335	1165
948.426	875
948.517	866
948.609	1398
948.700	841
948.791	99
948.882	138
948.973	290
949.065	1540
949.156	1061
949.247	-196
949.338	266
949.429	-117
949.520	733
949.611	329
949.702	48
949.793	748
949.884	233
949.975	644
950.066	140
950.157	13
950.247	252
950.338	561
950.429	870
950.520	1836
950.611	1274
950.701	972
950.792	1054
950.883	1302
950.973	846
951.064	1625
951.155	518
951.245	1290
951.336	967
951.427	244
951.517	652
951.608	1051
951.698	522
951.788	767
951.879	-59
951.969	-1050
952.060	449
952.150	420
952.240	719
952.331	-897
952.421	1268
952.511	58
952.602	-26
952.692	1208
952.782	617
952.872	54
952.962	87
953.052	491
953.143	-167
953.233	722
953.323	1117
953.413	566
953.503	57
953.593	492
953.683	125
953.773	-203
953.863	-193
953.953	698
954.042	541
954.132	663
954.222	1340
954.312	566
954.402	429
954.492	2705
954.581	5022
954.671	1776
954.761	-544
954.850	1174
954.940	28
955.030	908
955.119	-704
955.209	351
955.298	857
955.388	931
955.477	898
955.567	-81
955.656	396
955.746	1658
955.835	186
955.925	1163
956.014	337
956.103	92
956.193	377
956.282	187
956.371	331
956.461	613
956.550	-195
956.639	441
956.728	-100
956.817	848
956.906	-689
956.995	666
957.085	-945
957.174	935
957.263	-170
957.352	1093
957.441	74
957.530	104
957.619	456
957.708	-252
957.796	-114
957.885	809
957.974	-354
958.063	190
958.152	-331
958.241	420
958.329	-474
958.418	520
958.507	-277
958.596	1608
958.684	74
958.773	769
958.861	787
958.950	182
959.039	-256
959.127	420
959.216	449
959.304	-18
959.393	500
959.481	1060
959.570	520
959.658	356
959.746	627
959.835	3339
959.923	5959
960.011	2682
960.100	559
960.188	878
960.276	891
960.365	-821
960.453	-530
960.541	-246
960.629	431
960.717	206
960.805	18
960.893	554
960.981	-502
961.069	1375
961.158	-308
961.245	1174
961.333	191
961.421	497
961.509	23
961.597	880
961.685	-58
961.773	451
961.861	-358
961.949	1191
962.036	-91
962.124	1409
962.212	-126
962.299	640
962.387	-737
962.475	743
962.562	-669
962.650	950
962.738	825
962.825	-321
962.913	247
963.000	783
963.088	637
963.175	586
963.263	735
963.350	737
963.438	576
963.525	1953
963.612	4882
963.700	14980
963.787	30181
963.874	13949
963.962	1017
964.049	1043
964.136	510
964.223	305
964.310	93
964.398	647
964.485	998
964.572	2555
964.659	4729
964.746	4386
964.833	632
964.920	-328
965.007	-33
965.094	1255
965.181	191
965.268	1158
965.355	-371
965.441	32
965.528	-400
965.615	1082
965.702	303
965.789	395
965.875	86
965.962	826
966.049	-82
966.136	1038
966.222	-161
966.309	1151
966.395	-316
966.482	2020
966.569	-39
966.655	298
966.742	-380
966.828	-193
966.915	-140
967.001	261
967.087	-256
967.174	931
967.260	2103
967.347	4683
967.433	11091
967.519	20183
967.605	6180
967.692	599
967.778	197
967.864	493
967.950	-200
968.036	-390
968.123	410
968.209	377
968.295	-479
968.381	967
968.467	683
968.553	-94
968.639	509
968.725	324
968.811	3629
968.897	2863
968.983	178
969.069	145
969.154	59
969.240	1067
969.326	-209
969.412	44
969.497	-652
969.583	-102
969.669	887
969.755	301
969.840	-608
969.926	1747
970.012	292
970.097	887
970.183	1288
970.268	1307
970.354	2703
970.439	6115
970.525	13543
970.610	3623
970.696	866
970.781	-508
970.866	-293
970.952	90
971.037	-409
971.122	373
971.208	301
971.293	-455
971.378	-828
971.463	-315
971.549	-126
971.634	639
971.719	1257
971.804	1096
971.889	1448
971.974	487
972.059	-1320
972.144	121
972.229	-353
972.314	21
972.399	-13
972.484	64
972.569	1490
972.654	1075
972.739	6007
972.824	7114
972.908	1598
972.993	-366
973.078	346
973.163	28
973.247	586
973.332	-1350
973.417	556
973.501	-581
973.586	55
973.671	318
973.755	-688
973.840	1434
973.924	1263
974.009	595
974.093	259
974.178	3265
974.262	4699
974.346	5141
974.431	1198
974.515	550
974.600	516
974.684	-16
974.768	-658
974.852	1105
974.937	-1755
975.021	1164
975.105	-831
975.189	382
975.273	525
975.358	-27
975.442	-450
975.526	1148
975.610	-850
975.694	-1365
975.778	492
975.862	-231
975.946	-1700
976.030	1110
976.114	-1129
976.198	-210
976.281	-276
976.365	81
976.449	-130
976.533	512
976.617	-599
976.700	653
976.784	120
976.868	766
976.951	2511
977.035	1995
977.119	-1164
977.202	-400
977.286	-387
977.369	327
977.453	536
977.536	-203
977.620	-1239
977.703	767
977.787	-490
977.870	6
977.953	629
978.037	-514
978.120	1433
978.203	3746
978.287	6245
978.370	3244
978.453	85
978.536	-105
978.620	1579
978.703	4727
978.786	883
978.869	-409
978.952	-1119
979.035	1083
979.118	-283
979.201	-935
979.284	-495
979.367	-592
979.450	-335
979.533	-861
979.616	-900
979.699	-1387
979.782	-901
979.865	-540
979.948	-626
980.030	-657
980.113	-530
980.196	-1323
980.279	-336
980.361	-78
980.444	-92
980.526	-6
980.609	-601
980.692	-1004
980.774	7
980.857	-1426
980.939	259
981.022	-424
981.104	-953
981.187	-757
981.269	-899
981.352	-176
981.434	-1361
981.516	-1104
981.599	425
981.681	-1174
981.763	-402
981.846	-550
981.928	-661
982.010	-607
982.092	-802
982.174	-346
982.256	-1926
982.339	-302
982.421	-1356
982.503	232
982.585	-1282
982.667	-857
982.749	-1124
982.831	409
982.913	-1372
982.995	-12
983.077	-1022
983.158	1541
983.240	-1485
983.322	335
983.404	-346
983.486	-291
983.568	-91
983.649	3
983.731	-262
983.813	-605
983.894	-1145
983.976	-879
984.058	-1686
984.139	456
984.221	-1477
984.302	-886
984.384	-673
984.465	-1191
984.547	-631
984.628	-1067
984.710	-628
984.791	-142
984.872	-840
984.954	-975
985.035	-1288
985.116	-885
985.198	-1736
985.279	620
985.360	-1087
985.441	-1385
985.522	-432
985.604	-708
985.685	-2129
985.766	237
985.847	26
985.928	-1451
986.009	-763
986.090	-538
986.171	-556
986.252	-968
986.333	-178
986.414	-992
986.495	-318
986.576	-245
986.656	-262
986.737	-807
986.818	-1037
986.899	-1065
986.980	-1110
987.060	18
987.141	-327
987.222	-201
987.302	-817
987.383	-435
987.464	-521
987.544	-341
987.625	-505
987.705	-158
987.786	-1185
987.866	-510
987.947	-720
988.027	-365
988.108	-1555
988.188	28
988.268	-747
988.349	-1231
988.429	-1369
988.509	-337
988.589	-1103
988.670	-2409
988.750	34
988.830	-391
988.910	-1907
988.990	-651
989.070	-1540
989.151	-702
989.231	-1777
989.311	-170
989.391	-1377
989.471	-469
989.551	-2071
989.631	-973
989.711	-1147
989.791	-812
989.870	-1796
989.950	226
990.030	-893
990.110	-390
990.190	-1058
990.269	-1786
990.349	-401
990.429	-768
990.509	-484
990.588	-1816
990.668	-459
990.747	-1393
990.827	-1168
990.907	-463
990.986	-1395
991.066	-10
991.145	-996
991.225	-276
991.304	-2294
991.383	-578
991.463	-1695
991.542	-1179
991.622	-1008
991.701	-1123
991.780	-1642
991.859	-354
991.939	-1075
992.018	-779
992.097	-1320
992.176	-688
992.256	-707
992.335	-1163
992.414	-764
992.493	-711
992.572	-1055
992.651	242
992.730	-1093
992.809	-904
992.888	-1830
992.967	-1547
993.046	-1085
993.125	-1438
993.203	-816
993.282	-541
993.361	-963
993.440	-760
993.519	-1716
993.597	-548
993.676	-979
993.755	325
993.834	-1605
993.912	-1791
993.991	-1791
994.069	-1689
994.148	-1551
994.226	-1344
994.305	-1779
994.384	-1196
994.462	-1389
994.540	-941
994.619	-1571
994.697	-544
994.776	-2060
994.854	-1154
994.932	-1994
995.011	-980
995.089	-1458
995.167	-932
995.245	-848
995.324	-1073
995.402	-1352
995.480	-1629
995.558	-880
995.636	-1868
995.714	-1753
995.792	-490
995.870	-1277
995.948	-1163
996.026	-1235
996.104	-2163
996.182	144
996.260	-994
996.338	-820
996.416	-2017
996.494	-1436
996.572	-99
996.649	-1827
996.727	-1744
996.805	-1309
996.883	-1760
996.960	-2031
997.038	-689
997.116	-849
997.193	-1403
997.271	-762
997.348	-1556
997.426	-845
997.504	-1890
997.581	-1110
997.658	-378
997.736	-1936
997.813	-1782
997.891	-1098
997.968	-1609
998.046	-638
998.123	-777
998.200	-1741
998.277	-2597
998.355	-701
998.432	-1600
998.509	-1211
998.586	-893
998.663	-2246
998.741	-1416
998.818	-2200
998.895	-1118
998.972	-1032
999.049	-1933
999.126	-2437
999.203	-1018
999.280	-2119
999.357	-1553
999.434	-1633
999.511	-1040
999.587	-703
999.664	-1717
999.741	-1257
999.818	333
999.895	-1565
999.971	-1437
1000.048	-1937
1000.125	-165
1000.202	-925
1000.278	-464
1000.355	-1139
1000.431	-1353
1000.508	-2304
1000.584	-1648
1000.661	-879
1000.738	-2575
1000.814	-1394
1000.890	-970
1000.967	-2439
1001.043	-474
1001.120	-1900
1001.196	-1013
1001.272	-2051
1001.349	-710
1001.425	-1256
1001.501	-1662
1001.577	-2085
1001.654	-686
1001.730	-1931
1001.806	-1234
1001.882	-2265
1001.958	-1775
1002.034	-1257
1002.110	-1136
1002.186	-1561
1002.262	-2051
1002.338	-2341
1002.414	-979
1002.490	-1611
1002.566	-1243
1002.642	-1255
1002.718	-92
1002.794	-1395
1002.870	-1626
1002.945	-1114
1003.021	-1658
1003.097	-2218
1003.173	-773
1003.248	-1306
1003.324	-570
1003.400	-1650
1003.475	-1947
1003.551	-1428
1003.626	-986
1003.702	-1914
1003.777	-1371
1003.853	-1119
1003.928	-1600
1004.004	-1298
1004.079	-824
1004.155	-1757
1004.230	-1982
1004.305	-765
1004.381	-1749
1004.456	-1335
1004.531	-1601
1004.607	-1537
1004.682	-1769
1004.757	-1889
1004.832	-1527
1004.907	-2211
1004.982	-1186
1005.057	-818
1005.133	-1905
1005.208	-1591
1005.283	-1362
1005.358	-932
1005.433	-2239
1005.508	-1016
1005.583	-2336
1005.657	-1720
1005.732	157
1005.807	-1722
1005.882	-1740
1005.957	-1034
1006.032	-998
1006.106	-1576
1006.181	-806
1006.256	-1487
1006.331	-1886
1006.405	-1071
1006.480	-528
1006.554	-1801
1006.629	-765
1006.704	-1800
1006.778	-1210
1006.853	-852
1006.927	-2126
1007.002	-1996
1007.076	-448
1007.150	-1585
1007.225	-1682
1007.299	-1856
1007.373	-1871
1007.448	-1759
1007.522	-528
1007.596	-1018
1007.671	-1392
1007.745	-1877
1007.819	-1760
1007.893	-1622
1007.967	-1328
1008.041	-2508
1008.115	-1229
1008.190	-2592
1008.264	-1396
1008.338	-2203
1008.412	-1635
1008.486	-1564
1008.560	-1690
1008.633	-2539
1008.707	-1718
1008.781	-556
1008.855	-1618
1008.929	-1877
1009.003	-1748
1009.076	-2062
1009.150	-1624
1009.224	-1190
1009.298	-1407
1009.371	-2490
1009.445	-360
1009.519	-1587
1009.592	-2023
1009.666	-1249
1009.739	-945
1009.813	-2407
1009.886	-894
1009.960	-3365
1010.033	-139
1010.107	-1453
1010.180	-1535
1010.253	-1679
1010.327	-1606
1010.400	-1693
1010.473	-1477
1010.547	-1348
1010.620	-1582
1010.693	-1231
1010.766	-2231
1010.840	-803
1010.913	-1889
1010.986	-2547
1011.059	-1368
1011.132	-2215
1011.205	-453
1011.278	-1944
1011.351	-1644
1011.424	-1525
1011.497	-2431
1011.570	-2425
1011.643	-1730
1011.716	-3074
1011.789	-1578
1011.862	-1689
1011.934	-891
1012.007	-2821
1012.080	-1392
1012.153	-2253
1012.225	-1021
1012.298	-2605
1012.371	-1201
1012.443	-1788
1012.516	-2412
1012.588	-1345
1012.661	-1317
1012.733	-2571
1012.806	-174
1012.879	-1815
1012.951	-1577
1013.023	-1885
1013.096	-1229
1013.168	-2102
1013.241	-1225
1013.313	-1950
1013.385	-1851
1013.458	-2182
1013.530	-1041
1013.602	-2302
1013.674	-1293
1013.746	-2411
1013.819	-1842
1013.891	-1070
1013.963	-1720
1014.035	-1898
1014.107	-1045
1014.179	-1889
1014.251	-1635
1014.323	-796
1014.395	-1305
1014.467	-1765
1014.539	-1240
1014.611	-2010
1014.683	-1160
1014.754	-2238
1014.826	-2714
1014.898	-2496
1014.970	-2197
1015.042	-1458
1015.113	-1817
1015.185	-1816
1015.257	-2535
1015.328	-2191
1015.400	-1696
1015.471	-1458
1015.543	-2551
1015.615	-2103
1015.686	-1709
1015.757	-2164
1015.829	-2109
1015.901	-3338
1015.972	-1368
1016.043	-2337
1016.115	-1782
1016.186	-2696
1016.257	-2019
1016.328	-2145
1016.400	-688
1016.471	-2717
1016.542	-2035
1016.613	-1997
1016.685	-1585
1016.756	-1510
1016.827	-2235
1016.898	-2451
1016.969	-928
1017.040	-1944
1017.111	-2002
1017.182	-2956
1017.253	-1263
1017.324	-524
1017.395	-1698
1017.466	-2340
1017.537	-1418
1017.608	-2829
1017.678	-1998
1017.749	-1703
1017.820	-2306
1017.891	-2044
1017.961	-1982
1018.032	-2677
1018.103	-2068
1018.173	-2284
1018.244	-2154
1018.315	-1976
1018.385	-962
1018.456	-1727
1018.526	-1938
1018.597	-2602
1018.667	-1661
1018.738	-2623
1018.808	-2023
1018.878	-1747
1018.949	-1682
1019.019	-2402
1019.089	-1628
1019.160	-1170
1019.230	-2404
1019.300	-1738
1019.371	-2581
1019.441	-1689
1019.511	-2041
1019.581	-2574
1019.651	-1034
1019.721	-2647
1019.791	-1581
1019.861	-2207
1019.931	-1436
1020.001	-2118
1020.071	-1372
1020.141	-3077
1020.211	-1480
1020.281	-1808
1020.351	-2181
1020.421	-2299
1020.491	-817
1020.560	-3476
1020.630	-1455
1020.700	-2113
1020.770	-1628
1020.839	-2673
1020.909	-1523
1020.979	-2188
1021.048	-2389
1021.118	-1766
1021.187	-2021
1021.257	-3117
1021.326	-1425
1021.396	-2976
1021.465	-2197
1021.535	-1740
1021.604	-1903
1021.674	-1566
1021.743	-1338
1021.812	-2779
1021.882	-2472
1021.951	-2096
1022.020	-1659
1022.089	-2214
1022.159	-2464
1022.228	-1825
1022.297	-2416
1022.366	-2905
1022.435	-2058
1022.504	-1783
1022.573	-1238
1022.642	-2248
1022.711	-1765
1022.781	-1979
1022.849	-1643
1022.918	-2374
1022.987	-1276
1023.056	-2042
1023.125	-2133
1023.194	-2030
1023.263	-2150
1023.331	-1509
1023.400	-1872
1023.469	-2519
1023.538	-2384
1023.606	-2695
1023.675	-2318
1023.744	-2301
1023.812	-2242
1023.881	-2210
1023.949	-1989
1024.018	-2192
1024.086	-1367
1024.155	-2211
1024.223	-2488
1024.292	-2642
1024.360	-2199
1024.429	-1854
1024.497	-2067
1024.565	-2242
1024.634	-1109
1024.702	-1995
1024.770	-1812
1024.838	-2763
1024.907	-1526
1024.975	-2232
1025.043	-2007
1025.111	-2640
1025.179	-2263
1025.247	-2152
1025.315	-2067
1025.383	-2427
1025.451	-1728
1025.519	-2145
1025.587	-2049
1025.655	-1559
1025.723	-2170
1025.791	-2272
1025.859	-1406
1025.927	-2291
1025.995	-2311
1026.062	-2622
1026.130	-2377
1026.198	-2589
1026.266	-2158
1026.333	-2559
1026.401	-1325
1026.469	-2045
1026.536	-2638
1026.604	-2483
1026.671	-1981
1026.739	-2210
1026.806	-1489
1026.874	-2685
1026.941	-1762
1027.009	-2295
1027.076	-2402
1027.144	-2164
1027.211	-1943
1027.278	-2202
1027.345	-1969
1027.413	-2566
1027.480	-2159
1027.547	-2295
1027.614	-1524
1027.682	-2183
1027.749	-1272
1027.816	-2685
1027.883	-1152
1027.950	-1506
1028.017	-2361
1028.084	-1849
1028.151	-2468
1028.218	-2703
1028.285	-1672
1028.352	-2325
1028.419	-2150
1028.486	-2823
1028.553	-1503
1028.619	-2971
1028.686	-1798
1028.753	-2633
1028.820	-2149
1028.886	-2210
1028.953	-1963
1029.020	-2087
1029.086	-1840
1029.153	-2285
1029.220	-2159
1029.286	-2720
1029.353	-1379
1029.419	-2863
1029.486	-2280
1029.552	-2574
1029.619	-1708
1029.685	-2805
1029.751	-2421
1029.818	-1858
1029.884	-2199
1029.951	-1186
1030.017	-2180
1030.083	-2040
1030.149	-1979
1030.216	-2843
1030.282	-1992
1030.348	-2507
1030.414	-2070
1030.480	-2007
1030.546	-1994
1030.612	-1799
1030.678	-1924
1030.744	-2247
1030.810	-1818
1030.876	-1979
1030.942	-2792
1031.008	-2340
1031.074	-2101
1031.140	-2576
1031.206	-2181
1031.272	-2599
1031.337	-1842
1031.403	-1556
1031.469	-2582
1031.534	-1500
1031.600	-1133
1031.666	-2874
1031.731	-2486
1031.797	-2459
1031.863	-3561
1031.928	-1852
1031.994	-2315
1032.059	-1972
1032.125	-2321
1032.190	-2542
1032.256	-2037
1032.321	-3080
1032.386	-2293
1032.452	-1823
1032.517	-2032
1032.582	-3351
1032.647	-1745
1032.713	-2077
1032.778	-1902
1032.843	-2146
1032.908	-1701
1032.974	-2473
1033.039	-1731
1033.104	-2101
1033.169	-2280
1033.234	-2417
1033.299	-1047
1033.364	-2067
1033.429	-1128
1033.494	-1266
1033.559	-1863
1033.624	-2100
1033.688	-1979
1033.753	-2202
1033.818	-1993
1033.883	-2555
1033.948	-2284
1034.013	-809
1034.077	-1564
1034.142	-2032
1034.207	-1249
1034.271	-1270
1034.336	-612
1034.400	-1996
1034.465	-1673
1034.530	-2049
1034.594	-2309
1034.658	-2561
1034.723	-1972
1034.787	-2416
1034.852	-2301
1034.916	-2328
1034.981	-2680
1035.045	-2717
1035.109	-2383
1035.173	-2336
1035.238	-2579
1035.302	-1795
1035.366	-2714
1035.430	-2539
1035.495	-2439
1035.559	-2407
1035.623	-1492
1035.687	-3291
1035.751	-2770
1035.815	-2384
1035.879	-2463
1035.943	-2888
1036.007	-2675
1036.071	-2849
1036.135	-2781
1036.198	-2704
1036.262	-2192
1036.326	-2665
1036.390	-1658
1036.454	-2719
1036.517	-2679
1036.581	-2329
1036.645	-2118
1036.709	-1735
1036.772	-2202
1036.836	-2303
1036.900	-2282
1036.963	-1990
1037.026	-2181
1037.090	-2127
1037.154	-2617
1037.217	-3367
1037.280	-2702
1037.344	-2779
1037.407	-2369
1037.471	-2199
1037.534	-1451
1037.597	-2074
1037.661	-2817
1037.724	-2457
1037.787	-2284
1037.850	-2812
1037.913	-2244
1037.977	-2740
1038.040	-1979
1038.103	-2875
1038.166	-1573
1038.229	-3140
1038.292	-2443
1038.355	-2503
1038.418	-2530
1038.481	-1538
1038.544	-2717
1038.607	-2629
1038.670	-2377
1038.732	-1989
1038.795	-2796
1038.858	-2636
1038.921	-2554
1038.984	-2334
1039.046	-2598
1039.109	-2451
1039.172	-2762
1039.234	-2598
1039.297	-1705
1039.360	-2557
1039.422	-2249
1039.485	-2650
1039.547	-2539
1039.610	-2770
1039.672	-1976
1039.734	-2075
1039.797	-2164
1039.859	-2066
1039.922	-2176
1039.984	-3000
1040.046	-2545
1040.109	-2857
1040.171	-2757
1040.233	-2398
1040.295	-2379
1040.358	-3301
1040.420	-2548
1040.482	-2454
1040.544	-2098
1040.606	-3137
1040.668	-2350
1040.730	-2262
1040.792	-1455
1040.854	-2352
1040.916	-1744
1040.978	-2836
1041.040	-2516
1041.102	-2415
1041.164	-2888
1041.225	-3359
1041.287	-3285
1041.349	-3533
1041.411	-3197
1041.472	-3338
1041.534	-2689
1041.596	-2968
1041.657	-2506
1041.719	-3665
1041.781	-2586
1041.842	-2876
1041.904	-2427
1041.965	-2912
1042.027	-1856
1042.088	-2391
1042.150	-3116
1042.211	-2493
1042.272	-1916
1042.334	-3022
1042.395	-3046
1042.456	-3090
1042.518	-2720
1042.579	-2402
1042.640	-2310
1042.701	-2920
1042.763	-3054
1042.824	-3360
1042.885	-3690
1042.946	-3550
1043.007	-2808
1043.068	-3001
1043.129	-2560
1043.190	-2743
1043.251	-2764
1043.312	-2659
1043.373	-2782
1043.434	-2287
1043.495	-2206
1043.556	-2460
1043.616	-2551
1043.677	-3203
1043.738	-2519
1043.799	-2817
1043.859	-2708
1043.920	-2735
1043.981	-2680
1044.041	-2805
1044.102	-2796
1044.162	-2379
1044.223	-3004
1044.284	-2421
1044.344	-2720
1044.405	-2894
1044.465	-2666
1044.525	-2984
1044.586	-2039
1044.646	-2368
1044.707	-2261
1044.767	-3082
1044.827	-2909
1044.887	-2729
1044.948	-1754
1045.008	-2272
1045.068	-3073
1045.128	-2797
1045.188	-3021
1045.249	-2189
1045.309	-2719
1045.369	-2376
1045.429	-2559
1045.489	-3436
1045.549	-2093
1045.609	-3646
1045.669	-3139
1045.729	-3313
1045.789	-2989
1045.848	-2551
1045.908	-2563
1045.968	-2497
1046.028	-2483
1046.088	-2458
1046.147	-1173
1046.207	-2087
1046.267	-3156
1046.326	-2748
1046.386	-2648
1046.446	-2398
1046.505	-2381
1046.565	-1759
1046.624	-1738
1046.684	-2226
1046.743	-2244
1046.803	-1326
1046.862	-1221
1046.922	0
