'Start Wavelength	183.907
'End Wavelength	1046.922
'Gate Delay	5.000
'Gate Width (ms)	1.050
'Laser Output Level	0.000
'X Position	0.000
'Y Position	0.000
'Z Position	0.000
'Grid Point Number	1.000
'Shot Number	100.000
183.907	618.000
183.977	126.000
184.047	339
184.116	638
184.186	-174
184.256	252
184.325	-478
184.395	-494
184.465	478
184.534	163
184.604	200
184.674	571
184.743	362
184.813	795
184.883	274
184.952	503
185.022	350
185.092	-328
185.161	275
185.231	342
185.301	266
185.370	907
185.440	-199
185.509	-96
185.579	38
185.649	664
185.718	179
185.788	243
185.857	-199
185.927	-102
185.996	-111
186.066	31
186.136	331
186.205	235
186.275	460
186.344	355
186.414	-718
186.483	-349
186.553	902
186.622	434
186.692	-755
186.761	502
186.831	-497
186.900	500
186.970	506
187.039	320
187.109	1548
187.178	731
187.248	126
187.317	431
187.387	-96
187.456	569
187.526	251
187.595	164
187.664	312
187.734	1198
187.803	286
187.873	176
187.942	980
188.012	877
188.081	604
188.150	388
188.220	827
188.289	908
188.358	380
188.428	1151
188.497	377
188.567	901
188.636	-393
188.705	99
188.775	293
188.844	259
188.913	698
188.983	-49
189.052	397
189.121	-76
189.191	410
189.260	995
189.329	-427
189.399	952
189.468	27
189.537	803
189.606	137
189.676	1450
189.745	403
189.814	916
189.883	-231
189.953	486
190.022	782
190.091	1595
190.161	1737
190.230	312
190.299	-63
190.368	8
190.437	490
190.507	584
190.576	-351
190.645	170
190.714	-926
190.783	422
190.853	372
190.922	820
190.991	-49
191.060	782
191.129	-62
191.198	835
191.268	231
191.337	671
191.406	1040
191.475	565
191.544	-179
191.613	74
191.682	108
191.752	986
191.821	681
191.890	249
191.959	379
192.028	185
192.097	142
192.166	164
192.235	149
192.304	1241
192.373	589
192.442	164
192.511	-290
192.580	594
192.650	313
192.719	264
192.788	202
192.857	1301
192.926	712
192.995	262
193.064	665
193.133	604
193.202	1022
193.271	929
193.340	910
193.409	1511
193.478	952
193.547	1446
193.615	1354
193.684	1919
193.753	1535
193.822	603
193.891	968
193.960	947
194.029	316
194.098	1243
194.167	68
194.236	476
194.305	-169
194.374	288
194.443	255
194.512	18
194.580	-41
194.649	1140
194.718	361
194.787	1224
194.856	747
194.925	567
194.994	358
195.062	1006
195.131	672
195.200	1017
195.269	1076
195.338	423
195.407	174
195.475	-346
195.544	1200
195.613	1623
195.682	-418
195.751	1500
195.819	1191
195.888	1372
195.957	1404
196.026	1195
196.094	774
196.163	359
196.232	1124
196.301	1143
196.369	1324
196.438	1380
196.507	525
196.576	729
196.644	886
196.713	231
196.782	145
196.850	943
196.919	430
196.988	1060
197.056	792
197.125	931
197.194	181
197.262	362
197.331	-347
197.400	596
197.468	557
197.537	46
197.606	827
197.674	1295
197.743	1556
197.812	1041
197.880	1178
197.949	948
198.017	1233
198.086	1377
198.155	651
198.223	1010
198.292	1473
198.360	885
198.429	716
198.497	671
198.566	1258
198.635	2221
198.703	1464
198.772	1320
198.840	2059
198.909	1287
198.977	158
199.046	469
199.114	1274
199.183	1634
199.251	335
199.320	476
199.388	584
199.457	752
199.525	813
199.594	783
199.662	952
199.731	315
199.799	421
199.867	1186
199.936	-307
200.004	1194
200.073	1364
200.141	799
200.210	216
200.278	1150
200.346	1033
200.415	1353
200.483	1001
200.552	932
200.620	1240
200.688	1204
200.757	181
200.825	1140
200.893	941
200.962	1003
201.030	598
201.098	851
201.167	627
201.235	916
201.303	959
201.372	898
201.440	393
201.508	1275
201.577	827
201.645	1382
201.713	311
201.781	1462
201.850	1265
201.918	553
201.986	426
202.055	1245
202.123	-128
202.191	1609
202.259	588
202.327	74
202.396	842
202.464	1442
202.532	1187
202.600	2786
202.669	1509
202.737	892
202.805	769
202.873	1221
202.941	524
203.009	842
203.078	1188
203.146	1335
203.214	883
203.282	553
203.350	784
203.418	804
203.487	771
203.555	1104
203.623	1070
203.691	1699
203.759	724
203.827	580
203.895	978
203.963	788
204.031	438
204.099	1316
204.168	1436
204.236	657
204.304	1472
204.372	1150
204.440	1147
204.508	1101
204.576	640
204.644	1175
204.712	38
204.780	1147
204.848	1106
204.916	125
204.984	1155
205.052	468
205.120	929
205.188	1354
205.256	1015
205.324	1312
205.392	1432
205.460	1684
205.528	1215
205.596	1140
205.664	575
205.732	1215
205.799	2609
205.867	3578
205.935	1583
206.003	1433
206.071	1255
206.139	1632
206.207	1024
206.275	1403
206.343	834
206.411	569
206.478	1507
206.546	1006
206.614	979
206.682	1435
206.750	1194
206.818	1597
206.885	1517
206.953	183
207.021	1656
207.089	1558
207.157	450
207.225	1760
207.292	1254
207.360	1519
207.428	943
207.496	1810
207.563	1240
207.631	441
207.699	858
207.767	1876
207.834	1171
207.902	2081
207.970	1167
208.038	1272
208.105	965
208.173	1138
208.241	2089
208.309	3318
208.376	1425
208.444	2367
208.512	1414
208.579	1023
208.647	1172
208.715	1928
208.782	657
208.850	1739
208.918	1520
208.985	2120
209.053	1302
209.120	2320
209.188	1465
209.256	1596
209.323	965
209.391	1993
209.459	2496
209.526	1559
209.594	1229
209.661	1763
209.729	1042
209.796	895
209.864	1768
209.932	1718
209.999	2437
210.067	2182
210.134	1280
210.202	1446
210.269	1831
210.337	1853
210.404	1341
210.472	1209
210.539	1788
210.607	1916
210.674	2330
210.742	1540
210.809	1684
210.877	2104
210.944	2103
211.012	1734
211.079	2599
211.146	1323
211.214	1344
211.281	2320
211.349	1810
211.416	1946
211.484	2151
211.551	2120
211.618	1915
211.686	2151
211.753	1676
211.821	2195
211.888	1724
211.955	2382
212.023	1242
212.090	2445
212.157	1610
212.225	2568
212.292	3309
212.359	5212
212.427	9290
212.494	5830
212.561	3110
212.629	2222
212.696	1667
212.763	2933
212.831	1946
212.898	3068
212.965	2052
213.032	2016
213.100	1780
213.167	2492
213.234	2437
213.301	1800
213.369	2730
213.436	2392
213.503	1756
213.570	2345
213.638	2159
213.705	2508
213.772	1921
213.839	2366
213.906	2373
213.973	2917
214.041	1787
214.108	2750
214.175	2478
214.242	2813
214.309	2731
214.376	2705
214.444	1816
214.511	1808
214.578	1851
214.645	2830
214.712	2448
214.779	1462
214.846	2211
214.913	3033
214.980	2593
215.048	3121
215.115	2656
215.182	2654
215.249	2037
215.316	1455
215.383	2198
215.450	1654
215.517	2120
215.584	2185
215.651	1554
215.718	2192
215.785	2754
215.852	2791
215.919	3562
215.986	3295
216.053	2563
216.120	2226
216.187	1889
216.254	2205
216.321	2044
216.388	2853
216.455	2638
216.522	2858
216.589	2568
216.656	4559
216.722	4291
216.789	3167
216.856	2961
216.923	2819
216.990	2898
217.057	3199
217.124	3125
217.191	3544
217.258	3404
217.324	3589
217.391	4229
217.458	3061
217.525	2787
217.592	2976
217.659	2303
217.725	3118
217.792	3401
217.859	3558
217.926	1818
217.993	2422
218.059	2252
218.126	2375
218.193	2706
218.260	1981
218.327	2427
218.393	2310
218.460	2046
218.527	2478
218.594	2595
218.660	3430
218.727	4240
218.794	2632
218.860	2152
218.927	2195
218.994	1821
219.061	1641
219.127	1819
219.194	3105
219.261	2134
219.327	2113
219.394	1927
219.461	699
219.527	1931
219.594	3605
219.661	2339
219.727	1771
219.794	1757
219.860	2210
219.927	2908
219.994	3797
220.060	4738
220.127	4102
220.193	3099
220.260	3779
220.326	4535
220.393	5043
220.460	5240
220.526	4665
220.593	4059
220.659	4218
220.726	3818
220.792	6916
220.859	6443
220.925	6785
220.992	8481
221.058	8672
221.125	9051
221.191	7454
221.258	3639
221.324	3477
221.391	3258
221.457	2838
221.524	3367
221.590	4222
221.657	7271
221.723	5793
221.789	5794
221.856	6088
221.922	3180
221.989	3764
222.055	2555
222.121	2712
222.188	4616
222.254	3031
222.321	2596
222.387	2845
222.453	2150
222.520	2685
222.586	2541
222.652	2581
222.719	1548
222.785	3426
222.851	1413
222.918	2813
222.984	2841
223.050	2878
223.116	1332
223.183	2398
223.249	1839
223.315	1305
223.382	1698
223.448	2220
223.514	1090
223.580	2474
223.647	1119
223.713	1572
223.779	2019
223.845	1755
223.911	1760
223.978	1347
224.044	2517
224.110	2185
224.176	2032
224.242	2155
224.309	1221
224.375	1797
224.441	1882
224.507	1489
224.573	1646
224.639	1583
224.705	1330
224.772	1389
224.838	2181
224.904	2359
224.970	2090
225.036	1866
225.102	1238
225.168	1950
225.234	2058
225.300	1960
225.366	2581
225.432	2236
225.499	2071
225.565	2433
225.631	2476
225.697	3072
225.763	2971
225.829	3747
225.895	4010
225.961	4554
226.027	4324
226.093	3479
226.159	5434
226.225	8457
226.291	11597
226.357	14359
226.423	9566
226.489	6861
226.554	5252
226.620	5344
226.686	5273
226.752	8652
226.818	12170
226.884	18402
226.950	16776
227.016	9240
227.082	6361
227.148	5103
227.214	5715
227.279	4653
227.345	3339
227.411	3441
227.477	3644
227.543	5995
227.609	5907
227.674	4081
227.740	3015
227.806	3239
227.872	2160
227.938	3770
228.003	4260
228.069	3008
228.135	2721
228.201	2244
228.267	1881
228.332	2557
228.398	3029
228.464	3626
228.530	1998
228.595	2843
228.661	1794
228.727	4080
228.792	2961
228.858	2042
228.924	1622
228.990	3644
229.055	2217
229.121	2815
229.187	1983
229.252	2638
229.318	2420
229.384	2477
229.449	2898
229.515	760
229.581	264
229.646	3358
229.712	2804
229.777	4704
229.843	4322
229.909	4861
229.974	4752
230.040	4096
230.105	3845
230.171	4476
230.236	4957
230.302	6426
230.368	4397
230.433	3367
230.499	3622
230.564	3877
230.630	2784
230.695	3343
230.761	3384
230.826	2324
230.892	4209
230.957	3368
231.023	3088
231.088	2316
231.154	2707
231.219	3200
231.284	3117
231.350	4009
231.415	2903
231.481	3524
231.546	2785
231.612	3262
231.677	2796
231.742	2111
231.808	2862
231.873	1978
231.939	927
232.004	4252
232.069	4366
232.135	2509
232.200	2578
232.265	2566
232.331	1879
232.396	2160
232.461	1585
232.527	2391
232.592	1890
232.657	2354
232.723	2558
232.788	2100
232.853	3532
232.918	2495
232.984	1465
233.049	1877
233.114	2541
233.179	3070
233.245	3521
233.310	2674
233.375	1501
233.440	1994
233.506	1553
233.571	2686
233.636	1893
233.701	2396
233.766	2117
233.832	2962
233.897	1442
233.962	2172
234.027	2499
234.092	2977
234.157	1998
234.222	2742
234.288	2863
234.353	5245
234.418	5062
234.483	4965
234.548	3351
234.613	3961
234.678	4523
234.743	4485
234.808	6954
234.873	4475
234.938	3890
235.004	3477
235.069	3500
235.134	3413
235.199	3086
235.264	3255
235.329	2749
235.394	3751
235.459	3652
235.524	2703
235.589	3155
235.654	3395
235.719	2207
235.784	3445
235.849	3443
235.913	3022
235.978	4571
236.043	4147
236.108	3205
236.173	3126
236.238	3476
236.303	3314
236.368	3192
236.433	4399
236.498	4902
236.563	6199
236.627	10682
236.692	26589
236.757	22233
236.822	11363
236.887	7766
236.952	7280
237.017	5083
237.081	6511
237.146	8021
237.211	15142
237.276	27625
237.341	35779
237.405	20831
237.470	11994
237.535	7378
237.600	6059
237.664	5050
237.729	4469
237.794	5291
237.859	8249
237.923	6397
237.988	4119
238.053	5442
238.118	4163
238.182	8301
238.247	6895
238.312	3752
238.376	4537
238.441	1907
238.506	4601
238.570	1892
238.635	4471
238.700	2921
238.764	2276
238.829	4472
238.893	4575
238.958	4506
239.023	4852
239.087	2545
239.152	4121
239.216	2311
239.281	2937
239.346	3137
239.410	2992
239.475	2654
239.539	7034
239.604	4835
239.668	3115
239.733	3242
239.797	4200
239.862	9301
239.926	7129
239.991	3692
240.055	3090
240.120	3197
240.184	2726
240.249	2386
240.313	3202
240.378	2313
240.442	4992
240.507	6527
240.571	3571
240.635	3348
240.700	4810
240.764	2853
240.829	2283
240.893	2022
240.957	2943
241.022	5126
241.086	5771
241.151	2815
241.215	1547
241.279	3227
241.344	3381
241.408	4809
241.472	3897
241.537	6187
241.601	5134
241.665	3521
241.730	4173
241.794	4088
241.858	4526
241.922	4504
241.987	4830
242.051	3099
242.115	2919
242.179	3953
242.244	4311
242.308	4613
242.372	3908
242.436	3600
242.501	4543
242.565	3641
242.629	3191
242.693	3771
242.757	3018
242.822	2761
242.886	3970
242.950	4679
243.014	3479
243.078	4685
243.142	4382
243.206	3189
243.271	4839
243.335	4444
243.399	6848
243.463	18988
243.527	35579
243.591	12574
243.655	7196
243.719	4161
243.783	5663
243.847	8098
243.911	8078
243.975	9572
244.040	5439
244.104	5903
244.168	4091
244.232	5057
244.296	6521
244.360	7580
244.424	4132
244.488	4188
244.552	4325
244.615	2351
244.679	3978
244.743	3663
244.807	4649
244.871	3456
244.935	3331
244.999	1907
245.063	2850
245.127	4103
245.191	5643
245.255	5193
245.319	5017
245.383	2880
245.446	4767
245.510	2024
245.574	3245
245.638	3659
245.702	2900
245.766	8226
245.829	5111
245.893	3220
245.957	3775
246.021	4510
246.085	3554
246.149	3941
246.212	11624
246.276	14679
246.340	7472
246.404	4695
246.467	6248
246.531	7121
246.595	5662
246.659	4618
246.722	4270
246.786	5906
246.850	6170
246.913	7780
246.977	3501
247.041	3689
247.104	4734
247.168	5152
247.232	11256
247.295	19969
247.359	9427
247.423	5684
247.486	8238
247.550	6143
247.614	4444
247.677	5352
247.741	4413
247.804	3262
247.868	5153
247.932	8512
247.995	18637
248.059	6547
248.122	4059
248.186	6765
248.249	10688
248.313	30209
248.376	30931
248.440	19826
248.503	8582
248.567	8148
248.630	9659
248.694	13306
248.757	17879
248.821	31885
248.884	21127
248.948	20071
249.011	26428
249.075	36707
249.138	30670
249.202	14575
249.265	9409
249.328	9008
249.392	7643
249.455	7893
249.519	6373
249.582	6613
249.645	11067
249.709	7115
249.772	7212
249.835	6761
249.899	6693
249.962	6018
250.025	6113
250.089	14197
250.152	16253
250.215	8881
250.279	6705
250.342	7635
250.405	7589
250.468	7055
250.532	8711
250.595	14074
250.658	38452
250.721	53591
250.785	24736
250.848	15725
250.911	9483
250.974	8993
251.038	11574
251.101	20881
251.164	11855
251.227	12085
251.290	11834
251.354	18007
251.417	51916
251.480	48895
251.543	43499
251.606	78319
251.669	63602
251.732	32787
251.795	31920
251.859	32671
251.922	56078
251.985	34548
252.048	17587
252.111	12099
252.174	13020
252.237	21098
252.300	38390
252.363	41824
252.426	64789
252.489	31373
252.552	16522
252.615	12102
252.678	14547
252.741	29301
252.804	40807
252.867	69520
252.930	45142
252.993	25540
253.056	16353
253.119	11279
253.182	9389
253.245	13570
253.308	11747
253.371	8733
253.434	8370
253.497	8978
253.559	17050
253.622	12252
253.685	12545
253.748	11939
253.811	7275
253.874	7890
253.937	8144
254.000	6884
254.062	13188
254.125	18718
254.188	16017
254.251	12284
254.314	7041
254.376	11744
254.439	12355
254.502	9704
254.565	12615
254.628	21032
254.690	10214
254.753	5379
254.816	6020
254.878	6390
254.941	13539
255.004	12331
255.067	5741
255.129	5960
255.192	3959
255.255	2710
255.317	5269
255.380	3076
255.443	2836
255.505	2057
255.568	3001
255.631	2465
255.693	4015
255.756	2258
255.819	3667
255.881	2108
255.944	2599
256.006	3168
256.069	2704
256.132	2707
256.194	4444
256.257	5575
256.319	5002
256.382	4466
256.444	5675
256.507	4574
256.569	5182
256.632	4864
256.694	7613
256.757	19120
256.819	46708
256.882	21031
256.944	10045
257.007	8140
257.069	7668
257.132	5498
257.194	6366
257.257	3702
257.319	5299
257.381	5618
257.444	15484
257.506	52539
257.569	54046
257.631	22890
257.693	13783
257.756	7923
257.818	6110
257.880	5455
257.943	5518
258.005	4800
258.067	4447
258.130	3997
258.192	5058
258.254	7185
258.317	5869
258.379	5233
258.441	10593
258.503	9950
258.566	7762
258.628	8727
258.690	4713
258.753	5539
258.815	8176
258.877	5511
258.939	5044
259.001	5493
259.064	5060
259.126	4208
259.188	6356
259.250	4971
259.312	5521
259.375	7177
259.437	6268
259.499	4600
259.561	3868
259.623	4371
259.685	4272
259.747	4056
259.809	7428
259.872	11190
259.934	19661
259.996	19895
260.058	8097
260.120	3718
260.182	3939
260.244	3075
260.306	3465
260.368	3642
260.430	3037
260.492	7447
260.554	10357
260.616	5410
260.678	13225
260.740	12240
260.802	4641
260.864	4870
260.926	3163
260.988	4342
261.050	4066
261.112	11159
261.174	17217
261.236	9443
261.298	5225
261.359	6702
261.421	7961
261.483	3950
261.545	4492
261.607	2223
261.669	3229
261.731	4740
261.793	10494
261.854	5843
261.916	5541
261.978	4408
262.040	4486
262.102	3306
262.164	3787
262.225	4160
262.287	3865
262.349	8764
262.411	6554
262.472	4245
262.534	3491
262.596	5560
262.658	3544
262.719	2012
262.781	3526
262.843	4816
262.904	3684
262.966	4299
263.028	5391
263.090	20009
263.151	45191
263.213	17299
263.275	11933
263.336	5109
263.398	4311
263.459	2432
263.521	3691
263.583	8477
263.644	6429
263.706	2278
263.767	2360
263.829	2385
263.891	2519
263.952	1881
264.014	2067
264.075	5016
264.137	12116
264.198	5747
264.260	2622
264.321	2536
264.383	8567
264.444	17802
264.506	5416
264.567	4991
264.629	8854
264.690	14475
264.752	7060
264.813	4406
264.875	2924
264.936	2745
264.998	3233
265.059	2834
265.120	4309
265.182	5921
265.243	25507
265.305	25808
265.366	6926
265.427	3714
265.489	4339
265.550	2431
265.611	4394
265.673	2739
265.734	3306
265.795	2913
265.857	1684
265.918	3309
265.979	8720
266.040	40788
266.102	34509
266.163	11147
266.224	8017
266.286	4954
266.347	3295
266.408	3325
266.469	3556
266.530	2391
266.592	2221
266.653	6584
266.714	8171
266.775	3050
266.836	2817
266.898	1828
266.959	4830
267.020	3945
267.081	3511
267.142	2984
267.203	2023
267.264	1308
267.326	4377
267.387	2619
267.448	1480
267.509	3318
267.570	2201
267.631	2966
267.692	2116
267.753	2939
267.814	3328
267.875	7905
267.936	14400
267.997	10617
268.058	9388
268.119	5706
268.180	4075
268.241	2774
268.302	3706
268.363	2565
268.424	3143
268.485	3611
268.546	2620
268.607	1576
268.668	2279
268.729	1879
268.790	2554
268.851	3034
268.912	8506
268.972	8633
269.033	4834
269.094	2049
269.155	2712
269.216	2634
269.277	3341
269.338	2706
269.398	3449
269.459	3257
269.520	5164
269.581	4999
269.642	5856
269.702	4403
269.763	4299
269.824	3402
269.885	4451
269.945	6662
270.006	3534
270.067	3062
270.128	2996
270.188	2136
270.249	2485
270.310	1940
270.370	2810
270.431	2264
270.492	2177
270.553	2761
270.613	5576
270.674	12095
270.734	4633
270.795	3375
270.856	3980
270.916	2707
270.977	2957
271.038	3378
271.098	3134
271.159	5721
271.219	5196
271.280	1980
271.340	2562
271.401	2556
271.462	4376
271.522	3769
271.583	2331
271.643	2753
271.704	2640
271.764	4384
271.825	9931
271.885	31686
271.946	36192
272.006	12719
272.066	20798
272.127	29688
272.187	10455
272.248	6623
272.308	6834
272.369	20447
272.429	10455
272.489	7913
272.550	7104
272.610	9217
272.671	6435
272.731	4945
272.791	5950
272.852	5218
272.912	4185
272.972	2950
273.033	2563
273.093	4280
273.153	4822
273.214	3827
273.274	4894
273.334	15765
273.394	27064
273.455	10155
273.515	11950
273.575	23414
273.635	8860
273.696	12387
273.756	24304
273.816	9246
273.876	5559
273.936	6977
273.997	10058
274.057	3672
274.117	3127
274.177	7554
274.237	34584
274.297	24167
274.358	13297
274.418	21986
274.478	15458
274.538	5803
274.598	4320
274.658	8918
274.718	10201
274.778	5294
274.838	3633
274.898	5441
274.958	12127
275.018	24846
275.078	15684
275.138	5891
275.198	3582
275.258	2454
275.318	4168
275.378	6948
275.438	9210
275.498	5231
275.558	7948
275.618	18361
275.678	16105
275.738	10985
275.798	8271
275.858	4881
275.918	3066
275.978	3697
276.038	4596
276.098	2145
276.157	7281
276.217	18481
276.277	8681
276.337	5522
276.397	3209
276.457	3765
276.517	2452
276.576	2219
276.636	2175
276.696	4743
276.756	11668
276.815	7450
276.875	3542
276.935	3348
276.995	3856
277.055	2542
277.114	2754
277.174	4521
277.234	15521
277.293	5557
277.353	3707
277.413	2770
277.472	2914
277.532	2918
277.592	2990
277.651	9542
277.711	14434
277.771	5813
277.830	22846
277.890	15367
277.950	12992
278.009	32306
278.069	11283
278.128	12476
278.188	15429
278.248	7439
278.307	18930
278.367	10413
278.426	5114
278.486	2698
278.545	2309
278.605	1896
278.664	2528
278.724	4004
278.783	11133
278.843	25006
278.902	6884
278.962	4551
279.021	5236
279.081	5230
279.140	5418
279.199	5274
279.259	5823
279.318	3623
279.378	5648
279.437	9481
279.496	31663
279.556	63291
279.615	39034
279.675	13363
279.734	10595
279.793	15945
279.853	24698
279.912	9111
279.971	6410
280.031	5352
280.090	11809
280.149	16649
280.208	11068
280.268	43703
280.327	36482
280.386	10901
280.445	11559
280.505	10945
280.564	5567
280.623	4188
280.682	8572
280.742	12279
280.801	2994
280.860	2846
280.919	3319
280.978	2805
281.037	2100
281.097	1990
281.156	2415
281.215	2417
281.274	4323
281.333	17147
281.392	10724
281.451	3248
281.510	2872
281.569	2541
281.628	2481
281.688	2508
281.747	3334
281.806	1970
281.865	2690
281.924	2096
281.983	2121
282.042	233
282.101	2190
282.160	1491
282.219	2676
282.278	1828
282.337	9886
282.396	5476
282.454	2688
282.513	4298
282.572	15155
282.631	7929
282.690	2969
282.749	1412
282.808	3295
282.867	3504
282.926	2571
282.985	2021
283.043	1545
283.102	1700
283.161	2830
283.220	7899
283.279	15487
283.338	4886
283.396	4320
283.455	2645
283.514	3095
283.573	5551
283.631	4081
283.690	2625
283.749	2664
283.808	6693
283.866	6107
283.925	2962
283.984	3653
284.043	4156
284.101	3284
284.160	2646
284.219	4079
284.277	2799
284.336	6407
284.395	20020
284.453	14469
284.512	5741
284.570	8371
284.629	6261
284.688	6169
284.746	5931
284.805	7063
284.863	8802
284.922	10722
284.981	12959
285.039	20939
285.098	38247
285.156	87070
285.215	135343
285.273	131274
285.332	88220
285.390	49710
285.449	30430
285.507	21925
285.566	14186
285.624	11397
285.683	8898
285.741	6998
285.799	5661
285.858	5951
285.916	4889
285.975	4518
286.033	2845
286.091	2354
286.150	3346
286.208	3907
286.267	3763
286.325	4047
286.383	5348
286.442	5053
286.500	2705
286.558	2465
286.616	2413
286.675	4221
286.733	3309
286.791	3067
286.850	3387
286.908	4791
286.966	8078
287.024	2878
287.083	2151
287.141	1937
287.199	2952
287.257	3911
287.315	3561
287.374	4245
287.432	10529
287.490	6254
287.548	3564
287.606	3049
287.664	2754
287.723	3826
287.781	5165
287.839	3703
287.897	4585
287.955	5678
288.013	9423
288.071	25354
288.129	79089
288.187	154118
288.245	79342
288.303	31159
288.361	17305
288.419	13057
288.477	8593
288.535	7458
288.593	4895
288.651	4111
288.709	2413
288.767	3145
288.825	1844
288.883	2186
288.941	2477
288.999	2498
289.057	1695
289.115	1227
289.173	1358
289.231	2511
289.289	1225
289.346	2005
289.404	2590
289.462	4747
289.520	4853
289.578	3492
289.636	1534
289.694	1583
289.751	1559
289.809	1653
289.867	1417
289.925	3036
289.983	3096
290.040	1266
290.098	1742
290.156	2803
290.214	2043
290.271	2048
290.329	1920
290.387	1554
290.444	1437
290.502	1346
290.560	1641
290.617	1407
290.675	1412
290.733	1426
290.790	1999
290.848	1676
290.906	856
290.963	1416
291.021	778
291.078	2087
291.136	1575
291.194	9445
291.251	17156
291.309	4823
291.366	2189
291.424	1737
291.481	740
291.539	1648
291.596	1044
291.654	765
291.711	1308
291.769	2666
291.826	3912
291.884	2426
291.941	393
291.999	1599
292.056	1369
292.114	2486
292.171	1407
292.228	2327
292.286	2687
292.343	4195
292.401	4242
292.458	2957
292.515	2072
292.573	2274
292.630	2239
292.687	2613
292.745	2758
292.802	3781
292.859	9918
292.917	17567
292.974	8499
293.031	3180
293.089	2124
293.146	2198
293.203	1554
293.260	1609
293.318	1294
293.375	3925
293.432	1865
293.489	1844
293.546	2030
293.604	3794
293.661	11232
293.718	27888
293.775	12264
293.832	5044
293.889	3305
293.947	4081
294.004	2495
294.061	2710
294.118	9240
294.175	17667
294.232	20527
294.289	7536
294.346	6014
294.403	5357
294.460	3745
294.517	2787
294.574	1661
294.631	2587
294.688	3937
294.745	10292
294.802	34622
294.859	33537
294.916	11063
294.973	5610
295.030	4555
295.087	4322
295.144	3610
295.201	3187
295.258	1926
295.315	3733
295.372	12496
295.429	22174
295.486	8588
295.542	6762
295.599	16800
295.656	25398
295.713	16600
295.770	21383
295.827	8309
295.883	5008
295.940	4285
295.997	5847
296.054	5840
296.111	3342
296.167	2632
296.224	1674
296.281	1439
296.338	2449
296.394	2077
296.451	2852
296.508	11541
296.564	18439
296.621	13622
296.678	29102
296.734	35816
296.791	13332
296.848	6939
296.904	8818
296.961	17005
297.018	25443
297.074	16902
297.131	7108
297.187	5335
297.244	8950
297.301	26825
297.357	41205
297.414	13998
297.470	6092
297.527	4608
297.583	3885
297.640	3432
297.696	2837
297.753	1955
297.809	2096
297.866	1439
297.922	1627
297.979	556
298.035	2690
298.092	5166
298.148	15602
298.204	13192
298.261	6892
298.317	13105
298.374	31487
298.430	16985
298.486	7540
298.543	5160
298.599	4990
298.656	5741
298.712	11207
298.768	24728
298.824	16375
298.881	6371
298.937	3707
298.993	3775
299.050	5188
299.106	4211
299.162	3362
299.218	3323
299.275	2587
299.331	3828
299.387	9218
299.443	28295
299.500	28274
299.556	10238
299.612	5125
299.668	5864
299.724	6423
299.780	6068
299.837	3809
299.893	6220
299.949	24507
300.005	25863
300.061	23786
300.117	37475
300.173	16429
300.229	7231
300.285	9831
300.341	10543
300.397	5595
300.453	3106
300.510	3440
300.566	2725
300.622	4899
300.678	14019
300.734	24918
300.790	22323
300.845	25958
300.901	16743
300.957	22727
301.013	17418
301.069	6831
301.125	4494
301.181	4693
301.237	4165
301.293	2658
301.349	2481
301.405	2098
301.461	1766
301.516	2204
301.572	3115
301.628	6346
301.684	5620
301.740	9401
301.796	15139
301.851	9969
301.907	17050
301.963	18159
302.019	32161
302.074	73905
302.130	68872
302.186	28964
302.242	12097
302.297	8794
302.353	9810
302.409	16725
302.464	12993
302.520	12052
302.576	26845
302.631	28261
302.687	15757
302.743	7137
302.798	4234
302.854	4636
302.910	4281
302.965	6068
303.021	7954
303.076	7685
303.132	9242
303.187	11818
303.243	5487
303.299	4363
303.354	2912
303.410	2879
303.465	2889
303.521	2220
303.576	3417
303.632	4806
303.687	9538
303.743	24632
303.798	18121
303.853	6582
303.909	4116
303.964	3922
304.020	5622
304.075	10103
304.130	8261
304.186	15618
304.241	15753
304.297	11666
304.352	5521
304.358	5368
304.407	4124
304.449	3547
304.463	3355
304.518	4296
304.539	3977
304.573	3453
304.629	4096
304.630	4146
304.684	6649
304.720	14923
304.739	19091
304.794	27494
304.811	23091
304.850	12263
304.902	6199
304.905	5833
304.960	4119
304.992	3728
305.015	3411
305.071	4311
305.083	3938
305.126	2609
305.173	2544
305.181	2550
305.236	2372
305.264	2520
305.292	2630
305.347	2814
305.354	2831
305.402	3076
305.445	3352
305.457	3414
305.512	5672
305.535	5551
305.567	5335
305.622	5040
305.626	5253
305.678	10821
305.716	21407
305.733	25087
305.788	27961
305.807	24359
305.843	18060
305.897	25848
305.898	25936
305.953	23935
305.988	15592
306.008	10930
306.063	6648
306.078	5958
306.118	4869
306.168	3509
306.173	3398
306.228	2980
306.259	3052
306.283	3149
306.338	2356
306.349	2593
306.393	3678
306.440	2978
306.448	2817
306.503	3858
306.530	4005
306.558	4897
306.613	9368
306.620	10023
306.668	15911
306.711	24197
306.723	25095
306.778	19431
306.801	15240
306.833	10308
306.888	5324
306.892	5141
306.943	4352
306.982	3377
306.997	3129
307.052	3709
307.072	3535
307.107	3435
307.162	4366
307.163	4367
307.217	5508
307.253	6732
307.272	7016
307.327	7147
307.343	6987
307.381	6416
307.434	6306
307.436	6535
307.491	12654
307.524	18726
307.546	20907
307.600	23002
307.614	21396
307.655	13265
307.704	6924
307.710	6833
307.765	8075
307.795	9338
307.819	10894
307.874	15266
307.885	15639
307.929	14336
307.975	13598
307.984	14448
308.038	22056
308.065	28151
308.093	47563
308.148	95728
308.156	104516
308.202	154761
308.246	188061
308.257	180860
308.312	109337
308.336	79636
308.366	61707
308.421	37683
308.426	35335
308.475	23346
308.517	16485
308.530	15615
308.585	13057
308.607	12207
308.639	11579
308.694	11393
308.697	11401
308.748	16102
308.787	20857
308.803	20770
308.857	17510
308.877	16291
308.912	15986
308.967	17027
308.967	17024
309.021	23200
309.058	28839
309.076	37027
309.130	65720
309.148	76991
309.185	130461
309.238	214488
309.239	215388
309.293	232549
309.328	228103
309.348	200227
309.402	110159
309.418	86455
309.457	62716
309.508	36213
309.511	35581
309.566	27466
309.598	23125
309.620	22287
309.674	21042
309.688	21007
309.729	20339
309.778	18878
309.783	18702
309.837	16216
309.868	15163
309.892	18918
309.946	29188
309.959	32328
310.001	44178
310.049	54428
310.055	52505
310.109	31036
310.139	19065
310.163	15134
310.218	8606
310.229	7513
310.272	6737
310.319	5931
310.326	5850
310.381	5476
310.409	5333
310.435	5259
310.489	4825
310.499	4800
310.543	4952
310.589	5104
310.598	5205
310.652	5915
310.679	6066
310.706	5427
310.760	4440
310.769	4265
310.814	4490
310.859	4565
310.868	4458
310.923	3887
310.948	3720
310.977	3919
311.031	4017
311.038	4070
311.085	4495
311.128	4542
311.139	4576
311.193	4977
311.218	5000
311.247	4756
311.301	4625
311.308	4572
311.356	4848
311.398	5124
311.410	5005
311.464	4341
311.488	4033
311.518	4025
311.572	3991
311.578	3993
311.626	5541
311.668	6793
311.680	6870
311.734	7066
311.758	7153
311.788	6936
311.842	6512
311.847	6450
311.896	8717
311.937	10670
311.950	10674
312.004	10530
312.027	10420
312.058	8894
312.112	6136
312.117	5846
312.165	5466
312.207	5120
312.297	8210
312.386	7088
312.476	6125
312.566	9826
312.656	6662
312.745	4530
312.835	5311
312.925	6265
313.015	5361
313.104	5838
313.194	5088
313.284	5181
313.374	6377
313.463	6303
313.553	5677
313.643	4809
313.732	4550
313.822	4971
313.912	5284
314.001	4979
314.091	7025
314.180	9607
314.270	8645
314.360	6560
314.449	6155
314.539	5184
314.628	5034
314.718	5473
314.808	6763
314.897	5217
314.987	5187
315.076	5595
315.166	6921
315.255	6944
315.345	6621
315.434	6357
315.524	6700
315.613	6534
315.703	7795
315.792	9828
315.881	15635
315.971	9163
316.060	10994
316.150	13191
316.239	13756
316.328	7341
316.418	4564
316.507	5079
316.597	7354
316.686	6410
316.775	7613
316.865	13891
316.954	5978
317.043	4390
317.133	4862
317.222	5055
317.311	4020
317.400	3742
317.490	6440
317.579	7053
317.668	5998
317.757	6616
317.847	11083
317.936	25650
318.025	17716
318.114	10540
318.203	8005
318.293	8497
318.382	11591
318.471	12827
318.560	20375
318.649	60798
318.738	16142
318.828	7243
318.917	9482
319.006	10767
319.095	21269
319.184	72453
319.273	40468
319.362	18058
319.451	7271
319.540	6873
319.629	12420
319.718	20720
319.807	12758
319.896	22248
319.985	87420
320.074	35445
320.163	8779
320.252	10183
320.341	11905
320.430	11448
320.519	11268
320.608	7227
320.697	7005
320.786	7004
320.875	7870
320.964	9395
321.053	13984
321.142	18207
321.230	20959
321.319	16401
321.408	36434
321.497	17805
321.586	14110
321.675	15003
321.764	16903
321.852	11952
321.941	20570
322.030	15831
322.119	15879
322.207	34521
322.296	24488
322.385	15799
322.474	15813
322.562	40482
322.651	25969
322.740	14346
322.829	19439
322.917	18504
323.006	13742
323.095	11615
323.183	10030
323.272	13117
323.361	20529
323.449	53232
323.538	21315
323.626	35345
323.715	24858
323.804	10974
323.892	31707
323.981	21532
324.069	8263
324.158	17469
324.246	19979
324.335	8642
324.424	13460
324.512	7860
324.601	13820
324.689	32799
324.778	71411
324.866	19551
324.954	7664
325.043	6692
325.131	9208
325.220	14565
325.308	16410
325.397	12752
325.485	10376
325.574	3766
325.662	4902
325.750	5455
325.839	4396
325.927	4752
326.015	6077
326.104	6956
326.192	9305
326.280	5153
326.369	4525
326.457	5947
326.545	12334
326.634	6853
326.722	4371
326.810	4139
326.898	5447
326.987	6913
327.075	10433
327.163	11807
327.251	10328
327.340	28716
327.428	49799
327.516	8180
327.604	4922
327.692	4771
327.781	5656
327.869	8178
327.957	7058
328.045	5976
328.133	4939
328.221	5668
328.309	5541
328.397	5658
328.485	6773
328.574	8524
328.662	23344
328.750	14073
328.838	7418
328.926	5424
329.014	6100
329.102	8268
329.190	18779
329.278	14713
329.366	6490
329.454	6832
329.542	6728
329.630	8192
329.718	9736
329.806	12552
329.893	17785
329.981	27540
330.069	58957
330.157	177576
330.245	352551
330.333	239351
330.421	65677
330.509	28415
330.597	36860
330.684	26492
330.772	13124
330.860	15188
330.948	18291
331.036	9852
331.123	6241
331.211	5659
331.299	7958
331.387	13675
331.475	26223
331.562	8632
331.650	4888
331.738	5090
331.825	6687
331.913	4282
332.001	4243
332.089	5593
332.176	10569
332.264	17016
332.352	15783
332.439	6864
332.527	5521
332.614	4303
332.702	5843
332.790	4360
332.877	8913
332.965	15278
333.052	6303
333.140	4840
333.228	8580
333.315	4780
333.403	5366
333.490	10322
333.578	9453
333.665	8391
333.753	7223
333.840	3894
333.928	6005
334.015	13684
334.103	23891
334.190	81205
334.278	26418
334.365	8545
334.452	7901
334.540	5604
334.627	6641
334.715	9505
334.802	15172
334.889	56763
334.977	64609
335.064	12911
335.151	7004
335.239	7887
335.326	13118
335.413	41408
335.501	66557
335.588	10983
335.675	7355
335.762	9995
335.850	17302
335.937	11203
336.024	21483
336.111	73862
336.199	36848
336.286	9742
336.373	7020
336.460	5144
336.547	4866
336.635	6604
336.722	5232
336.809	6020
336.896	8084
336.983	25701
337.070	66367
337.157	94348
337.245	45949
337.332	31076
337.419	5938
337.506	4599
337.593	7431
337.680	21210
337.767	70355
337.854	20006
337.941	19074
338.028	15894
338.115	7409
338.202	9873
338.289	13912
338.376	38326
338.463	18624
338.550	37056
338.637	46418
338.724	10700
338.811	14072
338.898	5371
338.984	4329
339.071	5708
339.158	7898
339.245	15803
339.332	9602
339.419	9146
339.506	10273
339.593	2764
339.679	4450
339.766	3689
339.853	4838
339.940	10685
340.027	5519
340.113	4759
340.200	5972
340.287	4821
340.374	5901
340.460	9882
340.547	4964
340.634	7028
340.720	25990
340.807	17143
340.894	4673
340.980	4254
341.067	4609
341.154	4864
341.240	6152
341.327	12964
341.414	5092
341.500	2808
341.587	3568
341.674	3704
341.760	8718
341.847	11307
341.933	5182
342.020	2223
342.106	2857
342.193	4568
342.279	7554
342.366	5630
342.452	9133
342.539	5627
342.625	11710
342.712	29021
342.798	13797
342.885	5048
342.971	2518
343.058	3225
343.144	3364
343.230	3095
343.317	3790
343.403	2440
343.490	3296
343.576	2758
343.662	3894
343.749	4687
343.835	7350
343.921	12059
344.008	55678
344.094	137520
344.180	35647
344.267	12107
344.353	34365
344.439	39547
344.525	14626
344.612	7144
344.698	7120
344.784	5984
344.870	3935
344.957	3354
345.043	6836
345.129	4627
345.215	9257
345.301	5180
345.387	4511
345.474	3212
345.560	3306
345.646	4255
345.732	3912
345.818	5145
345.904	4175
345.990	4216
346.076	4256
346.162	6373
346.249	3831
346.335	2518
346.421	5571
346.507	14723
346.593	54435
346.679	15730
346.765	5205
346.851	3694
346.937	3920
347.023	3804
347.108	4537
347.194	3910
347.280	3260
347.366	5009
347.452	15344
347.538	64832
347.624	48208
347.710	38935
347.796	7228
347.882	5494
347.967	5239
348.053	6220
348.139	4887
348.225	4008
348.311	3922
348.397	3000
348.482	4351
348.568	5173
348.654	3782
348.740	4261
348.825	5666
348.911	8419
348.997	26625
349.083	59864
349.168	12052
349.254	4238
349.340	3914
349.425	3964
349.511	4915
349.597	7535
349.682	11232
349.768	36244
349.854	19844
349.939	5532
350.025	3431
350.110	4245
350.196	2924
350.282	2489
350.367	2969
350.453	4119
350.538	5926
350.624	5490
350.709	5651
350.795	2563
350.880	4274
350.966	5624
351.051	4139
351.137	4155
351.222	4480
351.308	10158
351.393	31307
351.479	8757
351.564	3096
351.649	3717
351.735	3071
351.820	2402
351.906	4327
351.991	7465
352.076	18968
352.162	31438
352.247	7206
352.332	4507
352.418	6969
352.503	9809
352.588	42982
352.673	37323
352.759	8606
352.844	3583
352.929	4808
353.014	6145
353.100	4154
353.185	5449
353.270	9392
353.355	10899
353.441	3940
353.526	4304
353.611	8528
353.696	10446
353.781	6752
353.866	3100
353.952	4666
354.037	9091
354.122	19063
354.207	17883
354.292	7905
354.377	4263
354.462	3609
354.547	4504
354.632	5131
354.717	7561
354.802	8115
354.887	3617
354.972	4019
355.057	3671
355.142	2531
355.227	4629
355.312	5313
355.397	12256
355.482	28773
355.567	15854
355.652	12198
355.737	12572
355.822	39098
355.907	37159
355.991	6773
356.076	3297
356.161	4130
356.246	3714
356.331	4560
356.416	10035
356.501	63490
356.585	76644
356.670	12507
356.755	7992
356.840	9760
356.924	40332
357.009	151072
357.094	62538
357.179	13642
357.263	9525
357.348	8162
357.433	8487
357.517	8510
357.602	8301
357.687	4884
357.771	5521
357.856	6405
357.941	9505
358.025	33545
358.110	154401
358.195	82579
358.279	13671
358.364	8514
358.448	24430
358.533	74632
358.617	57754
358.702	56416
358.787	22325
358.871	11228
358.956	9858
359.040	3990
359.125	3125
359.209	2858
359.294	4143
359.378	5003
359.462	7551
359.547	5987
359.631	3891
359.716	3330
359.800	3937
359.885	7694
359.969	4150
360.053	6506
360.138	9430
360.222	6283
360.306	9837
360.391	8311
360.475	8440
360.559	18632
360.644	25331
360.728	21984
360.812	33128
360.896	103815
360.981	45657
361.065	23432
361.149	6661
361.233	5820
361.318	5597
361.402	6342
361.486	5914
361.570	4961
361.654	5744
361.739	14127
361.823	59908
361.907	106525
361.991	20466
362.075	10721
362.159	19971
362.243	16943
362.327	16243
362.411	20885
362.495	10814
362.580	7876
362.664	5898
362.748	6386
362.832	8347
362.916	13060
363.000	34326
363.084	80319
363.168	126003
363.252	33929
363.336	12388
363.420	15102
363.503	58508
363.587	80131
363.671	15217
363.755	9531
363.839	11567
363.923	7643
364.007	12362
364.091	15731
364.175	25298
364.258	107620
364.342	78095
364.426	62023
364.510	34199
364.594	20938
364.677	22125
364.761	87874
364.845	70814
364.929	20996
365.013	15787
365.096	12523
365.180	16749
365.264	24779
365.347	103399
365.431	49853
365.515	12565
365.598	5613
365.682	5198
365.766	10732
365.849	14203
365.933	6842
366.017	9423
366.100	8946
366.184	3628
366.267	4887
366.351	6133
366.435	4129
366.518	3636
366.602	3005
366.685	3532
366.769	4487
366.852	8803
366.936	16023
367.019	7891
367.103	7634
367.186	17140
367.270	5682
367.353	2356
367.436	3662
367.520	3623
367.603	4937
367.687	6594
367.770	12874
367.853	8195
367.937	26243
368.020	48858
368.104	12042
368.187	9801
368.270	13977
368.353	12881
368.437	12534
368.520	26507
368.603	18969
368.687	28762
368.770	61311
368.853	14878
368.936	13121
369.020	14045
369.103	5329
369.186	2694
369.269	2972
369.352	7407
369.436	11903
369.519	7572
369.602	2669
369.685	5112
369.768	5387
369.851	4438
369.934	2997
370.018	4708
370.101	9403
370.184	8939
370.267	6703
370.350	7926
370.433	15504
370.516	43978
370.599	57956
370.682	15647
370.765	29443
370.848	35820
370.931	73397
371.014	32587
371.097	7729
371.180	5086
371.263	3691
371.346	3526
371.429	4134
371.511	3933
371.594	8083
371.677	12757
371.760	18157
371.843	14099
371.926	56341
372.009	142410
372.091	49305
372.174	26665
372.257	70825
372.340	30615
372.423	20134
372.505	27305
372.588	11851
372.671	19210
372.754	67770
372.836	37680
372.919	28621
373.002	63853
373.085	19096
373.167	10933
373.250	27224
373.332	68756
373.415	85647
373.498	183781
373.580	71732
373.663	78178
373.746	120564
373.828	30127
373.911	13272
373.993	13520
374.076	55571
374.159	59370
374.241	20093
374.324	57374
374.406	42474
374.489	49028
374.571	154069
374.654	68351
374.736	28687
374.819	91023
374.901	125894
374.983	138096
375.066	28533
375.148	10742
375.231	43470
375.313	94061
375.395	36200
375.478	8557
375.560	5475
375.643	7317
375.725	24460
375.807	110958
375.890	84838
375.972	29228
376.054	16041
376.136	22303
376.219	11974
376.301	28319
376.383	99815
376.465	40041
376.548	20245
376.630	25252
376.712	82775
376.794	42609
376.877	6348
376.959	3788
377.041	5276
377.123	12728
377.205	17592
377.287	4165
377.369	3722
377.452	3805
377.534	3663
377.616	3473
377.698	3541
377.780	2338
377.862	3289
377.944	3821
378.026	2946
378.108	4212
378.190	3310
378.272	3209
378.354	2898
378.436	2639
378.518	6398
378.600	24334
378.682	20262
378.764	39803
378.846	35081
378.928	10522
379.010	13490
379.091	7833
379.173	4912
379.255	3247
379.337	5050
379.419	16975
379.501	58268
379.583	26181
379.664	6206
379.746	13314
379.828	39270
379.910	54987
379.991	50391
380.073	9713
380.155	6276
380.237	3923
380.318	3375
380.400	3708
380.482	7227
380.564	12901
380.645	9743
380.727	10368
380.809	7181
380.890	4466
380.972	3350
381.053	3755
381.135	4703
381.217	12257
381.298	42007
381.380	21653
381.461	15323
381.543	74998
381.624	105001
381.706	20137
381.787	9167
381.869	10737
381.951	31721
382.032	132990
382.113	89820
382.195	19206
382.276	12618
382.358	21862
382.439	74009
382.521	79265
382.602	129674
382.684	56117
382.765	92614
382.846	83978
382.928	59335
383.009	35505
383.090	30250
383.172	87872
383.253	131200
383.334	63683
383.416	106234
383.497	58888
383.578	21559
383.659	32042
383.741	87322
383.822	203601
383.903	113357
383.984	61739
384.066	129426
384.147	85604
384.228	18349
384.309	11227
384.390	7892
384.471	6728
384.553	7017
384.634	10234
384.715	10964
384.796	6281
384.877	8408
384.958	33943
385.039	47913
385.120	16945
385.201	7278
385.282	9608
385.363	10552
385.444	7980
385.525	13432
385.606	54592
385.687	55541
385.768	13277
385.849	15855
385.930	61645
386.011	121482
386.092	36731
386.173	9164
386.254	7105
386.335	9096
386.416	10486
386.496	23496
386.577	43574
386.658	17458
386.739	9657
386.820	10248
386.901	8499
386.981	8343
387.062	5113
387.143	9523
387.224	38266
387.304	40330
387.385	14704
387.466	9531
387.547	11055
387.627	7671
387.708	14906
387.789	69429
387.869	94568
387.950	27829
388.031	6835
388.111	5911
388.192	15354
388.273	23603
388.353	14286
388.434	8044
388.514	15407
388.595	67942
388.676	93105
388.756	44026
388.837	36713
388.917	24356
388.998	7905
389.078	8455
389.159	6509
389.239	4815
389.320	8261
389.400	7255
389.480	15617
389.561	46412
389.641	25661
389.722	7609
389.802	12626
389.883	18035
389.963	53485
390.043	36008
390.124	11951
390.204	12160
390.284	43852
390.365	31704
390.445	40037
390.525	108017
390.605	100453
390.686	30267
390.766	9819
390.846	5914
390.927	3787
391.007	4744
391.087	5682
391.167	5438
391.247	3974
391.328	7253
391.408	13408
391.488	12158
391.568	3114
391.648	6108
391.728	9254
391.808	9226
391.888	9114
391.969	22873
392.049	42866
392.129	20841
392.209	20431
392.289	53827
392.369	31319
392.449	27994
392.529	17894
392.609	12599
392.689	15268
392.769	50619
392.849	46996
392.929	31257
393.009	75064
393.089	57243
393.169	39278
393.248	110862
393.328	434535
393.408	510290
393.488	144704
393.568	40358
393.648	21382
393.728	15113
393.807	11738
393.887	11135
393.967	11254
394.047	13895
394.127	17296
394.206	29885
394.286	91537
394.366	363224
394.446	444270
394.525	137789
394.605	38511
394.685	24609
394.764	40087
394.844	68213
394.924	51883
395.003	16780
395.083	10702
395.163	10646
395.242	9098
395.322	9531
395.402	7450
395.481	11853
395.561	25496
395.640	74039
395.720	56879
395.799	84555
395.879	74241
395.958	49337
396.038	140432
396.117	470352
396.197	563021
396.276	226298
396.356	76673
396.435	48659
396.515	30564
396.594	26098
396.673	39350
396.753	121259
396.832	422433
396.912	341003
396.991	87096
397.070	24355
397.150	13490
397.229	11265
397.308	13439
397.388	24747
397.467	15332
397.546	7409
397.625	3992
397.705	8410
397.784	7903
397.863	4665
397.942	4614
398.022	5488
398.101	19613
398.180	69876
398.259	38918
398.338	10429
398.417	6515
398.497	5029
398.576	5769
398.655	3865
398.734	4251
398.813	7058
398.892	19279
398.971	74199
399.050	39186
399.129	5415
399.208	3631
399.287	3280
399.366	2125
399.445	3854
399.524	3360
399.603	2645
399.682	6788
399.761	17863
399.840	73598
399.919	64044
399.998	9502
400.077	3164
400.156	2367
400.235	5853
400.313	3812
400.392	4466
400.471	19194
400.550	34687
400.629	10310
400.708	4750
400.786	5008
400.865	15714
400.944	18612
401.023	9072
401.102	2120
401.180	2575
401.259	3372
401.338	4184
401.416	4748
401.495	4587
401.574	4491
401.652	4064
401.731	5577
401.810	3636
401.888	2827
401.967	2049
402.046	2394
402.124	4545
402.203	6101
402.281	5027
402.360	4814
402.438	19536
402.517	15809
402.596	5428
402.674	4216
402.753	3362
402.831	3108
402.910	4211
402.988	8848
403.066	32730
403.145	20673
403.223	11327
403.302	26947
403.380	19840
403.459	17684
403.537	8837
403.615	4891
403.694	2516
403.772	3346
403.850	2356
403.929	1728
404.007	2177
404.085	5199
404.164	4487
404.242	2468
404.320	7426
404.398	24578
404.477	35431
404.555	101618
404.633	99331
404.711	25394
404.789	12798
404.868	4260
404.946	2305
405.024	1903
405.102	2217
405.180	1049
405.258	1484
405.336	2401
405.415	2776
405.493	7173
405.571	6831
405.649	2002
405.727	1513
405.805	3887
405.883	4115
405.961	5023
406.039	6257
406.117	3197
406.195	5173
406.273	18488
406.351	85961
406.429	59389
406.507	11104
406.585	4177
406.663	3841
406.740	5053
406.818	3611
406.896	3354
406.974	3373
407.052	6318
407.130	47189
407.208	74457
407.285	18272
407.363	3324
407.441	3180
407.519	3286
407.596	4171
407.674	9008
407.752	24442
407.830	29378
407.907	13338
407.985	4073
408.063	3752
408.141	4326
408.218	6176
408.296	4822
408.373	2838
408.451	3637
408.529	3474
408.606	1401
408.684	2220
408.762	2121
408.839	1709
408.917	918
408.994	1978
409.072	783
409.149	1285
409.227	3366
409.304	3655
409.382	3218
409.459	3976
409.537	4667
409.614	5530
409.692	4443
409.769	3888
409.846	5294
409.924	7333
410.001	3976
410.079	5228
410.156	4909
410.233	6964
410.311	5091
410.388	2811
410.465	3083
410.543	2192
410.620	2404
410.697	2413
410.775	3786
410.852	1169
410.929	3538
411.006	3686
411.083	2625
411.161	2732
411.238	5322
411.315	5312
411.392	1631
411.469	2677
411.547	2762
411.624	574
411.701	1546
411.778	2972
411.855	5776
411.932	3986
412.009	1691
412.086	2908
412.163	3637
412.240	3059
412.317	4159
412.394	3630
412.471	2750
412.548	1589
412.625	2149
412.702	1930
412.779	6108
412.856	4868
412.933	2068
413.010	1907
413.087	2651
413.164	16217
413.241	26474
413.318	6521
413.395	4171
413.471	4520
413.548	2788
413.625	2758
413.702	3083
413.779	3388
413.855	1889
413.932	1086
414.009	1171
414.086	1841
414.162	1979
414.239	4572
414.316	17567
414.393	42740
414.469	16135
414.546	2875
414.623	2102
414.699	2237
414.776	2595
414.853	1877
414.929	2007
415.006	2076
415.082	2870
415.159	2618
415.236	2503
415.312	2975
415.389	3713
415.465	5288
415.542	3519
415.618	1805
415.695	3111
415.771	2410
415.848	1723
415.924	3139
416.000	2256
416.077	2275
416.153	877
416.230	1280
416.306	768
416.383	1094
416.459	1994
416.535	1317
416.612	1358
416.688	1905
416.764	1465
416.841	1185
416.917	1709
416.993	2783
417.069	2045
417.146	4433
417.222	9238
417.298	4780
417.374	1831
417.451	3669
417.527	2968
417.603	3242
417.679	2656
417.755	2604
417.831	760
417.908	1864
417.984	1303
418.060	995
418.136	3764
418.212	6829
418.288	3174
418.364	1699
418.440	1336
418.516	3465
418.592	5538
418.668	9770
418.744	11954
418.820	9736
418.896	2801
418.972	1169
419.048	1788
419.124	5575
419.200	3996
419.276	1745
419.352	1095
419.428	1512
419.504	2122
419.579	3424
419.655	2403
419.731	1987
419.807	6756
419.883	13732
419.959	10895
420.034	3343
420.110	5875
420.186	24963
420.262	22717
420.337	4306
420.413	3831
420.489	2098
420.565	1937
420.640	2153
420.716	2764
420.792	1676
420.867	2913
420.943	2327
421.019	3406
421.094	4164
421.170	3053
421.245	2495
421.321	3187
421.397	3337
421.472	6070
421.548	12861
421.623	11046
421.699	6203
421.774	5191
421.850	5208
421.925	7038
422.001	7923
422.076	6858
422.152	8917
422.227	12429
422.302	17166
422.378	22704
422.453	41707
422.529	97324
422.604	278069
422.679	451098
422.755	331145
422.830	131704
422.905	51345
422.981	27553
423.056	17998
423.131	13387
423.207	9754
423.282	8455
423.357	11837
423.432	8826
423.508	8280
423.583	13131
423.658	12734
423.733	5276
423.808	5735
423.883	6208
423.959	6970
424.034	5647
424.109	6428
424.184	4014
424.259	3449
424.334	3059
424.409	2149
424.484	2321
424.559	2821
424.634	2104
424.709	2888
424.784	3690
424.859	2807
424.934	3657
425.009	15666
425.084	30584
425.159	12561
425.234	2650
425.309	522
425.384	1748
425.459	1302
425.534	1218
425.609	2128
425.683	2284
425.758	2566
425.833	1396
425.908	4220
425.983	7725
426.058	28767
426.132	14636
426.207	3540
426.282	5213
426.357	5675
426.431	2311
426.506	1871
426.581	2485
426.655	1686
426.730	1539
426.805	1892
426.879	2742
426.954	2534
427.029	4657
427.103	25054
427.178	74478
427.253	36900
427.327	5286
427.402	4314
427.476	7724
427.551	3780
427.625	2729
427.700	3363
427.774	1404
427.849	3085
427.923	1528
427.998	1557
428.072	2855
428.147	6872
428.221	25398
428.296	85895
428.370	51542
428.444	7411
428.519	7828
428.593	16039
428.667	12999
428.742	16012
428.816	15756
428.890	50819
428.965	87972
429.039	26748
429.113	19230
429.188	8306
429.262	2473
429.336	4053
429.410	14158
429.485	11372
429.559	13047
429.633	12173
429.707	4008
429.781	9922
429.855	55391
429.930	91440
430.004	46466
430.078	71183
430.152	67831
430.226	116985
430.300	131712
430.374	23504
430.448	7831
430.522	20788
430.596	68510
430.670	44564
430.744	80079
430.818	131136
430.892	29873
430.966	5303
431.040	3064
431.114	1831
431.188	1590
431.262	1479
431.336	2288
431.410	6919
431.484	18052
431.557	13016
431.631	2188
431.705	3434
431.779	14045
431.853	73367
431.927	58873
432.000	7945
432.074	2108
432.148	2664
432.222	3540
432.295	1545
432.369	2539
432.443	4326
432.516	25033
432.590	75428
432.664	32378
432.737	4610
432.811	1465
432.885	1119
432.958	1903
433.032	141
433.106	37
433.179	466
433.253	197
433.326	246
433.400	641
433.473	1135
433.547	295
433.620	970
433.694	2983
433.767	3261
433.841	441
433.914	889
433.988	257
434.061	1488
434.134	640
434.208	353
434.281	474
434.355	887
434.428	1255
434.501	1113
434.575	537
434.648	1050
434.721	-168
434.795	1705
434.868	128
434.941	209
435.014	867
435.088	804
435.161	527
435.234	2421
435.307	2160
435.381	2166
435.454	1147
435.527	2442
435.600	1962
435.673	2651
435.746	1407
435.819	460
435.892	830
435.966	485
436.039	810
436.112	2035
436.185	134
436.258	183
436.331	13
436.404	-308
436.477	528
436.550	537
436.623	1052
436.696	686
436.769	1184
436.842	1124
436.915	932
436.987	2453
437.060	1112
437.133	716
437.206	236
437.279	552
437.352	1179
437.425	614
437.498	631
437.570	3974
437.643	4264
437.716	685
437.789	505
437.861	1053
437.934	2444
438.007	1850
438.080	1041
438.152	1640
438.225	4728
438.298	31280
438.370	103529
438.443	44808
438.516	6550
438.588	1599
438.661	780
438.734	1596
438.806	765
438.879	1784
438.951	1187
439.024	1440
439.096	753
439.169	687
439.241	398
439.314	1448
439.386	2841
439.459	3081
439.531	2925
439.604	2185
439.676	1326
439.749	600
439.821	-180
439.893	1555
439.966	779
440.038	1482
440.110	1608
440.183	1162
440.255	972
440.327	2708
440.400	13414
440.472	61066
440.544	44653
440.617	5739
440.689	2751
440.761	1706
440.833	2624
440.905	2473
440.978	276
441.050	455
441.122	765
441.194	86
441.266	415
441.338	681
441.411	3103
441.483	16445
441.555	28279
441.627	6012
441.699	3599
441.771	3881
441.843	606
441.915	1338
441.987	896
442.059	992
442.131	1353
442.203	3159
442.275	3783
442.347	4295
442.419	5755
442.491	27808
442.563	74484
442.635	35491
442.706	18150
442.778	15326
442.850	3656
442.922	1670
442.994	2295
443.066	4184
443.137	2916
443.209	3301
443.281	4698
443.353	11176
443.425	38070
443.496	141207
443.568	138685
443.640	49272
443.711	10841
443.783	3967
443.855	2373
443.926	1606
443.998	1970
444.070	2923
444.141	1921
444.213	3028
444.285	3342
444.356	2554
444.428	2561
444.499	1074
444.571	975
444.642	716
444.714	364
444.785	3074
444.857	4064
444.928	12748
445.000	6833
445.071	7445
445.143	10127
445.214	5970
445.285	10336
445.357	33156
445.428	94603
445.500	227951
445.571	143679
445.642	68798
445.714	25927
445.785	23360
445.856	7109
445.928	4979
445.999	2493
446.070	1584
446.141	2607
446.213	4385
446.284	1612
446.355	2845
446.426	1950
446.497	1578
446.569	3601
446.640	5105
446.711	3535
446.782	847
446.853	1655
446.924	1817
446.995	1923
447.066	2285
447.138	5053
447.209	2739
447.280	-380
447.351	-105
447.422	-725
447.493	1574
447.564	2357
447.635	2799
447.706	1516
447.777	452
447.847	-100
447.918	780
447.989	2261
448.060	2980
448.131	8154
448.202	7311
448.273	3995
448.344	2628
448.414	-8
448.485	1422
448.556	938
448.627	558
448.698	1218
448.768	1136
448.839	867
448.910	3752
448.981	3620
449.051	2056
449.122	278
449.193	1016
449.263	1780
449.334	1649
449.405	1867
449.475	5078
449.546	3667
449.616	5906
449.687	4560
449.758	2348
449.828	1209
449.899	1580
449.969	1397
450.040	1603
450.110	1802
450.181	2582
450.251	1528
450.322	2094
450.392	1723
450.463	2164
450.533	1084
450.604	977
450.674	1522
450.744	1980
450.815	1138
450.885	1633
450.955	679
451.026	1106
451.096	248
451.166	2831
451.237	4208
451.307	13437
451.377	4947
451.447	1390
451.518	521
451.588	808
451.658	1390
451.728	3285
451.799	12545
451.869	16792
451.939	3279
452.009	1322
452.079	410
452.149	1178
452.219	3152
452.289	14860
452.360	12937
452.430	1981
452.500	1637
452.570	2756
452.640	2823
452.710	9284
452.780	17290
452.850	10541
452.920	8304
452.990	2520
453.060	2064
453.129	2519
453.199	4442
453.269	14216
453.339	37002
453.409	59832
453.479	53278
453.549	81707
453.619	88708
453.688	34887
453.758	5058
453.828	2164
453.898	893
453.968	1239
454.037	851
454.087	1081
454.107	1165
454.168	462
454.177	343
454.247	556
454.249	603
454.316	1433
454.330	1434
454.386	1445
454.411	3350
454.456	6307
454.492	9113
454.525	11571
454.574	5810
454.595	3325
454.655	1310
454.665	998
454.734	1328
454.736	1399
454.804	3068
454.817	5026
454.873	12621
454.898	13827
454.943	15737
454.979	9533
455.013	4026
455.060	2879
455.082	2543
455.141	2117
455.152	1980
455.221	8707
455.222	8875
455.291	18369
455.303	17117
455.360	11064
455.384	13428
455.430	17490
455.465	14858
455.499	12171
455.546	12693
455.569	12702
455.627	8608
455.638	7944
455.707	794
455.708	807
455.777	922
455.789	904
455.846	1072
455.869	1123
455.916	1010
455.950	1206
455.985	1401
456.031	1109
456.054	966
456.112	851
456.124	841
456.193	479
456.193	463
456.262	733
456.274	1009
456.332	2243
456.355	2111
456.401	1626
456.436	1163
456.470	684
456.516	322
456.540	237
456.597	161
456.609	90
456.678	687
456.678	682
456.747	-4
456.759	65
456.817	608
456.840	574
456.886	89
456.920	16
456.955	219
457.001	341
457.024	384
457.082	1229
457.093	1365
457.162	1715
457.163	1730
457.232	2540
457.243	2246
457.301	797
457.324	871
457.370	1164
457.405	1201
457.439	1209
457.485	1454
457.508	1601
457.566	1604
457.577	1583
457.646	2016
457.647	2030
457.715	2704
457.727	2856
457.784	4274
457.808	5550
457.853	7649
457.889	9277
457.922	9448
457.969	7485
457.991	7428
458.050	7264
458.060	7462
458.129	12537
458.130	12721
458.198	15983
458.211	15073
458.267	9371
458.292	6816
458.336	4443
458.372	3743
458.405	3833
458.453	5062
458.474	6401
458.533	11161
458.543	11708
458.611	21228
458.614	21441
458.680	17674
458.694	15126
458.749	7502
458.775	5400
458.818	3123
458.855	2255
458.887	2003
458.936	1620
458.955	1340
459.016	1123
459.024	1147
459.093	1883
459.097	1882
459.162	1756
459.177	1761
459.230	1770
459.257	2165
459.299	2513
459.338	2351
459.368	2319
459.418	2575
459.437	2544
459.499	1703
459.505	1640
459.574	1424
459.579	1439
459.643	1563
459.659	1594
459.711	1660
459.740	1749
459.780	1933
459.820	1565
459.849	1228
459.900	1502
459.917	1663
459.981	2067
459.986	2065
460.054	1571
460.061	1579
460.123	1740
460.141	1840
460.191	2829
460.222	3427
460.260	3489
460.302	3504
460.328	3362
460.382	2715
460.397	2709
460.462	2496
460.465	2520
460.534	3963
460.543	4130
460.602	11789
460.623	14851
460.671	24609
460.703	35149
460.739	37617
460.783	36553
460.808	31306
460.864	6954
460.876	4750
460.944	2384
460.945	2359
461.013	3127
461.024	3011
461.081	2160
461.104	2231
461.150	2432
461.184	2227
461.218	2063
461.264	2116
461.286	2180
461.345	2114
461.355	2169
461.423	2788
461.425	2804
461.491	2643
461.505	2663
461.559	4396
461.585	5149
461.628	9276
461.665	13374
461.696	15476
461.745	21309
461.764	19504
461.825	7579
461.832	7157
461.901	3383
461.905	3284
461.969	3021
461.985	2870
462.037	2720
462.065	2968
462.105	3301
462.145	3289
462.173	4732
462.225	7826
462.241	8573
462.305	12294
462.310	12107
462.378	9605
462.385	8901
462.446	4353
462.465	3384
462.514	3186
462.545	3456
462.582	3596
462.625	3477
462.650	3416
462.705	3431
462.718	3540
462.785	4131
462.786	4141
462.854	4439
462.865	4567
462.922	6799
462.945	7741
462.990	6610
463.025	5104
463.058	4522
463.104	3792
463.126	3389
463.184	2903
463.194	3053
463.262	3876
463.264	3909
463.330	4424
463.344	4481
463.398	5200
463.424	5555
463.466	5096
463.504	4720
463.533	4567
463.583	4150
463.601	4083
463.663	3872
463.669	4016
463.737	5781
463.743	5954
463.805	8312
463.823	8929
463.873	13675
463.903	16792
463.940	19008
463.982	22167
464.008	18969
464.062	10036
464.076	9157
464.142	4575
464.144	4539
464.211	4057
464.221	4043
464.279	4263
464.301	4299
464.347	5199
464.381	5904
464.414	6030
464.461	6289
464.482	6659
464.540	7709
464.550	7399
464.617	4616
464.620	4520
464.685	5471
464.699	5699
464.753	7283
464.779	8181
464.820	9520
464.859	10540
464.888	9949
464.938	9026
464.956	9466
465.018	10800
465.023	10663
465.091	8739
465.098	8525
465.158	8066
465.177	7962
465.226	8417
465.257	8572
465.293	8650
465.336	8850
465.361	9482
465.416	10810
465.428	11259
465.495	13707
465.496	13772
465.563	20843
465.575	22117
465.631	27711
465.654	30176
465.698	22306
465.734	14963
465.765	13295
465.813	10784
465.833	10398
465.893	9828
465.900	9920
465.968	10466
465.972	10485
466.035	10303
466.052	10284
466.102	11581
466.131	12220
466.170	11984
466.210	11763
466.237	12557
466.290	14033
466.304	14143
466.369	14502
466.372	14573
466.439	15956
466.449	16140
466.506	16781
466.528	16991
466.573	19538
466.607	21349
466.641	27545
466.687	36211
466.708	39538
466.766	48628
466.775	46298
466.842	28137
466.845	27219
466.909	22124
466.925	20945
466.977	19430
467.004	18616
467.044	19384
467.083	20102
467.111	20452
467.163	21000
467.178	21632
467.242	24107
467.245	23981
467.312	20523
467.321	20031
467.379	20766
467.400	20976
467.446	20786
467.480	20583
467.559	19879
467.638	16248
467.717	16331
467.796	16212
467.875	16666
467.955	15451
468.034	19099
468.113	35253
468.192	52192
468.271	25231
468.350	14398
468.429	13703
468.508	14152
468.588	12906
468.667	14060
468.746	18173
468.825	18036
468.904	11349
468.983	12393
469.062	15536
469.141	19968
469.220	11638
469.299	11268
469.378	10538
469.456	13535
469.535	12764
469.614	12195
469.693	10997
469.772	14626
469.851	16428
469.930	15312
470.009	10025
470.088	9982
470.166	10300
470.245	11136
470.324	10719
470.403	11118
470.482	9892
470.560	9761
470.639	9252
470.718	10457
470.797	10073
470.875	11508
470.954	16318
471.033	20817
471.111	9297
471.190	8842
471.269	8259
471.347	8524
471.426	7671
471.505	10167
471.583	10510
471.662	11098
471.740	9486
471.819	9497
471.898	8335
471.976	9070
472.055	8614
472.133	9237
472.212	12203
472.290	12419
472.369	9245
472.447	8370
472.526	7989
472.604	7991
472.683	8050
472.761	9251
472.839	7148
472.918	8407
472.996	7303
473.075	9994
473.153	10126
473.231	9047
473.310	9365
473.388	9496
473.466	7956
473.545	10082
473.623	10664
473.701	11861
473.780	8812
473.858	9953
473.936	12560
474.014	10716
474.093	8895
474.171	12738
474.249	16459
474.327	13553
474.405	7103
474.484	8003
474.562	7868
474.640	9542
474.718	9447
474.796	11851
474.874	10756
474.952	10305
475.030	10176
475.108	11103
475.187	14028
475.265	15586
475.343	14091
475.421	14198
475.499	10225
475.577	11014
475.655	10972
475.733	18371
475.811	29703
475.889	30323
475.966	24740
476.044	9275
476.122	8170
476.200	10805
476.278	8768
476.356	7924
476.434	8045
476.512	9334
476.590	9209
476.667	9839
476.745	6326
476.823	9374
476.901	7334
476.979	8163
477.056	8107
477.134	9009
477.212	10858
477.290	9554
477.367	6755
477.445	6977
477.523	6542
477.601	6978
477.678	6184
477.756	8149
477.834	10162
477.911	6428
477.989	5850
478.066	7045
478.144	7047
478.222	7639
478.299	7856
478.377	9647
478.454	7621
478.532	7300
478.609	6002
478.687	8490
478.764	6054
478.842	7234
478.919	7084
478.997	6668
479.074	5967
479.152	7616
479.229	8639
479.307	8436
479.384	5006
479.461	6332
479.539	6391
479.616	7797
479.694	6630
479.771	7498
479.848	7032
479.926	8542
480.003	12142
480.080	6341
480.157	4795
480.235	5745
480.312	5548
480.389	6750
480.467	10195
480.544	14651
480.621	9971
480.698	6749
480.775	7706
480.853	8573
480.930	8022
481.007	7348
481.084	8447
481.161	9108
481.238	8056
481.315	7292
481.392	5719
481.470	8104
481.547	9234
481.624	7915
481.701	5833
481.778	6484
481.855	6654
481.932	10140
482.009	17128
482.086	16142
482.163	6501
482.240	7522
482.317	9788
482.393	11485
482.470	7782
482.547	6997
482.624	6212
482.701	7279
482.778	7447
482.855	6687
482.932	5275
483.009	6870
483.085	5828
483.162	7803
483.239	7855
483.316	6555
483.393	6132
483.469	6379
483.546	6708
483.623	8650
483.699	6749
483.776	7737
483.853	7900
483.930	9885
484.006	25423
484.083	48041
484.160	33567
484.236	41874
484.313	35824
484.389	26408
484.466	22819
484.543	22340
484.619	21039
484.696	21896
484.772	22474
484.849	23299
484.925	20904
485.002	20162
485.078	20536
485.155	20645
485.231	19098
485.308	19403
485.384	19187
485.461	20416
485.537	31083
485.614	40837
485.690	22049
485.766	18122
485.843	17767
485.919	21938
485.995	23752
486.072	18738
486.148	16296
486.224	16113
486.301	16720
486.377	19220
486.453	17249
486.530	18829
486.606	24215
486.682	29007
486.758	30666
486.835	34574
486.911	27381
486.987	39212
487.063	42625
487.139	42925
487.215	37559
487.292	24511
487.368	18466
487.444	19490
487.520	20475
487.596	23440
487.672	27935
487.748	51996
487.824	88335
487.900	58614
487.976	26997
488.052	21941
488.128	21459
488.204	20218
488.280	19486
488.356	20353
488.432	32138
488.508	55086
488.584	28985
488.660	17119
488.736	16730
488.812	16431
488.888	19456
488.964	23827
489.039	35704
489.115	59564
489.191	49729
489.267	19307
489.343	16848
489.418	15552
489.494	15152
489.570	13524
489.646	16226
489.722	15159
489.797	14916
489.873	18210
489.949	38284
490.024	43451
490.100	15985
490.176	13943
490.251	14721
490.327	18242
490.403	15111
490.478	13415
490.554	11888
490.629	13368
490.705	11704
490.781	13291
490.856	12551
490.932	14938
491.007	13809
491.083	14862
491.158	14018
491.234	15923
491.309	29695
491.385	38514
491.460	17365
491.536	14821
491.611	13762
491.686	13600
491.762	15772
491.837	24118
491.913	40455
491.988	54886
492.063	77757
492.139	36693
492.214	20861
492.289	12382
492.365	9714
492.440	12718
492.515	12570
492.590	13801
492.666	10935
492.741	12186
492.816	18321
492.891	14491
492.967	10678
493.042	9497
493.117	10267
493.192	10839
493.267	12815
493.342	29676
493.418	47600
493.493	18695
493.568	10096
493.643	9457
493.718	10900
493.793	15001
493.868	18658
493.943	13352
494.018	10798
494.093	10708
494.168	10069
494.243	8962
494.318	9288
494.393	8677
494.468	9061
494.543	8545
494.618	9341
494.693	10049
494.768	9587
494.842	10936
494.917	9027
494.992	10652
495.067	9736
495.142	9171
495.217	9415
495.292	11084
495.366	11622
495.441	14528
495.516	17442
495.591	19219
495.665	41414
495.740	114055
495.815	87974
495.890	20287
495.964	13945
496.039	16701
496.114	15002
496.188	17906
496.263	17129
496.338	16771
496.412	17373
496.487	21608
496.561	19143
496.636	21994
496.710	20483
496.785	22563
496.860	25048
496.934	23849
497.009	22688
497.083	24682
497.158	26109
497.232	28968
497.307	34255
497.381	35350
497.455	38618
497.530	46550
497.604	45143
497.679	46436
497.753	58748
497.827	76476
497.902	83317
497.976	85296
498.050	105564
498.125	262228
498.199	386979
498.273	133770
498.348	99952
498.422	89051
498.496	78855
498.570	71701
498.645	63454
498.719	59393
498.793	55773
498.867	60317
498.941	66198
499.016	103378
499.090	287795
499.164	201730
499.238	39144
499.312	30981
499.386	30333
499.460	30466
499.534	27008
499.609	27657
499.683	34713
499.757	35886
499.831	43086
499.905	161071
499.979	242137
500.053	51107
500.127	35534
500.201	26466
500.275	20242
500.349	19641
500.422	19929
500.496	23146
500.570	36480
500.644	87042
500.718	203279
500.792	93983
500.866	18631
500.940	20475
501.013	18952
501.087	16217
501.161	24286
501.235	31713
501.309	49970
501.382	149525
501.456	206478
501.530	44641
501.603	55740
501.677	40904
501.751	12886
501.825	14724
501.898	20164
501.972	62316
502.046	66856
502.119	15275
502.193	25624
502.266	69764
502.340	59316
502.413	28628
502.487	65884
502.561	48415
502.634	20296
502.708	11931
502.781	10166
502.855	8808
502.928	8062
503.002	8844
503.075	6930
503.149	9476
503.222	9606
503.295	10453
503.369	12690
503.442	15273
503.516	37177
503.589	118135
503.662	115687
503.736	34598
503.809	51607
503.882	62605
503.956	61874
504.029	88913
504.102	39207
504.175	50706
504.249	30723
504.322	17440
504.395	15174
504.468	10677
504.542	9054
504.615	9507
504.688	8047
504.761	6489
504.834	7991
504.907	9786
504.980	14699
505.053	11566
505.127	8435
505.200	14402
505.273	12525
505.346	10720
505.419	6351
505.492	7519
505.565	6321
505.638	6067
505.711	5191
505.784	6199
505.857	5523
505.930	7890
506.003	6427
506.076	9203
506.149	8585
506.221	11346
506.294	10935
506.367	20216
506.440	81427
506.513	83552
506.586	14381
506.659	10512
506.731	7374
506.804	7164
506.877	9814
506.950	9788
507.022	6040
507.095	7365
507.168	11186
507.241	7773
507.313	5745
507.386	5181
507.459	8353
507.531	6910
507.604	5473
507.677	6961
507.749	5396
507.822	7936
507.894	13401
507.967	22770
508.040	14328
508.112	11600
508.185	9588
508.257	8920
508.330	13155
508.402	9874
508.475	8973
508.547	10635
508.620	8525
508.692	13898
508.765	12667
508.837	7412
508.909	7303
508.982	8478
509.054	8261
509.127	7896
509.199	7799
509.271	7021
509.344	7165
509.416	7730
509.488	7905
509.560	8585
509.633	6641
509.705	8268
509.777	8455
509.849	10437
509.922	7770
509.994	7983
510.066	8310
510.138	8197
510.210	16332
510.283	18754
510.355	14327
510.427	12808
510.499	12752
510.571	14050
510.643	10970
510.715	14100
510.787	13910
510.859	11675
510.931	11672
511.003	14082
511.076	16693
511.148	10397
511.219	8808
511.291	13964
511.363	19317
511.435	11337
511.507	8223
511.579	9847
511.651	9400
511.723	8896
511.795	8658
511.867	9855
511.939	9245
512.010	17611
512.082	19767
512.154	9194
512.226	10085
512.298	13261
512.369	21159
512.441	16140
512.513	14041
512.585	12039
512.656	11963
512.728	13672
512.800	11733
512.871	10480
512.943	9675
513.015	9962
513.086	10716
513.158	10327
513.230	10152
513.301	12064
513.373	14766
513.444	11768
513.516	9382
513.588	10118
513.659	9587
513.731	11796
513.802	9979
513.874	15521
513.945	28536
514.016	19348
514.088	10133
514.159	10561
514.231	12966
514.302	18206
514.374	16701
514.445	13970
514.516	22558
514.588	24800
514.659	14823
514.730	23131
514.802	25933
514.873	26437
514.944	33768
515.016	28261
515.087	24175
515.158	24341
515.229	34348
515.301	33219
515.372	51462
515.443	45429
515.514	31653
515.585	23212
515.656	18217
515.728	14512
515.799	12477
515.870	12690
515.941	11627
516.012	11993
516.083	15225
516.154	14576
516.225	16216
516.296	15816
516.367	14380
516.438	14707
516.509	15912
516.580	20263
516.651	37671
516.722	137762
516.793	136670
516.864	28963
516.935	24084
517.006	24008
517.077	26487
517.148	48779
517.219	117495
517.289	283556
517.360	154734
517.431	76140
517.502	16364
517.573	14509
517.643	13644
517.714	15974
517.785	17028
517.856	15278
517.926	17135
517.997	19068
518.068	20713
518.138	27248
518.209	31277
518.280	76117
518.350	331670
518.421	280849
518.492	42177
518.562	21701
518.633	20375
518.703	20414
518.774	28818
518.845	52708
518.915	65062
518.986	33974
519.056	22939
519.127	28858
519.197	40189
519.268	92911
519.338	107776
519.408	23709
519.479	21006
519.549	19041
519.620	13622
519.690	10916
519.760	10058
519.831	11189
519.901	10893
519.971	10361
520.042	10301
520.112	12210
520.182	12995
520.253	14146
520.323	10734
520.393	10556
520.463	12491
520.534	8991
520.604	14374
520.674	13247
520.744	11204
520.814	14515
520.885	18705
520.955	26251
521.025	111284
521.095	94228
521.165	15816
521.235	11759
521.305	9686
521.375	10126
521.445	9456
521.515	12126
521.585	12687
521.655	14770
521.725	11697
521.795	12632
521.865	8605
521.935	13688
522.005	14502
522.075	9158
522.145	9461
522.215	9721
522.285	13912
522.355	16934
522.424	30753
522.494	35812
522.564	19406
522.634	20290
522.704	60734
522.774	47060
522.843	11329
522.913	10501
522.983	10528
523.053	10123
523.122	9834
523.192	10169
523.262	24490
523.331	45950
523.401	14828
523.471	8234
523.540	8755
523.610	7884
523.680	7592
523.749	8198
523.819	8897
523.888	12298
523.958	7311
524.027	7331
524.097	8075
524.166	8246
524.236	8037
524.305	10175
524.375	7760
524.444	7340
524.514	9135
524.583	8191
524.653	8834
524.722	12322
524.791	9540
524.861	9675
524.930	6878
524.999	7481
525.069	10892
525.138	10291
525.207	10913
525.277	10802
525.346	8450
525.415	8221
525.484	8392
525.554	9353
525.623	11466
525.692	10476
525.761	10565
525.830	10559
525.900	11445
525.969	16862
526.038	24735
526.107	35204
526.176	111169
526.245	141704
526.314	54648
526.383	58358
526.452	104273
526.522	123258
526.591	213150
526.660	72148
526.729	36661
526.797	31603
526.867	44914
526.935	179841
527.004	369913
527.073	326618
527.142	50244
527.211	16997
527.280	12639
527.349	13168
527.418	8240
527.487	7820
527.555	6467
527.624	6938
527.693	5216
527.762	8346
527.831	5837
527.899	6996
527.968	7244
528.037	5715
528.106	7585
528.174	12712
528.243	13760
528.312	13636
528.380	21271
528.449	10403
528.518	8375
528.586	5627
528.655	7066
528.723	5695
528.792	5030
528.861	6769
528.929	5590
528.998	6482
529.066	5782
529.135	7403
529.203	5487
529.272	5678
529.340	8548
529.409	9685
529.477	7529
529.545	8951
529.614	12168
529.682	9153
529.751	14040
529.819	12770
529.887	11734
529.956	8786
530.024	9756
530.092	7759
530.161	8714
530.229	11201
530.297	10468
530.365	9482
530.434	7740
530.502	8005
530.570	7586
530.638	6216
530.707	8528
530.775	9637
530.843	7956
530.911	9155
530.979	7830
531.047	8022
531.115	9446
531.183	9169
531.252	8738
531.320	8339
531.388	7842
531.456	8509
531.524	7525
531.592	9098
531.660	9725
531.728	8624
531.796	8368
531.864	8653
531.932	8528
532.000	8794
532.067	9449
532.135	10901
532.203	10572
532.271	11406
532.339	13897
532.407	27188
532.475	29862
532.542	15323
532.610	13454
532.678	15502
532.746	38973
532.814	150680
532.881	72426
532.949	15288
533.017	10573
533.084	10365
533.152	8991
533.220	9374
533.287	9353
533.355	10313
533.423	9559
533.490	9211
533.558	8835
533.625	10036
533.693	9617
533.761	10272
533.828	10589
533.896	9637
533.963	13783
534.031	17847
534.098	21797
534.166	17323
534.233	9719
534.300	10547
534.368	10271
534.435	9994
534.503	9854
534.570	10244
534.637	10938
534.705	12626
534.772	12447
534.840	14665
534.907	45018
534.974	103935
535.041	28291
535.109	13246
535.176	10003
535.243	10130
535.310	8072
535.378	8437
535.445	8612
535.512	8073
535.579	8957
535.646	8049
535.714	8669
535.781	11411
535.848	11123
535.915	11246
535.982	9262
536.049	9732
536.116	11313
536.183	9931
536.250	9256
536.317	9708
536.384	10225
536.451	12741
536.518	14201
536.585	11675
536.652	13315
536.719	16200
536.786	13159
536.853	12631
536.920	15059
536.987	20844
537.053	19741
537.120	56478
537.187	95951
537.254	16973
537.321	10013
537.388	10120
537.454	7896
537.521	8514
537.588	7628
537.654	10066
537.721	11401
537.788	11250
537.855	8873
537.921	9686
537.988	8938
538.055	10257
538.121	8501
538.188	9250
538.254	11001
538.321	18743
538.388	15704
538.454	10584
538.521	10471
538.587	9586
538.654	8272
538.720	9491
538.787	8666
538.853	9118
538.920	9424
538.986	11492
539.053	10109
539.119	10493
539.185	10578
539.252	10977
539.318	13704
539.385	15106
539.451	12259
539.517	13687
539.583	13474
539.650	18555
539.716	58391
539.782	34343
539.849	11013
539.915	10806
539.981	9751
540.047	11227
540.114	11215
540.180	11999
540.246	10467
540.312	11877
540.378	18830
540.444	24447
540.510	20054
540.576	61726
540.643	40051
540.709	10545
540.775	10404
540.841	9715
540.907	11991
540.973	17416
541.039	15469
541.105	16421
541.171	11843
541.237	11192
541.303	11135
541.369	12388
541.435	12119
541.500	16507
541.566	15320
541.632	11101
541.698	8927
541.764	9755
541.830	9042
541.896	8805
541.961	10330
542.027	9639
542.093	9845
542.159	11296
542.224	10537
542.290	14545
542.356	17627
542.421	22797
542.487	14585
542.553	11685
542.618	12736
542.684	11458
542.750	10425
542.815	12384
542.881	14702
542.947	45349
543.012	64079
543.078	13703
543.143	10285
543.209	11364
543.274	10506
543.340	12323
543.405	17194
543.471	42228
543.536	17149
543.602	11265
543.667	9509
543.732	11995
543.798	8832
543.863	11231
543.928	9531
543.994	9671
544.059	9860
544.124	10868
544.190	8845
544.255	10795
544.320	10241
544.386	10939
544.451	13254
544.516	15212
544.581	13571
544.646	26962
544.712	67034
544.777	25279
544.842	13479
544.907	14565
544.972	13475
545.037	12384
545.102	12770
545.168	13657
545.233	14730
545.298	15695
545.363	15435
545.428	17140
545.493	20588
545.558	45248
545.623	35175
545.688	14700
545.753	13386
545.818	14021
545.883	13750
545.947	13228
546.012	13943
546.077	15039
546.142	15057
546.207	13963
546.272	15084
546.337	16604
546.401	15195
546.466	15264
546.531	14508
546.596	15943
546.661	16147
546.725	15806
546.790	14521
546.855	15249
546.919	14202
546.984	16476
547.049	16674
547.113	20181
547.178	18905
547.243	21169
547.307	22147
547.372	25609
547.436	28301
547.501	25148
547.565	25032
547.630	26179
547.695	25922
547.759	27196
547.823	26477
547.888	24425
547.952	24281
548.017	24633
548.081	26648
548.146	28825
548.210	31139
548.274	26285
548.339	25347
548.403	24218
548.468	22876
548.532	22614
548.596	23582
548.660	24076
548.725	24637
548.789	27899
548.853	30071
548.917	26818
548.982	28434
549.046	32315
549.110	22791
549.174	22057
549.238	23439
549.303	25486
549.367	26834
549.431	25547
549.495	24562
549.559	24707
549.623	26439
549.687	29710
549.751	34065
549.815	34930
549.879	33154
549.943	31158
550.007	31863
550.071	34473
550.135	34856
550.199	32870
550.263	29954
550.327	30106
550.391	32282
550.455	33425
550.519	31216
550.582	32360
550.646	38015
550.710	44764
550.774	37094
550.838	37421
550.901	38395
550.965	41378
551.029	41479
551.093	46003
551.156	51027
551.220	65596
551.284	86435
551.347	56900
551.411	61294
551.475	85082
551.538	46747
551.602	38382
551.666	35434
551.729	32273
551.793	31597
551.856	33094
551.920	30415
551.983	32307
552.047	31505
552.110	31135
552.174	30849
552.237	31603
552.301	30622
552.364	30201
552.428	29081
552.491	28945
552.554	29210
552.618	30316
552.681	30659
552.745	31460
552.808	32831
552.871	38312
552.934	34076
552.998	32143
553.061	31881
553.124	32013
553.187	30918
553.251	32209
553.314	32745
553.377	32899
553.440	36000
553.503	54279
553.567	113195
553.630	53343
553.693	31088
553.756	31063
553.819	29623
553.882	27644
553.945	28208
554.008	28898
554.071	26405
554.134	28129
554.197	27120
554.260	25396
554.323	27553
554.386	27941
554.449	27504
554.512	29580
554.575	26470
554.638	27445
554.701	27081
554.764	26720
554.827	25796
554.889	24777
554.952	24363
555.015	23370
555.078	24054
555.141	25617
555.203	23455
555.266	23853
555.329	24504
555.391	23562
555.454	23006
555.517	23528
555.580	22407
555.642	22174
555.705	21165
555.768	22128
555.830	21421
555.893	20312
555.955	19770
556.018	19982
556.080	20472
556.143	20703
556.206	20010
556.268	21397
556.330	22134
556.393	21273
556.455	19970
556.518	24511
556.580	27098
556.643	20894
556.705	18792
556.767	18648
556.830	18688
556.892	19365
556.955	21296
557.017	23323
557.079	18850
557.142	18576
557.204	17772
557.266	25722
557.328	28963
557.391	19578
557.453	16657
557.515	17862
557.577	19205
557.639	19788
557.701	17802
557.764	17176
557.826	18270
557.888	19532
557.950	19242
558.012	22709
558.074	22882
558.136	37537
558.198	107883
558.260	76952
558.322	25571
558.384	24122
558.446	27166
558.508	29949
558.570	35730
558.632	44415
558.694	65548
558.756	71681
558.818	150362
558.880	538904
558.942	330174
559.003	126374
559.065	101611
559.127	38174
559.189	32641
559.251	35283
559.312	40577
559.374	78258
559.436	288353
559.498	292498
559.559	53985
559.621	35419
559.683	33525
559.744	44630
559.806	112107
559.868	279411
559.929	102209
559.991	36726
560.052	39478
560.114	93148
560.176	105386
560.237	54727
560.299	113702
560.360	53551
560.422	20718
560.483	19213
560.545	16704
560.606	15615
560.667	15766
560.729	16260
560.790	14859
560.852	15406
560.913	15502
560.974	15561
561.036	15332
561.097	15988
561.158	15541
561.220	16887
561.281	15442
561.342	15090
561.403	17064
561.465	18546
561.526	26105
561.587	44106
561.648	23485
561.709	17538
561.771	14954
561.832	15594
561.893	15044
561.954	16470
562.015	15606
562.076	15899
562.137	16115
562.198	15023
562.259	16089
562.320	14717
562.381	16027
562.442	16545
562.503	18651
562.564	16072
562.625	14309
562.686	15764
562.747	15354
562.808	15415
562.869	15542
562.930	18243
562.991	19582
563.051	18970
563.112	17067
563.173	16016
563.234	14981
563.294	16433
563.355	15613
563.416	16332
563.477	16250
563.537	16414
563.598	17393
563.659	17305
563.720	16199
563.780	16837
563.841	18001
563.901	17756
563.962	17627
564.023	17582
564.083	17275
564.144	18069
564.204	17277
564.265	18186
564.325	19160
564.386	25789
564.446	31473
564.507	19495
564.567	18036
564.628	18277
564.688	18116
564.749	19478
564.809	20788
564.869	23070
564.930	21066
564.990	20294
565.050	19640
565.111	20595
565.171	19853
565.231	20702
565.292	20493
565.352	20000
565.412	20396
565.472	21801
565.532	22506
565.593	22340
565.653	21380
565.713	24017
565.773	25150
565.833	25958
565.893	29892
565.953	28451
566.013	28080
566.074	29543
566.134	32202
566.194	38339
566.254	43621
566.314	39215
566.374	35843
566.434	36970
566.494	38298
566.554	40247
566.614	41407
566.673	44678
566.733	47217
566.793	48861
566.853	51915
566.913	54387
566.973	55248
567.033	56574
567.092	54665
567.152	54339
567.212	55412
567.272	57722
567.331	61385
567.391	64376
567.451	66954
567.511	70266
567.570	71807
567.630	63082
567.690	59483
567.749	60754
567.809	64510
567.868	71763
567.928	81796
567.988	95105
568.047	111451
568.107	135695
568.166	175396
568.226	247269
568.285	353054
568.345	364996
568.404	324835
568.464	290006
568.523	273775
568.582	271728
568.642	282893
568.701	318593
568.761	404041
568.820	572332
568.879	649510
568.939	564319
568.998	464904
569.057	386608
569.116	320791
569.176	269331
569.235	229545
569.294	194876
569.353	169075
569.413	146648
569.472	130660
569.531	115209
569.590	102630
569.649	92623
569.708	82869
569.767	76625
569.827	69440
569.886	64644
569.945	58766
570.004	55375
570.063	51902
570.122	49406
570.181	47162
570.240	44787
570.299	43147
570.358	39183
570.417	36821
570.475	36206
570.534	34368
570.593	33662
570.652	32445
570.711	31062
570.770	29183
570.829	30307
570.887	29541
570.946	28938
571.005	26727
571.064	26488
571.122	25144
571.181	26766
571.240	25444
571.299	23406
571.357	23031
571.416	25021
571.475	23614
571.533	25520
571.592	22110
571.650	22600
571.709	21095
571.768	21442
571.826	20800
571.885	21126
571.943	20048
572.002	19439
572.060	19744
572.119	18887
572.177	18694
572.236	18278
572.294	18025
572.352	18540
572.411	17551
572.469	17964
572.528	17129
572.586	17455
572.644	16436
572.703	18286
572.761	16613
572.819	17512
572.877	16828
572.936	17043
572.994	16448
573.052	16195
573.110	15597
573.169	16530
573.227	16129
573.285	16664
573.343	15967
573.401	15450
573.459	15542
573.517	15309
573.576	15421
573.634	15945
573.692	16008
573.750	15712
573.808	14586
573.866	17269
573.924	18189
573.982	18772
574.040	16089
574.098	15617
574.155	15567
574.213	15573
574.271	15201
574.329	15274
574.387	15053
574.445	16099
574.503	13717
574.560	14732
574.618	14178
574.676	14858
574.734	14435
574.792	14205
574.849	13562
574.907	15482
574.965	13864
575.022	14448
575.080	13026
575.138	15288
575.195	14196
575.253	15047
575.311	13991
575.368	14983
575.426	14014
575.483	15707
575.541	14541
575.598	14340
575.656	13993
575.713	15005
575.771	14578
575.828	15208
575.886	14172
575.943	15164
576.001	15376
576.058	15248
576.115	15329
576.173	16020
576.230	16600
576.287	18063
576.345	17309
576.402	16187
576.459	15507
576.517	15956
576.574	15942
576.631	15982
576.688	16588
576.746	16475
576.803	15393
576.860	15683
576.917	14753
576.974	15311
577.031	16227
577.089	16372
577.146	16002
577.203	16065
577.260	15637
577.317	17419
577.374	16692
577.431	17861
577.488	16637
577.545	16691
577.602	15290
577.659	16778
577.716	15769
577.773	17080
577.830	16628
577.886	16526
577.943	16081
578.000	15420
578.057	16152
578.114	17016
578.171	17339
578.227	18879
578.284	17807
578.341	17954
578.398	16830
578.454	18323
578.511	18114
578.568	18784
578.625	17168
578.681	17635
578.738	16489
578.794	17720
578.851	17558
578.908	17394
578.964	17789
579.021	18401
579.077	17183
579.134	17530
579.190	17980
579.247	17803
579.303	17525
579.360	17734
579.416	17072
579.473	18314
579.529	17708
579.586	18040
579.642	18114
579.698	17567
579.755	18599
579.811	18941
579.867	17620
579.924	18380
579.980	17774
580.036	19433
580.093	19926
580.149	20950
580.205	22444
580.261	21576
580.317	21164
580.374	21236
580.430	21512
580.486	21703
580.542	21356
580.598	21409
580.619	20931
580.654	20124
580.692	20289
580.710	20406
580.765	20700
580.767	20730
580.823	20908
580.838	20691
580.879	20156
580.911	20422
580.935	20667
580.984	20052
580.991	19987
581.047	21418
581.057	21372
581.103	21266
581.130	21398
581.159	21560
581.203	22074
581.215	22229
581.270	21448
581.276	21496
581.326	22147
581.349	22279
581.382	22492
581.422	22151
581.438	22027
581.494	22200
581.494	22187
581.550	22171
581.567	22341
581.606	22775
581.640	21935
581.661	21406
581.713	24008
581.717	24228
581.773	22743
581.786	22796
581.829	23106
581.859	23383
581.885	23635
581.932	23719
581.940	23732
581.996	24337
582.004	24371
582.052	24572
582.077	24005
582.107	23375
582.150	23955
582.163	24185
582.219	24660
582.223	24704
582.274	25038
582.296	24599
582.330	24087
582.368	25399
582.386	25983
582.441	24704
582.441	24707
582.497	25799
582.514	25757
582.552	25861
582.587	26382
582.608	26665
582.659	26490
582.663	26478
582.719	26047
582.732	26103
582.774	26329
582.805	26847
582.830	27265
582.877	27365
582.885	27380
582.941	28220
582.950	28299
582.996	28855
583.023	29054
583.052	29321
583.095	29425
583.107	29426
583.162	30545
583.168	30654
583.218	31580
583.240	31477
583.273	31360
583.313	30774
583.328	30566
583.384	31092
583.385	31101
583.439	31029
583.458	31048
583.494	31230
583.531	31397
583.549	31520
583.603	31983
583.605	31997
583.660	32154
583.676	32306
583.715	32642
583.748	32744
583.770	32876
583.820	33730
583.825	33800
583.881	34577
583.893	34570
583.936	34690
583.965	34938
583.991	35004
584.038	35586
584.046	35709
584.101	36397
584.110	36594
584.156	37634
584.183	37250
584.211	36811
584.255	38100
584.266	38468
584.321	38407
584.328	38571
584.376	39666
584.400	39789
584.431	39936
584.472	40617
584.486	40931
584.541	40780
584.545	40908
584.596	42796
584.617	42922
584.651	43291
584.689	44209
584.706	44616
584.761	45009
584.762	45021
584.816	46272
584.834	46750
584.871	47748
584.906	48310
584.926	48634
584.978	48668
584.980	48689
585.035	51635
585.051	52109
585.090	53349
585.123	54277
585.145	54843
585.195	56180
585.200	56325
585.254	58012
585.267	58578
585.309	60484
585.340	62553
585.364	64319
585.412	66330
585.419	66567
585.473	68850
585.484	69447
585.528	73143
585.556	76315
585.583	81922
585.628	95768
585.637	101085
585.692	144922
585.700	155291
585.747	208903
585.772	209144
585.801	178673
585.845	114743
585.856	104208
585.910	85564
585.917	84071
585.965	82249
585.989	81841
586.019	81889
586.061	82247
586.074	82532
586.128	84906
586.133	85104
586.183	87129
586.205	87825
586.237	89739
586.277	91865
586.292	92456
586.346	94464
586.349	94604
586.401	98013
586.421	99176
586.455	101392
586.493	104402
586.509	106114
586.564	112852
586.565	113026
586.618	125867
586.637	129499
586.672	130149
586.709	125385
586.727	123941
586.781	126345
586.781	126406
586.835	131267
586.853	132841
586.889	136401
586.925	139473
586.944	141379
586.996	148383
586.998	148635
587.052	154563
587.068	156278
587.106	161386
587.140	166345
587.161	169608
587.212	177508
587.215	178033
587.269	187755
587.284	190472
587.323	197775
587.356	203608
587.377	208293
587.427	219996
587.431	220980
587.485	234097
587.499	237056
587.539	247569
587.571	257221
587.593	265180
587.643	282768
587.648	284551
587.702	302977
587.715	307504
587.755	326254
587.786	341014
587.810	352453
587.858	376434
587.864	379883
587.917	412114
587.930	419665
587.971	448686
588.001	470272
588.025	490480
588.073	531664
588.079	538083
588.133	593367
588.145	605940
588.187	657822
588.217	694923
588.241	731666
588.288	803175
588.295	815356
588.348	916025
588.360	937369
588.402	1035364
588.431	1102848
588.456	1172494
588.503	1308950
588.510	1335551
588.564	1541910
588.575	1583242
588.617	1787159
588.646	1924217
588.671	2061163
588.718	2308750
588.725	2343099
588.778	2565559
588.789	2600287
588.832	2587526
588.861	2544300
588.886	2304430
588.932	1793145
588.939	1747709
588.993	1390480
589.004	1349026
589.047	1933373
589.075	2335686
589.100	2519260
589.147	2796347
589.154	2795606
589.207	2698484
589.218	2669575
589.261	2565467
589.290	2488553
589.314	2498382
589.361	2510981
589.368	2529386
589.421	2647224
589.433	2662679
589.475	2579584
589.504	2486394
589.528	2230623
589.576	1680230
589.582	1713494
589.635	2110154
589.647	2202057
589.689	2500057
589.718	2662628
589.742	2543617
589.790	2250627
589.795	2216085
589.849	1836260
589.861	1745242
589.902	1539740
589.932	1385022
589.955	1299446
590.004	1116174
590.009	1104328
590.062	963797
590.075	928895
590.115	847733
590.146	783869
590.168	751753
590.218	679282
590.222	674991
590.275	610235
590.289	592895
590.328	556276
590.360	525910
590.381	509532
590.431	470099
590.435	468491
590.488	431629
590.503	421026
590.541	401205
590.574	383281
590.594	373850
590.645	349312
590.647	348939
590.700	327197
590.716	320527
590.753	307744
590.787	294935
590.806	289545
590.859	274357
590.859	274482
590.912	260022
590.930	255127
590.965	247549
591.001	239405
591.018	236090
591.071	225385
591.072	224976
591.124	215246
591.143	211454
591.177	206644
591.214	200630
591.230	198703
591.283	191970
591.285	191417
591.336	183993
591.356	180816
591.389	177133
591.427	171913
591.442	170573
591.495	164936
591.498	164279
591.547	158940
591.569	156281
591.600	153888
591.640	149993
591.653	149081
591.706	144485
591.711	143756
591.759	140864
591.782	139194
591.811	138452
591.853	136799
591.864	135893
591.917	130147
591.924	129101
591.969	126473
591.995	124722
592.022	123618
592.066	121230
592.075	121090
592.127	119066
592.137	118497
592.180	118699
592.208	118530
592.233	116170
592.279	111007
592.285	110800
592.338	107595
592.350	106698
592.390	104825
592.421	103108
592.443	102277
592.491	99940
592.495	99985
592.548	98387
592.562	97780
592.600	96673
592.633	95447
592.653	94963
592.704	92776
592.705	93295
592.775	92614
592.846	89682
592.916	87710
592.987	86101
593.058	83681
593.128	80322
593.199	79679
593.270	78121
593.341	77240
593.411	76442
593.482	74648
593.553	73067
593.623	71569
593.694	70232
593.764	70591
593.835	67443
593.906	66663
593.976	65440
594.047	65215
594.117	67696
594.188	66702
594.258	62718
594.329	60517
594.399	60641
594.470	59539
594.540	60263
594.611	57724
594.681	56888
594.751	57493
594.822	56438
594.892	56527
594.963	57703
595.033	55480
595.103	55633
595.174	55582
595.244	60002
595.314	65985
595.384	55090
595.455	52788
595.525	53441
595.595	53039
595.665	53087
595.736	52355
595.806	51145
595.876	49884
595.946	50703
596.016	49734
596.087	50428
596.157	50674
596.227	50071
596.297	50047
596.367	51664
596.437	53004
596.507	55904
596.577	61247
596.647	52546
596.717	50818
596.787	51192
596.857	50183
596.927	50244
596.997	50505
597.067	51164
597.137	53124
597.207	53601
597.277	52117
597.347	49918
597.417	49474
597.487	48956
597.557	49788
597.626	50478
597.696	50880
597.766	53329
597.836	56026
597.906	50288
597.975	45658
598.045	45331
598.115	46606
598.185	47962
598.254	49289
598.324	51873
598.394	51644
598.464	51204
598.533	51274
598.603	48531
598.672	48661
598.742	48398
598.812	49188
598.881	48926
598.951	47826
599.020	47389
599.090	48277
599.159	50056
599.229	48663
599.299	48075
599.368	48109
599.437	48076
599.507	46502
599.576	46345
599.646	45823
599.715	45812
599.785	44129
599.854	45335
599.924	46127
599.993	44263
600.062	43136
600.132	43617
600.201	44936
600.270	48842
600.340	50158
600.409	50037
600.478	49745
600.547	49497
600.617	48306
600.686	43746
600.755	42211
600.824	41164
600.894	41282
600.963	40257
601.032	39918
601.101	40918
601.170	39206
601.239	39068
601.308	38763
601.378	38918
601.447	39664
601.516	39682
601.585	40282
601.654	40808
601.723	41584
601.792	41608
601.861	41592
601.930	45711
601.999	45686
602.068	44443
602.137	43898
602.206	44341
602.275	43973
602.343	45226
602.412	46001
602.481	43528
602.550	44093
602.619	44888
602.688	45058
602.756	45752
602.825	44362
602.894	45112
602.963	46333
603.032	46521
603.100	45683
603.169	46234
603.238	46215
603.307	45530
603.375	45131
603.444	46909
603.513	45403
603.581	46471
603.650	47686
603.719	44049
603.787	43475
603.856	44176
603.924	44065
603.993	46293
604.061	47136
604.130	46757
604.198	48739
604.267	49145
604.335	49745
604.404	50082
604.472	49922
604.541	50497
604.609	50472
604.678	51231
604.746	51141
604.815	53199
604.883	52298
604.951	52396
605.020	52074
605.088	52982
605.156	51116
605.225	51456
605.293	51145
605.361	51980
605.429	51735
605.498	52674
605.566	53341
605.634	54828
605.702	55133
605.771	56187
605.839	57091
605.907	55443
605.975	54552
606.043	53606
606.111	52415
606.180	54421
606.248	55181
606.316	54087
606.384	53998
606.452	53429
606.520	51136
606.588	48782
606.656	47681
606.724	47278
606.792	45124
606.860	42734
606.928	38376
606.996	38543
607.064	37144
607.132	37951
607.200	39376
607.267	40924
607.335	39916
607.403	42024
607.471	40596
607.539	39529
607.607	40157
607.674	37243
607.742	36158
607.810	36724
607.878	36114
607.946	36468
608.013	37566
608.081	38390
608.149	38293
608.216	39250
608.284	40259
608.352	41203
608.419	40639
608.487	43667
608.555	39929
608.622	39861
608.690	40352
608.757	43898
608.825	44178
608.893	45102
608.960	42325
609.028	42439
609.095	44970
609.163	41259
609.230	38678
609.298	35379
609.365	35000
609.432	39302
609.500	39739
609.567	44744
609.635	49842
609.702	53162
609.769	51420
609.837	44750
609.904	38616
609.971	39400
610.039	44291
610.106	58504
610.173	102782
610.241	237267
610.308	192834
610.375	64122
610.442	42766
610.509	38755
610.577	38183
610.644	38630
610.711	39552
610.778	39789
610.845	40466
610.912	43814
610.980	44879
611.047	47938
611.114	45337
611.181	42377
611.248	40335
611.315	44176
611.382	44977
611.449	45208
611.516	46942
611.583	46248
611.650	47075
611.717	47536
611.784	48779
611.851	52484
611.918	57368
611.984	70637
612.051	104110
612.118	210700
612.185	533972
612.252	484550
612.319	108641
612.386	67508
612.452	58961
612.519	56372
612.586	56968
612.653	56024
612.719	55266
612.786	51943
612.853	48883
612.919	46885
612.986	47341
613.053	45083
613.120	42974
613.186	41400
613.253	44050
613.319	41427
613.386	42769
613.453	43796
613.519	43045
613.586	44626
613.652	49938
613.719	47430
613.785	46748
613.852	43730
613.918	42840
613.985	44307
614.051	48379
614.118	55001
614.184	57477
614.250	45907
614.317	45560
614.383	42243
614.449	43031
614.516	43186
614.582	44324
614.648	43957
614.715	42858
614.781	42501
614.847	43466
614.914	44928
614.980	44585
615.046	44561
615.112	46821
615.179	52611
615.245	62281
615.311	84536
615.377	152281
615.443	211121
615.509	129118
615.575	80853
615.642	65055
615.708	61978
615.774	67920
615.840	81506
615.906	109119
615.972	178862
616.038	360302
616.104	572862
616.170	815889
616.236	858559
616.302	212928
616.368	109822
616.434	81289
616.500	69019
616.565	69272
616.631	79338
616.697	71465
616.763	68399
616.829	88411
616.895	147574
616.961	168913
617.026	90054
617.092	55979
617.158	49092
617.224	46192
617.289	43511
617.355	42038
617.421	39966
617.487	41977
617.552	38517
617.618	36872
617.684	36927
617.749	40019
617.815	36559
617.880	35251
617.946	35041
618.012	36151
618.077	36925
618.143	35363
618.208	35419
618.274	38008
618.339	38045
618.405	33921
618.470	33157
618.536	33652
618.601	34265
618.667	32795
618.732	31006
618.798	30227
618.863	30024
618.928	29067
618.994	31189
619.059	32393
619.124	36218
619.190	32377
619.255	30619
619.320	30101
619.386	29086
619.451	28587
619.516	28754
619.581	28929
619.647	31000
619.712	28886
619.777	28580
619.842	28483
619.907	29775
619.972	29424
620.038	29422
620.103	28369
620.168	28178
620.233	28639
620.298	28659
620.363	28296
620.428	28856
620.493	29422
620.558	30661
620.623	29931
620.688	29628
620.753	29460
620.818	30443
620.883	30621
620.948	30111
621.013	29742
621.078	29423
621.143	29031
621.207	32295
621.272	31134
621.337	30961
621.402	32205
621.467	33329
621.532	34679
621.596	32552
621.661	30830
621.726	29718
621.791	29231
621.855	30637
621.920	30856
621.985	30603
622.049	33610
622.114	33236
622.179	32622
622.243	32908
622.308	32502
622.373	35009
622.437	33586
622.502	32564
622.566	30185
622.631	31045
622.695	32304
622.760	31806
622.824	31191
622.889	32253
622.953	33195
623.018	36897
623.082	39770
623.147	33157
623.211	32354
623.276	32373
623.340	31493
623.404	30006
623.469	29194
623.533	30982
623.597	29116
623.662	28976
623.726	28709
623.790	27359
623.854	25775
623.919	27668
623.983	26977
624.047	28903
624.111	28145
624.176	27515
624.240	28195
624.304	30843
624.368	28538
624.432	27684
624.496	28890
624.560	29814
624.625	30708
624.689	29775
624.753	30237
624.817	28966
624.881	28120
624.945	27627
625.009	26491
625.073	27236
625.137	27586
625.201	30005
625.265	31262
625.329	28329
625.393	27823
625.456	28336
625.520	28762
625.584	31056
625.648	32997
625.712	40372
625.776	66846
625.839	80119
625.903	44330
625.967	27588
626.031	34419
626.095	50327
626.158	32558
626.222	23072
626.286	22268
626.349	20684
626.413	20382
626.477	22530
626.540	20428
626.604	20438
626.668	20163
626.731	20623
626.795	20641
626.858	21792
626.922	19752
626.986	19049
627.049	18748
627.113	20228
627.176	19485
627.240	18738
627.303	18879
627.366	19814
627.430	18943
627.493	19469
627.557	19143
627.620	20795
627.684	19212
627.747	19620
627.810	18521
627.874	18724
627.937	17403
628.000	19438
628.064	17794
628.127	16973
628.190	16486
628.253	17129
628.317	16240
628.380	15508
628.443	14393
628.506	16194
628.569	15653
628.632	14260
628.696	14766
628.759	14805
628.822	14644
628.885	14634
628.948	14862
629.011	14026
629.074	14382
629.137	13679
629.200	13635
629.263	15166
629.326	12634
629.389	14013
629.452	13553
629.515	14786
629.578	13211
629.641	14099
629.704	13634
629.767	14422
629.830	13337
629.892	13040
629.955	13302
630.018	14331
630.081	13233
630.144	15356
630.207	13107
630.269	14962
630.332	14086
630.395	14036
630.458	12741
630.520	11269
630.583	12860
630.646	13348
630.708	11808
630.771	11634
630.834	12618
630.896	12940
630.959	11775
631.021	11820
631.084	12221
631.146	13311
631.209	14423
631.272	13362
631.334	12129
631.397	12422
631.459	12838
631.522	12564
631.584	13055
631.646	13571
631.709	13533
631.771	15633
631.834	13992
631.896	13447
631.958	11057
632.021	12301
632.083	11610
632.145	12618
632.208	11259
632.270	12160
632.332	10860
632.395	11670
632.457	11742
632.519	11762
632.581	11718
632.643	11219
632.706	11965
632.768	11389
632.830	10983
632.892	11683
632.954	10842
633.016	12307
633.078	10874
633.141	11120
633.203	10636
633.265	11924
633.327	10977
633.389	10377
633.451	11218
633.513	12513
633.575	13489
633.637	12222
633.698	11505
633.760	11741
633.822	11357
633.884	11684
633.946	12127
634.008	12401
634.070	11006
634.132	13697
634.193	13069
634.255	12958
634.317	12418
634.379	14008
634.441	13132
634.502	12580
634.564	11944
634.626	12102
634.687	10830
634.749	11135
634.811	12289
634.873	9864
634.934	10159
634.996	10666
635.057	10111
635.119	10412
635.181	10122
635.242	11023
635.304	8889
635.365	12466
635.427	10485
635.488	10936
635.550	10203
635.611	12084
635.673	9386
635.734	12677
635.796	11505
635.857	13440
635.918	11837
635.980	13472
636.041	12547
636.102	13801
636.164	12854
636.225	14102
636.286	11831
636.348	12053
636.409	10548
636.470	10341
636.531	9929
636.593	10892
636.654	11196
636.715	9888
636.776	9887
636.838	9451
636.899	9480
636.960	9433
637.021	9467
637.082	9150
637.143	9370
637.204	8914
637.265	8551
637.326	9521
637.387	8988
637.448	8586
637.509	9767
637.570	9037
637.631	8799
637.692	8319
637.753	7669
637.814	9426
637.875	8947
637.936	9850
637.997	7986
638.058	8009
638.119	8778
638.179	9059
638.240	8929
638.301	9194
638.362	7805
638.423	8222
638.483	8882
638.544	7311
638.605	8146
638.666	7519
638.726	8465
638.787	9267
638.848	8047
638.908	8101
638.969	8148
639.030	8000
639.090	7499
639.151	7929
639.211	8461
639.272	9987
639.332	11607
639.393	10290
639.453	7771
639.514	8325
639.574	8183
639.635	7972
639.695	7859
639.756	6591
639.816	8551
639.877	8010
639.937	10599
639.997	13289
640.058	8155
640.118	6735
640.178	7565
640.239	6806
640.299	6856
640.359	7299
640.420	7641
640.480	8671
640.540	7968
640.600	8688
640.661	8453
640.721	7271
640.781	10763
640.841	9398
640.901	7950
640.961	8629
641.021	8197
641.082	7968
641.142	9658
641.202	9513
641.262	5923
641.322	7744
641.382	6394
641.442	7350
641.502	6233
641.562	7041
641.622	6734
641.682	7838
641.742	7942
641.802	7879
641.861	8204
641.921	7929
641.981	7599
642.041	8579
642.101	8190
642.161	6999
642.221	6902
642.280	7002
642.340	6652
642.400	5802
642.460	7558
642.519	7072
642.579	6090
642.639	7110
642.698	5536
642.758	8749
642.818	6526
642.877	6939
642.937	7531
642.997	8297
643.056	9570
643.116	7955
643.175	8395
643.235	7321
643.294	7535
643.354	8375
643.414	8888
643.473	11546
643.532	12918
643.592	17908
643.651	26894
643.711	47168
643.770	86339
643.830	192212
643.889	503903
643.948	188696
644.008	24455
644.067	14927
644.126	11121
644.186	8585
644.245	9273
644.304	6729
644.363	8720
644.423	6926
644.482	7261
644.541	8241
644.600	5839
644.659	9724
644.719	10400
644.778	13875
644.837	20566
644.896	38296
644.955	96423
645.014	51042
645.073	12022
645.132	8742
645.191	7868
645.250	7235
645.309	8414
645.368	7314
645.427	9548
645.486	11350
645.545	22127
645.604	10696
645.663	7224
645.722	6719
645.781	7825
645.840	9455
645.898	10818
645.957	16673
646.016	22872
646.075	40460
646.134	78125
646.192	183648
646.251	371355
646.310	82244
646.369	16375
646.427	12455
646.486	8257
646.545	8251
646.603	7627
646.662	7538
646.721	6630
646.779	6042
646.838	5230
646.896	8972
646.955	10455
647.014	14366
647.072	21704
647.131	56539
647.189	42502
647.248	8790
647.306	6500
647.365	7302
647.423	5069
647.481	7158
647.540	4106
647.598	5825
647.657	4746
647.715	6410
647.773	4914
647.832	5654
647.890	4231
647.948	4951
648.007	5972
648.065	4877
648.123	4443
648.181	6804
648.240	5424
648.298	5194
648.356	4735
648.414	5090
648.472	5111
648.531	5880
648.589	5264
648.647	4874
648.705	5290
648.763	5524
648.821	5207
648.879	5928
648.937	6689
648.995	7926
649.053	9174
649.111	12094
649.169	19104
649.227	30363
649.285	57305
649.343	167888
649.401	128867
649.459	23318
649.516	15482
649.574	9079
649.632	12476
649.690	16904
649.748	11790
649.806	12201
649.863	21339
649.921	40481
649.979	38979
650.037	8820
650.094	4826
650.152	5568
650.210	4090
650.268	5443
650.325	5123
650.383	5671
650.440	3997
650.498	5449
650.556	4690
650.613	4770
650.671	4409
650.728	4621
650.786	4827
650.843	5142
650.901	4091
650.958	4844
651.016	3712
651.073	4787
651.131	4544
651.188	4305
651.246	3855
651.303	3641
651.360	3694
651.418	3731
651.475	3987
651.532	3017
651.590	4416
651.647	3995
651.704	4157
651.762	4280
651.819	4626
651.876	4177
651.933	3879
651.990	4005
652.048	3786
652.105	3581
652.162	3647
652.219	3999
652.276	3895
652.333	4162
652.390	2481
652.448	4161
652.505	3647
652.562	3741
652.619	4328
652.676	5478
652.733	6309
652.790	3709
652.847	2478
652.904	4350
652.961	2761
653.017	3880
653.074	3792
653.131	3728
653.188	2232
653.245	3545
653.302	3210
653.359	3448
653.415	3391
653.472	3329
653.529	4177
653.586	3229
653.642	3021
653.699	4418
653.756	2684
653.813	3088
653.869	3854
653.926	3531
653.983	3209
654.039	3953
654.096	2869
654.152	3943
654.209	2657
654.266	3696
654.322	3223
654.379	3957
654.435	3855
654.492	3893
654.548	5305
654.605	6726
654.661	5255
654.717	3459
654.774	3118
654.830	3562
654.887	4029
654.943	4643
655.000	4694
655.056	3757
655.112	4183
655.168	3079
655.225	4556
655.281	4961
655.337	4031
655.394	6136
655.450	6137
655.506	5437
655.562	5543
655.618	7428
655.675	2630
655.731	3398
655.787	3593
655.843	4369
655.899	2493
655.955	4834
656.011	4161
656.067	3501
656.123	2767
656.179	2987
656.235	4665
656.291	3128
656.347	4113
656.403	3467
656.459	3752
656.515	3378
656.571	4125
656.627	4156
656.683	3101
656.739	4402
656.795	3484
656.850	4285
656.906	3954
656.962	3871
657.018	3060
657.074	3605
657.129	3070
657.185	5139
657.241	6421
657.297	5568
657.352	3252
657.408	2996
657.464	4747
657.519	3829
657.575	2331
657.630	3088
657.686	2761
657.742	3391
657.797	3185
657.853	3552
657.908	3922
657.964	2503
658.019	3133
658.075	2878
658.130	3759
658.186	3053
658.241	3746
658.297	2997
658.352	2952
658.407	3499
658.463	2499
658.518	4406
658.573	3644
658.629	2569
658.684	2338
658.739	4285
658.795	2884
658.850	3381
658.905	2863
658.960	4036
659.016	2260
659.071	3433
659.126	3230
659.181	3038
659.236	5020
659.291	6282
659.346	3561
659.401	3268
659.457	3317
659.512	4020
659.567	4670
659.622	3295
659.677	2527
659.732	3280
659.787	3730
659.842	3676
659.897	5341
659.952	3683
660.007	3544
660.061	3417
660.116	2973
660.171	2598
660.226	3546
660.281	3954
660.336	2487
660.391	3758
660.445	2896
660.500	3260
660.555	2766
660.610	2202
660.664	3142
660.719	3097
660.774	3105
660.828	4106
660.883	2628
660.938	3580
660.992	1734
661.047	3327
661.101	2910
661.156	3545
661.211	1617
661.265	2798
661.320	2567
661.374	2686
661.429	2382
661.483	3281
661.538	3156
661.592	3440
661.647	2761
661.701	2939
661.755	3599
661.810	3258
661.864	2261
661.919	3037
661.973	3336
662.027	2002
662.081	2618
662.136	2447
662.190	3217
662.244	3813
662.299	2229
662.353	3019
662.407	2521
662.461	2540
662.515	3447
662.569	3021
662.624	3415
662.678	2356
662.732	2747
662.786	3188
662.840	3537
662.894	3139
662.948	2016
663.002	2951
663.056	2861
663.110	2806
663.164	2247
663.218	2601
663.272	2376
663.326	3269
663.380	2664
663.434	3343
663.488	2283
663.542	3178
663.595	2867
663.649	2893
663.703	3019
663.757	2730
663.811	2150
663.864	2261
663.918	3241
663.972	2393
664.026	2454
664.079	2618
664.133	2635
664.187	3060
664.240	2297
664.294	2606
664.348	2805
664.401	2832
664.455	2509
664.508	2750
664.562	2794
664.615	3385
664.669	1835
664.722	2184
664.776	1881
664.829	2682
664.883	2164
664.936	2891
664.990	3762
665.043	3760
665.097	2958
665.150	3777
665.203	2772
665.257	2927
665.310	2789
665.363	2820
665.417	2158
665.470	2269
665.523	3062
665.576	3659
665.630	3468
665.683	3565
665.736	3425
665.789	2842
665.842	2768
665.895	3010
665.949	2653
666.002	3093
666.055	2891
666.108	3654
666.161	2723
666.214	3064
666.267	3270
666.320	3553
666.373	2731
666.426	3001
666.479	2313
666.532	3442
666.585	3368
666.638	3924
666.691	3001
666.744	4319
666.796	3752
666.849	2933
666.902	3035
666.955	2814
667.008	2402
667.060	3067
667.113	2608
667.166	3435
667.219	2742
667.271	2303
667.324	2935
667.377	3507
667.430	3239
667.482	2850
667.535	2956
667.587	2917
667.640	3217
667.693	3321
667.745	4192
667.798	5989
667.850	2850
667.903	3057
667.955	2967
668.008	3500
668.060	3111
668.113	2874
668.165	3864
668.218	3110
668.270	4191
668.322	3769
668.375	3086
668.427	3527
668.479	2999
668.532	2579
668.584	3223
668.636	3243
668.689	3134
668.741	2268
668.793	3148
668.845	3275
668.898	2938
668.950	3498
669.002	3296
669.054	2643
669.106	3227
669.158	3708
669.211	2795
669.263	2977
669.315	3107
669.367	4179
669.419	2840
669.471	3473
669.523	4339
669.575	5028
669.627	3357
669.679	3515
669.731	3361
669.783	3806
669.835	3332
669.886	3981
669.938	3272
669.990	3985
670.042	2519
670.094	3714
670.146	3356
670.197	2929
670.249	4146
670.301	4376
670.353	5721
670.404	7856
670.456	9678
670.508	13624
670.560	20022
670.611	33712
670.663	53539
670.715	109126
670.766	227055
670.818	109364
670.869	17128
670.921	8553
670.972	6152
671.024	5484
671.075	4599
671.127	4513
671.178	3595
671.230	3882
671.281	4060
671.333	3536
671.384	2929
671.436	3674
671.487	4783
671.538	5998
671.590	6577
671.641	9215
671.692	13495
671.744	23294
671.795	23476
671.846	12562
671.897	6644
671.949	5217
672.000	4459
672.051	3802
672.102	3459
672.153	2832
672.204	3505
672.256	2991
672.307	3198
672.358	3971
672.409	3014
672.460	3149
672.511	2402
672.562	3048
672.613	2194
672.664	2949
672.715	2932
672.766	3090
672.817	2530
672.868	2583
672.919	3632
672.970	2667
673.021	2983
673.071	2209
673.122	3086
673.173	2274
673.224	2939
673.275	3195
673.326	2732
673.376	2904
673.427	2111
673.478	2732
673.528	2998
673.579	2337
673.630	2380
673.680	3358
673.731	2482
673.782	2631
673.832	1967
673.883	2742
673.934	1930
673.984	2507
674.035	2593
674.085	2601
674.136	2681
674.186	3017
674.237	3260
674.287	4451
674.338	3649
674.388	3255
674.438	2799
674.489	2691
674.539	3231
674.589	2852
674.640	2555
674.690	3598
674.740	2165
674.791	3334
674.841	2702
674.891	2807
674.942	2768
674.992	2774
675.042	2158
675.092	2474
675.142	2540
675.193	1881
675.243	1157
675.293	2558
675.343	1474
675.393	2690
675.443	3193
675.493	2365
675.543	1291
675.593	2904
675.643	2147
675.693	2199
675.743	1973
675.793	2499
675.843	2562
675.893	2923
675.943	1959
675.993	2574
676.043	1887
676.093	2906
676.142	1934
676.192	2698
676.242	2355
676.292	1739
676.341	1764
676.391	2246
676.441	1800
676.491	2419
676.540	1122
676.590	2557
676.640	1500
676.689	1653
676.739	2053
676.789	1646
676.838	1814
676.888	2870
676.937	1726
676.987	1534
677.037	1417
677.086	1588
677.136	2039
677.185	2497
677.235	1905
677.284	2121
677.333	1662
677.383	1995
677.432	1249
677.482	1969
677.531	1700
677.580	1723
677.630	1439
677.679	1677
677.728	1358
677.778	2003
677.827	1565
677.876	1984
677.925	1772
677.975	1655
678.024	1481
678.073	1536
678.122	1918
678.171	2476
678.220	1998
678.269	2668
678.319	1614
678.368	1894
678.417	1526
678.466	2254
678.515	1995
678.564	2537
678.613	2304
678.662	1838
678.711	1843
678.760	2447
678.809	1360
678.857	2544
678.906	1627
678.955	2522
679.004	972
679.053	2062
679.102	1468
679.151	2490
679.199	1342
679.248	3073
679.297	2161
679.346	1962
679.394	1901
679.443	2224
679.492	1333
679.540	1514
679.589	2054
679.638	2037
679.686	1197
679.735	1053
679.784	2107
679.832	2289
679.881	1121
679.929	1751
679.978	1347
680.026	1602
680.075	1577
680.123	1795
680.172	1209
680.220	1764
680.268	1659
680.317	1427
680.365	1190
680.414	2126
680.462	1263
680.510	1913
680.559	1116
680.607	2127
680.655	2207
680.703	1770
680.752	1428
680.800	1983
680.848	977
680.896	1760
680.945	1497
680.993	1850
681.041	1183
681.089	1857
681.137	1343
681.185	1014
681.233	1224
681.258	1405
681.281	1566
681.329	1807
681.377	1145
681.380	1170
681.425	1412
681.473	1875
681.502	1786
681.521	1703
681.569	1356
681.617	1758
681.624	1699
681.665	1214
681.713	1667
681.745	1548
681.761	1470
681.809	917
681.857	2644
681.867	2428
681.904	1643
681.952	2330
681.989	2208
682.000	2162
682.048	1871
682.096	1241
682.111	1581
682.143	2258
682.191	1798
682.233	2039
682.239	2062
682.286	1984
682.334	1317
682.354	1510
682.382	1760
682.430	2488
682.476	1627
682.477	1597
682.525	2209
682.572	2277
682.598	2373
682.620	2452
682.667	1893
682.715	2054
682.720	2039
682.763	1756
682.810	2633
682.841	1980
682.857	1637
682.905	1704
682.952	2480
682.963	2288
683.000	1524
683.047	2376
683.085	2917
683.095	3067
683.142	2067
683.190	2480
683.206	2155
683.237	1479
683.284	2953
683.328	1974
683.332	1886
683.379	2389
683.426	2552
683.449	2784
683.473	3027
683.521	1880
683.568	2282
683.571	2259
683.615	1822
683.662	3157
683.693	2747
683.709	2502
683.757	2312
683.804	2043
683.814	2154
683.851	2485
683.898	2184
683.936	2561
683.945	2651
683.992	1959
684.039	2535
684.057	2444
684.086	2251
684.133	3267
684.179	2251
684.180	2211
684.227	2475
684.274	3023
684.300	3250
684.321	3397
684.368	2634
684.415	2678
684.422	2627
684.462	2329
684.509	2902
684.543	2404
684.556	2197
684.603	3096
684.649	3148
684.665	2947
684.696	2564
684.743	3222
684.786	3392
684.790	3403
684.837	3088
684.883	3748
684.908	3544
684.930	3281
684.977	3622
685.023	3374
685.029	3358
685.070	3218
685.117	3373
685.150	3221
685.164	3161
685.210	3602
685.257	4173
685.272	3999
685.303	3539
685.350	3345
685.393	2650
685.396	2598
685.443	3318
685.490	3443
685.514	3604
685.536	3709
685.583	3484
685.629	3891
685.636	3759
685.675	3020
685.722	3126
685.757	3400
685.768	3467
685.815	4022
685.861	3416
685.878	3655
685.908	4105
685.954	3795
686.000	3808
686.000	3804
686.047	3851
686.093	4177
686.121	4382
686.139	4507
686.185	4542
686.232	3842
686.242	3982
686.278	4429
686.324	4058
686.363	3793
686.370	3737
686.416	3973
686.463	4148
686.484	3751
686.509	3354
686.555	3976
686.601	3442
686.606	3516
686.647	4148
686.693	3471
686.727	4246
686.739	4528
686.785	3812
686.831	4181
686.848	4139
686.877	4023
686.923	3937
686.969	3732
686.969	3730
687.015	3941
687.061	3869
687.090	3861
687.107	3906
687.153	3639
687.199	4166
687.211	4048
687.245	3694
687.291	4271
687.332	4383
687.336	4393
687.382	4522
687.428	4357
687.453	4324
687.474	4271
687.520	4680
687.565	4339
687.574	4252
687.611	3928
687.657	4104
687.695	4436
687.702	4535
687.748	4435
687.794	4970
687.816	5148
687.839	5152
687.885	4595
687.931	4456
687.937	4411
687.976	4209
688.022	4477
688.058	3970
688.067	3863
688.113	4463
688.158	4225
688.179	4388
688.204	4523
688.249	4209
688.295	4353
688.300	4269
688.340	3928
688.386	4978
688.421	4562
688.431	4410
688.477	4649
688.522	4460
688.542	4431
688.567	4425
688.613	4537
688.658	4343
688.663	4390
688.703	4792
688.749	4359
688.784	4654
688.794	4762
688.839	4682
688.884	4796
688.905	4955
688.930	4991
688.975	4861
689.020	4997
689.026	4924
689.065	4695
689.110	5041
689.146	4834
689.155	4750
689.201	5190
689.246	4769
689.267	4607
689.291	4577
689.336	4885
689.381	4533
689.388	4590
689.426	4798
689.471	5118
689.509	4687
689.516	4585
689.561	5108
689.606	4845
689.630	4588
689.651	4519
689.696	4406
689.741	4833
689.750	4832
689.785	4897
689.830	5562
689.871	5047
689.875	4969
689.920	5347
689.965	5177
689.992	4777
690.010	4629
690.054	4890
690.099	4998
690.112	5032
690.144	5077
690.189	5226
690.233	4673
690.233	4678
690.278	5183
690.323	4803
690.354	5094
690.367	5222
690.412	5464
690.457	5573
690.474	5400
690.501	5057
690.546	5547
690.590	5379
690.595	5328
690.635	5147
690.680	5274
690.716	5611
690.724	5711
690.769	5736
690.813	6314
690.836	6099
690.857	6043
690.902	6442
690.946	7255
690.957	7407
690.991	8684
691.035	10435
691.077	12087
691.080	12143
691.124	12121
691.168	12228
691.198	12292
691.213	11790
691.257	10592
691.301	8914
691.318	8641
691.346	8668
691.390	7312
691.434	6973
691.439	6889
691.478	6495
691.522	6126
691.559	5510
691.567	5498
691.611	6030
691.655	6197
691.680	6288
691.699	6247
691.743	5950
691.787	5826
691.800	5643
691.831	5412
691.875	5844
691.919	6114
691.921	6102
691.964	6137
692.008	6456
692.041	6412
692.052	6376
692.096	6350
692.139	6631
692.162	6507
692.183	6339
692.227	6497
692.271	6264
692.282	6177
692.315	6143
692.359	6182
692.402	6562
692.403	6576
692.447	6462
692.490	6369
692.523	6319
692.534	6320
692.578	6768
692.622	6459
692.643	6459
692.666	6450
692.709	6296
692.753	6223
692.763	6167
692.797	6018
692.840	6174
692.884	5862
692.884	5876
692.928	6152
692.971	6425
693.004	6649
693.015	6672
693.059	6244
693.102	6465
693.124	6328
693.146	6337
693.189	6596
693.233	6579
693.245	6656
693.276	6982
693.320	7217
693.363	7279
693.365	7278
693.407	7443
693.450	7288
693.485	7130
693.493	7207
693.537	8045
693.580	8135
693.605	8619
693.624	9321
693.667	10448
693.710	11631
693.725	12141
693.753	14555
693.797	18276
693.840	22242
693.845	22593
693.883	23002
693.926	23197
693.966	23718
693.970	23417
694.013	19504
694.056	15845
694.086	13425
694.099	13127
694.142	11801
694.185	10728
694.206	10136
694.229	9861
694.272	9303
694.315	8676
694.326	8543
694.358	8440
694.401	8229
694.444	7973
694.446	7944
694.487	8091
694.530	8007
694.566	8129
694.573	8098
694.616	7834
694.659	7359
694.686	7021
694.702	7003
694.745	7218
694.787	7112
694.806	7110
694.830	7072
694.873	6924
694.916	7018
694.926	6939
694.959	6807
695.002	6671
695.044	6681
695.046	6668
695.087	6997
695.130	7176
695.166	7314
695.172	7311
695.215	7005
695.258	7132
695.286	6986
695.301	7031
695.343	7206
695.386	7201
695.406	7281
695.428	7320
695.471	7416
695.514	7372
695.526	7301
695.556	7281
695.599	7531
695.641	7360
695.646	7380
695.684	7562
695.726	7396
695.766	7277
695.769	7283
695.811	7218
695.854	6990
695.886	6840
695.896	6886
695.938	7136
695.981	7066
696.005	7173
696.023	7260
696.065	7347
696.108	7370
696.125	7405
696.150	7635
696.192	8005
696.235	8178
696.245	8259
696.277	8423
696.319	8453
696.361	8472
696.365	8450
696.404	8226
696.446	8111
696.485	7771
696.488	7805
696.530	8194
696.572	8330
696.604	8587
696.614	8554
696.656	8221
696.698	7953
696.724	7642
696.740	7603
696.783	7593
696.825	7626
696.844	7584
696.867	7595
696.909	7582
696.951	7545
696.964	7558
696.992	7624
697.034	7507
697.076	7461
697.083	7429
697.118	7634
697.160	7913
697.202	8135
697.203	8118
697.244	7787
697.286	7581
697.323	7156
697.327	7203
697.369	7680
697.411	7958
697.442	8229
697.453	8259
697.494	8215
697.536	8225
697.562	8182
697.578	8158
697.620	8090
697.661	7916
697.682	7862
697.703	7931
697.744	7996
697.786	8116
697.801	8097
697.828	8194
697.869	8262
697.911	8447
697.921	8481
697.952	8481
697.994	8318
698.035	8229
698.040	8190
698.077	7881
698.118	7502
698.160	7146
698.160	7123
698.201	7535
698.243	7875
698.279	8203
698.284	8254
698.325	8502
698.367	8743
698.399	8893
698.408	8869
698.449	8687
698.491	8471
698.518	8308
698.532	8292
698.573	8182
698.614	8066
698.638	7980
698.656	8010
698.697	8016
698.738	8028
698.757	8017
698.779	8060
698.820	8087
698.862	8128
698.877	8121
698.903	8430
698.944	8886
698.985	9340
698.996	9444
699.026	9209
699.067	8846
699.116	8393
699.235	8468
699.354	8685
699.474	8573
699.593	8994
699.713	9221
699.832	7248
699.951	8642
700.070	8208
700.190	8385
700.309	8490
700.428	8127
700.547	8624
700.667	8110
700.786	8655
700.905	8137
701.024	8443
701.143	8067
701.262	7732
701.381	8586
701.500	8918
701.619	8729
701.738	8541
701.857	7713
701.976	7204
702.095	7720
702.214	7891
702.333	8620
702.452	7850
702.571	7774
702.690	7244
702.809	7395
702.928	7409
703.047	8329
703.165	8016
703.284	7850
703.403	7451
703.522	7955
703.640	8116
703.759	8606
703.878	10290
703.997	7809
704.115	7064
704.234	8115
704.353	7034
704.471	6817
704.590	7012
704.708	7101
704.827	7183
704.946	7390
705.064	7515
705.183	7623
705.301	8725
705.420	10475
705.538	9998
705.656	8881
705.775	9530
705.893	12885
706.012	15823
706.130	10225
706.249	8493
706.367	9649
706.485	8792
706.604	8337
706.722	9239
706.840	10523
706.958	11258
707.077	10039
707.195	9126
707.313	8223
707.431	8365
707.549	7468
707.668	7339
707.786	8204
707.904	7000
708.022	8136
708.140	7056
708.258	7028
708.376	9248
708.494	7717
708.612	8735
708.730	11775
708.848	11269
708.966	10010
709.084	10332
709.202	9382
709.320	10103
709.438	10315
709.556	9192
709.674	9672
709.791	10444
709.909	8921
710.027	9103
710.145	9622
710.263	10747
710.380	10881
710.498	9621
710.616	8759
710.733	9597
710.851	9260
710.969	9461
711.086	9791
711.204	9196
711.322	9109
711.439	8735
711.557	9579
711.674	8622
711.792	8907
711.909	9134
712.027	9767
712.144	8863
712.262	8683
712.379	10152
712.497	12341
712.614	12162
712.732	10832
712.849	10643
712.966	10536
713.084	11794
713.201	11224
713.318	10801
713.436	10235
713.553	10777
713.670	10892
713.787	12173
713.905	11874
714.022	10375
714.139	10727
714.256	11808
714.373	13398
714.490	20100
714.608	39113
714.725	160897
714.842	205193
714.959	20854
715.076	11860
715.193	11064
715.310	10290
715.427	9713
715.544	9184
715.661	9393
715.778	9297
715.895	9766
716.011	9897
716.128	8560
716.245	9487
716.362	9491
716.479	9631
716.596	9466
716.713	9772
716.829	9509
716.946	9211
717.063	8582
717.180	9325
717.296	8390
717.413	8893
717.530	8272
717.646	8399
717.763	7766
717.880	8384
717.996	7886
718.113	8508
718.229	8574
718.346	8032
718.462	7735
718.579	8922
718.695	10716
718.812	11199
718.928	9615
719.045	8743
719.161	7490
719.277	7927
719.394	8039
719.510	7909
719.626	7545
719.743	9866
719.859	10132
719.975	15549
720.092	43108
720.208	106833
720.324	21866
720.440	9240
720.557	9478
720.673	10138
720.789	13815
720.905	24788
721.021	11886
721.137	7704
721.253	7975
721.369	7810
721.486	7624
721.602	10511
721.718	7380
721.834	6862
721.950	6613
722.066	7313
722.181	7013
722.297	7073
722.413	6568
722.529	7504
722.645	7415
722.761	6661
722.877	6570
722.993	6640
723.108	7660
723.224	6980
723.340	6552
723.456	6276
723.571	7321
723.687	5967
723.803	5770
723.918	6218
724.034	6321
724.150	6786
724.265	7559
724.381	10182
724.497	13263
724.612	6203
724.728	6092
724.843	6112
724.959	6160
725.074	10341
725.190	12283
725.305	7153
725.421	5807
725.536	6483
725.651	6120
725.767	5636
725.882	5939
725.997	5092
726.113	5822
726.228	5395
726.343	5777
726.459	5625
726.574	5767
726.689	5706
726.804	5680
726.920	5927
727.035	5298
727.150	5704
727.265	5459
727.380	5989
727.495	5830
727.610	5515
727.725	4172
727.841	5569
727.956	8347
728.071	8242
728.186	6148
728.301	4631
728.416	5563
728.531	4838
728.645	4827
728.760	5240
728.875	5668
728.990	4983
729.105	5427
729.220	5361
729.335	4822
729.449	5288
729.564	4825
729.679	5394
729.794	4777
729.908	5599
730.023	5253
730.138	4570
730.253	4948
730.367	4845
730.482	4505
730.596	4848
730.711	5154
730.826	5388
730.940	4674
731.055	4288
731.169	4867
731.284	4601
731.398	4747
731.513	4432
731.627	5086
731.742	5803
731.856	6574
731.970	5099
732.085	5635
732.199	7220
732.313	9266
732.428	19034
732.542	49284
732.656	33129
732.771	8498
732.885	6556
732.999	5772
733.113	6050
733.227	5718
733.342	4751
733.456	4897
733.570	5144
733.684	5090
733.798	5051
733.912	4972
734.026	4643
734.140	4706
734.254	5528
734.368	7111
734.482	8603
734.596	5101
734.710	4566
734.824	4394
734.938	4155
735.052	4433
735.166	4513
735.280	4299
735.393	3752
735.507	4814
735.621	5608
735.735	8203
735.849	4759
735.962	4264
736.076	4428
736.190	4666
736.303	5556
736.417	6825
736.531	4245
736.644	4588
736.758	3410
736.872	4449
736.985	3863
737.099	5074
737.212	3675
737.326	4296
737.439	4748
737.553	3980
737.666	3801
737.780	3567
737.893	4009
738.007	3518
738.120	4685
738.233	4470
738.347	4493
738.460	4461
738.573	4165
738.687	2948
738.800	4446
738.913	3858
739.026	4593
739.140	3997
739.253	4089
739.366	3627
739.479	3837
739.592	3447
739.705	4036
739.818	4560
739.932	3674
740.045	4202
740.158	3509
740.271	3566
740.384	3671
740.497	4594
740.610	4262
740.723	4468
740.836	3677
740.949	3809
741.062	4975
741.174	4420
741.287	3865
741.400	3988
741.513	3989
741.626	4494
741.739	4185
741.851	3027
741.964	3494
742.077	3453
742.189	3151
742.302	4316
742.415	2899
742.527	4235
742.640	3859
742.753	3169
742.865	3615
742.978	2868
743.090	3672
743.203	3506
743.316	3149
743.428	3160
743.541	4075
743.653	3316
743.766	3608
743.878	3374
743.990	4023
744.103	4114
744.215	3813
744.327	3193
744.440	3868
744.552	4659
744.664	4082
744.777	3001
744.889	4172
745.001	3381
745.113	3743
745.226	2981
745.338	4042
745.450	3040
745.562	3171
745.674	2840
745.786	3419
745.898	2941
746.010	2987
746.122	2814
746.234	3098
746.347	3288
746.459	2835
746.570	3417
746.682	3361
746.794	3709
746.906	2912
747.018	2339
747.130	2887
747.242	2718
747.354	3029
747.466	4448
747.577	2938
747.689	3144
747.801	3253
747.913	2730
748.024	2640
748.136	3303
748.248	3093
748.359	2927
748.471	3533
748.583	2844
748.694	2709
748.806	4026
748.918	3347
749.029	3024
749.141	2775
749.252	2703
749.364	4053
749.475	4521
749.587	4048
749.698	3023
749.809	3668
749.921	2226
750.032	2552
750.144	2270
750.255	3039
750.366	2513
750.478	2712
750.589	2811
750.700	2867
750.811	3034
750.923	3896
751.034	5002
751.145	5672
751.256	2866
751.367	3493
751.479	3446
751.590	3009
751.701	2405
751.812	2307
751.923	3415
752.034	3241
752.145	2861
752.256	2957
752.367	2473
752.478	2699
752.589	2951
752.700	2697
752.811	2716
752.922	2994
753.032	2739
753.143	3526
753.254	2565
753.365	2977
753.476	2524
753.586	2580
753.697	2623
753.808	2737
753.919	2061
754.029	3111
754.140	3151
754.251	3025
754.361	2505
754.472	1408
754.582	2361
754.693	2692
754.804	2707
754.914	2920
755.025	2067
755.135	2702
755.246	2242
755.356	2395
755.466	2239
755.577	2468
755.687	2756
755.798	2448
755.908	2779
756.018	2723
756.129	2039
756.239	2775
756.349	3028
756.460	2616
756.570	2699
756.680	1838
756.790	3103
756.900	3343
757.011	2537
757.121	2509
757.231	2498
757.341	2565
757.451	1628
757.561	1791
757.671	2127
757.781	2628
757.891	3268
758.001	2036
758.111	2616
758.221	1943
758.331	3158
758.441	2293
758.551	3046
758.661	1752
758.771	2816
758.880	2405
758.990	2979
759.100	3254
759.210	2800
759.320	3096
759.429	2152
759.539	2570
759.649	2720
759.758	3000
759.868	2766
759.978	2685
760.087	3125
760.197	3410
760.307	3260
760.416	2595
760.526	2537
760.635	3709
760.745	2559
760.854	2343
760.964	3506
761.073	3660
761.182	2866
761.292	3387
761.401	3970
761.511	3484
761.620	2730
761.729	3169
761.839	2695
761.948	3516
762.057	3163
762.166	2646
762.276	2591
762.385	3729
762.494	3374
762.603	3474
762.712	3572
762.822	4068
762.931	3252
763.040	3571
763.149	3333
763.258	3420
763.367	3660
763.476	3793
763.585	4276
763.694	4801
763.803	4243
763.912	5020
764.021	5572
764.130	3995
764.238	4930
764.347	5248
764.456	5513
764.565	6319
764.674	6570
764.783	6224
764.891	6847
765.000	8409
765.109	9288
765.217	9232
765.326	12261
765.435	13875
765.543	16308
765.652	19278
765.761	25872
765.869	36768
765.978	57293
766.086	99503
766.195	195029
766.303	446928
766.412	874058
766.520	797396
766.629	364569
766.737	145826
766.846	79589
766.954	51647
767.062	36961
767.171	28737
767.279	22115
767.387	16949
767.496	14679
767.604	12851
767.712	11541
767.820	10283
767.928	9619
768.037	9535
768.145	8410
768.253	8278
768.361	8040
768.469	8371
768.577	8480
768.685	9061
768.793	8724
768.901	9467
769.009	10642
769.117	13106
769.225	17252
769.333	24210
769.441	39104
769.549	73516
769.657	165329
769.765	451400
769.873	753227
769.981	392252
770.088	115745
770.196	52692
770.304	32763
770.412	24438
770.519	17974
770.627	13375
770.735	12124
770.842	10243
770.950	9055
771.058	7149
771.165	7198
771.273	6659
771.380	6598
771.488	5386
771.595	5278
771.703	5526
771.810	5369
771.918	4674
772.025	4880
772.133	4370
772.240	4136
772.348	5083
772.455	4376
772.562	3125
772.670	3414
772.777	4445
772.884	3575
772.991	4260
773.099	3487
773.206	4015
773.313	4157
773.420	3777
773.528	3332
773.635	3448
773.742	3092
773.849	3098
773.956	3134
774.063	3566
774.170	2074
774.277	3478
774.384	3211
774.491	3087
774.598	2969
774.705	3521
774.812	3153
774.919	3415
775.026	3288
775.133	3027
775.239	2821
775.346	2830
775.453	2657
775.560	3178
775.667	2792
775.773	2310
775.880	3292
775.987	3219
776.093	2972
776.200	2704
776.307	2915
776.413	2738
776.520	2679
776.627	3182
776.733	2436
776.840	2289
776.946	3384
777.053	3218
777.159	2609
777.266	3408
777.372	3928
777.478	3982
777.585	2869
777.691	1764
777.798	3241
777.904	3005
778.010	3793
778.117	2613
778.223	2771
778.329	2323
778.435	2491
778.542	2896
778.648	1975
778.754	1492
778.860	2504
778.966	2239
779.072	1537
779.178	2762
779.284	2047
779.391	2636
779.497	1627
779.603	3664
779.708	2853
779.815	6325
779.920	15130
780.026	25852
780.132	5878
780.238	2178
780.344	2070
780.450	2692
780.556	2251
780.661	1546
780.767	1759
780.873	2141
780.979	2215
781.085	1675
781.190	2067
781.296	2256
781.402	1840
781.507	2232
781.613	1889
781.719	1673
781.824	2108
781.930	2291
782.035	2366
782.141	2254
782.246	1941
782.352	2217
782.457	1110
782.563	1902
782.668	1263
782.773	1634
782.879	1174
782.984	2618
783.090	1988
783.195	3418
783.300	2190
783.405	1716
783.511	1241
783.616	1731
783.721	1404
783.826	2083
783.932	1612
784.037	2321
784.142	2327
784.247	2424
784.352	1904
784.457	1892
784.562	1809
784.667	1807
784.772	1631
784.877	2305
784.982	975
785.087	1880
785.192	1301
785.297	1749
785.402	1901
785.507	1662
785.611	1741
785.716	1562
785.821	1486
785.926	1833
786.031	1341
786.135	1540
786.240	1786
786.345	573
786.450	1901
786.554	1312
786.659	1280
786.763	1045
786.868	1814
786.973	2117
787.077	1208
787.182	658
787.286	1481
787.391	1181
787.495	277
787.600	1608
787.704	1186
787.809	1467
787.913	1167
788.017	1307
788.122	1757
788.226	1632
788.330	1480
788.435	1082
788.539	852
788.643	1354
788.747	1274
788.852	1678
788.956	1336
789.060	1474
789.164	885
789.268	321
789.372	1254
789.476	1288
789.580	639
789.684	937
789.788	1194
789.892	1061
789.996	1492
790.100	1230
790.204	1110
790.308	1183
790.412	1221
790.516	615
790.620	1826
790.724	1321
790.828	1197
790.931	1072
791.035	1705
791.139	1262
791.242	413
791.346	1982
791.450	152
791.554	609
791.657	611
791.761	2051
791.864	1219
791.968	1039
792.072	1271
792.175	1080
792.279	1494
792.382	1902
792.486	1294
792.589	1009
792.693	892
792.796	847
792.899	1706
793.003	1350
793.106	693
793.209	576
793.313	2293
793.416	881
793.519	1846
793.623	1823
793.726	1637
793.829	632
793.932	1396
794.035	669
794.138	1633
794.242	838
794.345	1547
794.448	2215
794.551	2728
794.654	7139
794.757	12575
794.860	3489
794.963	1705
795.066	447
795.169	1812
795.272	376
795.375	1585
795.477	896
795.580	1496
795.683	-70
795.786	1251
795.889	738
795.991	1685
796.094	1478
796.197	158
796.300	1474
796.402	1018
796.505	352
796.608	667
796.710	1310
796.813	877
796.915	820
797.018	989
797.120	549
797.223	-181
797.326	1000
797.428	234
797.530	533
797.633	1767
797.735	2014
797.838	967
797.940	2093
798.042	-174
798.145	1016
798.247	1302
798.349	627
798.452	1319
798.554	283
798.656	-183
798.758	2166
798.860	678
798.962	1216
799.065	438
799.167	-295
799.269	946
799.371	1328
799.473	1344
799.575	-339
799.677	1414
799.779	2464
799.881	592
799.983	782
800.085	901
800.187	1186
800.289	-347
800.390	117
800.492	672
800.594	1395
800.696	570
800.798	665
800.899	761
801.001	107
801.103	1668
801.205	487
801.306	687
801.408	-583
801.509	281
801.611	662
801.713	1126
801.814	-175
801.916	-331
802.017	494
802.119	-488
802.220	1032
802.322	36
802.423	1616
802.525	702
802.626	698
802.727	587
802.829	950
802.930	-228
803.031	1555
803.133	491
803.234	9
803.335	612
803.436	248
803.538	923
803.639	399
803.740	667
803.841	531
803.942	444
804.043	566
804.144	130
804.245	594
804.346	132
804.447	171
804.548	1221
804.649	1334
804.750	589
804.851	302
804.952	916
805.053	724
805.154	131
805.255	1180
805.355	874
805.456	123
805.557	274
805.658	-413
805.758	827
805.859	325
805.960	382
806.061	702
806.161	24
806.262	1241
806.362	-250
806.463	206
806.564	887
806.664	891
806.765	1408
806.865	1206
806.966	675
807.066	-47
807.166	611
807.267	671
807.367	-128
807.468	1154
807.568	-457
807.668	1168
807.769	621
807.869	-27
807.969	273
808.069	889
808.170	1318
808.270	135
808.370	600
808.470	721
808.570	51
808.670	1642
808.770	719
808.870	741
808.970	927
809.070	81
809.170	971
809.271	1369
809.370	34
809.470	990
809.570	540
809.670	41
809.770	505
809.870	884
809.970	566
810.070	998
810.169	996
810.269	-974
810.369	422
810.469	944
810.568	328
810.668	549
810.768	493
810.867	820
810.967	-119
811.066	382
811.166	662
811.265	554
811.365	363
811.464	786
811.564	658
811.663	491
811.763	-88
811.862	713
811.962	762
812.061	1154
812.160	100
812.260	141
812.359	977
812.458	-106
812.557	1017
812.657	1500
812.756	1773
812.855	1287
812.954	730
813.053	1084
813.153	1647
813.252	591
813.351	1303
813.450	1493
813.549	1222
813.648	1810
813.747	661
813.846	1662
813.945	803
814.044	1243
814.143	1516
814.242	1094
814.341	1418
814.439	2361
814.538	2774
814.637	1584
814.736	1531
814.835	2539
814.933	1786
815.032	2656
815.131	3341
815.229	1873
815.328	3617
815.427	2269
815.525	3488
815.624	3338
815.722	3614
815.821	3577
815.919	3671
816.018	3916
816.116	4588
816.215	4028
816.313	4553
816.412	4559
816.510	5408
816.609	7227
816.707	6607
816.805	7078
816.904	7267
817.002	8567
817.100	10347
817.198	11367
817.296	12619
817.395	14601
817.493	18238
817.591	22208
817.689	30152
817.787	41723
817.885	60868
817.983	101781
818.081	187012
818.179	366984
818.277	670760
818.375	635661
818.473	344122
818.571	176147
818.669	111493
818.767	90002
818.865	86407
818.963	95836
819.061	124887
819.158	189988
819.256	320884
819.354	567072
819.452	837415
819.549	689470
819.647	418344
819.745	235223
819.842	144912
819.940	98673
820.038	71525
820.135	54813
820.233	42338
820.330	34526
820.428	28240
820.525	24703
820.623	20801
820.720	17517
820.818	15627
820.915	14812
821.012	12811
821.110	10191
821.207	10918
821.304	9465
821.402	8557
821.499	9073
821.596	7744
821.693	6566
821.791	6569
821.888	5880
821.985	6237
822.082	5431
822.179	5053
822.276	3275
822.373	4672
822.470	3891
822.567	3918
822.664	2931
822.761	4808
822.858	3453
822.955	3113
823.052	3133
823.149	2003
823.246	2136
823.343	2335
823.440	2600
823.536	2053
823.633	1665
823.730	2630
823.827	2373
823.923	2225
824.020	2998
824.117	2094
824.213	940
824.310	1902
824.407	1062
824.503	1782
824.600	1728
824.696	1720
824.793	1617
824.889	752
824.986	1165
825.082	1971
825.179	225
825.275	1251
825.371	1401
825.468	1449
825.564	-187
825.660	996
825.757	814
825.853	1091
825.949	620
826.045	1319
826.142	1586
826.238	556
826.334	919
826.430	-155
826.526	1696
826.622	1459
826.718	1036
826.814	443
826.910	1399
827.006	593
827.102	-85
827.198	771
827.294	383
827.390	703
827.486	1030
827.582	137
827.678	74
827.774	752
827.869	-49
827.965	1553
828.061	-84
828.157	516
828.252	-69
828.348	157
828.444	710
828.539	-810
828.635	-170
828.731	327
828.826	-505
828.922	560
829.017	-382
829.113	240
829.208	-336
829.304	-139
829.399	1006
829.495	741
829.590	1373
829.685	-949
829.781	751
829.876	735
829.971	-222
830.066	-254
830.162	470
830.257	-162
830.352	-918
830.447	728
830.543	-552
830.638	-714
830.733	857
830.828	60
830.923	473
831.018	451
831.113	-149
831.208	-326
831.303	62
831.398	-558
831.493	-568
831.588	662
831.683	-1064
831.778	-198
831.873	476
831.967	-349
832.062	-203
832.157	-834
832.252	821
832.346	161
832.441	1088
832.536	567
832.631	1508
832.725	2291
832.820	-725
832.914	-363
833.009	-467
833.104	165
833.198	33
833.293	-180
833.387	-535
833.482	76
833.576	-1722
833.670	375
833.765	-778
833.859	-441
833.954	466
834.048	-54
834.142	141
834.237	-369
834.331	-150
834.425	-207
834.519	-818
834.613	679
834.708	-395
834.802	266
834.896	-636
834.990	-148
835.084	116
835.178	-225
835.272	-448
835.366	-912
835.460	-436
835.554	-258
835.648	-770
835.742	-185
835.836	578
835.930	-716
836.024	9
836.117	383
836.211	-420
836.305	278
836.399	504
836.493	-693
836.586	523
836.680	-102
836.774	34
836.867	-45
836.961	-799
837.055	-846
837.148	-544
837.242	354
837.335	-428
837.429	-515
837.522	-561
837.616	-523
837.709	1034
837.803	740
837.896	382
837.989	-817
838.083	78
838.176	956
838.269	948
838.363	386
838.456	-791
838.549	68
838.642	339
838.735	1407
838.829	1361
838.922	-1009
839.015	-113
839.108	3
839.201	-653
839.294	-126
839.387	108
839.480	-294
839.573	-217
839.666	112
839.759	293
839.852	-980
839.945	709
840.038	-318
840.131	-102
840.223	-969
840.316	-99
840.409	-291
840.502	-1595
840.594	253
840.687	-1113
840.780	-625
840.873	-745
840.965	-45
841.058	424
841.150	987
841.243	-828
841.336	430
841.428	-667
841.521	-544
841.613	-479
841.706	365
841.798	-1093
841.890	-1046
841.983	-1017
842.075	8
842.167	-854
842.260	-227
842.352	371
842.444	212
842.537	592
842.629	1653
842.721	-68
842.813	-1489
842.905	-1344
842.997	-383
843.090	-639
843.182	771
843.274	349
843.366	3403
843.458	6372
843.550	4503
843.642	-333
843.734	87
843.826	-513
843.918	-274
844.009	-564
844.101	-284
844.193	-460
844.285	-569
844.377	71
844.469	-893
844.560	199
844.652	-111
844.744	-592
844.835	-1124
844.927	-681
845.019	-244
845.110	288
845.202	-1240
845.293	-610
845.385	-1245
845.476	-947
845.568	263
845.659	-280
845.751	-10
845.842	-326
845.934	-742
846.025	-621
846.116	-220
846.208	-1310
846.299	-602
846.390	143
846.482	-106
846.573	-638
846.664	-237
846.755	-371
846.846	66
846.937	-1166
847.029	-1207
847.120	-410
847.211	-1070
847.302	298
847.393	-1700
847.484	-461
847.575	-746
847.666	-531
847.757	-1246
847.847	-453
847.938	-329
848.029	-715
848.120	-927
848.211	-802
848.302	-1234
848.392	-823
848.483	-523
848.574	-994
848.664	-745
848.755	-259
848.846	-801
848.936	-1285
849.027	-447
849.118	-372
849.208	-1341
849.299	-205
849.389	-15
849.480	419
849.570	1931
849.661	3197
849.751	6672
849.841	2571
849.932	-501
850.022	-979
850.112	-577
850.203	-555
850.293	-734
850.383	-868
850.474	-1578
850.564	-540
850.654	-627
850.744	-772
850.834	-430
850.924	-872
851.014	-951
851.104	13
851.194	-1331
851.284	-1126
851.374	-330
851.464	-280
851.554	-1261
851.644	-1396
851.734	-26
851.824	-64
851.914	-99
852.004	-753
852.094	-163
852.183	-1152
852.273	114
852.363	-923
852.452	-674
852.542	-1146
852.632	-996
852.721	-998
852.811	-591
852.901	-841
852.990	-582
853.080	-1039
853.169	-614
853.259	-293
853.348	-1356
853.438	-847
853.527	388
853.617	-798
853.706	1277
853.795	2455
853.885	7330
853.974	14707
854.063	25574
854.152	46579
854.242	21342
854.331	3770
854.420	467
854.509	96
854.598	-334
854.687	748
854.777	-126
854.866	-129
854.955	-541
855.044	-308
855.133	-988
855.222	-433
855.311	-804
855.400	-671
855.488	-266
855.577	-1170
855.666	-575
855.755	-843
855.844	-567
855.933	-406
856.021	-224
856.110	85
856.199	-1208
856.288	-1692
856.376	-531
856.465	-1676
856.554	-439
856.642	-1411
856.731	-491
856.819	-441
856.908	-1598
856.996	56
857.085	-948
857.173	-550
857.262	-1231
857.350	-425
857.438	-532
857.527	-314
857.615	-211
857.703	-151
857.792	-668
857.880	-1619
857.968	-1094
858.056	-1106
858.145	-935
858.233	-980
858.321	-865
858.409	234
858.497	-1162
858.585	-922
858.673	-750
858.761	-1630
858.849	-998
858.937	-1065
859.025	-386
859.113	-798
859.201	-1642
859.289	-289
859.377	-489
859.465	-299
859.552	-1075
859.640	-831
859.728	-545
859.816	-818
859.903	-630
859.991	-1374
860.079	-1015
860.166	-1216
860.254	-1110
860.342	-853
860.429	-917
860.517	-1039
860.604	-1043
860.692	-474
860.779	-565
860.867	-1213
860.954	-835
861.042	-1518
861.129	-1296
861.216	-713
861.304	-1202
861.391	-1343
861.478	-1241
861.565	-346
861.653	-1293
861.740	-963
861.827	-1272
861.914	-485
862.001	-1122
862.089	-534
862.176	-975
862.263	-1092
862.350	-624
862.437	-1023
862.524	-805
862.611	-1281
862.698	153
862.785	-862
862.871	-816
862.958	-1341
863.045	-1254
863.132	-1166
863.219	-1003
863.306	-1867
863.392	-177
863.479	-464
863.566	-541
863.652	-700
863.739	-1485
863.826	-472
863.912	-902
863.999	-1670
864.086	-925
864.172	-1526
864.259	-1321
864.345	-568
864.432	-1156
864.518	-489
864.604	-965
864.691	-681
864.777	-174
864.863	-880
864.950	-1049
865.036	-1286
865.122	-703
865.209	-439
865.295	-728
865.381	107
865.467	-527
865.553	577
865.639	-258
865.726	657
865.812	2733
865.898	5923
865.984	10068
866.070	17498
866.156	24734
866.242	6989
866.328	809
866.414	-394
866.499	24
866.585	-467
866.671	-222
866.757	-607
866.843	-25
866.928	-568
867.014	-788
867.100	-728
867.186	-1203
867.271	-624
867.357	-303
867.442	-239
867.528	-914
867.614	-574
867.699	-945
867.785	-641
867.870	-868
867.956	-427
868.041	16
868.127	-417
868.212	-444
868.297	-212
868.383	-888
868.468	104
868.553	403
868.639	565
868.724	915
868.809	1876
868.894	-370
868.979	-1003
869.065	-134
869.150	-322
869.235	-892
869.320	-1172
869.405	-1051
869.490	-683
869.575	-671
869.660	-1093
869.745	-211
869.830	-1488
869.915	-1196
870.000	-291
870.085	-874
870.169	-122
870.254	-408
870.339	-1796
870.424	-1028
870.509	-499
870.593	-888
870.678	-341
870.763	-1124
870.847	-770
870.932	-1787
871.016	-792
871.101	-1616
871.186	-1060
871.270	-1064
871.355	-1523
871.439	-572
871.523	-508
871.608	-483
871.692	-823
871.777	-746
871.861	-224
871.945	-1025
872.030	-856
872.114	-746
872.198	-666
872.282	-1055
872.367	-1375
872.451	-1137
872.535	105
872.619	-600
872.703	-1116
872.787	-615
872.871	-1110
872.955	-1011
873.039	-1107
873.123	-711
873.207	-3
873.291	-425
873.375	-836
873.459	-271
873.543	-1791
873.627	-969
873.711	-743
873.794	-947
873.878	-1164
873.962	-1317
874.045	-801
874.129	-1138
874.137	-1122
874.213	-960
874.245	-1069
874.296	-1256
874.352	-976
874.380	-840
874.460	-939
874.464	-943
874.547	-823
874.568	-704
874.631	-355
874.676	-698
874.714	-994
874.784	-676
874.798	-609
874.881	388
874.892	187
874.965	-1225
874.999	-1136
875.048	-1022
875.107	-620
875.131	-455
875.215	-431
875.215	-431
875.298	-673
875.323	-738
875.381	-895
875.430	-849
875.465	-799
875.538	-336
875.548	-283
875.631	-921
875.646	-890
875.714	-656
875.753	-753
875.798	-886
875.861	-923
875.881	-940
875.964	-688
875.968	-697
876.047	-821
876.076	-641
876.130	-352
876.183	-611
876.213	-755
876.291	-542
876.296	-522
876.379	-856
876.398	-844
876.462	-873
876.506	-707
876.545	-498
876.613	-1014
876.628	-1146
876.711	-568
876.721	-594
876.794	-590
876.828	-344
876.877	-118
876.935	-195
876.960	-188
877.043	-248
877.043	-249
877.125	-544
877.150	-500
877.208	-338
877.258	-652
877.291	-846
877.365	-733
877.374	-717
877.456	-413
877.472	-392
877.539	-436
877.579	-728
877.622	-977
877.687	-553
877.704	-390
877.787	-330
877.794	-318
877.869	-487
877.901	-398
877.952	-157
878.008	-179
878.034	-189
878.115	-741
878.117	-751
878.199	-720
878.222	-542
878.282	24
878.329	-37
878.364	-140
878.437	14
878.447	34
878.529	-414
878.544	-470
878.611	-895
878.651	-703
878.694	-234
878.758	-28
878.776	-31
878.858	-343
878.865	-311
878.941	70
878.972	145
879.023	213
879.078	-439
879.105	-661
879.185	-355
879.187	-348
879.269	-536
879.292	-346
879.351	14
879.399	-479
879.433	-691
879.506	67
879.516	156
879.598	171
879.613	192
879.680	256
879.720	253
879.762	140
879.827	-314
879.844	-326
879.926	592
879.933	589
880.007	81
880.040	-47
880.089	-25
880.147	65
880.171	124
880.253	569
880.254	566
880.335	147
880.360	293
880.417	986
880.467	1024
880.499	1220
880.574	2956
880.580	2991
880.662	676
880.680	519
880.744	342
880.787	-67
880.825	-271
880.893	-249
880.907	-284
880.989	-518
881.000	-547
881.070	-449
881.106	-269
881.152	54
881.213	26
881.233	-38
881.315	-249
881.319	-230
881.396	277
881.426	172
881.478	-136
881.532	-325
881.559	-384
881.639	-549
881.641	-544
881.722	209
881.745	208
881.803	123
881.852	-155
881.885	-328
881.958	433
881.966	489
882.047	278
882.064	241
882.129	779
882.171	911
882.210	866
882.277	1210
882.291	1223
882.372	708
882.383	655
882.454	463
882.489	580
882.535	562
882.596	307
882.616	267
882.697	-287
882.702	-319
882.778	-63
882.808	113
882.859	-98
882.914	-83
882.940	46
883.020	83
883.021	87
883.102	-27
883.127	58
883.183	388
883.233	408
883.264	245
883.339	-143
883.345	-139
883.426	-147
883.445	-55
883.507	137
883.551	151
883.587	296
883.657	390
883.668	323
883.749	175
883.763	64
883.830	118
883.869	203
883.910	314
883.975	540
883.991	452
884.072	529
884.081	439
884.152	332
884.187	400
884.233	561
884.292	948
884.314	864
884.394	455
884.398	409
884.475	284
884.504	324
884.555	281
884.610	283
884.636	188
884.716	-360
884.716	-351
884.797	432
884.821	661
884.877	793
884.927	967
884.958	903
885.033	599
885.038	595
885.118	303
885.139	259
885.199	109
885.244	-143
885.279	16
885.350	785
885.359	748
885.439	-141
885.456	-272
885.520	341
885.561	558
885.600	463
885.667	658
885.680	721
885.760	851
885.773	857
885.840	660
885.878	575
885.920	469
885.984	186
886.000	247
886.080	587
886.089	639
886.160	857
886.195	876
886.240	641
886.300	387
886.320	433
886.400	400
886.406	408
886.480	344
886.511	201
886.560	564
886.616	1137
886.640	903
886.720	27
886.722	-1
886.800	714
886.827	1086
886.879	1273
886.932	1147
886.959	1158
887.038	1283
887.039	1288
887.119	1031
887.143	969
887.198	598
887.248	255
887.278	416
887.354	798
887.358	830
887.437	1328
887.459	1449
887.517	813
887.564	301
887.596	305
887.669	340
887.676	379
887.755	670
887.774	780
887.835	482
887.880	190
887.914	472
887.985	1079
887.994	1072
888.073	840
888.090	794
888.153	865
888.195	940
888.232	780
888.300	458
888.311	499
888.391	622
888.405	670
888.470	771
888.510	755
888.549	765
888.615	852
888.628	860
888.708	794
888.720	787
888.787	707
888.825	626
888.866	572
888.930	480
888.945	541
889.024	881
889.035	913
889.103	743
889.140	657
889.182	892
889.245	1248
889.261	1302
889.340	1511
889.349	1528
889.419	1346
889.454	1245
889.498	968
889.559	589
889.577	569
889.656	467
889.664	457
889.735	1369
889.768	1800
889.814	1650
889.873	1440
889.978	687
890.083	1391
890.187	637
890.292	1069
890.397	1356
890.501	665
890.606	539
890.710	727
890.815	1687
890.919	1190
891.024	617
891.128	1175
891.233	1270
891.337	1563
891.442	999
891.546	769
891.650	834
891.755	1023
891.859	1412
891.963	1231
892.068	525
892.172	112
892.276	723
892.380	620
892.484	723
892.589	695
892.693	1181
892.797	757
892.901	1040
893.005	366
893.109	1648
893.213	676
893.317	1358
893.421	1019
893.525	198
893.629	711
893.733	514
893.837	276
893.941	801
894.045	1029
894.148	873
894.252	650
894.356	1438
894.460	1081
894.564	1338
894.667	1290
894.771	1165
894.875	249
894.978	877
895.082	1555
895.186	617
895.289	1128
895.393	1443
895.496	997
895.600	414
895.703	256
895.807	1288
895.910	754
896.014	1021
896.117	473
896.221	1830
896.324	552
896.427	977
896.531	696
896.634	-17
896.737	1051
896.840	690
896.944	731
897.047	744
897.150	1824
897.253	433
897.356	415
897.460	754
897.563	194
897.666	608
897.769	799
897.872	936
897.975	1074
898.078	1203
898.181	679
898.284	385
898.387	582
898.490	836
898.593	666
898.695	1410
898.798	841
898.901	1129
899.004	1103
899.107	708
899.209	515
899.312	1183
899.415	363
899.518	688
899.620	268
899.723	1724
899.826	1890
899.928	1407
900.031	932
900.133	1498
900.236	331
900.338	-320
900.441	1318
900.543	587
900.646	-182
900.748	213
900.851	988
900.953	850
901.055	972
901.158	609
901.260	632
901.362	659
901.465	1009
901.567	560
901.669	1002
901.771	331
901.873	184
901.976	729
902.078	477
902.180	219
902.282	167
902.384	1070
902.486	617
902.588	244
902.690	1567
902.792	976
902.894	1363
902.996	1285
903.098	1116
903.200	796
903.302	440
903.404	425
903.505	29
903.607	735
903.709	1173
903.811	370
903.913	220
904.014	782
904.116	785
904.218	407
904.319	529
904.421	1451
904.523	483
904.624	627
904.726	975
904.827	1029
904.929	344
905.030	1587
905.132	712
905.233	472
905.335	409
905.436	1
905.537	424
905.639	-189
905.740	724
905.841	429
905.943	631
906.044	423
906.145	58
906.247	795
906.348	308
906.449	1325
906.550	1258
906.651	858
906.752	277
906.854	684
906.955	883
907.056	630
907.157	746
907.258	302
907.359	60
907.460	306
907.561	611
907.662	371
907.762	663
907.863	500
907.964	410
908.065	1155
908.166	541
908.267	649
908.367	396
908.468	592
908.569	718
908.670	531
908.770	968
908.871	1106
908.971	1091
909.072	1020
909.173	194
909.273	345
909.374	893
909.474	293
909.575	377
909.675	830
909.776	416
909.876	823
909.977	592
910.077	197
910.177	-170
910.278	996
910.378	10
910.478	401
910.579	740
910.679	1137
910.779	644
910.879	1111
910.980	-809
911.080	980
911.180	1017
911.280	1040
911.380	577
911.480	158
911.580	938
911.680	599
911.780	137
911.880	215
911.980	1182
912.080	-196
912.180	189
912.280	1463
912.380	568
912.480	1118
912.580	352
912.679	531
912.779	891
912.879	697
912.979	440
913.078	-245
913.178	3
913.278	1310
913.377	757
913.477	565
913.577	888
913.676	921
913.776	-99
913.875	176
913.975	694
914.074	583
914.174	232
914.273	827
914.373	749
914.472	-165
914.572	949
914.671	605
914.770	282
914.870	849
914.969	-260
915.068	667
915.167	546
915.267	482
915.366	571
915.465	368
915.564	1327
915.663	602
915.763	195
915.862	170
915.961	-155
916.060	446
916.159	1048
916.258	136
916.357	535
916.456	1345
916.555	521
916.654	897
916.752	647
916.851	530
916.950	1054
917.049	276
917.148	706
917.247	-11
917.345	252
917.444	618
917.543	303
917.642	-136
917.740	602
917.839	755
917.937	836
918.036	873
918.135	794
918.233	1135
918.332	193
918.430	495
918.529	534
918.627	383
918.726	596
918.824	1130
918.923	863
919.021	-107
919.119	-108
919.218	627
919.316	591
919.414	783
919.512	639
919.611	908
919.709	301
919.807	674
919.905	825
920.003	710
920.102	1377
920.200	861
920.298	302
920.396	933
920.494	13
920.592	793
920.690	710
920.788	742
920.886	772
920.984	1020
921.082	235
921.180	1493
921.277	445
921.375	968
921.473	769
921.571	377
921.669	757
921.766	23
921.864	629
921.962	1449
922.060	782
922.157	-127
922.255	356
922.352	274
922.450	1099
922.548	1508
922.645	415
922.743	489
922.840	764
922.938	1187
923.035	1012
923.133	1154
923.230	1488
923.327	2197
923.425	1394
923.522	2025
923.619	1105
923.717	2008
923.814	1614
923.911	1718
924.008	1089
924.106	1662
924.203	832
924.300	1216
924.397	558
924.494	1890
924.591	1073
924.688	1232
924.786	1560
924.883	1454
924.979	597
925.077	1070
925.173	1786
925.270	640
925.367	522
925.464	1051
925.561	1347
925.658	1419
925.755	1351
925.852	972
925.948	1546
926.045	1493
926.142	766
926.239	1560
926.335	1277
926.432	1733
926.529	845
926.625	1770
926.722	594
926.818	734
926.915	857
927.011	1647
927.108	1102
927.204	1624
927.301	1089
927.397	927
927.494	951
927.590	615
927.687	946
927.783	1757
927.879	995
927.976	913
928.072	136
928.168	86
928.264	871
928.361	376
928.457	445
928.553	669
928.649	902
928.745	1377
928.841	26
928.937	1097
929.033	946
929.129	1095
929.225	833
929.321	679
929.417	1299
929.513	1223
929.609	1234
929.705	1004
929.801	1652
929.897	1308
929.993	823
930.089	1417
930.184	918
930.280	569
930.376	1333
930.471	1740
930.567	232
930.663	906
930.758	139
930.854	1624
930.950	768
931.045	1359
931.141	1044
931.236	1547
931.332	1047
931.427	627
931.523	349
931.618	2086
931.714	1032
931.809	1835
931.905	268
932.000	474
932.095	1066
932.191	1537
932.286	1059
932.381	838
932.476	477
932.572	1126
932.667	1030
932.762	905
932.857	480
932.952	876
933.047	553
933.142	348
933.237	1209
933.332	1203
933.427	1399
933.522	301
933.617	25
933.712	273
933.807	840
933.902	864
933.997	499
934.092	610
934.187	614
934.282	297
934.376	1126
934.471	-82
934.566	279
934.661	1121
934.755	799
934.850	1240
934.945	495
935.039	116
935.134	997
935.228	604
935.323	1110
935.417	642
935.512	132
935.606	116
935.701	553
935.795	502
935.890	456
935.984	759
936.079	837
936.173	540
936.267	471
936.362	752
936.456	767
936.550	760
936.644	545
936.738	1321
936.833	154
936.927	661
937.021	1271
937.115	635
937.209	486
937.303	1239
937.397	441
937.491	125
937.585	883
937.679	618
937.773	460
937.867	454
937.961	1129
938.055	688
938.149	458
938.243	816
938.337	819
938.430	417
938.524	1014
938.618	441
938.712	604
938.805	1078
938.899	129
938.993	604
939.086	373
939.180	329
939.274	732
939.367	120
939.461	253
939.554	553
939.648	897
939.741	317
939.835	-122
939.928	1405
940.022	1182
940.115	-698
940.208	1033
940.302	235
940.395	846
940.488	311
940.582	797
940.675	-136
940.768	634
940.861	380
940.954	1259
941.048	90
941.141	-652
941.234	74
941.327	1263
941.420	1613
941.513	143
941.606	143
941.699	970
941.792	410
941.885	192
941.978	496
942.071	-266
942.164	-372
942.257	385
942.349	173
942.442	1351
942.535	-172
942.628	465
942.721	-98
942.813	-68
942.906	339
942.999	212
943.091	578
943.184	785
943.277	673
943.369	-348
943.462	141
943.554	730
943.647	56
943.739	144
943.832	-107
943.924	-62
944.017	366
944.109	-579
944.201	442
944.294	214
944.386	547
944.478	494
944.571	-85
944.663	1009
944.755	263
944.847	243
944.940	406
945.032	15
945.124	-338
945.216	347
945.308	431
945.400	33
945.492	56
945.584	84
945.676	1226
945.768	0
945.860	385
945.952	631
946.044	364
946.136	583
946.228	196
946.320	107
946.412	-260
946.503	645
946.595	47
946.687	-21
946.779	-451
946.870	-755
946.962	-191
947.054	237
947.145	207
947.237	42
947.329	188
947.420	-744
947.512	21
947.603	34
947.695	257
947.786	-1009
947.878	-495
947.969	224
948.061	-182
948.152	247
948.243	107
948.335	-160
948.426	-965
948.517	-300
948.609	-376
948.700	-72
948.791	-616
948.882	-499
948.973	-370
949.065	-75
949.156	530
949.247	-534
949.338	653
949.429	-94
949.520	275
949.611	-913
949.702	725
949.793	-19
949.884	-201
949.975	296
950.066	325
950.157	-619
950.247	153
950.338	-467
950.429	334
950.520	-144
950.611	-140
950.701	-12
950.792	98
950.883	-168
950.973	188
951.064	58
951.155	-187
951.245	29
951.336	114
951.427	-219
951.517	537
951.608	-291
951.698	-583
951.788	-347
951.879	-822
951.969	-852
952.060	-70
952.150	-93
952.240	-263
952.331	-1037
952.421	831
952.511	-570
952.602	1
952.692	99
952.782	-74
952.872	-583
952.962	-428
953.052	-179
953.143	-309
953.233	722
953.323	-34
953.413	-71
953.503	-680
953.593	-468
953.683	-344
953.773	-943
953.863	293
953.953	28
954.042	185
954.132	-76
954.222	59
954.312	252
954.402	292
954.492	226
954.581	364
954.671	-165
954.761	-516
954.850	289
954.940	-427
955.030	-162
955.119	-412
955.209	-135
955.298	-665
955.388	-443
955.477	-62
955.567	-227
955.656	-443
955.746	344
955.835	-773
955.925	-873
956.014	-876
956.103	-352
956.193	87
956.282	-2
956.371	110
956.461	-778
956.550	-138
956.639	-462
956.728	-560
956.817	180
956.906	-64
956.995	99
957.085	-1245
957.174	-369
957.263	-875
957.352	-410
957.441	-605
957.530	-315
957.619	-680
957.708	-1167
957.796	-506
957.885	-795
957.974	-1196
958.063	-394
958.152	-796
958.241	483
958.329	-702
958.418	-546
958.507	-1002
958.596	55
958.684	-570
958.773	-73
958.861	-974
958.950	312
959.039	-959
959.127	-586
959.216	-566
959.304	-500
959.393	-96
959.481	-795
959.570	856
959.658	-1037
959.746	-235
959.835	116
959.923	279
960.011	-253
960.100	499
960.188	320
960.276	22
960.365	-557
960.453	-845
960.541	-930
960.629	-1592
960.717	-594
960.805	-805
960.893	-565
960.981	-984
961.069	453
961.158	-362
961.245	-164
961.333	-878
961.421	-730
961.509	-356
961.597	-844
961.685	-152
961.773	-1317
961.861	-868
961.949	161
962.036	171
962.124	-504
962.212	-999
962.299	-1319
962.387	-571
962.475	-15
962.562	-1251
962.650	-1512
962.738	-137
962.825	-578
962.913	76
963.000	-963
963.088	-855
963.175	-515
963.263	-435
963.350	395
963.438	-928
963.525	-531
963.612	620
963.700	850
963.787	3808
963.874	780
963.962	-54
964.049	-1189
964.136	-374
964.223	-461
964.310	-499
964.398	-435
964.485	-1022
964.572	422
964.659	-408
964.746	-194
964.833	-576
964.920	-1415
965.007	-145
965.094	-192
965.181	-958
965.268	-981
965.355	-1411
965.441	-487
965.528	-1073
965.615	83
965.702	-199
965.789	-1121
965.875	-1034
965.962	-342
966.049	-954
966.136	-322
966.222	-1386
966.309	-752
966.395	-1195
966.482	-166
966.569	-313
966.655	-943
966.742	-566
966.828	-1746
966.915	-197
967.001	-759
967.087	-875
967.174	-897
967.260	-187
967.347	8
967.433	650
967.519	2751
967.605	-248
967.692	-1371
967.778	-851
967.864	-744
967.950	-705
968.036	-1467
968.123	-790
968.209	-749
968.295	-889
968.381	-135
968.467	-745
968.553	-2575
968.639	22
968.725	-1400
968.811	-226
968.897	-598
968.983	-789
969.069	-1115
969.154	-150
969.240	-566
969.326	-547
969.412	-601
969.497	-1236
969.583	-1094
969.669	-72
969.755	-749
969.840	-792
969.926	77
970.012	-918
970.097	-309
970.183	-44
970.268	-920
970.354	-814
970.439	-175
970.525	1053
970.610	-716
970.696	-691
970.781	-761
970.866	-1697
970.952	-1046
971.037	-1460
971.122	-558
971.208	-484
971.293	-36
971.378	-1518
971.463	-1242
971.549	-481
971.634	-1250
971.719	-430
971.804	-276
971.889	-1465
971.974	-1236
972.059	-1609
972.144	-577
972.229	-327
972.314	-1328
972.399	-465
972.484	-1413
972.569	-800
972.654	-1429
972.739	663
972.824	-912
972.908	-511
972.993	-868
973.078	-1774
973.163	-1109
973.247	-1034
973.332	-1465
973.417	287
973.501	-1323
973.586	-892
973.671	-90
973.755	-867
973.840	-971
973.924	-583
974.009	-231
974.093	-1801
974.178	498
974.262	-664
974.346	-435
974.431	-386
974.515	-653
974.600	-1450
974.684	-383
974.768	-1590
974.852	-300
974.937	-616
975.021	-789
975.105	-1214
975.189	-1286
975.273	-1374
975.358	-628
975.442	-2005
975.526	-1666
975.610	-2372
975.694	-1484
975.778	-957
975.862	-891
975.946	-2298
976.030	-160
976.114	-1315
976.198	-1115
976.281	-1820
976.365	-918
976.449	-1189
976.533	-858
976.617	-1783
976.700	-1721
976.784	-1335
976.868	-1096
976.951	-1042
977.035	-937
977.119	-1333
977.202	-1617
977.286	-575
977.369	-969
977.453	-444
977.536	-1094
977.620	-1711
977.703	-1166
977.787	-1816
977.870	-218
977.953	-668
978.037	-1962
978.120	-158
978.203	-1060
978.287	454
978.370	-1171
978.453	-1241
978.536	-1853
978.620	-547
978.703	-1124
978.786	-2245
978.869	-1845
978.952	-1963
979.035	-594
979.118	-646
979.201	-823
979.284	-823
979.367	-1490
979.450	-984
979.533	-1543
979.616	-1530
979.699	-1254
979.782	-782
979.865	-1275
979.948	-1506
980.030	-1173
980.113	-1592
980.196	-2308
980.279	-713
980.361	-1524
980.444	-2144
980.526	-1392
980.609	-1504
980.692	-2189
980.774	-1653
980.857	-1828
980.939	-1213
981.022	-1889
981.104	-835
981.187	-1827
981.269	-545
981.352	-1265
981.434	-2154
981.516	-1855
981.599	-455
981.681	-1708
981.763	-700
981.846	-1126
981.928	-1981
982.010	-1157
982.092	-1662
982.174	-1581
982.256	-1586
982.339	-1240
982.421	-1076
982.503	-1186
982.585	-1375
982.667	-1167
982.749	-1596
982.831	-927
982.913	-1487
982.995	-1485
983.077	-1266
983.158	-1813
983.240	-1913
983.322	-1311
983.404	-768
983.486	-1761
983.568	-1541
983.649	-1700
983.731	-743
983.813	-2032
983.894	-1314
983.976	-2865
984.058	-1395
984.139	-1557
984.221	-2677
984.302	-993
984.384	-2451
984.465	-1740
984.547	-1678
984.628	-1513
984.710	-1010
984.791	-1328
984.872	-1499
984.954	-1815
985.035	-638
985.116	-2724
985.198	-1241
985.279	-1253
985.360	-1346
985.441	-1617
985.522	-282
985.604	-1276
985.685	-2416
985.766	-1757
985.847	-171
985.928	-1678
986.009	-960
986.090	-1577
986.171	-760
986.252	-1850
986.333	-1285
986.414	-2427
986.495	-1278
986.576	-1845
986.656	-1318
986.737	-492
986.818	-1260
986.899	-1488
986.980	-948
987.060	-448
987.141	-1366
987.222	-1361
987.302	-1857
987.383	-1423
987.464	-1181
987.544	-1184
987.625	-1071
987.705	-1415
987.786	-1211
987.866	-1799
987.947	-1416
988.027	-1593
988.108	-1310
988.188	-1596
988.268	-1172
988.349	-1405
988.429	-1473
988.509	-921
988.589	-1497
988.670	-3125
988.750	-736
988.830	-1699
988.910	-976
988.990	-1834
989.070	-1527
989.151	-866
989.231	-1450
989.311	-1360
989.391	-776
989.471	-1385
989.551	-1313
989.631	-1511
989.711	-717
989.791	-1481
989.870	-2173
989.950	-1681
990.030	-2343
990.110	-2030
990.190	-1425
990.269	-1592
990.349	-1690
990.429	-1603
990.509	-1161
990.588	-3217
990.668	-1277
990.747	-1811
990.827	-1438
990.907	-1149
990.986	-1602
991.066	-1584
991.145	-1878
991.225	-2122
991.304	-1065
991.383	-1224
991.463	-1650
991.542	-1337
991.622	-1308
991.701	-1347
991.780	-2432
991.859	-1796
991.939	-1546
992.018	-2012
992.097	-1386
992.176	-1505
992.256	-1551
992.335	-1974
992.414	-604
992.493	-1849
992.572	-1537
992.651	-109
992.730	-1391
992.809	-1197
992.888	-1691
992.967	-1563
993.046	-1021
993.125	-2031
993.203	-1264
993.282	-1807
993.361	-1208
993.440	-2288
993.519	-1627
993.597	-1753
993.676	-1153
993.755	-1583
993.834	-1916
993.912	-2080
993.991	-861
994.069	-2013
994.148	-1935
994.226	-2457
994.305	-1899
994.384	-2134
994.462	-458
994.540	-2311
994.619	-2184
994.697	-1107
994.776	-1582
994.854	-1249
994.932	-1977
995.011	-1871
995.089	-1975
995.167	-2389
995.245	-1680
995.324	-2154
995.402	-1095
995.480	-2335
995.558	-1049
995.636	-1682
995.714	-1458
995.792	-1408
995.870	-1645
995.948	-1815
996.026	-1056
996.104	-2272
996.182	-1729
996.260	-2209
996.338	-1392
996.416	-1692
996.494	-2215
996.572	-934
996.649	-1222
996.727	-2006
996.805	-2486
996.883	-1929
996.960	-1351
997.038	-1454
997.116	-820
997.193	-1344
997.271	-1503
997.348	-1804
997.426	-1771
997.504	-2812
997.581	-1551
997.658	-1348
997.736	-1786
997.813	-1852
997.891	-1266
997.968	-2292
998.046	-1042
998.123	-2142
998.200	-1176
998.277	-2665
998.355	-986
998.432	-2778
998.509	-1360
998.586	-1280
998.663	-1765
998.741	-1735
998.818	-2001
998.895	-2052
998.972	-1445
999.049	-1409
999.126	-1167
999.203	-1738
999.280	-1339
999.357	-1540
999.434	-1370
999.511	-1694
999.587	-982
999.664	-2071
999.741	-1582
999.818	-947
999.895	-2424
999.971	-2072
1000.048	-1060
1000.125	-1643
1000.202	-1915
1000.278	-1035
1000.355	-1325
1000.431	-2116
1000.508	-793
1000.584	-2034
1000.661	-1518
1000.738	-3067
1000.814	-1645
1000.890	-1504
1000.967	-1500
1001.043	-702
1001.120	-1800
1001.196	-1814
1001.272	-1746
1001.349	-2504
1001.425	-928
1001.501	-1868
1001.577	-1871
1001.654	-1783
1001.730	-1623
1001.806	-2096
1001.882	-2867
1001.958	-1086
1002.034	-1298
1002.110	-2272
1002.186	-1352
1002.262	-2238
1002.338	-1768
1002.414	-667
1002.490	-1775
1002.566	-1345
1002.642	-1287
1002.718	-1766
1002.794	-1670
1002.870	-1427
1002.945	-2118
1003.021	-1533
1003.097	-1952
1003.173	-1471
1003.248	-2337
1003.324	-1134
1003.400	-1935
1003.475	-2140
1003.551	-1122
1003.626	-1564
1003.702	-2068
1003.777	-1440
1003.853	-2406
1003.928	-1275
1004.004	-2044
1004.079	-1724
1004.155	-2091
1004.230	-2874
1004.305	-1412
1004.381	-2174
1004.456	-1789
1004.531	-1791
1004.607	-1484
1004.682	-1910
1004.757	-2215
1004.832	-2450
1004.907	-1940
1004.982	-1097
1005.057	-1440
1005.133	-2152
1005.208	-1564
1005.283	-1804
1005.358	-1104
1005.433	-2351
1005.508	-1966
1005.583	-2494
1005.657	-2434
1005.732	-1721
1005.807	-2526
1005.882	-1683
1005.957	-2076
1006.032	-1354
1006.106	-2539
1006.181	-996
1006.256	-1906
1006.331	-2736
1006.405	-2468
1006.480	-2505
1006.554	-1626
1006.629	-2011
1006.704	-2192
1006.778	-1543
1006.853	-1659
1006.927	-2405
1007.002	-940
1007.076	-1956
1007.150	-1794
1007.225	-2357
1007.299	-1557
1007.373	-2356
1007.448	-1956
1007.522	-958
1007.596	-1965
1007.671	-2329
1007.745	-934
1007.819	-2811
1007.893	-1808
1007.967	-1794
1008.041	-2384
1008.115	-992
1008.190	-1996
1008.264	-1276
1008.338	-1845
1008.412	-2682
1008.486	-1958
1008.560	-1952
1008.633	-1811
1008.707	-3508
1008.781	-1691
1008.855	-1688
1008.929	-1945
1009.003	-1533
1009.076	-2399
1009.150	-2284
1009.224	-1853
1009.298	-2038
1009.371	-2264
1009.445	-1827
1009.519	-2581
1009.592	-2361
1009.666	-1489
1009.739	-1625
1009.813	-2602
1009.886	-1411
1009.960	-2741
1010.033	-1333
1010.107	-1520
1010.180	-2654
1010.253	-1249
1010.327	-2623
1010.400	-2445
1010.473	-2864
1010.547	-1137
1010.620	-1903
1010.693	-613
1010.766	-2024
1010.840	-1206
1010.913	-1920
1010.986	-2050
1011.059	-2151
1011.132	-2007
1011.205	-1856
1011.278	-1632
1011.351	-2579
1011.424	-2153
1011.497	-2241
1011.570	-2468
1011.643	-2322
1011.716	-1737
1011.789	-2526
1011.862	-1768
1011.934	-1784
1012.007	-2793
1012.080	-1802
1012.153	-1254
1012.225	-1541
1012.298	-2233
1012.371	-2552
1012.443	-2099
1012.516	-2154
1012.588	-1548
1012.661	-1412
1012.733	-1991
1012.806	-1273
1012.879	-2881
1012.951	-2213
1013.023	-2109
1013.096	-1274
1013.168	-2335
1013.241	-1372
1013.313	-1644
1013.385	-2545
1013.458	-2156
1013.530	-1216
1013.602	-2537
1013.674	-1635
1013.746	-2262
1013.819	-2333
1013.891	-1067
1013.963	-2519
1014.035	-1936
1014.107	-2158
1014.179	-1888
1014.251	-1938
1014.323	-1469
1014.395	-2290
1014.467	-2099
1014.539	-2345
1014.611	-2734
1014.683	-1700
1014.754	-2384
1014.826	-1644
1014.898	-1548
1014.970	-3249
1015.042	-1580
1015.113	-1823
1015.185	-2768
1015.257	-2740
1015.328	-1614
1015.400	-1535
1015.471	-1814
1015.543	-3028
1015.615	-1165
1015.686	-2500
1015.757	-2173
1015.829	-2019
1015.901	-1887
1015.972	-2023
1016.043	-2081
1016.115	-1465
1016.186	-1834
1016.257	-2920
1016.328	-1399
1016.400	-1873
1016.471	-2600
1016.542	-2284
1016.613	-1398
1016.685	-1998
1016.756	-1337
1016.827	-1885
1016.898	-2311
1016.969	-1620
1017.040	-2008
1017.111	-2293
1017.182	-2642
1017.253	-2559
1017.324	-1621
1017.395	-2847
1017.466	-1569
1017.537	-1861
1017.608	-2444
1017.678	-2149
1017.749	-1349
1017.820	-1410
1017.891	-2556
1017.961	-1656
1018.032	-1080
1018.103	-1916
1018.173	-1753
1018.244	-2557
1018.315	-1713
1018.385	-1572
1018.456	-1985
1018.526	-2696
1018.597	-2055
1018.667	-1323
1018.738	-1492
1018.808	-2326
1018.878	-2958
1018.949	-1746
1019.019	-1868
1019.089	-2485
1019.160	-2599
1019.230	-1697
1019.300	-1680
1019.371	-2735
1019.441	-2335
1019.511	-1172
1019.581	-1592
1019.651	-2709
1019.721	-2137
1019.791	-1944
1019.861	-1451
1019.931	-1654
1020.001	-2338
1020.071	-2022
1020.141	-2627
1020.211	-2047
1020.281	-2030
1020.351	-2118
1020.421	-1727
1020.491	-1631
1020.560	-2176
1020.630	-1788
1020.700	-2545
1020.770	-2300
1020.839	-2083
1020.909	-2631
1020.979	-1834
1021.048	-2049
1021.118	-1717
1021.187	-1777
1021.257	-1555
1021.326	-2571
1021.396	-1836
1021.465	-1868
1021.535	-2378
1021.604	-2074
1021.674	-2463
1021.743	-1876
1021.812	-1810
1021.882	-1990
1021.951	-2562
1022.020	-2070
1022.089	-2582
1022.159	-2742
1022.228	-1162
1022.297	-2285
1022.366	-2083
1022.435	-1601
1022.504	-1994
1022.573	-2147
1022.642	-1900
1022.711	-2422
1022.781	-1608
1022.849	-1343
1022.918	-1963
1022.987	-2410
1023.056	-1771
1023.125	-2621
1023.194	-1231
1023.263	-2373
1023.331	-1516
1023.400	-2268
1023.469	-2110
1023.538	-1861
1023.606	-2028
1023.675	-1937
1023.744	-2058
1023.812	-2248
1023.881	-1803
1023.949	-1916
1024.018	-2057
1024.086	-1693
1024.155	-1777
1024.223	-2075
1024.292	-1681
1024.360	-1770
1024.429	-1147
1024.497	-1691
1024.565	-1554
1024.634	-2179
1024.702	-2099
1024.770	-1603
1024.838	-2373
1024.907	-1896
1024.975	-2329
1025.043	-2104
1025.111	-2016
1025.179	-2048
1025.247	-2119
1025.315	-2279
1025.383	-2244
1025.451	-2409
1025.519	-2693
1025.587	-2359
1025.655	-2743
1025.723	-1973
1025.791	-1980
1025.859	-1380
1025.927	-1990
1025.995	-2617
1026.062	-1934
1026.130	-2343
1026.198	-2304
1026.266	-1498
1026.333	-1152
1026.401	-1018
1026.469	-2078
1026.536	-2416
1026.604	-1520
1026.671	-2422
1026.739	-2109
1026.806	-1528
1026.874	-1384
1026.941	-1913
1027.009	-1968
1027.076	-1630
1027.144	-874
1027.211	-1713
1027.278	-2209
1027.345	-1824
1027.413	-2281
1027.480	-2230
1027.547	-1892
1027.614	-2232
1027.682	-2149
1027.749	-1443
1027.816	-3041
1027.883	-1901
1027.950	-1004
1028.017	-3247
1028.084	-1326
1028.151	-2241
1028.218	-2215
1028.285	-2057
1028.352	-1488
1028.419	-1741
1028.486	-2004
1028.553	-1745
1028.619	-2031
1028.686	-2378
1028.753	-2173
1028.820	-2331
1028.886	-2376
1028.953	-2134
1029.020	-2374
1029.086	-1514
1029.153	-1907
1029.220	-2312
1029.286	-1335
1029.353	-2305
1029.419	-2115
1029.486	-1931
1029.552	-1439
1029.619	-2088
1029.685	-2312
1029.751	-2204
1029.818	-1571
1029.884	-1761
1029.951	-729
1030.017	-2656
1030.083	-2046
1030.149	-2667
1030.216	-2432
1030.282	-1393
1030.348	-2216
1030.414	-2546
1030.480	-2363
1030.546	-2395
1030.612	-2069
1030.678	-1219
1030.744	-2687
1030.810	-2383
1030.876	-1969
1030.942	-1711
1031.008	-1924
1031.074	-2476
1031.140	-1305
1031.206	-2178
1031.272	-1819
1031.337	-2060
1031.403	-1143
1031.469	-2182
1031.534	-2217
1031.600	-2395
1031.666	-2492
1031.731	-1924
1031.797	-2427
1031.863	-2329
1031.928	-1470
1031.994	-2470
1032.059	-1903
1032.125	-2477
1032.190	-1750
1032.256	-2109
1032.321	-2416
1032.386	-2135
1032.452	-2087
1032.517	-1794
1032.582	-1734
1032.647	-1567
1032.713	-2733
1032.778	-1672
1032.843	-1903
1032.908	-1974
1032.974	-1467
1033.039	-2677
1033.104	-1954
1033.169	-2970
1033.234	-1862
1033.299	-1092
1033.364	-1566
1033.429	-2292
1033.494	-960
1033.559	-2328
1033.624	-1766
1033.688	-2277
1033.753	-2643
1033.818	-2244
1033.883	-1102
1033.948	-2505
1034.013	-2759
1034.077	-1801
1034.142	-1643
1034.207	-1811
1034.271	-1732
1034.336	-1428
1034.400	-1801
1034.465	-2371
1034.530	-2350
1034.594	-2164
1034.658	-2571
1034.723	-2073
1034.787	-1878
1034.852	-2481
1034.916	-1772
1034.981	-2377
1035.045	-1806
1035.109	-2396
1035.173	-1953
1035.238	-1993
1035.302	-2313
1035.366	-1851
1035.430	-1455
1035.495	-2206
1035.559	-1732
1035.623	-2471
1035.687	-2389
1035.751	-2768
1035.815	-1840
1035.879	-2120
1035.943	-2168
1036.007	-2106
1036.071	-1842
1036.135	-1956
1036.198	-1408
1036.262	-2341
1036.326	-2111
1036.390	-1852
1036.454	-1487
1036.517	-1543
1036.581	-1742
1036.645	-1820
1036.709	-2137
1036.772	-2043
1036.836	-2210
1036.900	-2156
1036.963	-1861
1037.026	-2115
1037.090	-2205
1037.154	-1941
1037.217	-1643
1037.280	-1794
1037.344	-2164
1037.407	-2435
1037.471	-2474
1037.534	-2789
1037.597	-2720
1037.661	-2148
1037.724	-2177
1037.787	-2243
1037.850	-2828
1037.913	-2521
1037.977	-1898
1038.040	-1624
1038.103	-1580
1038.166	-2576
1038.229	-1952
1038.292	-2068
1038.355	-1770
1038.418	-2768
1038.481	-1849
1038.544	-1861
1038.607	-1480
1038.670	-2540
1038.732	-1873
1038.795	-2415
1038.858	-1904
1038.921	-2154
1038.984	-1165
1039.046	-1855
1039.109	-2460
1039.172	-2066
1039.234	-2568
1039.297	-2403
1039.360	-1841
1039.422	-1871
1039.485	-2069
1039.547	-2315
1039.610	-1800
1039.672	-2247
1039.734	-2482
1039.797	-2393
1039.859	-2531
1039.922	-2220
1039.984	-2202
1040.046	-2276
1040.109	-2534
1040.171	-2230
1040.233	-1688
1040.295	-2732
1040.358	-1624
1040.420	-1768
1040.482	-2158
1040.544	-2266
1040.606	-1355
1040.668	-2556
1040.730	-1905
1040.792	-2802
1040.854	-2212
1040.916	-2165
1040.978	-2963
1041.040	-2223
1041.102	-1635
1041.164	-2372
1041.225	-1792
1041.287	-2767
1041.349	-1237
1041.411	-2872
1041.472	-2812
1041.534	-2619
1041.596	-2066
1041.657	-2283
1041.719	-2048
1041.781	-3179
1041.842	-1832
1041.904	-2935
1041.965	-2215
1042.027	-2237
1042.088	-2505
1042.150	-2620
1042.211	-1598
1042.272	-1749
1042.334	-2383
1042.395	-3000
1042.456	-2660
1042.518	-2608
1042.579	-1613
1042.640	-2587
1042.701	-2407
1042.763	-1967
1042.824	-2111
1042.885	-2111
1042.946	-2284
1043.007	-2058
1043.068	-2435
1043.129	-2298
1043.190	-2133
1043.251	-1382
1043.312	-2246
1043.373	-1980
1043.434	-2786
1043.495	-2366
1043.556	-1743
1043.616	-2199
1043.677	-1979
1043.738	-2409
1043.799	-1829
1043.859	-1864
1043.920	-1661
1043.981	-2700
1044.041	-959
1044.102	-2383
1044.162	-2176
1044.223	-3003
1044.284	-2237
1044.344	-2594
1044.405	-2082
1044.465	-1779
1044.525	-2613
1044.586	-2412
1044.646	-2276
1044.707	-1622
1044.767	-1476
1044.827	-2725
1044.887	-1193
1044.948	-1078
1045.008	-1619
1045.068	-2189
1045.128	-1722
1045.188	-2656
1045.249	-2426
1045.309	-2200
1045.369	-1521
1045.429	-1585
1045.489	-1520
1045.549	-1943
1045.609	-1620
1045.669	-2077
1045.729	-1873
1045.789	-2077
1045.848	-1361
1045.908	-1337
1045.968	-1845
1046.028	-1998
1046.088	-942
1046.147	-1658
1046.207	-1661
1046.267	-1191
1046.326	-2036
1046.386	-2155
1046.446	-1238
1046.505	-1698
1046.565	-1333
1046.624	-1593
1046.684	-1095
1046.743	-900
1046.803	-780
1046.862	-687
1046.922	0
