'Start Wavelength	183.907
'End Wavelength	1046.922
'Gate Delay	5.000
'Gate Width (ms)	1.050
'Laser Output Level	0.000
'X Position	0.000
'Y Position	0.000
'Z Position	0.000
'Grid Point Number	1.000
'Shot Number	100.000
183.907	-183.000
183.977	-551.000
184.047	-247
184.116	-270
184.186	-116
184.256	647
184.325	-37
184.395	-404
184.465	341
184.534	-379
184.604	-685
184.674	55
184.743	-459
184.813	-349
184.883	-266
184.952	168
185.022	-261
185.092	163
185.161	-125
185.231	-233
185.301	388
185.370	-98
185.440	582
185.509	-245
185.579	-283
185.649	-383
185.718	-371
185.788	360
185.857	-209
185.927	-14
185.996	466
186.066	508
186.136	-7
186.205	-142
186.275	-36
186.344	-170
186.414	459
186.483	-335
186.553	276
186.622	933
186.692	629
186.761	-272
186.831	249
186.900	365
186.970	193
187.039	577
187.109	963
187.178	105
187.248	-30
187.317	93
187.387	382
187.456	-185
187.526	636
187.595	-309
187.664	453
187.734	234
187.803	650
187.873	-655
187.942	263
188.012	-169
188.081	-204
188.150	-276
188.220	404
188.289	792
188.358	-206
188.428	464
188.497	719
188.567	296
188.636	322
188.705	314
188.775	-281
188.844	244
188.913	-425
188.983	-503
189.052	673
189.121	459
189.191	320
189.260	886
189.329	401
189.399	-318
189.468	231
189.537	149
189.606	111
189.676	49
189.745	1145
189.814	924
189.883	98
189.953	560
190.022	683
190.091	830
190.161	2054
190.230	333
190.299	129
190.368	-64
190.437	461
190.507	-26
190.576	-41
190.645	-230
190.714	-105
190.783	303
190.853	132
190.922	202
190.991	683
191.060	-146
191.129	-553
191.198	64
191.268	-702
191.337	119
191.406	637
191.475	373
191.544	-181
191.613	276
191.682	30
191.752	-686
191.821	-121
191.890	-90
191.959	120
192.028	-415
192.097	803
192.166	-409
192.235	21
192.304	364
192.373	506
192.442	-241
192.511	-18
192.580	450
192.650	-93
192.719	457
192.788	398
192.857	374
192.926	59
192.995	289
193.064	-272
193.133	917
193.202	701
193.271	-5
193.340	437
193.409	188
193.478	516
193.547	790
193.615	337
193.684	1029
193.753	692
193.822	769
193.891	233
193.960	284
194.029	396
194.098	74
194.167	200
194.236	465
194.305	-120
194.374	177
194.443	432
194.512	511
194.580	578
194.649	290
194.718	506
194.787	-95
194.856	236
194.925	939
194.994	85
195.062	427
195.131	-277
195.200	883
195.269	1282
195.338	660
195.407	-336
195.475	892
195.544	747
195.613	143
195.682	230
195.751	367
195.819	458
195.888	1381
195.957	739
196.026	397
196.094	401
196.163	606
196.232	1179
196.301	485
196.369	976
196.438	103
196.507	812
196.576	247
196.644	492
196.713	580
196.782	581
196.850	841
196.919	129
196.988	38
197.056	235
197.125	957
197.194	-268
197.262	290
197.331	-271
197.400	-9
197.468	-8
197.537	557
197.606	-120
197.674	255
197.743	1248
197.812	1004
197.880	1078
197.949	780
198.017	1103
198.086	991
198.155	489
198.223	334
198.292	1010
198.360	1005
198.429	81
198.497	-451
198.566	400
198.635	1280
198.703	762
198.772	581
198.840	1514
198.909	1687
198.977	424
199.046	558
199.114	183
199.183	289
199.251	679
199.320	-328
199.388	-357
199.457	456
199.525	387
199.594	253
199.662	97
199.731	67
199.799	373
199.867	488
199.936	485
200.004	533
200.073	689
200.141	229
200.210	515
200.278	-585
200.346	200
200.415	867
200.483	991
200.552	954
200.620	-50
200.688	-213
200.757	725
200.825	191
200.893	532
200.962	115
201.030	281
201.098	638
201.167	1071
201.235	858
201.303	396
201.372	633
201.440	562
201.508	942
201.577	383
201.645	882
201.713	652
201.781	604
201.850	1187
201.918	790
201.986	390
202.055	230
202.123	1037
202.191	8
202.259	489
202.327	179
202.396	679
202.464	24
202.532	1106
202.600	2890
202.669	1636
202.737	359
202.805	466
202.873	460
202.941	692
203.009	238
203.078	-52
203.146	1282
203.214	704
203.282	-313
203.350	545
203.418	486
203.487	648
203.555	439
203.623	213
203.691	516
203.759	69
203.827	518
203.895	1123
203.963	549
204.031	565
204.099	-153
204.168	240
204.236	799
204.304	388
204.372	70
204.440	725
204.508	54
204.576	700
204.644	388
204.712	154
204.780	779
204.848	583
204.916	698
204.984	1385
205.052	162
205.120	893
205.188	-12
205.256	582
205.324	1001
205.392	523
205.460	690
205.528	99
205.596	398
205.664	457
205.732	818
205.799	2173
205.867	2806
205.935	414
206.003	992
206.071	228
206.139	-19
206.207	228
206.275	933
206.343	-23
206.411	180
206.478	1172
206.546	895
206.614	277
206.682	281
206.750	724
206.818	656
206.885	899
206.953	392
207.021	1022
207.089	1067
207.157	129
207.225	681
207.292	1267
207.360	493
207.428	616
207.496	351
207.563	1068
207.631	461
207.699	-520
207.767	773
207.834	482
207.902	774
207.970	1155
208.038	814
208.105	1187
208.173	435
208.241	521
208.309	1477
208.376	434
208.444	1630
208.512	1196
208.579	462
208.647	699
208.715	1057
208.782	574
208.850	-8
208.918	497
208.985	1124
209.053	1417
209.120	709
209.188	299
209.256	1123
209.323	513
209.391	994
209.459	2012
209.526	1292
209.594	123
209.661	1246
209.729	1309
209.796	1246
209.864	655
209.932	737
209.999	1445
210.067	818
210.134	1511
210.202	1049
210.269	1398
210.337	1829
210.404	578
210.472	1196
210.539	1187
210.607	1060
210.674	905
210.742	880
210.809	714
210.877	873
210.944	1285
211.012	1173
211.079	2075
211.146	202
211.214	1193
211.281	1851
211.349	1669
211.416	1170
211.484	1437
211.551	541
211.618	1612
211.686	560
211.753	696
211.821	586
211.888	1011
211.955	796
212.023	666
212.090	1188
212.157	1509
212.225	1475
212.292	2682
212.359	3852
212.427	7825
212.494	4279
212.561	1874
212.629	935
212.696	1228
212.763	1554
212.831	535
212.898	1891
212.965	1058
213.032	914
213.100	2754
213.167	903
213.234	1805
213.301	1064
213.369	987
213.436	1158
213.503	1242
213.570	1051
213.638	1393
213.705	481
213.772	1104
213.839	1033
213.906	1958
213.973	773
214.041	918
214.108	1760
214.175	1005
214.242	1496
214.309	966
214.376	1551
214.444	1716
214.511	1715
214.578	1563
214.645	1427
214.712	2115
214.779	1452
214.846	1064
214.913	2051
214.980	2316
215.048	2286
215.115	2503
215.182	1985
215.249	2127
215.316	1876
215.383	2111
215.450	1841
215.517	1439
215.584	1674
215.651	1378
215.718	1612
215.785	1384
215.852	1886
215.919	2198
215.986	2423
216.053	642
216.120	889
216.187	1964
216.254	1899
216.321	1413
216.388	1146
216.455	2094
216.522	1726
216.589	2804
216.656	3105
216.722	2659
216.789	2601
216.856	2268
216.923	1162
216.990	2297
217.057	1559
217.124	2427
217.191	2153
217.258	3162
217.324	2798
217.391	2304
217.458	2617
217.525	1864
217.592	1059
217.659	1057
217.725	1625
217.792	2890
217.859	1666
217.926	861
217.993	1321
218.059	1590
218.126	1055
218.193	869
218.260	1225
218.327	1491
218.393	1535
218.460	1378
218.527	1507
218.594	1111
218.660	2510
218.727	2763
218.794	1273
218.860	1141
218.927	971
218.994	1718
219.061	823
219.127	1980
219.194	1817
219.261	1367
219.327	471
219.394	1256
219.461	897
219.527	956
219.594	1566
219.661	1670
219.727	445
219.794	1446
219.860	514
219.927	1403
219.994	2052
220.060	3806
220.127	3652
220.193	2392
220.260	2070
220.326	2511
220.393	3940
220.460	4155
220.526	2778
220.593	1947
220.659	2651
220.726	2666
220.792	5663
220.859	4097
220.925	5858
220.992	6875
221.058	6258
221.125	6575
221.191	5285
221.258	2362
221.324	1800
221.391	2534
221.457	940
221.524	1560
221.590	2321
221.657	5386
221.723	3828
221.789	4379
221.856	3540
221.922	1995
221.989	1797
222.055	1969
222.121	1522
222.188	3586
222.254	2130
222.321	1902
222.387	1776
222.453	2028
222.520	1341
222.586	1191
222.652	1516
222.719	1292
222.785	1357
222.851	923
222.918	1150
222.984	1140
223.050	911
223.116	954
223.183	2148
223.249	716
223.315	792
223.382	889
223.448	1324
223.514	695
223.580	1193
223.647	519
223.713	1331
223.779	1492
223.845	1040
223.911	1472
223.978	1145
224.044	2041
224.110	882
224.176	1407
224.242	1598
224.309	371
224.375	1630
224.441	367
224.507	626
224.573	1182
224.639	1014
224.705	341
224.772	792
224.838	1653
224.904	1768
224.970	1115
225.036	368
225.102	1155
225.168	1092
225.234	1915
225.300	1125
225.366	1343
225.432	625
225.499	795
225.565	814
225.631	1330
225.697	1729
225.763	2317
225.829	2417
225.895	2383
225.961	3251
226.027	2804
226.093	2115
226.159	3369
226.225	4010
226.291	7823
226.357	11539
226.423	5849
226.489	4101
226.554	2597
226.620	3223
226.686	3579
226.752	5256
226.818	7315
226.884	14382
226.950	12736
227.016	6925
227.082	4589
227.148	3604
227.214	3213
227.279	2585
227.345	1804
227.411	2504
227.477	3443
227.543	7420
227.609	6856
227.674	3564
227.740	2998
227.806	1556
227.872	2165
227.938	1892
228.003	3140
228.069	1504
228.135	644
228.201	931
228.267	2076
228.332	2347
228.398	2472
228.464	1478
228.530	1459
228.595	1540
228.661	1490
228.727	2456
228.792	1926
228.858	1323
228.924	1742
228.990	2796
229.055	1810
229.121	2667
229.187	1028
229.252	1764
229.318	1627
229.384	1572
229.449	2212
229.515	115
229.581	164
229.646	3033
229.712	2218
229.777	3393
229.843	3493
229.909	3384
229.974	3058
230.040	3794
230.105	2808
230.171	3053
230.236	3556
230.302	5069
230.368	2502
230.433	2502
230.499	3091
230.564	2273
230.630	1602
230.695	2132
230.761	2012
230.826	900
230.892	3822
230.957	1748
231.023	1672
231.088	1887
231.154	2303
231.219	1637
231.284	2486
231.350	2710
231.415	2309
231.481	1419
231.546	2004
231.612	2257
231.677	1230
231.742	205
231.808	2573
231.873	1128
231.939	330
232.004	3777
232.069	2994
232.135	1765
232.200	1213
232.265	2134
232.331	898
232.396	1456
232.461	1054
232.527	1743
232.592	2009
232.657	1549
232.723	2065
232.788	1575
232.853	1970
232.918	1653
232.984	412
233.049	1754
233.114	895
233.179	2273
233.245	3774
233.310	3612
233.375	1125
233.440	1364
233.506	1076
233.571	597
233.636	1858
233.701	1266
233.766	1825
233.832	2475
233.897	1504
233.962	1651
234.027	2791
234.092	1749
234.157	1922
234.222	1762
234.288	2243
234.353	6498
234.418	6651
234.483	4082
234.548	3392
234.613	3263
234.678	3414
234.743	3409
234.808	7200
234.873	4018
234.938	3362
235.004	3080
235.069	2732
235.134	1278
235.199	2354
235.264	2305
235.329	1564
235.394	2160
235.459	2302
235.524	2517
235.589	2127
235.654	1797
235.719	1134
235.784	2172
235.849	2119
235.913	3065
235.978	4176
236.043	4350
236.108	1806
236.173	2167
236.238	2579
236.303	1376
236.368	1549
236.433	2776
236.498	4106
236.563	3344
236.627	6910
236.692	19381
236.757	15180
236.822	7516
236.887	5019
236.952	5139
237.017	3351
237.081	4609
237.146	5417
237.211	9689
237.276	18792
237.341	28275
237.405	14098
237.470	6863
237.535	5767
237.600	4033
237.664	3409
237.729	2860
237.794	3374
237.859	5763
237.923	4438
237.988	2395
238.053	3646
238.118	3521
238.182	8548
238.247	7222
238.312	3818
238.376	3283
238.441	1697
238.506	2932
238.570	1396
238.635	2996
238.700	2157
238.764	2522
238.829	4535
238.893	4147
238.958	3368
239.023	3165
239.087	2546
239.152	3001
239.216	1411
239.281	2294
239.346	2162
239.410	2209
239.475	2021
239.539	8157
239.604	4485
239.668	3508
239.733	2411
239.797	5151
239.862	12413
239.926	10748
239.991	4555
240.055	2721
240.120	1903
240.184	2600
240.249	1701
240.313	2086
240.378	1722
240.442	3792
240.507	6937
240.571	2051
240.635	4182
240.700	4914
240.764	2923
240.829	2220
240.893	721
240.957	1393
241.022	4562
241.086	7457
241.151	3524
241.215	1522
241.279	3263
241.344	3819
241.408	4112
241.472	3502
241.537	4453
241.601	4115
241.665	2646
241.730	2857
241.794	3104
241.858	2261
241.922	3553
241.987	3581
242.051	2472
242.115	2087
242.179	3048
242.244	1830
242.308	3425
242.372	3032
242.436	2812
242.501	3802
242.565	2497
242.629	2184
242.693	3988
242.757	1697
242.822	2708
242.886	2589
242.950	3186
243.014	1909
243.078	2630
243.142	3876
243.206	2659
243.271	3269
243.335	2508
243.399	4349
243.463	12521
243.527	27942
243.591	9865
243.655	5506
243.719	3096
243.783	3956
243.847	6218
243.911	7431
243.975	8869
244.040	5376
244.104	4560
244.168	3076
244.232	4132
244.296	5875
244.360	7021
244.424	3271
244.488	3265
244.552	2690
244.615	1870
244.679	1885
244.743	2800
244.807	3162
244.871	2396
244.935	2202
244.999	1368
245.063	1677
245.127	3310
245.191	5633
245.255	4716
245.319	4497
245.383	2835
245.446	4136
245.510	1835
245.574	2381
245.638	3106
245.702	2301
245.766	6849
245.829	4615
245.893	2706
245.957	1761
246.021	3869
246.085	2664
246.149	3930
246.212	8944
246.276	11195
246.340	5280
246.404	3672
246.467	4821
246.531	5272
246.595	4579
246.659	3951
246.722	3145
246.786	6020
246.850	5250
246.913	5566
246.977	3414
247.041	3190
247.104	3232
247.168	3850
247.232	8367
247.295	15283
247.359	7670
247.423	4754
247.486	6932
247.550	4939
247.614	3493
247.677	5607
247.741	3472
247.804	2038
247.868	3050
247.932	7620
247.995	15145
248.059	5586
248.122	3233
248.186	5765
248.249	8177
248.313	22857
248.376	25120
248.440	15710
248.503	6870
248.567	7166
248.630	8985
248.694	12387
248.757	15424
248.821	24543
248.884	17269
248.948	15031
249.011	20591
249.075	28797
249.138	24845
249.202	11799
249.265	7883
249.328	8228
249.392	6359
249.455	6818
249.519	4835
249.582	6336
249.645	9759
249.709	7010
249.772	4933
249.835	4837
249.899	4909
249.962	5380
250.025	4009
250.089	11511
250.152	14060
250.215	7726
250.279	5848
250.342	6355
250.405	5248
250.468	5174
250.532	6706
250.595	10442
250.658	29992
250.721	43263
250.785	18884
250.848	12223
250.911	6843
250.974	6587
251.038	8477
251.101	16061
251.164	8533
251.227	10118
251.290	8499
251.354	13215
251.417	39432
251.480	38254
251.543	30492
251.606	63821
251.669	50203
251.732	24259
251.795	24214
251.859	24086
251.922	44261
251.985	27180
252.048	11440
252.111	10143
252.174	9680
252.237	16923
252.300	30230
252.363	33917
252.426	52244
252.489	25778
252.552	12926
252.615	9541
252.678	10902
252.741	23116
252.804	30240
252.867	56987
252.930	36791
252.993	20791
253.056	13701
253.119	9973
253.182	7563
253.245	13177
253.308	10428
253.371	9752
253.434	7882
253.497	9016
253.559	14912
253.622	10511
253.685	14001
253.748	15591
253.811	6767
253.874	8178
253.937	7757
254.000	6583
254.062	11144
254.125	15440
254.188	14341
254.251	11275
254.314	6593
254.376	12633
254.439	13452
254.502	12386
254.565	11566
254.628	19282
254.690	11327
254.753	6389
254.816	6051
254.878	6380
254.941	11296
255.004	10239
255.067	5507
255.129	6289
255.192	3274
255.255	3341
255.317	5006
255.380	3658
255.443	1982
255.505	2625
255.568	2218
255.631	2501
255.693	3443
255.756	1994
255.819	3565
255.881	2207
255.944	2361
256.006	2246
256.069	2751
256.132	2067
256.194	3197
256.257	7479
256.319	5049
256.382	4960
256.444	4659
256.507	4171
256.569	2825
256.632	2880
256.694	4385
256.757	12382
256.819	31995
256.882	13839
256.944	6670
257.007	6459
257.069	6362
257.132	3876
257.194	3532
257.257	4054
257.319	3593
257.381	3491
257.444	10020
257.506	36772
257.569	40183
257.631	22608
257.693	12654
257.756	5859
257.818	5750
257.880	3380
257.943	4683
258.005	3477
258.067	2674
258.130	2665
258.192	4855
258.254	8538
258.317	4620
258.379	4122
258.441	9909
258.503	8654
258.566	8775
258.628	11344
258.690	3469
258.753	5193
258.815	9494
258.877	4645
258.939	3226
259.001	3128
259.064	3576
259.126	4256
259.188	4828
259.250	4128
259.312	4776
259.375	10383
259.437	7310
259.499	3772
259.561	4360
259.623	3850
259.685	3009
259.747	3111
259.809	9125
259.872	13764
259.934	22585
259.996	18477
260.058	5989
260.120	3668
260.182	2986
260.244	2274
260.306	1731
260.368	3088
260.430	2597
260.492	4972
260.554	9548
260.616	7280
260.678	13298
260.740	15699
260.802	4350
260.864	5300
260.926	3593
260.988	4378
261.050	2899
261.112	5181
261.174	14503
261.236	11163
261.298	5390
261.359	7678
261.421	9667
261.483	3237
261.545	4887
261.607	1771
261.669	2985
261.731	6118
261.793	12055
261.854	6657
261.916	4938
261.978	3155
262.040	3664
262.102	3289
262.164	4848
262.225	3682
262.287	3182
262.349	8582
262.411	6135
262.472	3766
262.534	4585
262.596	9232
262.658	4185
262.719	1875
262.781	3732
262.843	8557
262.904	4399
262.966	4054
263.028	3758
263.090	19095
263.151	44178
263.213	14598
263.275	9310
263.336	4838
263.398	3555
263.459	2275
263.521	3697
263.583	8624
263.644	5009
263.706	2318
263.767	1707
263.829	1192
263.891	1281
263.952	689
264.014	1477
264.075	1648
264.137	5610
264.198	4332
264.260	996
264.321	2132
264.383	5001
264.444	9426
264.506	2650
264.567	2960
264.629	3701
264.690	4592
264.752	3403
264.813	3141
264.875	2215
264.936	2703
264.998	1744
265.059	2087
265.120	2219
265.182	4161
265.243	16685
265.305	15564
265.366	4399
265.427	3821
265.489	2781
265.550	1269
265.611	3078
265.673	3208
265.734	1645
265.795	1884
265.857	1296
265.918	1409
265.979	5155
266.040	28268
266.102	21173
266.163	7008
266.224	5763
266.286	3370
266.347	1685
266.408	3070
266.469	3392
266.530	2861
266.592	2306
266.653	6137
266.714	9542
266.775	3810
266.836	2003
266.898	1924
266.959	3673
267.020	2365
267.081	3206
267.142	3346
267.203	2362
267.264	2216
267.326	4277
267.387	2488
267.448	1680
267.509	2937
267.570	2639
267.631	2587
267.692	1945
267.753	2881
267.814	1886
267.875	5856
267.936	10792
267.997	4713
268.058	5487
268.119	4128
268.180	3430
268.241	2426
268.302	2971
268.363	2300
268.424	3026
268.485	2761
268.546	1755
268.607	1350
268.668	1027
268.729	770
268.790	2088
268.851	2600
268.912	7169
268.972	8931
269.033	4164
269.094	2140
269.155	1937
269.216	1885
269.277	2865
269.338	1977
269.398	2263
269.459	3144
269.520	4937
269.581	6141
269.642	7369
269.702	4590
269.763	4146
269.824	1942
269.885	4567
269.945	6832
270.006	2190
270.067	1191
270.128	2066
270.188	2259
270.249	1189
270.310	2005
270.370	2364
270.431	1757
270.492	1340
270.553	2637
270.613	6043
270.674	11330
270.734	4466
270.795	3085
270.856	4660
270.916	3804
270.977	2511
271.038	3621
271.098	3511
271.159	6093
271.219	5439
271.280	2308
271.340	2336
271.401	3074
271.462	5616
271.522	4447
271.583	2490
271.643	2127
271.704	2139
271.764	3474
271.825	9441
271.885	27207
271.946	32166
272.006	12046
272.066	16795
272.127	25902
272.187	10028
272.248	5404
272.308	5940
272.369	17361
272.429	9339
272.489	8250
272.550	8278
272.610	10095
272.671	7355
272.731	5861
272.791	7768
272.852	6055
272.912	5384
272.972	3205
273.033	3244
273.093	4358
273.153	5248
273.214	4000
273.274	4358
273.334	11227
273.394	24710
273.455	11786
273.515	11450
273.575	22221
273.635	10286
273.696	13227
273.756	22691
273.816	9710
273.876	5837
273.936	9798
273.997	15737
274.057	4507
274.117	4401
274.177	8294
274.237	30525
274.297	22871
274.358	14865
274.418	19512
274.478	15485
274.538	6054
274.598	3782
274.658	12705
274.718	15738
274.778	7198
274.838	4737
274.898	7453
274.958	20388
275.018	21747
275.078	14994
275.138	6936
275.198	3452
275.258	3691
275.318	4431
275.378	8744
275.438	9319
275.498	5673
275.558	10602
275.618	23160
275.678	16007
275.738	12031
275.798	7136
275.858	2991
275.918	2778
275.978	4720
276.038	4054
276.098	3122
276.157	6924
276.217	20337
276.277	9320
276.337	7186
276.397	3755
276.457	5448
276.517	3141
276.576	2161
276.636	2335
276.696	6056
276.756	11988
276.815	8902
276.875	4098
276.935	4391
276.995	4776
277.055	2939
277.114	3194
277.174	4512
277.234	15575
277.293	5410
277.353	3563
277.413	2240
277.472	3480
277.532	3255
277.592	5020
277.651	15964
277.711	26888
277.771	9392
277.830	32569
277.890	25358
277.950	18313
278.009	45697
278.069	17933
278.128	20887
278.188	28420
278.248	13507
278.307	31304
278.367	17447
278.426	5711
278.486	4480
278.545	3624
278.605	2906
278.664	2553
278.724	3409
278.783	9700
278.843	22126
278.902	6692
278.962	5152
279.021	5453
279.081	6874
279.140	7311
279.199	5454
279.259	6101
279.318	5648
279.378	8699
279.437	15498
279.496	46323
279.556	111138
279.615	84033
279.675	26383
279.734	16448
279.793	23588
279.853	32367
279.912	12907
279.971	8097
280.031	8331
280.090	14326
280.149	23533
280.208	18807
280.268	75566
280.327	71657
280.386	20200
280.445	16639
280.505	14391
280.564	7313
280.623	5793
280.682	9555
280.742	13891
280.801	5235
280.860	3921
280.919	3085
280.978	3154
281.037	2718
281.097	2589
281.156	2660
281.215	3099
281.274	3307
281.333	15122
281.392	10883
281.451	3510
281.510	2396
281.569	2128
281.628	2224
281.688	1921
281.747	3343
281.806	3020
281.865	2581
281.924	2776
281.983	2818
282.042	1838
282.101	1812
282.160	2614
282.219	1178
282.278	3281
282.337	10413
282.396	6908
282.454	3620
282.513	4515
282.572	16624
282.631	9334
282.690	2852
282.749	3365
282.808	4216
282.867	3727
282.926	3670
282.985	3287
283.043	1997
283.102	1696
283.161	3098
283.220	7573
283.279	15332
283.338	5357
283.396	3596
283.455	4354
283.514	4238
283.573	6897
283.631	5087
283.690	3498
283.749	3595
283.808	7896
283.866	9088
283.925	3590
283.984	3903
284.043	5481
284.101	6430
284.160	4255
284.219	5277
284.277	5867
284.336	8418
284.395	22716
284.453	17939
284.512	9236
284.570	13274
284.629	12299
284.688	11071
284.746	12646
284.805	15529
284.863	20455
284.922	26557
284.981	31492
285.039	46176
285.098	73789
285.156	119960
285.215	105701
285.273	110947
285.332	121309
285.390	82050
285.449	53950
285.507	38432
285.566	28089
285.624	21665
285.683	17291
285.741	13698
285.799	11110
285.858	10440
285.916	9632
285.975	8071
286.033	6192
286.091	5972
286.150	4646
286.208	5147
286.267	5053
286.325	6223
286.383	9092
286.442	6700
286.500	4015
286.558	3608
286.616	3307
286.675	5321
286.733	4185
286.791	4739
286.850	5325
286.908	5871
286.966	9257
287.024	4107
287.083	3369
287.141	2783
287.199	4082
287.257	4605
287.315	4046
287.374	4344
287.432	9853
287.490	6207
287.548	3945
287.606	3103
287.664	3805
287.723	5105
287.781	4582
287.839	3226
287.897	4085
287.955	4418
288.013	7929
288.071	17956
288.129	62480
288.187	133682
288.245	64402
288.303	23974
288.361	13362
288.419	9752
288.477	6835
288.535	4636
288.593	4243
288.651	3790
288.709	2864
288.767	3357
288.825	2265
288.883	1492
288.941	1686
288.999	2450
289.057	1499
289.115	1715
289.173	1826
289.231	2842
289.289	2393
289.346	2183
289.404	3402
289.462	5295
289.520	5784
289.578	2426
289.636	1982
289.694	1440
289.751	1807
289.809	1420
289.867	1775
289.925	2171
289.983	3848
290.040	2308
290.098	1401
290.156	2764
290.214	3281
290.271	1607
290.329	1523
290.387	1059
290.444	1956
290.502	769
290.560	1358
290.617	999
290.675	1468
290.733	1978
290.790	1777
290.848	1406
290.906	2357
290.963	2048
291.021	2069
291.078	1964
291.136	1581
291.194	6036
291.251	12266
291.309	3149
291.366	2098
291.424	1558
291.481	2749
291.539	1978
291.596	1911
291.654	-582
291.711	1007
291.769	2062
291.826	5667
291.884	3359
291.941	1203
291.999	1528
292.056	2838
292.114	2624
292.171	1453
292.228	2147
292.286	3363
292.343	5443
292.401	7729
292.458	4153
292.515	3046
292.573	4512
292.630	3232
292.687	2844
292.745	1788
292.802	2136
292.859	6977
292.917	16139
292.974	9435
293.031	2705
293.089	1533
293.146	1920
293.203	1815
293.260	1849
293.318	1731
293.375	2795
293.432	1507
293.489	1633
293.546	1561
293.604	3248
293.661	9962
293.718	24188
293.775	11281
293.832	6813
293.889	5723
293.947	5608
294.004	4238
294.061	3700
294.118	8741
294.175	14461
294.232	11833
294.289	5798
294.346	3856
294.403	3737
294.460	3054
294.517	2204
294.574	1787
294.631	1704
294.688	2494
294.745	6936
294.802	23566
294.859	20801
294.916	8059
294.973	5363
295.030	5665
295.087	4427
295.144	2545
295.201	2365
295.258	2315
295.315	3167
295.372	11203
295.429	18933
295.486	8241
295.542	4495
295.599	7407
295.656	10598
295.713	10150
295.770	16488
295.827	6648
295.883	3594
295.940	3124
295.997	5877
296.054	6046
296.111	2775
296.167	2407
296.224	1049
296.281	1908
296.338	1778
296.394	1510
296.451	1986
296.508	8286
296.564	14686
296.621	10964
296.678	23376
296.734	28466
296.791	10650
296.848	5534
296.904	7729
296.961	16633
297.018	23081
297.074	14610
297.131	5610
297.187	4844
297.244	6941
297.301	21232
297.357	34157
297.414	11476
297.470	4649
297.527	3583
297.583	2883
297.640	2655
297.696	2626
297.753	2160
297.809	1804
297.866	898
297.922	1820
297.979	1612
298.035	2096
298.092	4546
298.148	12703
298.204	12149
298.261	5163
298.317	9683
298.374	25541
298.430	14457
298.486	6285
298.543	4954
298.599	5175
298.656	6939
298.712	12879
298.768	25862
298.824	16143
298.881	5968
298.937	3665
298.993	3187
299.050	4765
299.106	4106
299.162	2130
299.218	3786
299.275	3310
299.331	3964
299.387	7495
299.443	26175
299.500	29407
299.556	13114
299.612	6260
299.668	6312
299.724	10558
299.780	11221
299.837	4920
299.893	8188
299.949	24655
300.005	28509
300.061	23428
300.117	34321
300.173	15659
300.229	7738
300.285	11279
300.341	11819
300.397	6017
300.453	4207
300.510	3780
300.566	4726
300.622	6683
300.678	20833
300.734	33461
300.790	23885
300.845	24811
300.901	19257
300.957	28492
301.013	18587
301.069	7516
301.125	6232
301.181	6066
301.237	5097
301.293	3148
301.349	2560
301.405	1954
301.461	3546
301.516	5478
301.572	5872
301.628	8837
301.684	7278
301.740	9945
301.796	16573
301.851	11058
301.907	18981
301.963	17501
302.019	25166
302.074	63424
302.130	61494
302.186	29039
302.242	12744
302.297	8409
302.353	7820
302.409	15981
302.464	13233
302.520	10912
302.576	25748
302.631	28103
302.687	16574
302.743	7372
302.798	4584
302.854	2225
302.910	4002
302.965	4705
303.021	9440
303.076	8984
303.132	11810
303.187	13968
303.243	6164
303.299	2945
303.354	2949
303.410	2193
303.465	2434
303.521	1349
303.576	2581
303.632	3261
303.687	7268
303.743	21264
303.798	17045
303.853	6508
303.909	3736
303.964	3656
304.020	6747
304.075	10325
304.130	9936
304.186	17293
304.241	16917
304.297	13206
304.352	7173
304.358	6832
304.407	4062
304.449	4529
304.463	4693
304.518	4586
304.539	4150
304.573	3436
304.629	4049
304.630	4096
304.684	6487
304.720	12895
304.739	16121
304.794	23130
304.811	19576
304.850	10916
304.902	4921
304.905	4548
304.960	3513
304.992	3430
305.015	3367
305.071	3741
305.083	3785
305.126	3874
305.173	2360
305.181	2123
305.236	1852
305.264	2217
305.292	2624
305.347	4094
305.354	4174
305.402	4615
305.445	4367
305.457	4307
305.512	5021
305.535	5097
305.567	5175
305.622	5234
305.626	5433
305.678	9975
305.716	18287
305.733	21251
305.788	24131
305.807	20945
305.843	15315
305.897	20941
305.898	21003
305.953	19806
305.988	13192
306.008	9596
306.063	7067
306.078	6365
306.118	4634
306.168	3091
306.173	2973
306.228	1951
306.259	1815
306.283	1710
306.338	1512
306.349	1541
306.393	1916
306.440	2351
306.448	2373
306.503	2544
306.530	2726
306.558	3534
306.613	7523
306.620	8234
306.668	14127
306.711	21305
306.723	22172
306.778	17458
306.801	13678
306.833	9181
306.888	3757
306.892	3620
306.943	3167
306.982	2856
306.997	2797
307.052	2435
307.072	2456
307.107	2443
307.162	1791
307.163	1796
307.217	2791
307.253	2864
307.272	2802
307.327	3794
307.343	3865
307.381	3962
307.434	3649
307.436	3757
307.491	7655
307.524	11845
307.546	13791
307.600	18092
307.614	16641
307.655	9426
307.704	4669
307.710	4527
307.765	4491
307.795	5099
307.819	5549
307.874	6390
307.885	6475
307.929	6537
307.975	6979
307.984	7326
308.038	9856
308.065	12808
308.093	22603
308.148	47436
308.156	53113
308.202	87334
308.246	108309
308.257	104772
308.312	57515
308.336	40804
308.366	32214
308.421	21738
308.426	20628
308.475	12568
308.517	8270
308.530	7708
308.585	6293
308.607	6062
308.639	6016
308.694	5520
308.697	5575
308.748	7398
308.787	8547
308.803	8529
308.857	8120
308.877	7748
308.912	7742
308.967	8823
308.967	8846
309.021	13707
309.058	18671
309.076	23603
309.130	41336
309.148	47867
309.185	79436
309.238	131194
309.239	131736
309.293	151266
309.328	146965
309.348	127295
309.402	64316
309.418	48479
309.457	35223
309.508	22286
309.511	22038
309.566	21737
309.598	22359
309.620	27422
309.674	44122
309.688	48476
309.729	47592
309.778	39046
309.783	37968
309.837	25252
309.868	19215
309.892	20872
309.946	27481
309.959	29848
310.001	39734
310.049	48525
310.055	46867
310.109	27599
310.139	16881
310.163	13101
310.218	7354
310.229	6366
310.272	5419
310.319	4410
310.326	4190
310.381	3134
310.409	2653
310.435	2490
310.489	2099
310.499	2063
310.543	1919
310.589	1733
310.598	1722
310.652	1857
310.679	1865
310.706	1651
310.760	1181
310.769	1117
310.814	1563
310.859	2103
310.868	2073
310.923	1737
310.948	1633
310.977	2013
311.031	2794
311.038	2917
311.085	3162
311.128	3043
311.139	2957
311.193	2795
311.218	2664
311.247	2531
311.301	2213
311.308	2183
311.356	1941
311.398	1759
311.410	1792
311.464	1817
311.488	1867
311.518	2008
311.572	2251
311.578	2286
311.626	3583
311.668	4707
311.680	4454
311.734	3096
311.758	2547
311.788	2655
311.842	2834
311.847	2855
311.896	3342
311.937	3750
311.950	3700
312.004	3469
312.027	3360
312.058	3309
312.112	3231
312.117	3220
312.165	2460
312.207	1810
312.297	2286
312.386	2254
312.476	2775
312.566	8388
312.656	3296
312.745	1473
312.835	2083
312.925	2025
313.015	1753
313.104	1881
313.194	2322
313.284	2682
313.374	4606
313.463	3786
313.553	2476
313.643	1515
313.732	2164
313.822	2237
313.912	2276
314.001	3506
314.091	2968
314.180	2809
314.270	3774
314.360	3428
314.449	3626
314.539	2374
314.628	2021
314.718	2844
314.808	2350
314.897	2203
314.987	3109
315.076	4264
315.166	5016
315.255	2739
315.345	4454
315.434	3484
315.524	2811
315.613	3413
315.703	6529
315.792	9053
315.881	23978
315.971	10326
316.060	7168
316.150	5191
316.239	4915
316.328	2446
316.418	2980
316.507	2660
316.597	3650
316.686	3856
316.775	3691
316.865	5120
316.954	2528
317.043	984
317.133	2592
317.222	2866
317.311	2387
317.400	1766
317.490	4591
317.579	5561
317.668	3616
317.757	6194
317.847	12960
317.936	42691
318.025	20924
318.114	11513
318.203	7876
318.293	9060
318.382	21168
318.471	14391
318.560	15537
318.649	11610
318.738	4686
318.828	3882
318.917	5021
319.006	3411
319.095	6965
319.184	18450
319.273	16484
319.362	13298
319.451	4190
319.540	3894
319.629	8883
319.718	18455
319.807	6102
319.896	8015
319.985	25075
320.074	13831
320.163	3882
320.252	3990
320.341	2858
320.430	3011
320.519	6844
320.608	4562
320.697	4304
320.786	3377
320.875	5632
320.964	7941
321.053	11972
321.142	17493
321.230	19154
321.319	11327
321.408	28141
321.497	12248
321.586	11278
321.675	7809
321.764	9027
321.852	7094
321.941	16751
322.030	12797
322.119	10188
322.207	29457
322.296	12152
322.385	6403
322.474	11857
322.562	39360
322.651	19234
322.740	13235
322.829	17609
322.917	9149
323.006	9288
323.095	9099
323.183	4828
323.272	5857
323.361	10175
323.449	18028
323.538	7796
323.626	12944
323.715	7940
323.804	4072
323.892	11927
323.981	12222
324.069	3499
324.158	4586
324.246	5708
324.335	4773
324.424	11545
324.512	3802
324.601	5306
324.689	5612
324.778	9660
324.866	6981
324.954	2766
325.043	2462
325.131	4846
325.220	4995
325.308	5471
325.397	5986
325.485	4380
325.574	2611
325.662	2445
325.750	3380
325.839	2372
325.927	1860
326.015	2708
326.104	2235
326.192	2813
326.280	2540
326.369	2682
326.457	5320
326.545	8552
326.634	4915
326.722	2195
326.810	2599
326.898	2635
326.987	3400
327.075	7144
327.163	6273
327.251	3102
327.340	3714
327.428	4692
327.516	2336
327.604	2416
327.692	2316
327.781	2002
327.869	2445
327.957	2885
328.045	3071
328.133	1820
328.221	2042
328.309	2632
328.397	2055
328.485	3777
328.574	5241
328.662	20556
328.750	9323
328.838	1867
328.926	2327
329.014	1954
329.102	3384
329.190	6115
329.278	5380
329.366	1698
329.454	970
329.542	1157
329.630	1576
329.718	1545
329.806	2733
329.893	2636
329.981	1691
330.069	5568
330.157	17899
330.245	55274
330.333	31889
330.421	5818
330.509	7207
330.597	24482
330.684	15020
330.772	4607
330.860	1973
330.948	2680
331.036	2265
331.123	933
331.211	1752
331.299	1393
331.387	2663
331.475	5668
331.562	2554
331.650	1338
331.738	1454
331.825	1907
331.913	1290
332.001	1266
332.089	1735
332.176	1998
332.264	4573
332.352	4044
332.439	3269
332.527	1894
332.614	1388
332.702	1341
332.790	1489
332.877	3529
332.965	7062
333.052	4965
333.140	5354
333.228	12951
333.315	3706
333.403	2471
333.490	3085
333.578	6392
333.665	18852
333.753	9048
333.840	1870
333.928	2465
334.015	4252
334.103	6487
334.190	17525
334.278	6782
334.365	5847
334.452	5566
334.540	3278
334.627	2347
334.715	4465
334.802	6890
334.889	19275
334.977	25361
335.064	8767
335.151	3978
335.239	3141
335.326	3594
335.413	9914
335.501	15257
335.588	4329
335.675	2754
335.762	2842
335.850	4388
335.937	6224
336.024	11120
336.111	28168
336.199	21189
336.286	7046
336.373	3666
336.460	2354
336.547	2799
336.635	2681
336.722	3355
336.809	2532
336.896	3115
336.983	7933
337.070	15900
337.157	21610
337.245	11400
337.332	7574
337.419	1587
337.506	1405
337.593	1625
337.680	2613
337.767	10374
337.854	4414
337.941	4867
338.028	6368
338.115	2752
338.202	2172
338.289	3599
338.376	11153
338.463	5078
338.550	6241
338.637	6266
338.724	3131
338.811	4159
338.898	1472
338.984	1427
339.071	1801
339.158	2592
339.245	10768
339.332	7504
339.419	3777
339.506	3986
339.593	996
339.679	2314
339.766	2025
339.853	2709
339.940	8562
340.027	2255
340.113	3261
340.200	4314
340.287	2573
340.374	3917
340.460	8198
340.547	3386
340.634	5713
340.720	22677
340.807	14118
340.894	2061
340.980	2614
341.067	2037
341.154	2907
341.240	4478
341.327	11617
341.414	4621
341.500	4146
341.587	3066
341.674	2751
341.760	7282
341.847	9290
341.933	3365
342.020	526
342.106	1745
342.193	2646
342.279	6461
342.366	4268
342.452	8238
342.539	3876
342.625	9442
342.712	26154
342.798	11655
342.885	4107
342.971	1492
343.058	950
343.144	973
343.230	1842
343.317	2355
343.403	1614
343.490	1364
343.576	1136
343.662	2103
343.749	3082
343.835	3507
343.921	6736
344.008	35938
344.094	88065
344.180	21820
344.267	7785
344.353	25077
344.439	25497
344.525	12141
344.612	4736
344.698	3996
344.784	3037
344.870	2379
344.957	2455
345.043	4569
345.129	3124
345.215	8000
345.301	3939
345.387	2717
345.474	1367
345.560	782
345.646	1084
345.732	1076
345.818	2851
345.904	2039
345.990	3082
346.076	2559
346.162	3041
346.249	1905
346.335	1383
346.421	2507
346.507	10099
346.593	36908
346.679	9090
346.765	3488
346.851	3123
346.937	2063
347.023	2435
347.108	2534
347.194	1960
347.280	1562
347.366	3141
347.452	12326
347.538	43017
347.624	33170
347.710	27193
347.796	3768
347.882	1726
347.967	1373
348.053	924
348.139	2056
348.225	1896
348.311	1663
348.397	1800
348.482	3058
348.568	3853
348.654	1870
348.740	4415
348.825	3848
348.911	6261
348.997	17952
349.083	38531
349.168	6272
349.254	2433
349.340	2495
349.425	2129
349.511	3396
349.597	2501
349.682	7372
349.768	28170
349.854	14259
349.939	2034
350.025	1813
350.110	2073
350.196	1800
350.282	1070
350.367	797
350.453	1830
350.538	1657
350.624	3053
350.709	2098
350.795	611
350.880	1784
350.966	2789
351.051	2104
351.137	2149
351.222	2401
351.308	7579
351.393	27800
351.479	6960
351.564	2584
351.649	1736
351.735	1539
351.820	1422
351.906	1960
351.991	2668
352.076	14149
352.162	25429
352.247	4953
352.332	3642
352.418	7340
352.503	8544
352.588	35869
352.673	33098
352.759	7316
352.844	2631
352.929	3288
353.014	5355
353.100	3849
353.185	7001
353.270	9432
353.355	9577
353.441	2712
353.526	2344
353.611	7032
353.696	10054
353.781	5975
353.866	2469
353.952	3224
354.037	7357
354.122	19444
354.207	17065
354.292	5702
354.377	1917
354.462	2590
354.547	3368
354.632	2867
354.717	3964
354.802	7787
354.887	2937
354.972	2101
355.057	1739
355.142	2248
355.227	2046
355.312	4454
355.397	11640
355.482	29700
355.567	16086
355.652	10186
355.737	11195
355.822	30643
355.907	27862
355.991	4660
356.076	2913
356.161	1860
356.246	747
356.331	3030
356.416	5654
356.501	44609
356.585	51042
356.670	8098
356.755	5194
356.840	7488
356.924	32078
357.009	118958
357.094	49619
357.179	9848
357.263	7228
357.348	7121
357.433	5758
357.517	5827
357.602	4895
357.687	3590
357.771	7818
357.856	24690
357.941	15848
358.025	23035
358.110	105553
358.195	55934
358.279	9486
358.364	7105
358.448	21196
358.533	64335
358.617	48177
358.702	45893
358.787	17836
358.871	9813
358.956	7735
359.040	2119
359.125	2188
359.209	2909
359.294	11262
359.378	22056
359.462	8918
359.547	5169
359.631	1375
359.716	1118
359.800	1570
359.885	3322
359.969	2091
360.053	1979
360.138	2343
360.222	3951
360.306	8134
360.391	7212
360.475	12366
360.559	31258
360.644	23875
360.728	18409
360.812	24410
360.896	72328
360.981	29633
361.065	14483
361.149	4991
361.233	3833
361.318	2741
361.402	4052
361.486	3887
361.570	2747
361.654	3883
361.739	10422
361.823	45105
361.907	73828
361.991	15243
362.075	7717
362.159	18053
362.243	14668
362.327	14869
362.411	22589
362.495	10111
362.580	4618
362.664	2828
362.748	3074
362.832	4390
362.916	9386
363.000	34609
363.084	82235
363.168	94714
363.252	24036
363.336	8012
363.420	8531
363.503	15559
363.587	18006
363.671	6668
363.755	5282
363.839	9165
363.923	4217
364.007	8977
364.091	9930
364.175	7870
364.258	31583
364.342	42161
364.426	79900
364.510	42575
364.594	14782
364.677	14118
364.761	61065
364.845	47971
364.929	16550
365.013	13130
365.096	10992
365.180	12669
365.264	7296
365.347	23551
365.431	9957
365.515	3485
365.598	2922
365.682	3379
365.766	1694
365.849	2949
365.933	3308
366.017	4251
366.100	1165
366.184	1491
366.267	2071
366.351	1468
366.435	1830
366.518	1100
366.602	2043
366.685	2117
366.769	2527
366.852	3787
366.936	7928
367.019	5979
367.103	1673
367.186	3311
367.270	2037
367.353	1835
367.436	2610
367.520	988
367.603	3820
367.687	5005
367.770	10776
367.853	6605
367.937	18723
368.020	33725
368.104	8957
368.187	8079
368.270	12404
368.353	9433
368.437	8600
368.520	8957
368.603	11018
368.687	20906
368.770	47044
368.853	11876
368.936	8519
369.020	7231
369.103	3079
369.186	1330
369.269	2520
369.352	5751
369.436	8632
369.519	6159
369.602	3033
369.685	3533
369.768	3101
369.851	2633
369.934	1775
370.018	2464
370.101	8566
370.184	6300
370.267	4618
370.350	9023
370.433	12186
370.516	31972
370.599	44062
370.682	13528
370.765	25684
370.848	29359
370.931	54472
371.014	19467
371.097	3660
371.180	3040
371.263	2019
371.346	1101
371.429	1961
371.511	1409
371.594	5149
371.677	7658
371.760	6517
371.843	7517
371.926	35950
372.009	88079
372.091	32831
372.174	18351
372.257	47191
372.340	18322
372.423	10376
372.505	9582
372.588	5553
372.671	15229
372.754	53107
372.836	27495
372.919	8300
373.002	13444
373.085	7939
373.167	8237
373.250	21812
373.332	48780
373.415	57601
373.498	122489
373.580	49177
373.663	56682
373.746	82383
373.828	20152
373.911	8071
373.993	6555
374.076	12273
374.159	11767
374.241	10786
374.324	45931
374.406	32392
374.489	31671
374.571	98504
374.654	44112
374.736	18372
374.819	57723
374.901	83795
374.983	93385
375.066	17909
375.148	4629
375.231	10405
375.313	20565
375.395	10884
375.478	3927
375.560	3267
375.643	4417
375.725	16068
375.807	72990
375.890	52970
375.972	12108
376.054	9182
376.136	6868
376.219	4836
376.301	19701
376.383	67054
376.465	27212
376.548	16880
376.630	19245
376.712	59036
376.794	29419
376.877	4077
376.959	1346
377.041	2755
377.123	1730
377.205	3002
377.287	1380
377.369	2273
377.452	1963
377.534	2526
377.616	2393
377.698	2158
377.780	1586
377.862	2043
377.944	2620
378.026	1299
378.108	1793
378.190	1059
378.272	2148
378.354	1010
378.436	733
378.518	2233
378.600	8701
378.682	11403
378.764	31854
378.846	27013
378.928	5779
379.010	10105
379.091	5873
379.173	2686
379.255	2039
379.337	3299
379.419	13244
379.501	46400
379.583	18116
379.664	4625
379.746	10566
379.828	31432
379.910	43602
379.991	40172
380.073	6281
380.155	3648
380.237	2238
380.318	2446
380.400	2601
380.482	6673
380.564	10447
380.645	10957
380.727	10822
380.809	6432
380.890	4260
380.972	3012
381.053	2632
381.135	3005
381.217	8828
381.298	35378
381.380	17013
381.461	12210
381.543	54092
381.624	74609
381.706	14463
381.787	6501
381.869	7259
381.951	21535
382.032	89468
382.113	63352
382.195	13985
382.276	9852
382.358	18839
382.439	53097
382.521	56127
382.602	90000
382.684	41349
382.765	77455
382.846	94822
382.928	157942
383.009	91226
383.090	55031
383.172	196530
383.253	316035
383.334	107646
383.416	88183
383.497	49793
383.578	25712
383.659	45558
383.741	161141
383.822	417063
383.903	231524
383.984	73656
384.066	110077
384.147	72689
384.228	16617
384.309	11167
384.390	9846
384.471	6624
384.553	6863
384.634	8456
384.715	9720
384.796	5543
384.877	6024
384.958	28880
385.039	38614
385.120	13959
385.201	6420
385.282	5402
385.363	5633
385.444	5507
385.525	12095
385.606	41217
385.687	37339
385.768	7365
385.849	8035
385.930	39231
386.011	75038
386.092	21244
386.173	5414
386.254	3871
386.335	3747
386.416	4528
386.496	17661
386.577	32774
386.658	10087
386.739	5432
386.820	3714
386.901	1939
386.981	3433
387.062	3072
387.143	7373
387.224	31347
387.304	31304
387.385	10598
387.466	5515
387.547	6604
387.627	6539
387.708	11476
387.789	52736
387.869	67965
387.950	18202
388.031	3051
388.111	786
388.192	4038
388.273	5041
388.353	4073
388.434	4846
388.514	9153
388.595	43023
388.676	64318
388.756	33274
388.837	29966
388.917	19281
388.998	3078
389.078	3003
389.159	2921
389.239	2385
389.320	6212
389.400	4460
389.480	9291
389.561	31569
389.641	17338
389.722	5687
389.802	8661
389.883	11962
389.963	35840
390.043	21467
390.124	3943
390.204	10695
390.284	36332
390.365	23083
390.445	12808
390.525	50288
390.605	56293
390.686	20576
390.766	8050
390.846	4324
390.927	2378
391.007	2734
391.087	3205
391.167	4450
391.247	2158
391.328	3024
391.408	4152
391.488	3083
391.568	1090
391.648	4013
391.728	6813
391.808	6961
391.888	6177
391.969	16946
392.049	31453
392.129	11399
392.209	11835
392.289	37589
392.369	19842
392.449	8079
392.529	6422
392.609	7848
392.689	10934
392.769	35579
392.849	34477
392.929	18817
393.009	45764
393.089	43178
393.169	41168
393.248	117554
393.328	398584
393.408	454426
393.488	145662
393.568	43996
393.648	21186
393.728	13040
393.807	9022
393.887	7971
393.967	6091
394.047	7699
394.127	8109
394.206	12753
394.286	36413
394.366	178157
394.446	214159
394.525	50562
394.605	11869
394.685	8030
394.764	10331
394.844	16494
394.924	14347
395.003	7443
395.083	5336
395.163	5215
395.242	4044
395.322	5641
395.402	1948
395.481	5433
395.561	7118
395.640	23452
395.720	28751
395.799	21496
395.879	16808
395.958	15709
396.038	53626
396.117	233469
396.197	280286
396.276	77786
396.356	21480
396.435	14374
396.515	13739
396.594	18124
396.673	35405
396.753	119223
396.832	372818
396.912	305857
396.991	82339
397.070	24210
397.150	11585
397.229	10002
397.308	13589
397.388	26075
397.467	12498
397.546	5171
397.625	1692
397.705	5481
397.784	5302
397.863	2896
397.942	2649
398.022	1739
398.101	3105
398.180	12641
398.259	6717
398.338	3449
398.417	2729
398.497	2713
398.576	2286
398.655	1093
398.734	1464
398.813	1529
398.892	3788
398.971	13712
399.050	7099
399.129	1217
399.208	934
399.287	1717
399.366	-131
399.445	710
399.524	1493
399.603	419
399.682	3104
399.761	7732
399.840	17625
399.919	11699
399.998	1682
400.077	141
400.156	-146
400.235	2735
400.313	635
400.392	1173
400.471	15163
400.550	29682
400.629	7435
400.708	2691
400.786	626
400.865	2606
400.944	2762
401.023	3401
401.102	200
401.180	545
401.259	502
401.338	439
401.416	1874
401.495	2312
401.574	1366
401.652	370
401.731	2290
401.810	929
401.888	1229
401.967	492
402.046	970
402.124	2168
402.203	1542
402.281	2014
402.360	2060
402.438	3361
402.517	808
402.596	674
402.674	145
402.753	356
402.831	1266
402.910	1912
402.988	9377
403.066	41780
403.145	25803
403.223	12657
403.302	35157
403.380	27247
403.459	27394
403.537	10650
403.615	2795
403.694	91
403.772	761
403.850	796
403.929	512
404.007	677
404.085	5022
404.164	5484
404.242	1396
404.320	2101
404.398	6194
404.477	14595
404.555	68242
404.633	66808
404.711	11047
404.789	4221
404.868	1565
404.946	727
405.024	577
405.102	733
405.180	647
405.258	346
405.336	1228
405.415	326
405.493	3315
405.571	3880
405.649	335
405.727	-181
405.805	2254
405.883	1841
405.961	1751
406.039	526
406.117	276
406.195	3180
406.273	13689
406.351	63685
406.429	39634
406.507	3270
406.585	961
406.663	2745
406.740	2606
406.818	2485
406.896	288
406.974	2106
407.052	3309
407.130	34312
407.208	55933
407.285	11283
407.363	841
407.441	1655
407.519	1318
407.596	1243
407.674	4196
407.752	13679
407.830	12573
407.907	3816
407.985	1285
408.063	1050
408.141	326
408.218	1420
408.296	1238
408.373	1892
408.451	2014
408.529	1831
408.606	209
408.684	469
408.762	478
408.839	81
408.917	-325
408.994	553
409.072	435
409.149	713
409.227	3075
409.304	4887
409.382	3593
409.459	4778
409.537	6744
409.614	4981
409.692	4044
409.769	3104
409.846	6512
409.924	8862
410.001	4954
410.079	3507
410.156	3082
410.233	2222
410.311	1049
410.388	920
410.465	2353
410.543	751
410.620	1482
410.697	1206
410.775	2308
410.852	645
410.929	2700
411.006	4045
411.083	1780
411.161	5610
411.238	5677
411.315	2113
411.392	902
411.469	3337
411.547	3319
411.624	101
411.701	796
411.778	1690
411.855	4176
411.932	2125
412.009	522
412.086	777
412.163	1047
412.240	71
412.317	2276
412.394	614
412.471	669
412.548	600
412.625	284
412.702	902
412.779	2957
412.856	2361
412.933	-618
413.010	954
413.087	1752
413.164	13871
413.241	24846
413.318	4920
413.395	3129
413.471	4480
413.548	1667
413.625	1620
413.702	692
413.779	1334
413.855	-94
413.932	-70
414.009	-1073
414.086	282
414.162	858
414.239	1169
414.316	12908
414.393	35784
414.469	13117
414.546	978
414.623	-4
414.699	292
414.776	1295
414.853	-48
414.929	404
415.006	325
415.082	-226
415.159	-555
415.236	507
415.312	870
415.389	2994
415.465	4766
415.542	1974
415.618	-149
415.695	3415
415.771	1461
415.848	1488
415.924	187
416.000	430
416.077	295
416.153	-694
416.230	-873
416.306	-362
416.383	-522
416.459	411
416.535	-631
416.612	-26
416.688	185
416.764	96
416.841	292
416.917	268
416.993	-87
417.069	59
417.146	484
417.222	2480
417.298	1506
417.374	-71
417.451	554
417.527	1157
417.603	1259
417.679	1099
417.755	1030
417.831	-371
417.908	440
417.984	1
418.060	-1113
418.136	3480
418.212	5256
418.288	1412
418.364	897
418.440	53
418.516	2525
418.592	951
418.668	4638
418.744	10145
418.820	7515
418.896	1745
418.972	-328
419.048	-575
419.124	4183
419.200	2261
419.276	-9
419.352	475
419.428	508
419.504	1034
419.579	1572
419.655	1267
419.731	1451
419.807	5684
419.883	12428
419.959	9141
420.034	2136
420.110	4085
420.186	21040
420.262	17620
420.337	2956
420.413	2232
420.489	553
420.565	1247
420.640	676
420.716	1362
420.792	495
420.867	1597
420.943	489
421.019	2482
421.094	2624
421.170	1435
421.245	768
421.321	1075
421.397	1194
421.472	3702
421.548	8350
421.623	7622
421.699	2919
421.774	3463
421.850	2994
421.925	5178
422.001	5974
422.076	5336
422.152	5760
422.227	10847
422.302	13963
422.378	19229
422.453	35747
422.529	84675
422.604	205158
422.679	285837
422.755	230264
422.830	101740
422.905	41781
422.981	23315
423.056	15040
423.131	10438
423.207	7780
423.282	6858
423.357	9908
423.432	8385
423.508	6581
423.583	12201
423.658	9902
423.733	3528
423.808	2925
423.883	3807
423.959	3062
424.034	2725
424.109	3269
424.184	908
424.259	1390
424.334	686
424.409	566
424.484	636
424.559	1169
424.634	409
424.709	2447
424.784	3183
424.859	2344
424.934	2634
425.009	13795
425.084	25659
425.159	9944
425.234	1635
425.309	724
425.384	5777
425.459	10711
425.534	3737
425.609	-727
425.683	136
425.758	257
425.833	90
425.908	1702
425.983	7349
426.058	26209
426.132	11146
426.207	1140
426.282	1965
426.357	-530
426.431	420
426.506	244
426.581	299
426.655	247
426.730	281
426.805	193
426.879	810
426.954	846
427.029	2611
427.103	21417
427.178	56283
427.253	25911
427.327	2333
427.402	1919
427.476	9229
427.551	5465
427.625	206
427.700	570
427.774	-1040
427.849	366
427.923	-458
427.998	411
428.072	-312
428.147	3478
428.221	18455
428.296	66370
428.370	36593
428.444	3619
428.519	885
428.593	2206
428.667	1136
428.742	2052
428.816	5827
428.890	33197
428.965	65066
429.039	18493
429.113	2870
429.188	1015
429.262	905
429.336	2688
429.410	10765
429.485	7187
429.559	1596
429.633	1500
429.707	856
429.781	4563
429.855	32008
429.930	60637
430.004	18095
430.078	12017
430.152	18223
430.226	77188
430.300	86639
430.374	14222
430.448	3367
430.522	3454
430.596	10750
430.670	13847
430.744	63381
430.818	100154
430.892	20292
430.966	2345
431.040	832
431.114	-359
431.188	-226
431.262	310
431.336	-393
431.410	2052
431.484	3366
431.557	5174
431.631	84
431.705	1680
431.779	10766
431.853	56790
431.927	43074
432.000	5298
432.074	131
432.148	380
432.222	-454
432.295	-101
432.369	-191
432.443	953
432.516	15771
432.590	53739
432.664	20284
432.737	1064
432.811	-577
432.885	-209
432.958	240
433.032	-745
433.106	-454
433.179	-114
433.253	-390
433.326	-243
433.400	-816
433.473	-467
433.547	-754
433.620	-381
433.694	1889
433.767	2047
433.841	0
433.914	-427
433.988	-173
434.061	-302
434.134	-164
434.208	169
434.281	-587
434.355	168
434.428	-52
434.501	-766
434.575	-1170
434.648	-827
434.721	-1135
434.795	-827
434.868	-909
434.941	-936
435.014	-516
435.088	-378
435.161	1509
435.234	2344
435.307	3200
435.381	1374
435.454	1039
435.527	2739
435.600	2814
435.673	1977
435.746	427
435.819	249
435.892	559
435.966	153
436.039	-561
436.112	10
436.185	-834
436.258	-952
436.331	-1379
436.404	-814
436.477	-1376
436.550	-1108
436.623	-631
436.696	366
436.769	-123
436.842	-441
436.915	-918
436.987	-266
437.060	-857
437.133	-112
437.206	-1018
437.279	-237
437.352	-834
437.425	-1112
437.498	-32
437.570	2339
437.643	1990
437.716	-512
437.789	-513
437.861	1392
437.934	7745
438.007	3897
438.080	-396
438.152	666
438.225	2043
438.298	22493
438.370	72695
438.443	33261
438.516	8156
438.588	1862
438.661	-992
438.734	19
438.806	-300
438.879	89
438.951	1380
439.024	3301
439.096	717
439.169	372
439.241	20
439.314	-1101
439.386	-4
439.459	-127
439.531	2043
439.604	647
439.676	-874
439.749	-494
439.821	-988
439.893	-34
439.966	-461
440.038	249
440.110	775
440.183	-238
440.255	-485
440.327	1710
440.400	7894
440.472	44356
440.544	31999
440.617	3764
440.689	2904
440.761	3761
440.833	6159
440.905	4027
440.978	-454
441.050	-532
441.122	598
441.194	-556
441.266	-345
441.338	-272
441.411	1155
441.483	14045
441.555	23771
441.627	4314
441.699	201
441.771	-796
441.843	-198
441.915	-492
441.987	-42
442.059	-382
442.131	103
442.203	563
442.275	1498
442.347	2151
442.419	4623
442.491	26596
442.563	75825
442.635	30602
442.706	7999
442.778	5361
442.850	1159
442.922	407
442.994	543
443.066	1983
443.137	893
443.209	1928
443.281	2506
443.353	7276
443.425	32272
443.496	128998
443.568	133118
443.640	49251
443.711	8703
443.783	2074
443.855	1764
443.926	121
443.998	-106
444.070	79
444.141	690
444.213	1634
444.285	2989
444.356	1129
444.428	551
444.499	-63
444.571	-762
444.642	-449
444.714	194
444.785	1722
444.857	937
444.928	1890
445.000	930
445.071	1271
445.143	2092
445.214	3662
445.285	4253
445.357	15435
445.428	72567
445.500	183497
445.571	116568
445.642	66538
445.714	18363
445.785	7375
445.856	2970
445.928	3670
445.999	2645
446.070	2069
446.141	2657
446.213	3549
446.284	885
446.355	445
446.426	-184
446.497	713
446.569	200
446.640	2177
446.711	1288
446.782	-895
446.853	-416
446.924	722
446.995	-35
447.066	165
447.138	-209
447.209	246
447.280	-858
447.351	-432
447.422	-578
447.493	-674
447.564	-116
447.635	1486
447.706	-491
447.777	-213
447.847	-48
447.918	-647
447.989	3
448.060	-261
448.131	-3
448.202	920
448.273	1605
448.344	-54
448.414	-363
448.485	39
448.556	-156
448.627	-456
448.698	633
448.768	-270
448.839	-897
448.910	162
448.981	226
449.051	119
449.122	-598
449.193	-677
449.263	-647
449.334	-134
449.405	722
449.475	2947
449.546	788
449.616	126
449.687	464
449.758	-436
449.828	-686
449.899	-274
449.969	-905
450.040	-363
450.110	-400
450.181	260
450.251	-516
450.322	-357
450.392	-177
450.463	284
450.533	-938
450.604	-633
450.674	-620
450.744	-220
450.815	-984
450.885	-255
450.955	-327
451.026	-417
451.096	-1428
451.166	-395
451.237	5
451.307	1571
451.377	12
451.447	-587
451.518	-1015
451.588	-894
451.658	-716
451.728	-530
451.799	1119
451.869	1206
451.939	-1109
452.009	-1013
452.079	-1179
452.149	-615
452.219	-836
452.289	1003
452.360	747
452.430	-28
452.500	-391
452.570	1132
452.640	2505
452.710	6715
452.780	6752
452.850	6492
452.920	6705
452.990	1847
453.060	-150
453.129	675
453.199	551
453.269	2138
453.339	4563
453.409	7013
453.479	6089
453.549	8405
453.619	10051
453.688	2637
453.758	-375
453.828	-639
453.898	154
453.968	-997
454.037	-576
454.087	-981
454.107	-1154
454.168	-806
454.177	-769
454.247	-997
454.249	-1007
454.316	-1582
454.330	-1358
454.386	-555
454.411	-503
454.456	-461
454.492	42
454.525	430
454.574	12
454.595	-167
454.655	-661
454.665	-746
454.734	-160
454.736	-151
454.804	-272
454.817	78
454.873	1323
454.898	1184
454.943	878
454.979	576
455.013	289
455.060	120
455.082	89
455.141	-16
455.152	-53
455.221	259
455.222	291
455.291	1265
455.303	1318
455.360	1394
455.384	2576
455.430	4678
455.465	3252
455.499	1776
455.546	964
455.569	594
455.627	548
455.638	518
455.707	-72
455.708	-67
455.777	-536
455.789	-397
455.846	81
455.869	-169
455.916	-510
455.950	-139
455.985	67
456.031	-396
456.054	-596
456.112	-431
456.124	-419
456.193	-555
456.193	-565
456.262	-204
456.274	-123
456.332	55
456.355	-239
456.401	-677
456.436	-279
456.470	-83
456.516	187
456.540	418
456.597	-451
456.609	-680
456.678	-70
456.678	-78
456.747	-133
456.759	-167
456.817	-419
456.840	-286
456.886	228
456.920	234
456.955	46
457.001	-105
457.024	-149
457.082	-566
457.093	-681
457.162	406
457.163	414
457.232	373
457.243	379
457.301	77
457.324	-169
457.370	-366
457.405	77
457.439	437
457.485	298
457.508	304
457.566	484
457.577	466
457.646	1462
457.647	1470
457.715	3113
457.727	3676
457.784	7434
457.808	9851
457.853	13148
457.889	15882
457.922	15178
457.969	9486
457.991	9648
458.050	12123
458.060	12642
458.129	22786
458.130	23100
458.198	25404
458.211	23164
458.267	11197
458.292	6963
458.336	4055
458.372	3770
458.405	5371
458.453	8251
458.474	11482
458.533	22963
458.543	23966
458.611	40587
458.614	40871
458.680	25087
458.694	19704
458.749	7904
458.775	5002
458.818	2587
458.855	1665
458.887	1119
458.936	784
458.955	676
459.016	648
459.024	685
459.093	739
459.097	766
459.162	790
459.177	805
459.230	1097
459.257	1375
459.299	1933
459.338	2000
459.368	1863
459.418	2322
459.437	2302
459.499	1651
459.505	1654
459.574	1412
459.579	1392
459.643	805
459.659	856
459.711	779
459.740	624
459.780	839
459.820	1030
459.849	866
459.900	671
459.917	784
459.981	1065
459.986	1041
460.054	1438
460.061	1405
460.123	1168
460.141	1214
460.191	1754
460.222	2030
460.260	2465
460.302	2927
460.328	2455
460.382	1494
460.397	1500
460.462	1171
460.465	1195
460.534	2389
460.543	2572
460.602	7244
460.623	9050
460.671	14566
460.703	20208
460.739	21026
460.783	19669
460.808	16500
460.864	3638
460.876	2639
460.944	1318
460.945	1298
461.013	1542
461.024	1505
461.081	1486
461.104	1646
461.150	1587
461.184	1228
461.218	1165
461.264	1418
461.286	1348
461.345	809
461.355	828
461.423	1543
461.425	1538
461.491	922
461.505	1071
461.559	1831
461.585	1754
461.628	2321
461.665	3269
461.696	3903
461.745	4738
461.764	4049
461.825	1583
461.832	1648
461.901	2072
461.905	2117
461.969	1471
461.985	1238
462.037	1456
462.065	1669
462.105	1139
462.145	813
462.173	1382
462.225	2462
462.241	2462
462.305	2080
462.310	2094
462.378	2473
462.385	2520
462.446	2129
462.465	1934
462.514	1774
462.545	1766
462.582	1696
462.625	1689
462.650	1824
462.705	1677
462.718	1593
462.785	1700
462.786	1706
462.854	1873
462.865	1867
462.922	2186
462.945	2432
462.990	2413
463.025	2261
463.058	2226
463.104	2076
463.126	1920
463.184	1552
463.194	1592
463.262	1801
463.264	1820
463.330	1750
463.344	1662
463.398	1647
463.424	1543
463.466	1147
463.504	1252
463.533	1680
463.583	1943
463.601	2014
463.663	2157
463.669	2149
463.737	2289
463.743	2307
463.805	3315
463.823	3563
463.873	4118
463.903	4408
463.940	4197
463.982	4211
464.008	3703
464.062	2201
464.076	2216
464.142	2423
464.144	2419
464.211	1902
464.221	1888
464.279	2578
464.301	2759
464.347	2675
464.381	2697
464.414	2609
464.461	2350
464.482	2436
464.540	2802
464.550	2887
464.617	3064
464.620	3082
464.685	3343
464.699	3320
464.753	3787
464.779	4146
464.820	4329
464.859	4371
464.888	4086
464.938	3476
464.956	3578
465.018	3981
465.023	3993
465.091	4110
465.098	4111
465.158	3716
465.177	3610
465.226	3891
465.257	4043
465.293	3945
465.336	3746
465.361	4125
465.416	5077
465.428	5126
465.495	5403
465.496	5418
465.563	6363
465.575	6494
465.631	6698
465.654	6934
465.698	5925
465.734	4932
465.765	4046
465.813	2567
465.833	2831
465.893	3829
465.900	3823
465.968	3630
465.972	3615
466.035	4021
466.052	4087
466.102	3756
466.131	3595
466.170	3704
466.210	3803
466.237	3895
466.290	4042
466.304	4128
466.369	4413
466.372	4438
466.439	5053
466.449	5111
466.506	5574
466.528	5749
466.573	5871
466.607	5975
466.641	7397
466.687	9343
466.708	10080
466.766	12053
466.775	11638
466.842	8356
466.845	8183
466.909	5941
466.925	5408
466.977	5769
467.004	5947
467.044	5626
467.083	5281
467.111	6080
467.163	7575
467.178	7524
467.242	7232
467.245	7242
467.312	7212
467.321	7198
467.379	6414
467.400	6112
467.446	6542
467.480	6837
467.559	5903
467.638	5546
467.717	5001
467.796	5732
467.875	7016
467.955	5970
468.034	6314
468.113	9504
468.192	12444
468.271	8153
468.350	7517
468.429	10217
468.508	10951
468.588	7923
468.667	5654
468.746	5741
468.825	4804
468.904	5022
468.983	5135
469.062	6381
469.141	6160
469.220	3979
469.299	4803
469.378	4000
469.456	6051
469.535	7067
469.614	5011
469.693	5547
469.772	5921
469.851	6228
469.930	5715
470.009	5681
470.088	5538
470.166	7861
470.245	10699
470.324	14768
470.403	9790
470.482	6942
470.560	6212
470.639	6490
470.718	6229
470.797	5539
470.875	4901
470.954	6220
471.033	5867
471.111	5102
471.190	4963
471.269	3990
471.347	4260
471.426	4928
471.505	4661
471.583	5225
471.662	5227
471.740	4976
471.819	3733
471.898	4802
471.976	3937
472.055	4854
472.133	4294
472.212	6183
472.290	5077
472.369	4274
472.447	4306
472.526	4911
472.604	4380
472.683	4731
472.761	4877
472.839	4455
472.918	4232
472.996	4787
473.075	3907
473.153	4957
473.231	4554
473.310	4685
473.388	4032
473.466	4973
473.545	4649
473.623	7831
473.701	7406
473.780	5733
473.858	3855
473.936	5822
474.014	4350
474.093	5914
474.171	5504
474.249	6008
474.327	5143
474.405	4575
474.484	4139
474.562	3221
474.640	3868
474.718	4126
474.796	4729
474.874	6007
474.952	4106
475.030	4330
475.108	4374
475.187	6197
475.265	5543
475.343	8109
475.421	9664
475.499	4886
475.577	3819
475.655	5252
475.733	5340
475.811	7827
475.889	7831
475.966	6784
476.044	4526
476.122	6627
476.200	7208
476.278	6418
476.356	3306
476.434	3929
476.512	5169
476.590	6931
476.667	7005
476.745	3911
476.823	3792
476.901	3425
476.979	3786
477.056	4689
477.134	2958
477.212	4399
477.290	4241
477.367	3306
477.445	3717
477.523	3632
477.601	2864
477.678	3330
477.756	3024
477.834	3950
477.911	3367
477.989	3876
478.066	2446
478.144	4565
478.222	5580
478.299	9293
478.377	9929
478.454	3502
478.532	3480
478.609	4418
478.687	4114
478.764	2927
478.842	4184
478.919	4045
478.997	4527
479.074	3310
479.152	2495
479.229	4691
479.307	1709
479.384	3131
479.461	2939
479.539	3140
479.616	3704
479.694	3190
479.771	3339
479.848	3642
479.926	2723
480.003	5391
480.080	3951
480.157	3888
480.235	3480
480.312	3111
480.389	3029
480.467	3691
480.544	4361
480.621	3715
480.698	3477
480.775	3914
480.853	3277
480.930	3588
481.007	3260
481.084	3552
481.161	4153
481.238	4307
481.315	2820
481.392	3507
481.470	3466
481.547	2890
481.624	2688
481.701	3564
481.778	3230
481.855	3581
481.932	3344
482.009	5384
482.086	4674
482.163	3987
482.240	6663
482.317	12780
482.393	10933
482.470	4069
482.547	3157
482.624	3801
482.701	3719
482.778	3103
482.855	2758
482.932	3483
483.009	2381
483.085	4544
483.162	5430
483.239	5804
483.316	3922
483.393	4514
483.469	3543
483.546	3953
483.623	3773
483.699	2770
483.776	3148
483.853	3645
483.930	3402
484.006	6368
484.083	11157
484.160	11598
484.236	17910
484.313	16048
484.389	10851
484.466	10954
484.543	8878
484.619	10596
484.696	10911
484.772	10130
484.849	10356
484.925	9405
485.002	9061
485.078	9692
485.155	10410
485.231	8603
485.308	6934
485.384	7645
485.461	7628
485.537	10004
485.614	11195
485.690	8472
485.766	7531
485.843	8668
485.919	11737
485.995	13579
486.072	7768
486.148	7346
486.224	6835
486.301	8045
486.377	8344
486.453	8904
486.530	9517
486.606	11582
486.682	11498
486.758	12434
486.835	10802
486.911	9886
486.987	14323
487.063	21105
487.139	31426
487.215	24122
487.292	13647
487.368	10432
487.444	12260
487.520	16679
487.596	18412
487.672	27310
487.748	83331
487.824	150743
487.900	60721
487.976	17157
488.052	12513
488.128	15245
488.204	11861
488.280	8944
488.356	7391
488.432	11435
488.508	14087
488.584	10394
488.660	7964
488.736	9143
488.812	8341
488.888	10751
488.964	12293
489.039	26038
489.115	45575
489.191	33804
489.267	7811
489.343	6816
489.418	7087
489.494	6095
489.570	5088
489.646	7736
489.722	6357
489.797	6854
489.873	6787
489.949	10859
490.024	10325
490.100	6652
490.176	5906
490.251	7643
490.327	11488
490.403	7214
490.478	6112
490.554	5387
490.629	5427
490.705	5649
490.781	6239
490.856	6171
490.932	6948
491.007	6915
491.083	5882
491.158	5728
491.234	5371
491.309	7961
491.385	7637
491.460	5328
491.536	6486
491.611	6752
491.686	6738
491.762	9221
491.837	16704
491.913	30834
491.988	37527
492.063	62000
492.139	16506
492.214	7469
492.289	6382
492.365	5397
492.440	5843
492.515	5708
492.590	4988
492.666	4354
492.741	4148
492.816	6584
492.891	3949
492.967	5547
493.042	4546
493.117	4179
493.192	5360
493.267	6077
493.342	10621
493.418	15529
493.493	5795
493.568	5502
493.643	3767
493.718	5856
493.793	5483
493.868	9898
493.943	7489
494.018	5799
494.093	3753
494.168	4026
494.243	3236
494.318	4057
494.393	4175
494.468	4362
494.543	3900
494.618	5419
494.693	4745
494.768	3746
494.842	4354
494.917	4521
494.992	5039
495.067	4429
495.142	4199
495.217	5267
495.292	5687
495.366	5671
495.441	5864
495.516	7349
495.591	9966
495.665	32000
495.740	95764
495.815	56649
495.890	7836
495.964	4556
496.039	6058
496.114	5226
496.188	5658
496.263	6288
496.338	3858
496.412	4892
496.487	5140
496.561	6784
496.636	6942
496.710	5383
496.785	5859
496.860	6822
496.934	4897
497.009	5918
497.083	4654
497.158	5936
497.232	5358
497.307	7726
497.381	6954
497.455	7913
497.530	8393
497.604	7838
497.679	7488
497.753	10736
497.827	13917
497.902	15910
497.976	15563
498.050	20254
498.125	57679
498.199	79126
498.273	27431
498.348	23329
498.422	17940
498.496	15740
498.570	15093
498.645	10155
498.719	7317
498.793	9439
498.867	9955
498.941	10856
499.016	20931
499.090	61145
499.164	34388
499.238	6662
499.312	5812
499.386	7807
499.460	7108
499.534	6474
499.609	6450
499.683	7699
499.757	6106
499.831	8599
499.905	33390
499.979	44110
500.053	8687
500.127	9017
500.201	9957
500.275	6299
500.349	4948
500.422	6104
500.496	8203
500.570	19673
500.644	28397
500.718	43638
500.792	16255
500.866	4079
500.940	3994
501.013	5523
501.087	4173
501.161	9814
501.235	11604
501.309	11867
501.382	28267
501.456	35705
501.530	10116
501.603	11134
501.677	6525
501.751	3025
501.825	3956
501.898	4610
501.972	11848
502.046	11319
502.119	4357
502.193	7065
502.266	13536
502.340	9429
502.413	5331
502.487	12196
502.561	7359
502.634	4610
502.708	4617
502.781	3844
502.855	4076
502.928	2708
503.002	3010
503.075	3103
503.149	1900
503.222	3227
503.295	2991
503.369	4053
503.442	3475
503.516	8689
503.589	20464
503.662	17453
503.736	6946
503.809	12965
503.882	12610
503.956	17664
504.029	25401
504.102	46504
504.175	83215
504.249	33863
504.322	10082
504.395	5889
504.468	4439
504.542	3867
504.615	2397
504.688	4259
504.761	2697
504.834	4713
504.907	5043
504.980	9833
505.053	4557
505.127	3880
505.200	9518
505.273	3762
505.346	2936
505.419	2031
505.492	3104
505.565	2412
505.638	2121
505.711	2082
505.784	1254
505.857	2044
505.930	2275
506.003	1364
506.076	3755
506.149	2155
506.221	605
506.294	3794
506.367	3519
506.440	16252
506.513	14197
506.586	4094
506.659	2029
506.731	3647
506.804	2616
506.877	5217
506.950	3391
507.022	2615
507.095	1533
507.168	3412
507.241	3187
507.313	2302
507.386	1991
507.459	5529
507.531	2750
507.604	1980
507.677	2556
507.749	1042
507.822	3100
507.894	7801
507.967	10733
508.040	4991
508.112	5202
508.185	5189
508.257	3186
508.330	7792
508.402	4697
508.475	3646
508.547	3485
508.620	3563
508.692	3817
508.765	4129
508.837	2903
508.909	3849
508.982	2390
509.054	3524
509.127	3385
509.199	3279
509.271	1800
509.344	2718
509.416	3011
509.488	2747
509.560	3030
509.633	3565
509.705	3588
509.777	4040
509.849	4872
509.922	4256
509.994	3177
510.066	3576
510.138	2438
510.210	7756
510.283	6678
510.355	6220
510.427	5009
510.499	5286
510.571	3716
510.643	3417
510.715	8213
510.787	7957
510.859	5615
510.931	5191
511.003	7571
511.076	9313
511.148	3951
511.219	3516
511.291	4114
511.363	5580
511.435	4274
511.507	3098
511.579	3228
511.651	4058
511.723	3233
511.795	3531
511.867	2777
511.939	4604
512.010	4196
512.082	4360
512.154	2197
512.226	4290
512.298	4894
512.369	9363
512.441	7119
512.513	7006
512.585	4473
512.656	6400
512.728	6455
512.800	5005
512.871	4686
512.943	4307
513.015	2801
513.086	4946
513.158	4373
513.230	4366
513.301	6082
513.373	10071
513.444	5356
513.516	4677
513.588	3038
513.659	4809
513.731	6330
513.802	5124
513.874	9991
513.945	21434
514.016	10032
514.088	4860
514.159	3241
514.231	6197
514.302	9396
514.374	5632
514.445	4595
514.516	8108
514.588	5465
514.659	5078
514.730	6257
514.802	7921
514.873	5545
514.944	9188
515.016	5769
515.087	6391
515.158	5424
515.229	8947
515.301	6440
515.372	10874
515.443	5875
515.514	5874
515.585	3071
515.656	5603
515.728	4260
515.799	3821
515.870	5345
515.941	5417
516.012	3941
516.083	6762
516.154	7154
516.225	10975
516.296	11128
516.367	10620
516.438	11884
516.509	15289
516.580	20763
516.651	54694
516.722	239785
516.793	163180
516.864	23926
516.935	20056
517.006	22365
517.077	29080
517.148	59084
517.219	219194
517.289	486597
517.360	108952
517.431	24437
517.502	10149
517.573	8639
517.643	7917
517.714	8016
517.785	10256
517.856	10251
517.926	14008
517.997	16970
518.068	21747
518.138	31174
518.209	43246
518.280	131999
518.350	588471
518.421	365999
518.492	43487
518.562	19226
518.633	16436
518.703	16215
518.774	30923
518.845	82720
518.915	107480
518.986	31576
519.056	14974
519.127	17912
519.197	22378
519.268	30242
519.338	21099
519.408	7105
519.479	12202
519.549	10223
519.620	6728
519.690	4165
519.760	3852
519.831	4533
519.901	5445
519.971	4756
520.042	4168
520.112	4036
520.182	6389
520.253	8327
520.323	5561
520.393	7095
520.463	16665
520.534	7788
520.604	21224
520.674	9973
520.744	6630
520.814	18935
520.885	22939
520.955	7220
521.025	21734
521.095	13671
521.165	4423
521.235	2724
521.305	2929
521.375	5114
521.445	4392
521.515	5755
521.585	8475
521.655	7054
521.725	6481
521.795	4916
521.865	2069
521.935	4107
522.005	4592
522.075	3144
522.145	4223
522.215	2417
522.285	4870
522.355	3936
522.424	7742
522.494	7595
522.564	7203
522.634	11975
522.704	48707
522.774	28899
522.843	6652
522.913	4302
522.983	5990
523.053	4599
523.122	4729
523.192	4953
523.262	21116
523.331	30322
523.401	7961
523.471	3607
523.540	4634
523.610	1974
523.680	2804
523.749	3476
523.819	3616
523.888	2172
523.958	3469
524.027	2524
524.097	3613
524.166	3008
524.236	3360
524.305	5579
524.375	3339
524.444	2128
524.514	4589
524.583	2730
524.653	3357
524.722	3774
524.791	2839
524.861	4194
524.930	2684
524.999	2064
525.069	5566
525.138	3904
525.207	3487
525.277	3687
525.346	3596
525.415	3943
525.484	3991
525.554	3765
525.623	5825
525.692	5382
525.761	7060
525.830	9139
525.900	11975
525.969	16601
526.038	29974
526.107	50682
526.176	177727
526.245	188482
526.314	55937
526.383	81832
526.452	142550
526.522	180222
526.591	253752
526.660	57979
526.729	30421
526.797	29568
526.867	43458
526.935	166537
527.004	405008
527.073	329486
527.142	36098
527.211	11840
527.280	8753
527.349	7751
527.418	4223
527.487	4520
527.555	3521
527.624	2778
527.693	2550
527.762	3923
527.831	2235
527.899	3168
527.968	3668
528.037	1902
528.106	3866
528.174	7000
528.243	6655
528.312	6663
528.380	11209
528.449	3451
528.518	4256
528.586	1287
528.655	2679
528.723	2073
528.792	1631
528.861	1892
528.929	1837
528.998	3516
529.066	2360
529.135	2100
529.203	2962
529.272	799
529.340	4247
529.409	4155
529.477	2909
529.545	2402
529.614	4890
529.682	3459
529.751	4285
529.819	6340
529.887	4629
529.956	3537
530.024	4243
530.092	3113
530.161	5122
530.229	7152
530.297	5480
530.365	4610
530.434	3716
530.502	3408
530.570	4048
530.638	1312
530.707	4070
530.775	5264
530.843	2943
530.911	2882
530.979	3520
531.047	3442
531.115	5051
531.183	3351
531.252	4207
531.320	3773
531.388	2628
531.456	3661
531.524	2369
531.592	3989
531.660	5835
531.728	3646
531.796	3463
531.864	4037
531.932	3584
532.000	3297
532.067	4082
532.135	5591
532.203	6476
532.271	5647
532.339	8631
532.407	20207
532.475	18662
532.542	8434
532.610	8885
532.678	8622
532.746	30547
532.814	112929
532.881	44039
532.949	7715
533.017	6560
533.084	4086
533.152	4882
533.220	4330
533.287	4972
533.355	4731
533.423	3914
533.490	3493
533.558	4751
533.625	3362
533.693	4707
533.761	4634
533.828	6026
533.896	3866
533.963	9079
534.031	10876
534.098	15538
534.166	10607
534.233	4683
534.300	5103
534.368	6217
534.435	4037
534.503	7269
534.570	7472
534.637	7615
534.705	8635
534.772	11050
534.840	15864
534.907	67870
534.974	133712
535.041	22380
535.109	7249
535.176	5656
535.243	4944
535.310	5822
535.378	4696
535.445	4273
535.512	5145
535.579	5122
535.646	3203
535.714	4281
535.781	6122
535.848	6306
535.915	5697
535.982	5170
536.049	4796
536.116	6918
536.183	4023
536.250	4302
536.317	4840
536.384	6057
536.451	7905
536.518	8662
536.585	4718
536.652	8080
536.719	9711
536.786	8793
536.853	6949
536.920	9507
536.987	13620
537.053	13318
537.120	44857
537.187	64072
537.254	8231
537.321	5751
537.388	6365
537.454	4766
537.521	4687
537.588	5687
537.654	5490
537.721	6450
537.788	7071
537.855	5478
537.921	5530
537.988	5852
538.055	5814
538.121	4519
538.188	5488
538.254	7157
538.321	12836
538.388	12454
538.454	6824
538.521	5965
538.587	5145
538.654	4960
538.720	4454
538.787	5322
538.853	5460
538.920	5781
538.986	6355
539.053	5206
539.119	6195
539.185	5475
539.252	6655
539.318	10252
539.385	9681
539.451	7047
539.517	7595
539.583	8285
539.650	11897
539.716	41799
539.782	18288
539.849	6454
539.915	5742
539.981	5735
540.047	7608
540.114	7034
540.180	7316
540.246	6219
540.312	8377
540.378	13353
540.444	16720
540.510	14706
540.576	46681
540.643	24702
540.709	5914
540.775	6185
540.841	5663
540.907	7514
540.973	10434
541.039	10266
541.105	9765
541.171	7666
541.237	5308
541.303	7157
541.369	8284
541.435	7987
541.500	11851
541.566	10144
541.632	5720
541.698	5505
541.764	5790
541.830	5169
541.896	3856
541.961	6003
542.027	5789
542.093	6684
542.159	6543
542.224	6260
542.290	7582
542.356	11104
542.421	16874
542.487	9185
542.553	6110
542.618	6628
542.684	6283
542.750	7248
542.815	8249
542.881	10295
542.947	33383
543.012	43188
543.078	7932
543.143	5484
543.209	6745
543.274	6173
543.340	7952
543.405	13501
543.471	28845
543.536	11188
543.602	6283
543.667	5311
543.732	6473
543.798	5221
543.863	6013
543.928	6019
543.994	4429
544.059	5862
544.124	5489
544.190	6190
544.255	6170
544.320	6354
544.386	5926
544.451	10349
544.516	9992
544.581	9315
544.646	19708
544.712	46915
544.777	14613
544.842	6870
544.907	5867
544.972	7266
545.037	6377
545.102	6720
545.168	7240
545.233	8732
545.298	8209
545.363	7710
545.428	9407
545.493	14937
545.558	32405
545.623	21081
545.688	7501
545.753	7785
545.818	7231
545.883	8959
545.947	7399
546.012	9009
546.077	8112
546.142	9575
546.207	8741
546.272	12044
546.337	10993
546.401	10127
546.466	10096
546.531	9203
546.596	10781
546.661	11167
546.725	12416
546.790	11198
546.855	12402
546.919	13044
546.984	14960
547.049	15914
547.113	18017
547.178	18326
547.243	21491
547.307	24900
547.372	27563
547.436	28250
547.501	28342
547.565	32038
547.630	31795
547.695	30290
547.759	28745
547.823	27492
547.888	29049
547.952	29446
548.017	29963
548.081	32969
548.146	32068
548.210	33469
548.274	32744
548.339	34712
548.403	32615
548.468	28580
548.532	27802
548.596	28710
548.660	28898
548.725	31981
548.789	34754
548.853	35139
548.917	31663
548.982	30831
549.046	30238
549.110	25840
549.174	26062
549.238	29153
549.303	32344
549.367	35913
549.431	32374
549.495	31982
549.559	29961
549.623	35734
549.687	40318
549.751	41310
549.815	45609
549.879	46956
549.943	43029
550.007	45315
550.071	46859
550.135	45365
550.199	39935
550.263	39131
550.327	37925
550.391	37107
550.455	41656
550.519	43187
550.582	45726
550.646	55465
550.710	56995
550.774	53983
550.838	52596
550.901	55002
550.965	57837
551.029	60068
551.093	64871
551.156	68039
551.220	78766
551.284	94566
551.347	76260
551.411	62340
551.475	60906
551.538	57654
551.602	54625
551.666	51068
551.729	47131
551.793	46570
551.856	44888
551.920	44620
551.983	43828
552.047	43755
552.110	44245
552.174	43365
552.237	44498
552.301	42455
552.364	41487
552.428	39174
552.491	39660
552.554	42376
552.618	41113
552.681	43567
552.745	41906
552.808	49624
552.871	63285
552.934	52260
552.998	43688
553.061	41612
553.124	40128
553.187	39641
553.251	39521
553.314	40945
553.377	40011
553.440	43971
553.503	47178
553.567	58897
553.630	45174
553.693	44016
553.756	43811
553.819	42622
553.882	39830
553.945	41169
554.008	40438
554.071	40371
554.134	42227
554.197	39377
554.260	37557
554.323	40820
554.386	38251
554.449	39599
554.512	41277
554.575	39027
554.638	38450
554.701	38839
554.764	38083
554.827	37046
554.889	35592
554.952	33474
555.015	32094
555.078	33202
555.141	34385
555.203	33440
555.266	32575
555.329	33296
555.391	31631
555.454	32455
555.517	30515
555.580	30319
555.642	28213
555.705	27089
555.768	26821
555.830	28750
555.893	26010
555.955	25372
556.018	24692
556.080	25040
556.143	24971
556.206	25872
556.268	24842
556.330	25791
556.393	23589
556.455	23406
556.518	22624
556.580	24318
556.643	22200
556.705	21007
556.767	19440
556.830	21138
556.892	19980
556.955	23894
557.017	22329
557.079	21182
557.142	18657
557.204	19645
557.266	25626
557.328	26939
557.391	16727
557.453	16952
557.515	17080
557.577	18082
557.639	18665
557.701	16756
557.764	16770
557.826	18042
557.888	18356
557.950	19061
558.012	21181
558.074	25289
558.136	46757
558.198	143500
558.260	76682
558.322	23284
558.384	22348
558.446	24534
558.508	28352
558.570	33948
558.632	42737
558.694	60126
558.756	70927
558.818	170608
558.880	547518
558.942	264325
559.003	152058
559.065	106286
559.127	34315
559.189	32657
559.251	34167
559.312	43647
559.374	87134
559.436	344689
559.498	270705
559.559	44677
559.621	32836
559.683	33343
559.744	46465
559.806	139658
559.868	312115
559.929	85294
559.991	31802
560.052	41584
560.114	124192
560.176	115097
560.237	65345
560.299	143408
560.360	45685
560.422	14332
560.483	11911
560.545	10165
560.606	8836
560.667	8600
560.729	7558
560.790	8294
560.852	8615
560.913	8853
560.974	7674
561.036	7330
561.097	8829
561.158	8734
561.220	8887
561.281	8317
561.342	8423
561.403	9285
561.465	9607
561.526	19105
561.587	30950
561.648	12830
561.709	8299
561.771	8127
561.832	7566
561.893	8502
561.954	8369
562.015	8827
562.076	7780
562.137	7606
562.198	7074
562.259	7355
562.320	6663
562.381	8673
562.442	10711
562.503	11346
562.564	7230
562.625	6956
562.686	7602
562.747	7448
562.808	8059
562.869	6374
562.930	7014
562.991	7587
563.051	6829
563.112	6767
563.173	7245
563.234	6035
563.294	7397
563.355	6107
563.416	6665
563.477	7553
563.537	5924
563.598	7745
563.659	6634
563.720	6823
563.780	6711
563.841	7467
563.901	6760
563.962	6723
564.023	6005
564.083	6874
564.144	6384
564.204	6766
564.265	6157
564.325	6642
564.386	7408
564.446	8209
564.507	6863
564.567	7244
564.628	7287
564.688	6786
564.749	5719
564.809	6408
564.869	6510
564.930	7022
564.990	7466
565.050	6457
565.111	6459
565.171	7453
565.231	6230
565.292	7830
565.352	4997
565.412	6670
565.472	5958
565.532	6783
565.593	6556
565.653	6394
565.713	6797
565.773	7686
565.833	7214
565.893	11328
565.953	6995
566.013	6941
566.074	6870
566.134	7205
566.194	8461
566.254	9975
566.314	7949
566.374	6609
566.434	7112
566.494	7311
566.554	7538
566.614	8299
566.673	8077
566.733	7744
566.793	8209
566.853	8568
566.913	8417
566.973	9416
567.033	9235
567.092	9978
567.152	9535
567.212	9777
567.272	8624
567.331	10133
567.391	9659
567.451	10122
567.511	9969
567.570	11475
567.630	9369
567.690	9044
567.749	8526
567.809	10832
567.868	11110
567.928	11895
567.988	13069
568.047	15432
568.107	17551
568.166	24435
568.226	38046
568.285	56663
568.345	49598
568.404	39653
568.464	31000
568.523	29082
568.582	28193
568.642	31098
568.701	37595
568.761	53556
568.820	88911
568.879	95670
568.939	67020
568.998	47969
569.057	35650
569.116	27667
569.176	22263
569.235	17485
569.294	15846
569.353	13854
569.413	12627
569.472	11974
569.531	10295
569.590	10364
569.649	8364
569.708	9001
569.767	9742
569.827	10228
569.886	11185
569.945	8286
570.004	7928
570.063	8371
570.122	7796
570.181	8439
570.240	7481
570.299	8502
570.358	9369
570.417	8401
570.475	6899
570.534	7663
570.593	7224
570.652	8297
570.711	9067
570.770	7118
570.829	6980
570.887	7927
570.946	8071
571.005	7318
571.064	6645
571.122	7848
571.181	7891
571.240	6072
571.299	6631
571.357	6676
571.416	6249
571.475	6073
571.533	6751
571.592	6626
571.650	6127
571.709	6638
571.768	6706
571.826	6566
571.885	6782
571.943	6576
572.002	5309
572.060	6642
572.119	6396
572.177	5998
572.236	5180
572.294	6482
572.352	6593
572.411	5793
572.469	5054
572.528	5443
572.586	5528
572.644	7001
572.703	9728
572.761	6752
572.819	4500
572.877	5093
572.936	4365
572.994	5677
573.052	4313
573.110	6213
573.169	5261
573.227	5136
573.285	5422
573.343	4836
573.401	5389
573.459	6139
573.517	5013
573.576	5524
573.634	5524
573.692	5817
573.750	5089
573.808	5410
573.866	5488
573.924	5793
573.982	5108
574.040	5130
574.098	4542
574.155	5227
574.213	4396
574.271	4945
574.329	5313
574.387	5172
574.445	4535
574.503	5067
574.560	4664
574.618	5061
574.676	4520
574.734	4695
574.792	5206
574.849	4693
574.907	4810
574.965	4406
575.022	4058
575.080	4646
575.138	4132
575.195	5498
575.253	4909
575.311	5488
575.368	5010
575.426	4537
575.483	4115
575.541	4545
575.598	4313
575.656	5166
575.713	3865
575.771	5802
575.828	4769
575.886	4948
575.943	4294
576.001	4437
576.058	3990
576.115	4085
576.173	4346
576.230	4688
576.287	5912
576.345	6172
576.402	3649
576.459	5206
576.517	3586
576.574	5350
576.631	3637
576.688	4634
576.746	3562
576.803	4973
576.860	2951
576.917	5745
576.974	4203
577.031	3939
577.089	4028
577.146	4157
577.203	3975
577.260	5554
577.317	4187
577.374	4989
577.431	3950
577.488	4430
577.545	3930
577.602	4494
577.659	3848
577.716	4132
577.773	3833
577.830	3765
577.886	3326
577.943	4336
578.000	3633
578.057	4090
578.114	5116
578.171	5323
578.227	4355
578.284	4514
578.341	4360
578.398	4870
578.454	5355
578.511	4728
578.568	4245
578.625	4786
578.681	4539
578.738	4109
578.794	4764
578.851	4776
578.908	4553
578.964	5662
579.021	5286
579.077	4895
579.134	4909
579.190	5093
579.247	4331
579.303	5224
579.360	4717
579.416	4574
579.473	4500
579.529	5030
579.586	4512
579.642	5543
579.698	4674
579.755	4894
579.811	5380
579.867	5219
579.924	4874
579.980	5166
580.036	4965
580.093	5277
580.149	4799
580.205	6392
580.261	4757
580.317	5656
580.374	4940
580.430	6069
580.486	5195
580.542	5249
580.598	5173
580.619	5424
580.654	5863
580.692	5591
580.710	5463
580.765	5775
580.767	5788
580.823	5136
580.838	5327
580.879	5858
580.911	5348
580.935	4967
580.984	5201
580.991	5239
581.047	5639
581.057	5484
581.103	4829
581.130	5149
581.159	5480
581.203	5678
581.215	5732
581.270	5651
581.276	5599
581.326	5125
581.349	5177
581.382	5232
581.422	5405
581.438	5496
581.494	4579
581.494	4585
581.550	5298
581.567	5235
581.606	5102
581.640	5554
581.661	5839
581.713	6276
581.717	6307
581.773	6034
581.786	5766
581.829	4946
581.859	5380
581.885	5738
581.932	5748
581.940	5766
581.996	6364
582.004	6201
582.052	5134
582.077	5792
582.107	6623
582.150	5724
582.163	5455
582.219	6597
582.223	6529
582.274	5713
582.296	5766
582.330	5832
582.368	5657
582.386	5605
582.441	6498
582.441	6500
582.497	6033
582.514	6194
582.552	6564
582.587	5971
582.608	5615
582.659	6376
582.663	6430
582.719	6718
582.732	6799
582.774	7162
582.805	6932
582.830	6705
582.877	6642
582.885	6641
582.941	6596
582.950	6643
582.996	6686
583.023	6751
583.052	6981
583.095	7469
583.107	7576
583.162	7012
583.168	7120
583.218	8136
583.240	7822
583.273	7366
583.313	7352
583.328	7287
583.384	6907
583.385	6918
583.439	7242
583.458	6776
583.494	6053
583.531	6789
583.549	7126
583.603	6743
583.605	6732
583.660	7356
583.676	7400
583.715	7519
583.748	7707
583.770	7880
583.820	7942
583.825	7928
583.881	8109
583.893	7966
583.936	7533
583.965	7370
583.991	7278
584.038	7597
584.046	7661
584.101	7953
584.110	7902
584.156	7533
584.183	7611
584.211	7630
584.255	7753
584.266	7861
584.321	8308
584.328	8352
584.376	8457
584.400	8588
584.431	8853
584.472	8271
584.486	8092
584.541	9787
584.545	9754
584.596	9154
584.617	9304
584.651	9632
584.689	9536
584.706	9400
584.761	9636
584.762	9635
584.816	10212
584.834	10476
584.871	10721
584.906	9877
584.926	9564
584.978	10666
584.980	10712
585.035	11441
585.051	11788
585.090	12589
585.123	12442
585.145	12478
585.195	13875
585.200	14029
585.254	14992
585.267	15596
585.309	17488
585.340	18104
585.364	18705
585.412	21459
585.419	21903
585.473	24959
585.484	25629
585.528	29803
585.556	34122
585.583	43572
585.628	67065
585.637	77234
585.692	158582
585.700	177175
585.747	261033
585.772	244217
585.801	169987
585.845	61594
585.856	47491
585.910	26242
585.917	24234
585.965	20570
585.989	19080
586.019	17839
586.061	17477
586.074	17554
586.128	17507
586.133	17505
586.183	17290
586.205	17021
586.237	16549
586.277	17078
586.292	17573
586.346	17696
586.349	17725
586.401	17959
586.421	18104
586.455	18112
586.493	18129
586.509	18454
586.564	18579
586.565	18603
586.618	20933
586.637	21609
586.672	22321
586.709	22369
586.727	22603
586.781	24191
586.781	24212
586.835	23151
586.853	22593
586.889	21562
586.925	21656
586.944	22077
586.996	22785
586.998	22831
587.052	23762
587.068	23877
587.106	23751
587.140	24029
587.161	24646
587.212	25683
587.215	25749
587.269	26722
587.284	27055
587.323	27826
587.356	28501
587.377	29366
587.427	31062
587.431	31162
587.485	32397
587.499	32587
587.539	34083
587.571	35500
587.593	36300
587.643	37595
587.648	37840
587.702	40472
587.715	41048
587.755	43107
587.786	44751
587.810	46214
587.858	49360
587.864	49839
587.917	54137
587.930	55135
587.971	59273
588.001	62030
588.025	64510
588.073	69990
588.079	70960
588.133	79264
588.145	81007
588.187	88706
588.217	94352
588.241	100480
588.288	113993
588.295	116129
588.348	132814
588.360	136541
588.402	154133
588.431	166678
588.456	179770
588.503	206315
588.510	211496
588.564	253774
588.575	263013
588.617	311825
588.646	346956
588.671	392723
588.718	485289
588.725	508006
588.778	691600
588.789	730286
588.832	930116
588.861	1064054
588.886	1120062
588.932	1186479
588.939	1172890
588.993	989023
589.004	969156
589.047	1116308
589.075	1193682
589.100	1104313
589.147	880192
589.154	853054
589.207	641725
589.218	600572
589.261	541121
589.290	507065
589.314	514491
589.361	536876
589.368	553816
589.421	701269
589.433	734207
589.475	924868
589.504	1057254
589.528	1080042
589.576	1064713
589.582	1063155
589.635	1058456
589.647	1050116
589.689	864633
589.718	711372
589.742	601855
589.790	394909
589.795	383454
589.849	282802
589.861	260197
589.902	218771
589.932	189682
589.955	175579
590.004	146678
590.009	144981
590.062	125653
590.075	120741
590.115	109852
590.146	101649
590.168	97485
590.218	88072
590.222	87652
590.275	80733
590.289	78682
590.328	74272
590.360	70895
590.381	68899
590.431	63749
590.435	63694
590.488	60652
590.503	59870
590.541	57967
590.574	55889
590.594	54837
590.645	52003
590.647	51998
590.700	49298
590.716	48350
590.753	46910
590.787	45532
590.806	45309
590.859	44312
590.859	44377
590.912	43019
590.930	42536
590.965	41834
591.001	40972
591.018	40596
591.071	39002
591.072	38909
591.124	38346
591.143	37985
591.177	37665
591.214	37268
591.230	37233
591.283	36834
591.285	36740
591.336	36619
591.356	36457
591.389	36203
591.427	35776
591.442	35497
591.495	33994
591.498	33820
591.547	32977
591.569	32484
591.600	32027
591.640	31210
591.653	31370
591.706	31833
591.711	31811
591.759	31518
591.782	31256
591.811	31467
591.853	31700
591.864	31830
591.917	31950
591.924	31912
591.969	31409
591.995	30985
592.022	30776
592.066	30276
592.075	30358
592.127	30423
592.137	30379
592.180	31026
592.208	31302
592.233	30842
592.279	29822
592.285	29936
592.338	30334
592.350	30359
592.390	30343
592.421	30206
592.443	30085
592.491	29629
592.495	29693
592.548	29676
592.562	29612
592.600	29343
592.633	28990
592.653	29090
592.704	29037
592.705	29195
592.775	28704
592.846	29815
592.916	29720
592.987	31230
593.058	30388
593.128	28545
593.199	27533
593.270	28223
593.341	28064
593.411	29606
593.482	29261
593.553	29622
593.623	29461
593.694	29289
593.764	29404
593.835	28536
593.906	29670
593.976	29499
594.047	29926
594.117	31343
594.188	30220
594.258	30917
594.329	29834
594.399	30718
594.470	31165
594.540	31966
594.611	32332
594.681	32217
594.751	30732
594.822	33575
594.892	34284
594.963	33599
595.033	34959
595.103	33690
595.174	35260
595.244	36802
595.314	37973
595.384	36755
595.455	37046
595.525	37725
595.595	39031
595.665	39235
595.736	37134
595.806	38729
595.876	39236
595.946	39504
596.016	40581
596.087	40478
596.157	41365
596.227	40624
596.297	42833
596.367	45953
596.437	47338
596.507	47657
596.577	49047
596.647	48406
596.717	50032
596.787	50719
596.857	50532
596.927	52577
596.997	50807
597.067	51512
597.137	53653
597.207	53729
597.277	53494
597.347	51692
597.417	50918
597.487	51664
597.557	51383
597.626	52106
597.696	53456
597.766	53509
597.836	50318
597.906	47638
597.975	47187
598.045	47758
598.115	49505
598.185	51624
598.254	56582
598.324	63130
598.394	65991
598.464	63527
598.533	60415
598.603	57344
598.672	55595
598.742	55976
598.812	55827
598.881	57605
598.951	56966
599.020	57142
599.090	60106
599.159	60876
599.229	58437
599.299	57748
599.368	58115
599.437	58514
599.507	54895
599.576	51610
599.646	52514
599.715	52101
599.785	51249
599.854	49233
599.924	48628
599.993	47803
600.062	49284
600.132	50265
600.201	52743
600.270	62647
600.340	64686
600.409	63786
600.478	62381
600.547	63779
600.617	60922
600.686	48936
600.755	45288
600.824	43446
600.894	42460
600.963	40885
601.032	41074
601.101	39945
601.170	38149
601.239	37524
601.308	39396
601.378	39791
601.447	37510
601.516	37876
601.585	39846
601.654	41503
601.723	39837
601.792	39321
601.861	41414
601.930	43535
601.999	45509
602.068	43309
602.137	45789
602.206	47131
602.275	45970
602.343	48474
602.412	48563
602.481	44489
602.550	44873
602.619	46085
602.688	48479
602.756	47254
602.825	47470
602.894	47600
602.963	49981
603.032	49810
603.100	49828
603.169	49753
603.238	50026
603.307	50663
603.375	50390
603.444	52396
603.513	53279
603.581	52599
603.650	54045
603.719	52652
603.787	52774
603.856	55035
603.924	56887
603.993	59249
604.061	58954
604.130	61356
604.198	63777
604.267	63647
604.335	65114
604.404	66297
604.472	66698
604.541	68226
604.609	67987
604.678	69140
604.746	69775
604.815	70871
604.883	71198
604.951	72802
605.020	72833
605.088	74099
605.156	75770
605.225	75833
605.293	76124
605.361	75674
605.429	77772
605.498	78951
605.566	81454
605.634	84415
605.702	87205
605.771	90525
605.839	90571
605.907	87946
605.975	85366
606.043	83094
606.111	83923
606.180	82682
606.248	83302
606.316	80962
606.384	81779
606.452	82931
606.520	87597
606.588	86521
606.656	83857
606.724	84014
606.792	78780
606.860	71428
606.928	65206
606.996	61913
607.064	61195
607.132	62205
607.200	66321
607.267	69285
607.335	69005
607.403	71513
607.471	70026
607.539	66263
607.607	68770
607.674	61246
607.742	60325
607.810	60279
607.878	59278
607.946	61833
608.013	63378
608.081	65112
608.149	66361
608.216	67811
608.284	70112
608.352	68895
608.419	68873
608.487	68077
608.555	65916
608.622	67957
608.690	72389
608.757	78954
608.825	82949
608.893	80396
608.960	78596
609.028	75998
609.095	73154
609.163	71708
609.230	65729
609.298	58973
609.365	60821
609.432	67514
609.500	72222
609.567	83190
609.635	94611
609.702	100649
609.769	97165
609.837	78334
609.904	64651
609.971	65465
610.039	76228
610.106	97236
610.173	188631
610.241	452796
610.308	311193
610.375	101939
610.442	73523
610.509	67959
610.577	67081
610.644	67778
610.711	70138
610.778	71185
610.845	73606
610.912	79053
610.980	82656
611.047	84231
611.114	82018
611.181	78801
611.248	77286
611.315	82167
611.382	83065
611.449	84458
611.516	87753
611.583	87047
611.650	87495
611.717	88410
611.784	90878
611.851	95310
611.918	104038
611.984	122088
612.051	171777
612.118	349605
612.185	882430
612.252	679252
612.319	161889
612.386	120497
612.452	108370
612.519	102193
612.586	98766
612.653	99013
612.719	103070
612.786	101089
612.853	91681
612.919	88832
612.986	92989
613.053	86140
613.120	80888
613.186	76499
613.253	79256
613.319	78541
613.386	79039
613.453	81776
613.519	84744
613.586	84499
613.652	94561
613.719	88219
613.785	86835
613.852	81965
613.918	80857
613.985	79964
614.051	86452
614.118	89717
614.184	88602
614.250	79883
614.317	82335
614.383	79286
614.449	83285
614.516	81691
614.582	83189
614.648	82314
614.715	79795
614.781	79431
614.847	77375
614.914	77966
614.980	75984
615.046	78672
615.112	79402
615.179	79909
615.245	81171
615.311	85258
615.377	98613
615.443	105401
615.509	88880
615.575	87266
615.642	84745
615.708	86935
615.774	92049
615.840	98750
615.906	109169
615.972	142112
616.038	235130
616.104	459615
616.170	1025659
616.236	1052408
616.302	244704
616.368	159969
616.434	116154
616.500	103209
616.565	109951
616.631	143341
616.697	118512
616.763	116150
616.829	168049
616.895	313744
616.961	328571
617.026	140061
617.092	90373
617.158	84013
617.224	81342
617.289	75713
617.355	71169
617.421	69409
617.487	71607
617.552	66358
617.618	65606
617.684	65736
617.749	67796
617.815	63932
617.880	62483
617.946	61873
618.012	63963
618.077	65313
618.143	63144
618.208	62531
618.274	67731
618.339	68816
618.405	58212
618.470	56776
618.536	56992
618.601	56260
618.667	52276
618.732	48778
618.798	48761
618.863	48401
618.928	48571
618.994	49845
619.059	50794
619.124	57759
619.190	51191
619.255	47362
619.320	47344
619.386	47531
619.451	47410
619.516	46966
619.581	46388
619.647	47920
619.712	49355
619.777	46278
619.842	46638
619.907	47883
619.972	48983
620.038	48610
620.103	46157
620.168	45822
620.233	46680
620.298	46569
620.363	47248
620.428	48968
620.493	49384
620.558	49258
620.623	50583
620.688	51118
620.753	49604
620.818	50568
620.883	50731
620.948	51428
621.013	50478
621.078	49854
621.143	48606
621.207	52004
621.272	49227
621.337	50606
621.402	49538
621.467	49340
621.532	49443
621.596	48793
621.661	47431
621.726	47878
621.791	47223
621.855	47912
621.920	48582
621.985	47988
622.049	48172
622.114	47678
622.179	50103
622.243	51491
622.308	51140
622.373	54082
622.437	54259
622.502	50469
622.566	49223
622.631	48388
622.695	49424
622.760	50054
622.824	49869
622.889	51361
622.953	51248
623.018	63619
623.082	64876
623.147	53173
623.211	52003
623.276	52777
623.340	49599
623.404	47273
623.469	48253
623.533	48176
623.597	47094
623.662	47009
623.726	43823
623.790	41033
623.854	38933
623.919	41395
623.983	42006
624.047	41517
624.111	42666
624.176	43577
624.240	45466
624.304	50007
624.368	44183
624.432	43338
624.496	44364
624.560	48035
624.625	50367
624.689	46501
624.753	48357
624.817	46742
624.881	44547
624.945	41617
625.009	39892
625.073	40938
625.137	43092
625.201	48491
625.265	49727
625.329	42514
625.393	43936
625.456	43118
625.520	44206
625.584	45481
625.648	46744
625.712	50107
625.776	53809
625.839	53042
625.903	41366
625.967	35768
626.031	38902
626.095	47701
626.158	42891
626.222	33111
626.286	31439
626.349	29496
626.413	27165
626.477	28861
626.540	27658
626.604	27861
626.668	27096
626.731	27022
626.795	27488
626.858	27401
626.922	25993
626.986	26647
627.049	25411
627.113	27757
627.176	26849
627.240	25404
627.303	25862
627.366	26081
627.430	26795
627.493	25389
627.557	25472
627.620	26279
627.684	27089
627.747	27169
627.810	23923
627.874	23302
627.937	20461
628.000	25062
628.064	23204
628.127	19852
628.190	19812
628.253	19947
628.317	18406
628.380	18061
628.443	17585
628.506	18800
628.569	18199
628.632	16637
628.696	15818
628.759	15706
628.822	15740
628.885	15091
628.948	15320
629.011	14938
629.074	15627
629.137	15295
629.200	14405
629.263	15977
629.326	13349
629.389	14351
629.452	13675
629.515	14209
629.578	13059
629.641	14405
629.704	14297
629.767	14337
629.830	13965
629.892	13478
629.955	12539
630.018	14806
630.081	14795
630.144	17949
630.207	13982
630.269	14577
630.332	13059
630.395	12428
630.458	13395
630.520	12445
630.583	12826
630.646	12256
630.708	11983
630.771	12322
630.834	13249
630.896	12552
630.959	12807
631.021	12130
631.084	11347
631.146	12084
631.209	12945
631.272	12433
631.334	13663
631.397	13095
631.459	12474
631.522	14894
631.584	14183
631.646	15536
631.709	16545
631.771	18800
631.834	16237
631.896	15048
631.958	13475
632.021	13525
632.083	11359
632.145	13166
632.208	12340
632.270	13335
632.332	11594
632.395	11011
632.457	12562
632.519	11521
632.581	12584
632.643	11046
632.706	11596
632.768	10808
632.830	12572
632.892	11585
632.954	11295
633.016	13024
633.078	11888
633.141	11817
633.203	12464
633.265	12031
633.327	11482
633.389	10994
633.451	12986
633.513	14079
633.575	13922
633.637	13244
633.698	13721
633.760	13271
633.822	13832
633.884	13551
633.946	12706
634.008	13898
634.070	14128
634.132	15996
634.193	15743
634.255	18129
634.317	18104
634.379	18798
634.441	15084
634.502	14270
634.564	13305
634.626	13051
634.687	12490
634.749	11676
634.811	11468
634.873	10091
634.934	11109
634.996	11484
635.057	10803
635.119	11163
635.181	11871
635.242	12094
635.304	10198
635.365	12958
635.427	11264
635.488	12142
635.550	10858
635.611	11581
635.673	10051
635.734	12463
635.796	12282
635.857	14562
635.918	14658
635.980	16487
636.041	17461
636.102	17879
636.164	19642
636.225	18615
636.286	15488
636.348	14692
636.409	12523
636.470	11416
636.531	11056
636.593	11405
636.654	10918
636.715	10799
636.776	9897
636.838	9550
636.899	9753
636.960	9169
637.021	9074
637.082	9193
637.143	9104
637.204	9167
637.265	9242
637.326	9275
637.387	9596
637.448	9353
637.509	9518
637.570	9368
637.631	9188
637.692	8686
637.753	8535
637.814	8952
637.875	8195
637.936	9618
637.997	8353
638.058	8489
638.119	8249
638.179	8088
638.240	7251
638.301	8600
638.362	7955
638.423	7710
638.483	8778
638.544	6239
638.605	9408
638.666	7327
638.726	8128
638.787	8679
638.848	7362
638.908	7762
638.969	8042
639.030	7972
639.090	6840
639.151	7632
639.211	8402
639.272	10405
639.332	15622
639.393	11028
639.453	8086
639.514	8729
639.574	8591
639.635	7113
639.695	7422
639.756	6489
639.816	8147
639.877	8876
639.937	13025
639.997	17945
640.058	7328
640.118	7607
640.178	8168
640.239	6882
640.299	6342
640.359	7008
640.420	7319
640.480	8026
640.540	10017
640.600	10271
640.661	9033
640.721	8200
640.781	11120
640.841	8561
640.901	7270
640.961	7787
641.021	8030
641.082	9018
641.142	11477
641.202	9408
641.262	5453
641.322	7964
641.382	5089
641.442	6380
641.502	5588
641.562	7162
641.622	6286
641.682	7002
641.742	7880
641.802	8114
641.861	6176
641.921	7048
641.981	7834
642.041	8075
642.101	8988
642.161	6880
642.221	5587
642.280	6035
642.340	6358
642.400	5540
642.460	6729
642.519	6150
642.579	5942
642.639	7181
642.698	4234
642.758	8091
642.818	7121
642.877	6101
642.937	6767
642.997	8806
643.056	11355
643.116	6636
643.175	7669
643.235	7100
643.294	7195
643.354	7905
643.414	8581
643.473	10850
643.532	13205
643.592	17759
643.651	30665
643.711	55215
643.770	110171
643.830	264800
643.889	661549
643.948	205834
644.008	28039
644.067	15927
644.126	11515
644.186	10597
644.245	9115
644.304	6583
644.363	8485
644.423	5779
644.482	7346
644.541	6895
644.600	5686
644.659	10436
644.719	11576
644.778	18345
644.837	31747
644.896	67388
644.955	176948
645.014	74840
645.073	13117
645.132	8075
645.191	8087
645.250	7169
645.309	8576
645.368	8466
645.427	10946
645.486	17364
645.545	36909
645.604	12402
645.663	7491
645.722	6922
645.781	8658
645.840	8806
645.898	11912
645.957	18082
646.016	27152
646.075	52789
646.134	106632
646.192	274566
646.251	513860
646.310	92301
646.369	19554
646.427	14821
646.486	9724
646.545	7784
646.603	7922
646.662	6949
646.721	6370
646.779	6636
646.838	5128
646.896	9220
646.955	11668
647.014	19843
647.072	35351
647.131	106163
647.189	68211
647.248	9626
647.306	6645
647.365	6233
647.423	4245
647.481	5874
647.540	3194
647.598	5037
647.657	4505
647.715	5019
647.773	3636
647.832	5868
647.890	3586
647.948	4263
648.007	4441
648.065	3944
648.123	3502
648.181	6424
648.240	4327
648.298	2869
648.356	3838
648.414	3943
648.472	3665
648.531	3657
648.589	3529
648.647	3928
648.705	3094
648.763	4139
648.821	3874
648.879	4424
648.937	5332
648.995	6493
649.053	7340
649.111	12893
649.169	24596
649.227	44087
649.285	88664
649.343	282578
649.401	180720
649.459	29385
649.516	18354
649.574	7471
649.632	10395
649.690	10648
649.748	10343
649.806	12157
649.863	27085
649.921	72313
649.979	62538
650.037	8080
650.094	2755
650.152	3682
650.210	2990
650.268	4503
650.325	3503
650.383	3751
650.440	2054
650.498	3245
650.556	1954
650.613	2452
650.671	2892
650.728	3167
650.786	2933
650.843	3739
650.901	2311
650.958	2822
651.016	2461
651.073	2896
651.131	2090
651.188	1048
651.246	1822
651.303	819
651.360	2239
651.418	1754
651.475	2793
651.532	1670
651.590	2682
651.647	1275
651.704	1932
651.762	2198
651.819	1964
651.876	2328
651.933	1964
651.990	2291
652.048	874
652.105	1789
652.162	2823
652.219	1299
652.276	1525
652.333	3067
652.390	813
652.448	2179
652.505	1627
652.562	1917
652.619	1822
652.676	2536
652.733	2867
652.790	1743
652.847	1429
652.904	1922
652.961	335
653.017	2054
653.074	2326
653.131	1522
653.188	685
653.245	1401
653.302	2087
653.359	2253
653.415	2113
653.472	2025
653.529	2071
653.586	1318
653.642	1467
653.699	1816
653.756	811
653.813	1476
653.869	2378
653.926	1247
653.983	881
654.039	2187
654.096	1364
654.152	2217
654.209	459
654.266	1357
654.322	535
654.379	2321
654.435	2820
654.492	1659
654.548	2864
654.605	3764
654.661	2821
654.717	1896
654.774	2221
654.830	2070
654.887	1937
654.943	805
655.000	1828
655.056	1625
655.112	1545
655.168	246
655.225	1856
655.281	2293
655.337	664
655.394	1616
655.450	1877
655.506	1821
655.562	1891
655.618	3072
655.675	550
655.731	1696
655.787	1308
655.843	2416
655.899	209
655.955	1496
656.011	1676
656.067	644
656.123	1240
656.179	2128
656.235	2276
656.291	746
656.347	2113
656.403	1272
656.459	786
656.515	2096
656.571	1675
656.627	1994
656.683	1319
656.739	2415
656.795	1928
656.850	2293
656.906	2354
656.962	2693
657.018	1409
657.074	1732
657.129	2754
657.185	3932
657.241	8877
657.297	6839
657.352	2415
657.408	1410
657.464	2293
657.519	1486
657.575	844
657.630	1426
657.686	1657
657.742	591
657.797	874
657.853	978
657.908	2730
657.964	636
658.019	1043
658.075	1390
658.130	1756
658.186	607
658.241	587
658.297	50
658.352	1568
658.407	1885
658.463	246
658.518	1679
658.573	1852
658.629	491
658.684	1287
658.739	2383
658.795	-91
658.850	905
658.905	492
658.960	1107
659.016	937
659.071	1217
659.126	936
659.181	1088
659.236	3564
659.291	4854
659.346	1567
659.401	1426
659.457	1650
659.512	1022
659.567	2452
659.622	964
659.677	557
659.732	49
659.787	1406
659.842	749
659.897	1611
659.952	1767
660.007	1237
660.061	1030
660.116	288
660.171	808
660.226	911
660.281	1829
660.336	-584
660.391	1631
660.445	-74
660.500	1838
660.555	1614
660.610	484
660.664	1179
660.719	949
660.774	1255
660.828	1376
660.883	726
660.938	1203
660.992	521
661.047	866
661.101	307
661.156	937
661.211	121
661.265	953
661.320	580
661.374	707
661.429	242
661.483	759
661.538	177
661.592	834
661.647	594
661.701	1184
661.755	1346
661.810	1130
661.864	290
661.919	663
661.973	1664
662.027	625
662.081	440
662.136	324
662.190	1096
662.244	1098
662.299	-341
662.353	906
662.407	-154
662.461	898
662.515	522
662.569	1062
662.624	754
662.678	589
662.732	719
662.786	550
662.840	1096
662.894	1119
662.948	345
663.002	994
663.056	747
663.110	-109
663.164	385
663.218	1165
663.272	640
663.326	1378
663.380	754
663.434	994
663.488	-266
663.542	512
663.595	1177
663.649	283
663.703	1187
663.757	716
663.811	565
663.864	-147
663.918	698
663.972	504
664.026	540
664.079	674
664.133	862
664.187	878
664.240	851
664.294	952
664.348	280
664.401	434
664.455	884
664.508	651
664.562	1116
664.615	994
664.669	341
664.722	840
664.776	200
664.829	223
664.883	-108
664.936	245
664.990	357
665.043	770
665.097	-7
665.150	1131
665.203	436
665.257	372
665.310	449
665.363	528
665.417	672
665.470	518
665.523	51
665.576	349
665.630	721
665.683	693
665.736	305
665.789	420
665.842	-115
665.895	522
665.949	1723
666.002	498
666.055	685
666.108	1107
666.161	497
666.214	1148
666.267	1727
666.320	1624
666.373	1651
666.426	1269
666.479	771
666.532	1262
666.585	1013
666.638	759
666.691	636
666.744	1403
666.796	294
666.849	460
666.902	1179
666.955	887
667.008	-193
667.060	449
667.113	400
667.166	1037
667.219	1296
667.271	924
667.324	638
667.377	909
667.430	455
667.482	715
667.535	1602
667.587	1198
667.640	710
667.693	1283
667.745	3663
667.798	3360
667.850	795
667.903	1068
667.955	740
668.008	616
668.060	691
668.113	459
668.165	114
668.218	224
668.270	792
668.322	252
668.375	766
668.427	560
668.479	-98
668.532	989
668.584	802
668.636	1549
668.689	754
668.741	-111
668.793	354
668.845	943
668.898	652
668.950	858
669.002	945
669.054	719
669.106	415
669.158	619
669.211	820
669.263	609
669.315	693
669.367	1169
669.419	804
669.471	2210
669.523	955
669.575	2254
669.627	1047
669.679	679
669.731	887
669.783	1265
669.835	1320
669.886	1175
669.938	1134
669.990	329
670.042	1536
670.094	868
670.146	1403
670.197	1211
670.249	2588
670.301	1540
670.353	3804
670.404	5002
670.456	6221
670.508	11231
670.560	19716
670.611	34721
670.663	62781
670.715	141400
670.766	273826
670.818	93168
670.869	13178
670.921	6366
670.972	3684
671.024	3014
671.075	2712
671.127	2191
671.178	1722
671.230	1688
671.281	2137
671.333	1739
671.384	1259
671.436	2081
671.487	2806
671.538	4522
671.590	7018
671.641	12805
671.692	23085
671.744	49880
671.795	37759
671.846	10626
671.897	4324
671.949	2807
672.000	2593
672.051	940
672.102	1181
672.153	922
672.204	967
672.256	635
672.307	545
672.358	1010
672.409	1213
672.460	235
672.511	1096
672.562	560
672.613	104
672.664	985
672.715	-422
672.766	-219
672.817	918
672.868	944
672.919	879
672.970	283
673.021	-63
673.071	-270
673.122	280
673.173	384
673.224	-623
673.275	447
673.326	230
673.376	826
673.427	348
673.478	333
673.528	113
673.579	604
673.630	223
673.680	233
673.731	-268
673.782	-33
673.832	283
673.883	17
673.934	-474
673.984	496
674.035	45
674.085	-171
674.136	200
674.186	-163
674.237	244
674.287	103
674.338	294
674.388	361
674.438	-179
674.489	411
674.539	446
674.589	413
674.640	234
674.690	302
674.740	-175
674.791	142
674.841	283
674.891	936
674.942	-151
674.992	83
675.042	94
675.092	-23
675.142	577
675.193	-421
675.243	71
675.293	-204
675.343	152
675.393	5
675.443	842
675.493	167
675.543	-31
675.593	-335
675.643	-278
675.693	-174
675.743	290
675.793	530
675.843	-431
675.893	-158
675.943	-240
675.993	-101
676.043	566
676.093	-174
676.142	-105
676.192	428
676.242	-175
676.292	-371
676.341	-475
676.391	-115
676.441	-244
676.491	580
676.540	-389
676.590	211
676.640	-401
676.689	-419
676.739	-348
676.789	-165
676.838	-578
676.888	-10
676.937	-160
676.987	-432
677.037	-675
677.086	-266
677.136	-713
677.185	74
677.235	-275
677.284	-218
677.333	-478
677.383	-284
677.432	-872
677.482	376
677.531	-628
677.580	-311
677.630	-467
677.679	-393
677.728	-706
677.778	174
677.827	-62
677.876	-150
677.925	-112
677.975	-348
678.024	-320
678.073	456
678.122	-114
678.171	-854
678.220	-418
678.269	201
678.319	348
678.368	149
678.417	235
678.466	317
678.515	77
678.564	18
678.613	109
678.662	191
678.711	-710
678.760	-393
678.809	-198
678.857	-1289
678.906	60
678.955	-444
679.004	-1425
679.053	-326
679.102	-803
679.151	184
679.199	-599
679.248	460
679.297	-509
679.346	87
679.394	-1075
679.443	-887
679.492	-379
679.540	-861
679.589	-725
679.638	115
679.686	-245
679.735	106
679.784	-903
679.832	-48
679.881	46
679.929	-259
679.978	-1144
680.026	-154
680.075	-473
680.123	-588
680.172	-816
680.220	-341
680.268	-586
680.317	-1065
680.365	-266
680.414	-66
680.462	-156
680.510	-404
680.559	-673
680.607	-362
680.655	-439
680.703	-366
680.752	-829
680.800	479
680.848	-415
680.896	-41
680.945	-781
680.993	-778
681.041	-703
681.089	-152
681.137	-525
681.185	-1434
681.233	-227
681.258	-334
681.281	-449
681.329	-971
681.377	-528
681.380	-546
681.425	-1132
681.473	-632
681.502	-522
681.521	-473
681.569	-351
681.617	-454
681.624	-390
681.665	-66
681.713	-342
681.745	-256
681.761	-243
681.809	264
681.857	-16
681.867	-72
681.904	-310
681.952	-358
681.989	412
682.000	626
682.048	-739
682.096	-131
682.111	16
682.143	286
682.191	-736
682.233	97
682.239	205
682.286	538
682.334	-12
682.354	13
682.382	30
682.430	-142
682.476	-487
682.477	-508
682.525	171
682.572	121
682.598	17
682.620	-71
682.667	527
682.715	517
682.720	511
682.763	308
682.810	818
682.841	558
682.857	419
682.905	716
682.952	708
682.963	699
683.000	565
683.047	432
683.085	931
683.095	1067
683.142	695
683.190	1010
683.206	686
683.237	24
683.284	667
683.328	99
683.332	41
683.379	249
683.426	549
683.449	532
683.473	495
683.521	371
683.568	175
683.571	184
683.615	198
683.662	1390
683.693	706
683.709	313
683.757	918
683.804	600
683.814	632
683.851	724
683.898	687
683.936	1042
683.945	1115
683.992	1500
684.039	1333
684.057	1338
684.086	1328
684.133	1223
684.179	1448
684.180	1446
684.227	2031
684.274	1347
684.300	1408
684.321	1434
684.368	1595
684.415	1788
684.422	1772
684.462	1615
684.509	1622
684.543	1674
684.556	1666
684.603	1847
684.649	856
684.665	1160
684.696	1893
684.743	1473
684.786	1282
684.790	1243
684.837	1112
684.883	1789
684.908	1528
684.930	1335
684.977	2185
685.023	1747
685.029	1707
685.070	1354
685.117	1683
685.150	1809
685.164	1830
685.210	1581
685.257	2209
685.272	2159
685.303	2055
685.350	1875
685.393	1693
685.396	1680
685.443	1683
685.490	2349
685.514	2496
685.536	2540
685.583	2425
685.629	1581
685.636	1660
685.675	2221
685.722	2047
685.757	2091
685.768	2044
685.815	2288
685.861	1372
685.878	1630
685.908	2222
685.954	2401
686.000	2631
686.000	2629
686.047	2103
686.093	2001
686.121	2305
686.139	2497
686.185	2025
686.232	2358
686.242	2292
686.278	2108
686.324	2332
686.363	2143
686.370	2094
686.416	2850
686.463	2890
686.484	2626
686.509	2364
686.555	2271
686.601	2685
686.606	2695
686.647	2789
686.693	2640
686.727	2693
686.739	2705
686.785	3342
686.831	2416
686.848	2511
686.877	2620
686.923	2393
686.969	2278
686.969	2277
687.015	2576
687.061	2789
687.090	2846
687.107	2826
687.153	2733
687.199	3040
687.211	2879
687.245	2599
687.291	3030
687.332	3034
687.336	3021
687.382	2454
687.428	2976
687.453	2965
687.474	3002
687.520	3046
687.565	3201
687.574	3191
687.611	3140
687.657	3196
687.695	3603
687.702	3695
687.748	4119
687.794	4177
687.816	3954
687.839	3547
687.885	3587
687.931	3486
687.937	3451
687.976	3496
688.022	3230
688.058	3244
688.067	3238
688.113	3217
688.158	3085
688.179	3187
688.204	3360
688.249	3550
688.295	3802
688.300	3772
688.340	3378
688.386	3366
688.421	2815
688.431	2717
688.477	3260
688.522	3972
688.542	3897
688.567	3749
688.613	3763
688.658	3688
688.663	3714
688.703	3899
688.749	3775
688.784	3636
688.794	3637
688.839	3951
688.884	3630
688.905	3637
688.930	3643
688.975	3849
689.020	3871
689.026	3870
689.065	3917
689.110	3914
689.146	4237
689.155	4271
689.201	4102
689.246	3993
689.267	3865
689.291	3860
689.336	3918
689.381	3719
689.388	3708
689.426	3846
689.471	4321
689.509	4429
689.516	4400
689.561	4189
689.606	4302
689.630	4380
689.651	4465
689.696	4014
689.741	4355
689.750	4238
689.785	3946
689.830	4090
689.871	3633
689.875	3600
689.920	4428
689.965	4416
689.992	4287
690.010	4247
690.054	4517
690.099	4703
690.112	4816
690.144	4798
690.189	4263
690.233	3753
690.233	3760
690.278	4070
690.323	4093
690.354	4036
690.367	3994
690.412	4192
690.457	4295
690.474	4369
690.501	4558
690.546	4074
690.590	4740
690.595	4685
690.635	4169
690.680	4483
690.716	4338
690.724	4364
690.769	4662
690.813	5007
690.836	4966
690.857	5005
690.902	5572
690.946	6004
690.957	6075
690.991	6758
691.035	7831
691.077	8657
691.080	8663
691.124	8291
691.168	8253
691.198	7912
691.213	7518
691.257	6898
691.301	5736
691.318	5386
691.346	5405
691.390	5420
691.434	5354
691.439	5306
691.478	4994
691.522	5496
691.559	5309
691.567	5308
691.611	5322
691.655	5268
691.680	5332
691.699	5330
691.743	5342
691.787	5313
691.800	5202
691.831	5031
691.875	5093
691.919	4995
691.921	4983
691.964	5142
692.008	5263
692.041	5351
692.052	5395
692.096	5857
692.139	5940
692.162	5882
692.183	5749
692.227	5861
692.271	5846
692.282	5821
692.315	5702
692.359	5052
692.402	5110
692.403	5126
692.447	5460
692.490	5642
692.523	5771
692.534	5788
692.578	5729
692.622	5596
692.643	5489
692.666	5410
692.709	5593
692.753	5687
692.763	5691
692.797	5703
692.840	5548
692.884	5469
692.884	5483
692.928	5574
692.971	5321
693.004	5249
693.015	5312
693.059	5603
693.102	5819
693.124	5928
693.146	5933
693.189	5813
693.233	5637
693.245	5596
693.276	5650
693.320	6071
693.363	5822
693.365	5809
693.407	6054
693.450	6313
693.485	6586
693.493	6653
693.537	6913
693.580	6901
693.605	6989
693.624	7187
693.667	7638
693.710	8063
693.725	8164
693.753	9699
693.797	12426
693.840	15008
693.845	15264
693.883	14860
693.926	14094
693.966	13829
693.970	13671
694.013	11478
694.056	9221
694.086	7758
694.099	7691
694.142	7259
694.185	7103
694.206	6918
694.229	6928
694.272	6856
694.315	6926
694.326	6967
694.358	7138
694.401	7128
694.444	7002
694.446	6981
694.487	6720
694.530	6369
694.566	6248
694.573	6276
694.616	6187
694.659	6110
694.686	6004
694.702	6042
694.745	6169
694.787	6358
694.806	6453
694.830	6552
694.873	6523
694.916	6322
694.926	6346
694.959	6458
695.002	6413
695.044	6235
695.046	6217
695.087	6340
695.130	6303
695.166	6436
695.172	6511
695.215	6590
695.258	7009
695.286	7133
695.301	7059
695.343	6965
695.386	6413
695.406	6316
695.428	6406
695.471	6447
695.514	6498
695.526	6506
695.556	6924
695.599	7523
695.641	7926
695.646	7979
695.684	7837
695.726	7338
695.766	7020
695.769	7045
695.811	6984
695.854	6980
695.886	7091
695.896	7173
695.938	7299
695.981	7291
696.005	7373
696.023	7521
696.065	7931
696.108	8116
696.125	8124
696.150	7843
696.192	7655
696.235	7161
696.245	7057
696.277	7310
696.319	7648
696.361	7782
696.365	7784
696.404	7862
696.446	7953
696.485	7956
696.488	7990
696.530	8037
696.572	8234
696.604	8279
696.614	8243
696.656	8138
696.698	7802
696.724	7663
696.740	7676
696.783	7637
696.825	7618
696.844	7575
696.867	7808
696.909	8211
696.951	8517
696.964	8642
696.992	8656
697.034	8473
697.076	8327
697.083	8273
697.118	8180
697.160	8154
697.202	8061
697.203	8035
697.244	8038
697.286	8075
697.323	7979
697.327	8035
697.369	8346
697.411	8712
697.442	8959
697.453	8841
697.494	8173
697.536	7620
697.562	7206
697.578	7374
697.620	7847
697.661	8201
697.682	8397
697.703	8694
697.744	9135
697.786	9660
697.801	9826
697.828	9868
697.869	9803
697.911	9773
697.921	9735
697.952	9629
697.994	9473
698.035	9323
698.040	9276
698.077	9216
698.118	9112
698.160	9018
698.160	8990
698.201	8898
698.243	8817
698.279	8713
698.284	8772
698.325	9101
698.367	9395
698.399	9596
698.408	9576
698.449	9378
698.491	9155
698.518	8974
698.532	9127
698.573	9540
698.614	9964
698.638	10153
698.656	10080
698.697	9859
698.738	9644
698.757	9512
698.779	9619
698.820	9773
698.862	9920
698.877	9952
698.903	9960
698.944	9907
698.985	9867
698.996	9828
699.026	9736
699.067	9572
699.116	9350
699.235	9628
699.354	9704
699.474	9080
699.593	9019
699.713	9991
699.832	9252
699.951	9899
700.070	9887
700.190	9784
700.309	9069
700.428	8676
700.547	8878
700.667	9548
700.786	9627
700.905	8498
701.024	8913
701.143	8876
701.262	8271
701.381	8444
701.500	9268
701.619	10717
701.738	8741
701.857	9160
701.976	8496
702.095	8662
702.214	8978
702.333	9573
702.452	7965
702.571	8670
702.690	9087
702.809	8978
702.928	8149
703.047	8879
703.165	8595
703.284	8727
703.403	7996
703.522	8160
703.640	8164
703.759	8585
703.878	8844
703.997	8551
704.115	8595
704.234	7660
704.353	8596
704.471	7162
704.590	6904
704.708	7993
704.827	7773
704.946	6675
705.064	7442
705.183	7732
705.301	7823
705.420	7749
705.538	8212
705.656	7942
705.775	7958
705.893	8892
706.012	9422
706.130	8185
706.249	7534
706.367	8273
706.485	6603
706.604	6985
706.722	7057
706.840	8754
706.958	9632
707.077	7373
707.195	7333
707.313	8387
707.431	6954
707.549	7211
707.668	7282
707.786	7717
707.904	6601
708.022	7999
708.140	6751
708.258	7493
708.376	6874
708.494	6236
708.612	6937
708.730	7307
708.848	7915
708.966	6905
709.084	8383
709.202	7669
709.320	7701
709.438	6667
709.556	7196
709.674	6948
709.791	6690
709.909	6359
710.027	6918
710.145	6834
710.263	6276
710.380	7155
710.498	6691
710.616	7305
710.733	6481
710.851	6128
710.969	7620
711.086	6771
711.204	6905
711.322	6659
711.439	5740
711.557	6420
711.674	6327
711.792	6172
711.909	6589
712.027	6254
712.144	5724
712.262	6239
712.379	6490
712.497	7409
712.614	7089
712.732	7994
712.849	6934
712.966	6843
713.084	8516
713.201	6987
713.318	7455
713.436	7725
713.553	6902
713.670	7372
713.787	6622
713.905	6921
714.022	7214
714.139	7239
714.256	8753
714.373	10914
714.490	19836
714.608	46017
714.725	210565
714.842	281974
714.959	22135
715.076	9911
715.193	7767
715.310	7742
715.427	6060
715.544	6924
715.661	7649
715.778	6099
715.895	6361
716.011	6655
716.128	6676
716.245	6549
716.362	7194
716.479	7151
716.596	5431
716.713	5353
716.829	5961
716.946	5550
717.063	5748
717.180	5650
717.296	5610
717.413	5868
717.530	6165
717.646	6292
717.763	4966
717.880	5009
717.996	6194
718.113	5499
718.229	6024
718.346	5095
718.462	5290
718.579	6948
718.695	10510
718.812	7526
718.928	6522
719.045	6213
719.161	5079
719.277	5641
719.394	6025
719.510	5791
719.626	6142
719.743	7153
719.859	9037
719.975	16168
720.092	59688
720.208	168098
720.324	24939
720.440	7596
720.557	5837
720.673	8953
720.789	8290
720.905	7605
721.021	5896
721.137	4784
721.253	5228
721.369	5334
721.486	5487
721.602	4951
721.718	5546
721.834	5637
721.950	4921
722.066	5174
722.181	4158
722.297	5012
722.413	4619
722.529	5438
722.645	3752
722.761	5293
722.877	4186
722.993	4176
723.108	5188
723.224	4940
723.340	5207
723.456	4774
723.571	5026
723.687	3864
723.803	4488
723.918	4290
724.034	4504
724.150	4535
724.265	4657
724.381	4644
724.497	5109
724.612	4102
724.728	4510
724.843	3735
724.959	4084
725.074	5050
725.190	4983
725.305	4088
725.421	4157
725.536	4200
725.651	4382
725.767	4762
725.882	5602
725.997	4316
726.113	3971
726.228	4143
726.343	3639
726.459	3498
726.574	3289
726.689	3339
726.804	4018
726.920	3880
727.035	4359
727.150	4819
727.265	4235
727.380	3706
727.495	4299
727.610	3430
727.725	4743
727.841	3740
727.956	4318
728.071	5191
728.186	4003
728.301	3725
728.416	4527
728.531	4842
728.645	3484
728.760	3837
728.875	4856
728.990	3349
729.105	4307
729.220	3590
729.335	3689
729.449	4057
729.564	3095
729.679	3867
729.794	3974
729.908	3433
730.023	3833
730.138	4801
730.253	4410
730.367	3915
730.482	4503
730.596	3264
730.711	4410
730.826	4107
730.940	4287
731.055	3699
731.169	4188
731.284	3864
731.398	3391
731.513	4249
731.627	4625
731.742	4696
731.856	4443
731.970	4394
732.085	5018
732.199	6572
732.313	10850
732.428	25044
732.542	83037
732.656	61619
732.771	10500
732.885	7590
732.999	5069
733.113	5182
733.227	5574
733.342	5168
733.456	5306
733.570	5561
733.684	4962
733.798	5281
733.912	4789
734.026	5049
734.140	4660
734.254	4751
734.368	5049
734.482	5225
734.596	4479
734.710	4319
734.824	4385
734.938	4750
735.052	4902
735.166	3741
735.280	4957
735.393	4699
735.507	4995
735.621	4900
735.735	4849
735.849	3859
735.962	4301
736.076	4685
736.190	4083
736.303	4677
736.417	5057
736.531	3779
736.644	4564
736.758	3646
736.872	3883
736.985	4089
737.099	4687
737.212	3396
737.326	4185
737.439	3805
737.553	3622
737.666	4026
737.780	3854
737.893	4267
738.007	3979
738.120	3953
738.233	3319
738.347	3810
738.460	3812
738.573	4738
738.687	4083
738.800	5198
738.913	4651
739.026	4650
739.140	4160
739.253	3777
739.366	3895
739.479	3727
739.592	3506
739.705	3433
739.818	4223
739.932	3842
740.045	4481
740.158	3883
740.271	3870
740.384	3765
740.497	3648
740.610	3475
740.723	3525
740.836	4439
740.949	4890
741.062	4267
741.174	4242
741.287	3804
741.400	3664
741.513	3349
741.626	4281
741.739	3614
741.851	3784
741.964	3601
742.077	3944
742.189	3550
742.302	3629
742.415	3106
742.527	3623
742.640	3242
742.753	3547
742.865	3334
742.978	3892
743.090	2653
743.203	2391
743.316	2769
743.428	2690
743.541	3028
743.653	3176
743.766	3052
743.878	3110
743.990	3769
744.103	3562
744.215	3372
744.327	3284
744.440	3980
744.552	5055
744.664	3506
744.777	3051
744.889	3018
745.001	3474
745.113	3211
745.226	2346
745.338	3513
745.450	3313
745.562	3672
745.674	3172
745.786	3555
745.898	3730
746.010	2737
746.122	2970
746.234	3734
746.347	3173
746.459	3031
746.570	2295
746.682	3182
746.794	3404
746.906	2660
747.018	2730
747.130	3660
747.242	3338
747.354	2793
747.466	2737
747.577	2242
747.689	2245
747.801	1967
747.913	2809
748.024	2594
748.136	3120
748.248	2744
748.359	2815
748.471	2825
748.583	3038
748.694	2634
748.806	2735
748.918	2919
749.029	3142
749.141	2521
749.252	3874
749.364	3361
749.475	4663
749.587	3264
749.698	3265
749.809	3009
749.921	2204
750.032	2304
750.144	1735
750.255	3028
750.366	3078
750.478	2789
750.589	2908
750.700	2375
750.811	2990
750.923	3287
751.034	5253
751.145	5481
751.256	2683
751.367	3369
751.479	2567
751.590	2710
751.701	1944
751.812	2051
751.923	3155
752.034	2844
752.145	2727
752.256	1538
752.367	2483
752.478	2979
752.589	2763
752.700	2670
752.811	1751
752.922	2006
753.032	2335
753.143	2423
753.254	2154
753.365	3065
753.476	2329
753.586	1963
753.697	2281
753.808	2548
753.919	2895
754.029	2437
754.140	2422
754.251	2502
754.361	2442
754.472	2310
754.582	2135
754.693	2897
754.804	2144
754.914	2532
755.025	2620
755.135	2869
755.246	2189
755.356	2815
755.466	2334
755.577	1808
755.687	2239
755.798	2098
755.908	2557
756.018	1839
756.129	2315
756.239	3207
756.349	2387
756.460	2200
756.570	2639
756.680	2265
756.790	2084
756.900	2170
757.011	2134
757.121	2241
757.231	2133
757.341	2175
757.451	2402
757.561	1185
757.671	1914
757.781	2193
757.891	2144
758.001	2347
758.111	2631
758.221	2478
758.331	2550
758.441	2378
758.551	2786
758.661	3146
758.771	1401
758.880	2295
758.990	2773
759.100	2314
759.210	1993
759.320	2625
759.429	2110
759.539	3025
759.649	1768
759.758	2765
759.868	1882
759.978	2970
760.087	2956
760.197	2593
760.307	2846
760.416	1883
760.526	2141
760.635	3004
760.745	2590
760.854	2937
760.964	2843
761.073	3340
761.182	3078
761.292	2117
761.401	3082
761.511	2087
761.620	1571
761.729	2932
761.839	1765
761.948	2472
762.057	2472
762.166	2525
762.276	2024
762.385	2308
762.494	2610
762.603	2025
762.712	2699
762.822	2489
762.931	2781
763.040	1766
763.149	2028
763.258	1990
763.367	2946
763.476	2822
763.585	2606
763.694	2070
763.803	3195
763.912	3439
764.021	2581
764.130	3402
764.238	3123
764.347	2669
764.456	2711
764.565	2746
764.674	3237
764.783	2722
764.891	3624
765.000	3441
765.109	4008
765.217	4753
765.326	5585
765.435	5551
765.543	6928
765.652	7517
765.761	10583
765.869	15126
765.978	21977
766.086	38102
766.195	74288
766.303	172693
766.412	386478
766.520	337753
766.629	146139
766.737	56614
766.846	31644
766.954	21041
767.062	14681
767.171	11099
767.279	9321
767.387	7860
767.496	6867
767.604	5921
767.712	5205
767.820	4115
767.928	4794
768.037	4368
768.145	4407
768.253	4646
768.361	3625
768.469	4087
768.577	3483
768.685	3836
768.793	4671
768.901	4843
769.009	4851
769.117	5268
769.225	6526
769.333	10012
769.441	16120
769.549	29085
769.657	63587
769.765	180557
769.873	332631
769.981	162702
770.088	47216
770.196	21014
770.304	13616
770.412	10333
770.519	7251
770.627	6074
770.735	4930
770.842	4562
770.950	5018
771.058	4069
771.165	4411
771.273	4300
771.380	4016
771.488	3877
771.595	3740
771.703	3169
771.810	3651
771.918	2741
772.025	3554
772.133	4123
772.240	2799
772.348	3819
772.455	3682
772.562	2907
772.670	3347
772.777	3381
772.884	3758
772.991	2838
773.099	2836
773.206	2129
773.313	3405
773.420	3331
773.528	2856
773.635	2554
773.742	3038
773.849	3122
773.956	2381
774.063	2547
774.170	2449
774.277	3241
774.384	2938
774.491	2218
774.598	3283
774.705	2433
774.812	3960
774.919	2326
775.026	2965
775.133	2969
775.239	2482
775.346	2271
775.453	2172
775.560	2383
775.667	2850
775.773	2111
775.880	3080
775.987	2087
776.093	3338
776.200	1570
776.307	2616
776.413	2599
776.520	2038
776.627	2538
776.733	2614
776.840	1843
776.946	3773
777.053	2401
777.159	1419
777.266	1415
777.372	3089
777.478	1905
777.585	2585
777.691	1724
777.798	2214
777.904	2439
778.010	2864
778.117	2563
778.223	1908
778.329	1419
778.435	1172
778.542	2486
778.648	2008
778.754	1669
778.860	1935
778.966	2274
779.072	2294
779.178	2029
779.284	1854
779.391	2429
779.497	1399
779.603	3786
779.708	1895
779.815	3696
779.920	11671
780.026	24585
780.132	5432
780.238	1646
780.344	1385
780.450	2203
780.556	2136
780.661	1029
780.767	2272
780.873	1262
780.979	2114
781.085	1827
781.190	1036
781.296	976
781.402	2438
781.507	1524
781.613	2189
781.719	1487
781.824	2771
781.930	1130
782.035	957
782.141	1523
782.246	1716
782.352	1146
782.457	1193
782.563	863
782.668	2027
782.773	1097
782.879	1399
782.984	996
783.090	2304
783.195	2630
783.300	2394
783.405	1143
783.511	1599
783.616	1024
783.721	1324
783.826	708
783.932	1678
784.037	645
784.142	1464
784.247	1165
784.352	2037
784.457	1044
784.562	1493
784.667	923
784.772	1605
784.877	1611
784.982	2066
785.087	1364
785.192	2241
785.297	417
785.402	1292
785.507	727
785.611	1743
785.716	737
785.821	1110
785.926	1260
786.031	1052
786.135	895
786.240	1221
786.345	651
786.450	1165
786.554	803
786.659	1317
786.763	176
786.868	511
786.973	1892
787.077	448
787.182	1336
787.286	1682
787.391	1567
787.495	1491
787.600	1179
787.704	1389
787.809	1648
787.913	1185
788.017	1989
788.122	1486
788.226	1047
788.330	602
788.435	677
788.539	570
788.643	2061
788.747	863
788.852	952
788.956	91
789.060	1539
789.164	1557
789.268	1345
789.372	1565
789.476	1259
789.580	855
789.684	797
789.788	1088
789.892	1119
789.996	1727
790.100	1015
790.204	651
790.308	1116
790.412	407
790.516	1402
790.620	712
790.724	1341
790.828	872
790.931	843
791.035	969
791.139	528
791.242	483
791.346	1544
791.450	938
791.554	898
791.657	-437
791.761	1280
791.864	1617
791.968	724
792.072	1612
792.175	1206
792.279	1301
792.382	609
792.486	1041
792.589	861
792.693	1529
792.796	33
792.899	947
793.003	852
793.106	-219
793.209	997
793.313	819
793.416	-438
793.519	2253
793.623	823
793.726	1923
793.829	791
793.932	1100
794.035	352
794.138	1678
794.242	1133
794.345	635
794.448	1557
794.551	1324
794.654	6609
794.757	12284
794.860	2762
794.963	495
795.066	454
795.169	1077
795.272	987
795.375	649
795.477	236
795.580	1146
795.683	-521
795.786	1259
795.889	16
795.991	1194
796.094	850
796.197	264
796.300	1701
796.402	1492
796.505	-187
796.608	582
796.710	599
796.813	394
796.915	634
797.018	952
797.120	932
797.223	-467
797.326	814
797.428	62
797.530	264
797.633	658
797.735	809
797.838	138
797.940	730
798.042	176
798.145	634
798.247	1510
798.349	-119
798.452	1085
798.554	165
798.656	411
798.758	1479
798.860	638
798.962	1155
799.065	448
799.167	-326
799.269	1422
799.371	934
799.473	1270
799.575	510
799.677	871
799.779	2097
799.881	309
799.983	2635
800.085	1257
800.187	986
800.289	310
800.390	700
800.492	907
800.594	1483
800.696	396
800.798	61
800.899	761
801.001	626
801.103	1046
801.205	14
801.306	1068
801.408	-236
801.509	536
801.611	112
801.713	-325
801.814	536
801.916	722
802.017	619
802.119	92
802.220	986
802.322	-129
802.423	991
802.525	-266
802.626	1105
802.727	782
802.829	1477
802.930	-495
803.031	2172
803.133	151
803.234	-216
803.335	158
803.436	-183
803.538	927
803.639	-780
803.740	989
803.841	-94
803.942	834
804.043	1048
804.144	183
804.245	102
804.346	137
804.447	-392
804.548	687
804.649	1657
804.750	603
804.851	712
804.952	744
805.053	883
805.154	-361
805.255	1056
805.355	147
805.456	163
805.557	115
805.658	-422
805.758	490
805.859	-52
805.960	931
806.061	-69
806.161	-43
806.262	939
806.362	614
806.463	-54
806.564	1108
806.664	191
806.765	-766
806.865	142
806.966	342
807.066	-703
807.166	768
807.267	1114
807.367	-616
807.468	620
807.568	-395
807.668	1160
807.769	892
807.869	491
807.969	446
808.069	525
808.170	264
808.270	-803
808.370	330
808.470	810
808.570	286
808.670	35
808.770	578
808.870	275
808.970	7
809.070	-146
809.170	572
809.271	37
809.370	765
809.470	684
809.570	180
809.670	-1072
809.770	50
809.870	322
809.970	-299
810.070	390
810.169	-239
810.269	-617
810.369	942
810.469	-149
810.568	-84
810.668	238
810.768	-112
810.867	155
810.967	179
811.066	1155
811.166	371
811.265	340
811.365	-124
811.464	856
811.564	688
811.663	502
811.763	-192
811.862	137
811.962	543
812.061	-228
812.160	38
812.260	574
812.359	840
812.458	36
812.557	1479
812.657	1610
812.756	582
812.855	164
812.954	24
813.053	493
813.153	1150
813.252	497
813.351	769
813.450	215
813.549	-160
813.648	397
813.747	285
813.846	846
813.945	-255
814.044	317
814.143	1020
814.242	150
814.341	194
814.439	873
814.538	243
814.637	72
814.736	536
814.835	1290
814.933	-91
815.032	981
815.131	1257
815.229	1165
815.328	2577
815.427	893
815.525	1161
815.624	1607
815.722	1022
815.821	962
815.919	1965
816.018	908
816.116	2441
816.215	1614
816.313	1389
816.412	2707
816.510	2210
816.609	3235
816.707	1604
816.805	2202
816.904	1718
817.002	3153
817.100	3154
817.198	3389
817.296	3046
817.395	3092
817.493	3825
817.591	4434
817.689	6031
817.787	7476
817.885	11352
817.983	20423
818.081	42749
818.179	99072
818.277	232984
818.375	230287
818.473	75870
818.571	28280
818.669	17497
818.767	14602
818.865	14560
818.963	17378
819.061	23574
819.158	38839
819.256	81125
819.354	173567
819.452	337872
819.549	259068
819.647	96951
819.745	38614
819.842	22892
819.940	15695
820.038	10887
820.135	7860
820.233	7280
820.330	4272
820.428	4510
820.525	4298
820.623	3959
820.720	2930
820.818	3111
820.915	3056
821.012	2521
821.110	1361
821.207	2781
821.304	2415
821.402	2402
821.499	2221
821.596	2124
821.693	1303
821.791	2173
821.888	2238
821.985	3351
822.082	3606
822.179	1504
822.276	1894
822.373	444
822.470	1259
822.567	967
822.664	534
822.761	2036
822.858	94
822.955	914
823.052	1239
823.149	852
823.246	1422
823.343	898
823.440	1166
823.536	534
823.633	1286
823.730	1306
823.827	1319
823.923	1243
824.020	1510
824.117	-241
824.213	365
824.310	1531
824.407	795
824.503	937
824.600	1107
824.696	1178
824.793	902
824.889	986
824.986	319
825.082	755
825.179	817
825.275	1109
825.371	-186
825.468	1292
825.564	-356
825.660	711
825.757	1750
825.853	1651
825.949	737
826.045	510
826.142	220
826.238	-91
826.334	614
826.430	-1112
826.526	758
826.622	479
826.718	886
826.814	206
826.910	1225
827.006	-272
827.102	361
827.198	1088
827.294	1261
827.390	1305
827.486	845
827.582	-644
827.678	-341
827.774	440
827.869	-876
827.965	738
828.061	-550
828.157	1109
828.252	743
828.348	141
828.444	784
828.539	-189
828.635	197
828.731	1446
828.826	-148
828.922	629
829.017	-182
829.113	975
829.208	219
829.304	-642
829.399	1167
829.495	-41
829.590	335
829.685	-722
829.781	1370
829.876	-128
829.971	-374
830.066	280
830.162	-184
830.257	416
830.352	557
830.447	924
830.543	123
830.638	-351
830.733	1096
830.828	-261
830.923	833
831.018	87
831.113	594
831.208	224
831.303	94
831.398	-41
831.493	816
831.588	713
831.683	401
831.778	382
831.873	189
831.967	1348
832.062	-148
832.157	-651
832.252	1166
832.346	-199
832.441	1383
832.536	907
832.631	2555
832.725	1729
832.820	-216
832.914	-585
833.009	-472
833.104	382
833.198	471
833.293	-228
833.387	-473
833.482	386
833.576	-196
833.670	124
833.765	552
833.859	653
833.954	742
834.048	858
834.142	368
834.237	-849
834.331	336
834.425	120
834.519	-536
834.613	72
834.708	-196
834.802	31
834.896	-19
834.990	-403
835.084	515
835.178	271
835.272	-578
835.366	-143
835.460	661
835.554	-190
835.648	1022
835.742	-936
835.836	-248
835.930	-1350
836.024	-182
836.117	891
836.211	-175
836.305	-14
836.399	294
836.493	-981
836.586	455
836.680	-15
836.774	-222
836.867	1192
836.961	-593
837.055	-326
837.148	32
837.242	285
837.335	487
837.429	15
837.522	-596
837.616	491
837.709	1181
837.803	242
837.896	432
837.989	-617
838.083	338
838.176	46
838.269	277
838.363	209
838.456	-171
838.549	351
838.642	211
838.735	2956
838.829	1639
838.922	-162
839.015	-96
839.108	-423
839.201	-282
839.294	-181
839.387	567
839.480	-1086
839.573	385
839.666	181
839.759	-456
839.852	-1145
839.945	-113
840.038	-1019
840.131	-456
840.223	-307
840.316	304
840.409	-162
840.502	-143
840.594	1139
840.687	-344
840.780	48
840.873	76
840.965	-206
841.058	346
841.150	447
841.243	-472
841.336	-86
841.428	538
841.521	-637
841.613	-650
841.706	-563
841.798	-984
841.890	123
841.983	-1138
842.075	-56
842.167	-153
842.260	-883
842.352	-485
842.444	-213
842.537	236
842.629	354
842.721	-724
842.813	310
842.905	-551
842.997	185
843.090	-874
843.182	86
843.274	-262
843.366	1013
843.458	571
843.550	1152
843.642	-752
843.734	-98
843.826	-189
843.918	44
844.009	-485
844.101	-639
844.193	-1274
844.285	-1414
844.377	-157
844.469	-27
844.560	-505
844.652	-10
844.744	239
844.835	257
844.927	-489
845.019	-1174
845.110	-444
845.202	-582
845.293	-275
845.385	-418
845.476	-615
845.568	-99
845.659	33
845.751	48
845.842	-1085
845.934	-749
846.025	-621
846.116	13
846.208	-500
846.299	-40
846.390	-208
846.482	-54
846.573	-251
846.664	194
846.755	382
846.846	1379
846.937	-407
847.029	-342
847.120	-277
847.211	-612
847.302	25
847.393	-1083
847.484	-183
847.575	-365
847.666	49
847.757	-1392
847.847	-710
847.938	31
848.029	-459
848.120	-799
848.211	-435
848.302	-596
848.392	-835
848.483	569
848.574	-1113
848.664	-419
848.755	6
848.846	-271
848.936	-1083
849.027	-565
849.118	-336
849.208	84
849.299	195
849.389	265
849.480	2231
849.570	3741
849.661	7226
849.751	14492
849.841	5539
849.932	125
850.022	-111
850.112	-50
850.203	-824
850.293	208
850.383	-718
850.474	-2057
850.564	-11
850.654	93
850.744	-183
850.834	-335
850.924	-1268
851.014	-458
851.104	-439
851.194	-766
851.284	-344
851.374	352
851.464	-25
851.554	-143
851.644	-265
851.734	-92
851.824	-238
851.914	-490
852.004	-205
852.094	-1036
852.183	-127
852.273	516
852.363	-380
852.452	-434
852.542	-1075
852.632	84
852.721	-820
852.811	-491
852.901	-253
852.990	-470
853.080	-86
853.169	-597
853.259	-450
853.348	26
853.438	229
853.527	654
853.617	879
853.706	2456
853.795	4207
853.885	13276
853.974	25455
854.063	45355
854.152	80247
854.242	35946
854.331	4676
854.420	1660
854.509	437
854.598	449
854.687	434
854.777	439
854.866	-189
854.955	753
855.044	-819
855.133	-575
855.222	-674
855.311	-707
855.400	-392
855.488	435
855.577	-1293
855.666	-662
855.755	-161
855.844	-50
855.933	385
856.021	-581
856.110	531
856.199	-1072
856.288	-415
856.376	8
856.465	-275
856.554	-804
856.642	76
856.731	-347
856.819	56
856.908	-662
856.996	-932
857.085	-527
857.173	-989
857.262	-727
857.350	-573
857.438	-832
857.527	-428
857.615	-789
857.703	-346
857.792	-518
857.880	-599
857.968	-581
858.056	-1031
858.145	-586
858.233	-534
858.321	-320
858.409	1003
858.497	-156
858.585	-884
858.673	135
858.761	-910
858.849	-179
858.937	-651
859.025	-220
859.113	-319
859.201	-518
859.289	192
859.377	-464
859.465	-197
859.552	-423
859.640	-552
859.728	-139
859.816	-182
859.903	492
859.991	-591
860.079	-354
860.166	-113
860.254	-232
860.342	-589
860.429	-345
860.517	-554
860.604	-69
860.692	-416
860.779	-676
860.867	-606
860.954	-623
861.042	-120
861.129	-318
861.216	416
861.304	-528
861.391	-205
861.478	68
861.565	-196
861.653	5
861.740	-873
861.827	139
861.914	-210
862.001	-957
862.089	-269
862.176	-992
862.263	-637
862.350	-995
862.437	-962
862.524	-55
862.611	-733
862.698	-373
862.785	-493
862.871	-162
862.958	-462
863.045	-795
863.132	-43
863.219	-391
863.306	-649
863.392	63
863.479	-1406
863.566	-901
863.652	-97
863.739	-752
863.826	-61
863.912	-297
863.999	-790
864.086	11
864.172	-918
864.259	-345
864.345	-320
864.432	-55
864.518	316
864.604	-262
864.691	-310
864.777	180
864.863	-209
864.950	637
865.036	191
865.122	1178
865.209	340
865.295	1047
865.381	267
865.467	449
865.553	922
865.639	1307
865.726	3170
865.812	6909
865.898	12516
865.984	20047
866.070	36005
866.156	47342
866.242	13635
866.328	2670
866.414	927
866.499	1297
866.585	1205
866.671	515
866.757	783
866.843	228
866.928	535
867.014	-146
867.100	683
867.186	347
867.271	219
867.357	1116
867.442	1135
867.528	691
867.614	221
867.699	970
867.785	797
867.870	434
867.956	-34
868.041	1021
868.127	418
868.212	364
868.297	107
868.383	1033
868.468	203
868.553	1529
868.639	1972
868.724	3606
868.809	3728
868.894	1860
868.979	19
869.065	275
869.150	-21
869.235	308
869.320	50
869.405	633
869.490	133
869.575	-232
869.660	592
869.745	566
869.830	-856
869.915	105
870.000	698
870.085	-421
870.169	300
870.254	608
870.339	309
870.424	-89
870.509	113
870.593	480
870.678	205
870.763	365
870.847	-217
870.932	590
871.016	301
871.101	646
871.186	-815
871.270	1225
871.355	-223
871.439	447
871.523	363
871.608	860
871.692	-638
871.777	380
871.861	-134
871.945	102
872.030	475
872.114	327
872.198	-32
872.282	-686
872.367	-475
872.451	-520
872.535	290
872.619	425
872.703	-181
872.787	530
872.871	-132
872.955	486
873.039	217
873.123	291
873.207	-119
873.291	-429
873.375	-618
873.459	370
873.543	-235
873.627	-26
873.711	-130
873.794	683
873.878	243
873.962	-688
874.045	-32
874.129	-268
874.137	-254
874.213	-111
874.245	123
874.296	503
874.352	-179
874.380	-511
874.460	-204
874.464	-193
874.547	-720
874.568	-489
874.631	205
874.676	-139
874.714	-426
874.784	875
874.798	1131
874.881	1000
874.892	843
874.965	-251
874.999	-239
875.048	-192
875.107	-331
875.131	-423
875.215	200
875.215	200
875.298	-570
875.323	-439
875.381	-176
875.430	35
875.465	204
875.538	609
875.548	653
875.631	-706
875.646	-711
875.714	-691
875.753	-560
875.798	-440
875.861	-282
875.881	-223
875.964	-257
875.968	-237
876.047	164
876.076	197
876.130	262
876.183	396
876.213	462
876.291	172
876.296	151
876.379	-40
876.398	-109
876.462	-396
876.506	-322
876.545	-142
876.613	284
876.628	344
876.711	305
876.721	327
876.794	582
876.828	385
876.877	79
876.935	27
876.960	17
877.043	66
877.043	65
877.125	79
877.150	182
877.208	398
877.258	369
877.291	319
877.365	-458
877.374	-528
877.456	218
877.472	217
877.539	42
877.579	146
877.622	368
877.687	177
877.704	88
877.787	218
877.794	162
877.869	-300
877.901	-32
877.952	295
878.008	74
878.034	20
878.115	-16
878.117	-18
878.199	-345
878.222	-226
878.282	304
878.329	680
878.364	817
878.437	776
878.447	803
878.529	586
878.544	539
878.611	140
878.651	-26
878.694	-148
878.758	113
878.776	134
878.858	-532
878.865	-497
878.941	268
878.972	22
879.023	-424
879.078	-260
879.105	-137
879.185	872
879.187	888
879.269	107
879.292	68
879.351	73
879.399	282
879.433	423
879.506	463
879.516	491
879.598	463
879.613	464
879.680	241
879.720	499
879.762	977
879.827	584
879.844	377
879.926	279
879.933	265
880.007	521
880.040	455
880.089	223
880.147	540
880.171	794
880.253	1816
880.254	1818
880.335	2156
880.360	2405
880.417	3579
880.467	4841
880.499	5770
880.574	7959
880.580	7886
880.662	3070
880.680	2388
880.744	869
880.787	390
880.825	415
880.893	643
880.907	630
880.989	98
881.000	59
881.070	497
881.106	743
881.152	809
881.213	709
881.233	587
881.315	340
881.319	342
881.396	875
881.426	721
881.478	430
881.532	622
881.559	819
881.639	1031
881.641	1022
881.722	632
881.745	512
881.803	547
881.852	533
881.885	503
881.958	666
881.966	692
882.047	938
882.064	802
882.129	228
882.171	459
882.210	850
882.277	1211
882.291	1253
882.372	1599
882.383	1499
882.454	400
882.489	286
882.535	558
882.596	985
882.616	1026
882.697	463
882.702	444
882.778	538
882.808	631
882.859	482
882.914	280
882.940	405
883.020	885
883.021	889
883.102	489
883.127	526
883.183	1072
883.233	1279
883.264	1029
883.339	518
883.345	534
883.426	644
883.445	759
883.507	802
883.551	657
883.587	695
883.657	602
883.668	616
883.749	674
883.763	753
883.830	848
883.869	653
883.910	431
883.975	312
883.991	347
884.072	493
884.081	532
884.152	979
884.187	989
884.233	666
884.292	407
884.314	400
884.394	227
884.398	212
884.475	317
884.504	493
884.555	682
884.610	567
884.636	493
884.716	834
884.716	841
884.797	1026
884.821	1043
884.877	885
884.927	671
884.958	623
885.033	885
885.038	886
885.118	571
885.139	505
885.199	387
885.244	352
885.279	674
885.350	1084
885.359	1090
885.439	1221
885.456	1218
885.520	1220
885.561	1253
885.600	998
885.667	644
885.680	666
885.760	713
885.773	723
885.840	1060
885.878	1261
885.920	1321
885.984	964
886.000	904
886.080	1093
886.089	1091
886.160	1017
886.195	1069
886.240	1005
886.300	854
886.320	876
886.400	655
886.406	653
886.480	855
886.511	880
886.560	791
886.616	632
886.640	646
886.720	1039
886.722	1034
886.800	1010
886.827	1102
886.879	1114
886.932	1062
886.959	1194
887.038	1449
887.039	1449
887.119	924
887.143	760
887.198	1105
887.248	1405
887.278	1314
887.354	991
887.358	1004
887.437	1211
887.459	1265
887.517	1258
887.564	1225
887.596	1387
887.669	1656
887.676	1612
887.755	1146
887.774	1001
887.835	620
887.880	385
887.914	591
887.985	872
887.994	881
888.073	997
888.090	988
888.153	1280
888.195	1571
888.232	1534
888.300	1421
888.311	1471
888.391	1734
888.405	1762
888.470	1475
888.510	1283
888.549	1402
888.615	1772
888.628	1762
888.708	1463
888.720	1418
888.787	1202
888.825	1054
888.866	1176
888.930	1399
888.945	1284
889.024	600
889.035	514
889.103	1274
889.140	1636
889.182	1223
889.245	642
889.261	810
889.340	1560
889.349	1645
889.419	1637
889.454	1614
889.498	1488
889.559	1305
889.577	1343
889.656	1497
889.664	1510
889.735	1779
889.768	1901
889.814	1365
889.873	647
889.978	1295
890.083	1594
890.187	1548
890.292	1339
890.397	2049
890.501	1498
890.606	1966
890.710	2290
890.815	2054
890.919	1342
891.024	1174
891.128	1199
891.233	1650
891.337	1113
891.442	1935
891.546	1360
891.650	1314
891.755	975
891.859	2155
891.963	1016
892.068	1630
892.172	918
892.276	905
892.380	948
892.484	1654
892.589	1292
892.693	1486
892.797	1332
892.901	578
893.005	1259
893.109	1457
893.213	1182
893.317	1775
893.421	439
893.525	1043
893.629	859
893.733	1609
893.837	1206
893.941	1026
894.045	1054
894.148	642
894.252	1248
894.356	1772
894.460	2215
894.564	656
894.667	534
894.771	901
894.875	247
894.978	1131
895.082	870
895.186	1913
895.289	877
895.393	2140
895.496	726
895.600	1283
895.703	526
895.807	618
895.910	1558
896.014	1335
896.117	721
896.221	1000
896.324	1363
896.427	1027
896.531	998
896.634	1405
896.737	1187
896.840	1757
896.944	1018
897.047	589
897.150	935
897.253	1414
897.356	859
897.460	975
897.563	150
897.666	1123
897.769	971
897.872	1051
897.975	550
898.078	1451
898.181	317
898.284	802
898.387	831
898.490	1487
898.593	1346
898.695	1003
898.798	1288
898.901	941
899.004	342
899.107	912
899.209	1037
899.312	997
899.415	298
899.518	619
899.620	1076
899.723	1189
899.826	1726
899.928	1635
900.031	1044
900.133	1366
900.236	267
900.338	513
900.441	1230
900.543	283
900.646	792
900.748	767
900.851	1312
900.953	1043
901.055	121
901.158	1326
901.260	1307
901.362	807
901.465	752
901.567	398
901.669	1608
901.771	455
901.873	805
901.976	1042
902.078	1155
902.180	594
902.282	525
902.384	969
902.486	1722
902.588	980
902.690	80
902.792	61
902.894	625
902.996	912
903.098	413
903.200	1406
903.302	716
903.404	547
903.505	428
903.607	909
903.709	1354
903.811	1436
903.913	-129
904.014	846
904.116	133
904.218	557
904.319	624
904.421	1572
904.523	1145
904.624	821
904.726	1000
904.827	536
904.929	651
905.030	576
905.132	543
905.233	727
905.335	876
905.436	1112
905.537	568
905.639	1505
905.740	844
905.841	1278
905.943	765
906.044	777
906.145	376
906.247	635
906.348	7
906.449	1289
906.550	1342
906.651	1190
906.752	240
906.854	938
906.955	770
907.056	1122
907.157	600
907.258	1281
907.359	77
907.460	1655
907.561	174
907.662	128
907.762	15
907.863	542
907.964	980
908.065	1231
908.166	100
908.267	342
908.367	1004
908.468	667
908.569	530
908.670	766
908.770	971
908.871	1682
908.971	521
909.072	853
909.173	676
909.273	1717
909.374	88
909.474	656
909.575	503
909.675	1090
909.776	1043
909.876	964
909.977	-270
910.077	1951
910.177	366
910.278	1135
910.378	936
910.478	1065
910.579	1205
910.679	980
910.779	1512
910.879	785
910.980	622
911.080	429
911.180	-53
911.280	1181
911.380	898
911.480	-1
911.580	1233
911.680	793
911.780	1098
911.880	861
911.980	563
912.080	742
912.180	428
912.280	1015
912.380	450
912.480	1010
912.580	369
912.679	954
912.779	400
912.879	563
912.979	209
913.078	547
913.178	-342
913.278	776
913.377	714
913.477	342
913.577	133
913.676	791
913.776	1182
913.875	996
913.975	841
914.074	393
914.174	998
914.273	623
914.373	659
914.472	1459
914.572	194
914.671	1267
914.770	-348
914.870	115
914.969	-280
915.068	829
915.167	421
915.267	734
915.366	395
915.465	174
915.564	601
915.663	1221
915.763	381
915.862	1372
915.961	864
916.060	-28
916.159	2
916.258	366
916.357	916
916.456	1597
916.555	912
916.654	874
916.752	1081
916.851	785
916.950	459
917.049	372
917.148	1195
917.247	854
917.345	484
917.444	663
917.543	-44
917.642	818
917.740	159
917.839	1843
917.937	759
918.036	2268
918.135	651
918.233	1418
918.332	238
918.430	687
918.529	136
918.627	814
918.726	560
918.824	875
918.923	908
919.021	476
919.119	105
919.218	270
919.316	450
919.414	488
919.512	-78
919.611	1013
919.709	696
919.807	1533
919.905	952
920.003	1062
920.102	843
920.200	602
920.298	886
920.396	1558
920.494	1074
920.592	1129
920.690	1014
920.788	1337
920.886	1245
920.984	940
921.082	614
921.180	1491
921.277	676
921.375	1633
921.473	1108
921.571	1618
921.669	1408
921.766	1068
921.864	604
921.962	1746
922.060	1605
922.157	1775
922.255	1638
922.352	1675
922.450	2222
922.548	1570
922.645	1346
922.743	2534
922.840	3002
922.938	4676
923.035	3550
923.133	4215
923.230	3879
923.327	4861
923.425	4252
923.522	4206
923.619	4111
923.717	4521
923.814	3683
923.911	4019
924.008	3976
924.106	3357
924.203	3081
924.300	3538
924.397	4154
924.494	4023
924.591	3113
924.688	3763
924.786	3335
924.883	4597
924.979	3302
925.077	4341
925.173	3454
925.270	4042
925.367	3295
925.464	3614
925.561	3275
925.658	3766
925.755	3546
925.852	3668
925.948	3539
926.045	3515
926.142	3737
926.239	3607
926.335	2888
926.432	3713
926.529	3393
926.625	3241
926.722	2883
926.818	3132
926.915	2646
927.011	3299
927.108	2273
927.204	3923
927.301	2719
927.397	3037
927.494	3786
927.590	3171
927.687	2533
927.783	3818
927.879	3506
927.976	3908
928.072	2277
928.168	2774
928.264	3397
928.361	4015
928.457	3575
928.553	3549
928.649	2582
928.745	3620
928.841	3070
928.937	2694
929.033	3233
929.129	3143
929.225	3653
929.321	2820
929.417	2330
929.513	3839
929.609	2063
929.705	2817
929.801	2896
929.897	2667
929.993	2679
930.089	2916
930.184	2339
930.280	3547
930.376	2833
930.471	2901
930.567	1971
930.663	2343
930.758	1931
930.854	2964
930.950	2625
931.045	2443
931.141	2521
931.236	3502
931.332	2277
931.427	3084
931.523	2913
931.618	3703
931.714	1295
931.809	2976
931.905	2097
932.000	2753
932.095	2236
932.191	3729
932.286	2952
932.381	2719
932.476	1703
932.572	2373
932.667	2720
932.762	2189
932.857	2526
932.952	3218
933.047	2412
933.142	2077
933.237	1901
933.332	2406
933.427	3118
933.522	1882
933.617	1523
933.712	1941
933.807	1859
933.902	3068
933.997	2520
934.092	1925
934.187	1766
934.282	1735
934.376	2251
934.471	2334
934.566	2308
934.661	1778
934.755	2511
934.850	2491
934.945	1951
935.039	2799
935.134	985
935.228	2344
935.323	2623
935.417	1985
935.512	507
935.606	1880
935.701	2105
935.795	2630
935.890	2385
935.984	2476
936.079	887
936.173	1809
936.267	1438
936.362	1406
936.456	2580
936.550	3113
936.644	2301
936.738	1574
936.833	1773
936.927	1806
937.021	1929
937.115	2597
937.209	1676
937.303	2748
937.397	1056
937.491	947
937.585	1817
937.679	2106
937.773	2156
937.867	1438
937.961	1071
938.055	2372
938.149	2493
938.243	1989
938.337	620
938.430	1562
938.524	2205
938.618	1918
938.712	1683
938.805	1535
938.899	2378
938.993	2494
939.086	1869
939.180	1351
939.274	1488
939.367	2228
939.461	1563
939.554	1824
939.648	553
939.741	1427
939.835	1069
939.928	2580
940.022	2225
940.115	1385
940.208	2495
940.302	3349
940.395	1932
940.488	1112
940.582	686
940.675	1103
940.768	949
940.861	2191
940.954	2608
941.048	1928
941.141	562
941.234	1738
941.327	1716
941.420	2062
941.513	1662
941.606	809
941.699	915
941.792	2155
941.885	1809
941.978	2158
942.071	1338
942.164	837
942.257	1275
942.349	1403
942.442	1535
942.535	2036
942.628	1059
942.721	1560
942.813	1015
942.906	1194
942.999	1269
943.091	888
943.184	1001
943.277	1789
943.369	1596
943.462	1479
943.554	882
943.647	1070
943.739	1365
943.832	1700
943.924	462
944.017	616
944.109	337
944.201	1789
944.294	1069
944.386	1674
944.478	792
944.571	1526
944.663	584
944.755	1412
944.847	1047
944.940	968
945.032	807
945.124	520
945.216	1929
945.308	1261
945.400	636
945.492	1367
945.584	1515
945.676	1461
945.768	1488
945.860	1421
945.952	1720
946.044	1400
946.136	687
946.228	876
946.320	683
946.412	558
946.503	1533
946.595	1742
946.687	638
946.779	515
946.870	851
946.962	883
947.054	681
947.145	1278
947.237	659
947.329	647
947.420	650
947.512	931
947.603	128
947.695	1062
947.786	-77
947.878	1377
947.969	701
948.061	1251
948.152	556
948.243	355
948.335	577
948.426	626
948.517	1049
948.609	1180
948.700	-96
948.791	1315
948.882	235
948.973	380
949.065	422
949.156	798
949.247	328
949.338	457
949.429	82
949.520	841
949.611	585
949.702	1501
949.793	1240
949.884	430
949.975	499
950.066	967
950.157	73
950.247	297
950.338	-830
950.429	765
950.520	776
950.611	1230
950.701	-88
950.792	721
950.883	719
950.973	1053
951.064	747
951.155	1376
951.245	824
951.336	1412
951.427	54
951.517	762
951.608	1036
951.698	936
951.788	531
951.879	50
951.969	-272
952.060	1398
952.150	619
952.240	1195
952.331	629
952.421	1889
952.511	-239
952.602	1191
952.692	239
952.782	242
952.872	385
952.962	478
953.052	864
953.143	232
953.233	-271
953.323	504
953.413	-414
953.503	1623
953.593	708
953.683	-323
953.773	-461
953.863	-41
953.953	-216
954.042	378
954.132	547
954.222	1064
954.312	-235
954.402	429
954.492	6
954.581	43
954.671	656
954.761	158
954.850	1200
954.940	-316
955.030	452
955.119	-232
955.209	-293
955.298	319
955.388	936
955.477	1055
955.567	-776
955.656	970
955.746	374
955.835	976
955.925	51
956.014	-32
956.103	210
956.193	1911
956.282	901
956.371	433
956.461	-44
956.550	-125
956.639	427
956.728	681
956.817	883
956.906	69
956.995	-190
957.085	263
957.174	441
957.263	790
957.352	-126
957.441	807
957.530	57
957.619	53
957.708	-1
957.796	45
957.885	-71
957.974	371
958.063	348
958.152	-1023
958.241	399
958.329	272
958.418	461
958.507	705
958.596	886
958.684	-486
958.773	32
958.861	-365
958.950	229
959.039	149
959.127	-126
959.216	229
959.304	741
959.393	559
959.481	-115
959.570	216
959.658	-484
959.746	317
959.835	724
959.923	-39
960.011	-37
960.100	1319
960.188	-26
960.276	-317
960.365	-420
960.453	87
960.541	-1116
960.629	-178
960.717	-39
960.805	418
960.893	-57
960.981	-130
961.069	-201
961.158	539
961.245	170
961.333	294
961.421	274
961.509	66
961.597	491
961.685	685
961.773	-270
961.861	60
961.949	364
962.036	78
962.124	99
962.212	-531
962.299	239
962.387	6
962.475	-255
962.562	-445
962.650	754
962.738	9
962.825	-353
962.913	-444
963.000	-313
963.088	181
963.175	282
963.263	-550
963.350	-743
963.438	491
963.525	-277
963.612	322
963.700	-444
963.787	1486
963.874	1091
963.962	515
964.049	-121
964.136	394
964.223	-639
964.310	-392
964.398	28
964.485	-143
964.572	428
964.659	841
964.746	-556
964.833	-175
964.920	296
965.007	603
965.094	-510
965.181	-48
965.268	-436
965.355	158
965.441	357
965.528	116
965.615	715
965.702	1280
965.789	59
965.875	596
965.962	-375
966.049	2
966.136	332
966.222	54
966.309	714
966.395	-107
966.482	538
966.569	210
966.655	127
966.742	-178
966.828	35
966.915	-2
967.001	-31
967.087	-113
967.174	-373
967.260	119
967.347	-215
967.433	35
967.519	969
967.605	530
967.692	-131
967.778	134
967.864	305
967.950	60
968.036	-1002
968.123	118
968.209	-238
968.295	-502
968.381	-180
968.467	419
968.553	-952
968.639	-41
968.725	-47
968.811	-178
968.897	-105
968.983	379
969.069	-725
969.154	-273
969.240	350
969.326	-475
969.412	-694
969.497	498
969.583	-1056
969.669	1144
969.755	-231
969.840	258
969.926	598
970.012	304
970.097	826
970.183	553
970.268	588
970.354	572
970.439	-382
970.525	852
970.610	-640
970.696	-381
970.781	476
970.866	445
970.952	-925
971.037	55
971.122	-517
971.208	209
971.293	-591
971.378	-1213
971.463	-675
971.549	341
971.634	-915
971.719	89
971.804	-958
971.889	240
971.974	-476
972.059	366
972.144	-450
972.229	285
972.314	-365
972.399	-795
972.484	-310
972.569	110
972.654	-686
972.739	1122
972.824	-620
972.908	656
972.993	-20
973.078	-381
973.163	-608
973.247	-59
973.332	-1172
973.417	1233
973.501	-878
973.586	-241
973.671	-153
973.755	-652
973.840	653
973.924	-57
974.009	-50
974.093	-6
974.178	563
974.262	490
974.346	-493
974.431	-650
974.515	-715
974.600	-233
974.684	64
974.768	-309
974.852	-548
974.937	-150
975.021	98
975.105	220
975.189	-263
975.273	284
975.358	-1679
975.442	-874
975.526	-52
975.610	-481
975.694	-1204
975.778	255
975.862	-760
975.946	-1576
976.030	722
976.114	9
976.198	-399
976.281	-374
976.365	-359
976.449	419
976.533	-652
976.617	-1553
976.700	-713
976.784	-693
976.868	-579
976.951	-473
977.035	-689
977.119	-45
977.202	307
977.286	508
977.369	194
977.453	1163
977.536	-44
977.620	-116
977.703	-547
977.787	-149
977.870	221
977.953	200
978.037	-1375
978.120	155
978.203	-536
978.287	349
978.370	-888
978.453	-423
978.536	-386
978.620	28
978.703	-224
978.786	-471
978.869	-1156
978.952	-957
979.035	774
979.118	-460
979.201	-1087
979.284	393
979.367	-884
979.450	-159
979.533	-1026
979.616	134
979.699	-619
979.782	-708
979.865	-1148
979.948	-1131
980.030	-1006
980.113	-895
980.196	-1515
980.279	-478
980.361	-219
980.444	263
980.526	-31
980.609	92
980.692	-788
980.774	164
980.857	-767
980.939	167
981.022	-614
981.104	-198
981.187	-392
981.269	153
981.352	127
981.434	-941
981.516	-1194
981.599	799
981.681	-404
981.763	-767
981.846	160
981.928	-88
982.010	-608
982.092	43
982.174	-110
982.256	-595
982.339	-1217
982.421	406
982.503	-129
982.585	-908
982.667	-599
982.749	596
982.831	-430
982.913	-616
982.995	995
983.077	-410
983.158	787
983.240	-654
983.322	541
983.404	369
983.486	321
983.568	282
983.649	-357
983.731	703
983.813	-541
983.894	752
983.976	-318
984.058	-10
984.139	-10
984.221	-915
984.302	-38
984.384	-642
984.465	-835
984.547	714
984.628	12
984.710	260
984.791	-541
984.872	-39
984.954	-951
985.035	-28
985.116	-397
985.198	195
985.279	437
985.360	-1038
985.441	-1200
985.522	867
985.604	527
985.685	-998
985.766	-297
985.847	856
985.928	-984
986.009	72
986.090	22
986.171	665
986.252	-254
986.333	-771
986.414	-458
986.495	-132
986.576	-45
986.656	708
986.737	93
986.818	464
986.899	-1342
986.980	335
987.060	-627
987.141	258
987.222	159
987.302	-7
987.383	833
987.464	281
987.544	398
987.625	-350
987.705	384
987.786	10
987.866	306
987.947	204
988.027	-422
988.108	-438
988.188	409
988.268	-59
988.349	28
988.429	-37
988.509	381
988.589	-132
988.670	-1224
988.750	1281
988.830	-507
988.910	885
988.990	-248
989.070	513
989.151	-701
989.231	-349
989.311	-761
989.391	-14
989.471	471
989.551	-19
989.631	-988
989.711	149
989.791	-670
989.870	-889
989.950	873
990.030	-402
990.110	788
990.190	-251
990.269	-584
990.349	-285
990.429	-127
990.509	579
990.588	-831
990.668	-134
990.747	-693
990.827	-125
990.907	766
990.986	-30
991.066	-280
991.145	-360
991.225	-398
991.304	-235
991.383	388
991.463	395
991.542	-627
991.622	516
991.701	-1088
991.780	-865
991.859	-7
991.939	-277
992.018	-766
992.097	-114
992.176	-972
992.256	-242
992.335	-886
992.414	1002
992.493	-390
992.572	-665
992.651	414
992.730	-280
992.809	559
992.888	-931
992.967	-974
993.046	-204
993.125	-1106
993.203	-576
993.282	-744
993.361	-427
993.440	-65
993.519	-1203
993.597	-449
993.676	-558
993.755	71
993.834	-532
993.912	-1783
993.991	197
994.069	-1152
994.148	-557
994.226	-1060
994.305	-10
994.384	-1526
994.462	143
994.540	-984
994.619	-1054
994.697	-954
994.776	-328
994.854	-595
994.932	-451
995.011	-88
995.089	-778
995.167	-1023
995.245	150
995.324	-1456
995.402	160
995.480	-648
995.558	-294
995.636	-995
995.714	-675
995.792	-950
995.870	-699
995.948	-1181
996.026	-217
996.104	-1597
996.182	198
996.260	-1426
996.338	-403
996.416	-1555
996.494	-593
996.572	631
996.649	-404
996.727	-1058
996.805	-354
996.883	-654
996.960	-367
997.038	-744
997.116	-282
997.193	-1096
997.271	83
997.348	-1035
997.426	-618
997.504	-474
997.581	525
997.658	-626
997.736	-1072
997.813	-1342
997.891	-1168
997.968	-1449
998.046	-599
998.123	-1095
998.200	-1198
998.277	-1338
998.355	-48
998.432	-1953
998.509	-666
998.586	-470
998.663	-728
998.741	-1006
998.818	-907
998.895	-1787
998.972	-650
999.049	135
999.126	163
999.203	-781
999.280	61
999.357	-1916
999.434	-897
999.511	-987
999.587	-473
999.664	-1405
999.741	-794
999.818	-177
999.895	-474
999.971	-757
1000.048	-1430
1000.125	-333
1000.202	-815
1000.278	-960
1000.355	8
1000.431	-1560
1000.508	-710
1000.584	-1019
1000.661	-661
1000.738	-1746
1000.814	-545
1000.890	-745
1000.967	-975
1001.043	-427
1001.120	-1475
1001.196	-420
1001.272	-1424
1001.349	-488
1001.425	-314
1001.501	-1098
1001.577	-1076
1001.654	-751
1001.730	-662
1001.806	-795
1001.882	-1673
1001.958	-718
1002.034	-76
1002.110	-1247
1002.186	-1227
1002.262	-1435
1002.338	-1134
1002.414	-856
1002.490	-1423
1002.566	-1866
1002.642	-876
1002.718	-886
1002.794	-771
1002.870	-2145
1002.945	-1246
1003.021	-1367
1003.097	-853
1003.173	-910
1003.248	-1717
1003.324	-335
1003.400	-1281
1003.475	-873
1003.551	-731
1003.626	-724
1003.702	-462
1003.777	-1628
1003.853	-1318
1003.928	-1225
1004.004	-1004
1004.079	-623
1004.155	-241
1004.230	-2178
1004.305	-3
1004.381	-2407
1004.456	-600
1004.531	-1225
1004.607	39
1004.682	-1964
1004.757	-689
1004.832	-1792
1004.907	-179
1004.982	-782
1005.057	-652
1005.133	-610
1005.208	-897
1005.283	-1451
1005.358	446
1005.433	-1863
1005.508	-931
1005.583	-2137
1005.657	-1721
1005.732	-643
1005.807	-1945
1005.882	-1322
1005.957	-1107
1006.032	-774
1006.106	-1057
1006.181	-1284
1006.256	-1191
1006.331	-698
1006.405	-1435
1006.480	-889
1006.554	-1390
1006.629	-1281
1006.704	-1211
1006.778	-1191
1006.853	-826
1006.927	-1775
1007.002	-873
1007.076	-1620
1007.150	-1435
1007.225	-1059
1007.299	-157
1007.373	-2396
1007.448	-719
1007.522	-731
1007.596	-1177
1007.671	-1873
1007.745	-666
1007.819	-1359
1007.893	-1024
1007.967	-1329
1008.041	-1650
1008.115	-656
1008.190	-1693
1008.264	-1716
1008.338	-1721
1008.412	-1807
1008.486	-1146
1008.560	-1620
1008.633	-1461
1008.707	-1072
1008.781	-841
1008.855	-1972
1008.929	-896
1009.003	-1943
1009.076	-2097
1009.150	-2096
1009.224	-1280
1009.298	-1200
1009.371	-1254
1009.445	-556
1009.519	-822
1009.592	-2369
1009.666	-1424
1009.739	-1178
1009.813	-1761
1009.886	-100
1009.960	-2128
1010.033	-628
1010.107	-509
1010.180	-1533
1010.253	-183
1010.327	-1568
1010.400	-488
1010.473	-1663
1010.547	-489
1010.620	-1972
1010.693	-1158
1010.766	-1786
1010.840	-820
1010.913	-1815
1010.986	-1503
1011.059	-1154
1011.132	-1083
1011.205	-1665
1011.278	-911
1011.351	-1322
1011.424	-1625
1011.497	-2254
1011.570	-1665
1011.643	-2581
1011.716	-1876
1011.789	-1587
1011.862	-1228
1011.934	-1301
1012.007	-1884
1012.080	-998
1012.153	-508
1012.225	-1078
1012.298	-1412
1012.371	-1033
1012.443	-1267
1012.516	-2039
1012.588	-1438
1012.661	-1874
1012.733	-1299
1012.806	-1446
1012.879	-862
1012.951	-931
1013.023	-1213
1013.096	-1113
1013.168	-1696
1013.241	-922
1013.313	-1361
1013.385	-1980
1013.458	-916
1013.530	-1307
1013.602	-1642
1013.674	-500
1013.746	-1254
1013.819	-1708
1013.891	-945
1013.963	-2031
1014.035	-1274
1014.107	-835
1014.179	-1222
1014.251	-1647
1014.323	-1341
1014.395	-2172
1014.467	-1181
1014.539	-1406
1014.611	-1924
1014.683	-1733
1014.754	-1266
1014.826	-3049
1014.898	-1415
1014.970	-2596
1015.042	-845
1015.113	-1940
1015.185	-837
1015.257	-2148
1015.328	-310
1015.400	-1892
1015.471	-1086
1015.543	-1725
1015.615	-1583
1015.686	-1866
1015.757	-1156
1015.829	-1343
1015.901	-2167
1015.972	-1472
1016.043	-1261
1016.115	-1845
1016.186	-2059
1016.257	-1446
1016.328	-867
1016.400	-1317
1016.471	-1593
1016.542	-1844
1016.613	-647
1016.685	-1661
1016.756	-1442
1016.827	-2209
1016.898	-1761
1016.969	-471
1017.040	-1777
1017.111	-1749
1017.182	-1800
1017.253	-1504
1017.324	-1434
1017.395	-1836
1017.466	-332
1017.537	-1542
1017.608	-1459
1017.678	-1458
1017.749	-1080
1017.820	-833
1017.891	-2471
1017.961	-1794
1018.032	-1898
1018.103	-1787
1018.173	-1331
1018.244	-1680
1018.315	-1673
1018.385	-1518
1018.456	-1863
1018.526	-2081
1018.597	-1331
1018.667	-2450
1018.738	-1802
1018.808	-1779
1018.878	-1444
1018.949	-1774
1019.019	-1445
1019.089	-1456
1019.160	-1024
1019.230	-2022
1019.300	-1209
1019.371	-2436
1019.441	-1346
1019.511	-1656
1019.581	-1428
1019.651	-2234
1019.721	-1232
1019.791	-1728
1019.861	-1647
1019.931	-1473
1020.001	-2022
1020.071	-1954
1020.141	-1370
1020.211	-1817
1020.281	-2344
1020.351	-1762
1020.421	-971
1020.491	-1106
1020.560	-2187
1020.630	-1888
1020.700	-1309
1020.770	-2209
1020.839	-2084
1020.909	-2170
1020.979	-1275
1021.048	-1839
1021.118	-1877
1021.187	-1992
1021.257	-1769
1021.326	-1198
1021.396	-1350
1021.465	-1561
1021.535	-1553
1021.604	-1725
1021.674	-1364
1021.743	-2547
1021.812	-1809
1021.882	-1232
1021.951	-1519
1022.020	-1702
1022.089	-1156
1022.159	-1963
1022.228	-1902
1022.297	-2134
1022.366	-1549
1022.435	-1597
1022.504	-2169
1022.573	-2123
1022.642	-1418
1022.711	-2145
1022.781	-931
1022.849	-1287
1022.918	-2057
1022.987	-2032
1023.056	-2338
1023.125	-2211
1023.194	-1488
1023.263	-1926
1023.331	-1133
1023.400	-1542
1023.469	-1495
1023.538	-1847
1023.606	-1781
1023.675	-2034
1023.744	-1209
1023.812	-2152
1023.881	-1655
1023.949	-2091
1024.018	-1622
1024.086	-1804
1024.155	-1240
1024.223	-1630
1024.292	-1007
1024.360	-1521
1024.429	-1413
1024.497	-2761
1024.565	-1106
1024.634	-2402
1024.702	-1283
1024.770	-2836
1024.838	-1737
1024.907	-690
1024.975	-1704
1025.043	-1628
1025.111	-1998
1025.179	-2055
1025.247	-1567
1025.315	-1833
1025.383	-1420
1025.451	-2158
1025.519	-1463
1025.587	-2593
1025.655	-1742
1025.723	-1588
1025.791	-2030
1025.859	-1919
1025.927	-1294
1025.995	-1788
1026.062	-1400
1026.130	-2713
1026.198	-1741
1026.266	-1792
1026.333	-1364
1026.401	-1481
1026.469	-1563
1026.536	-1675
1026.604	-1051
1026.671	-1819
1026.739	-2134
1026.806	-2155
1026.874	-1564
1026.941	-2245
1027.009	-1343
1027.076	-2109
1027.144	-1553
1027.211	-2725
1027.278	-3048
1027.345	-2389
1027.413	-1261
1027.480	-2240
1027.547	-1058
1027.614	-1969
1027.682	-1366
1027.749	-1924
1027.816	-1104
1027.883	-1740
1027.950	-1428
1028.017	-2657
1028.084	-913
1028.151	-2306
1028.218	-1464
1028.285	-1978
1028.352	-2142
1028.419	-1511
1028.486	-1987
1028.553	-2097
1028.619	-1755
1028.686	-2398
1028.753	-2272
1028.820	-1666
1028.886	-1881
1028.953	-1062
1029.020	-1098
1029.086	-1602
1029.153	-1485
1029.220	-2170
1029.286	-1588
1029.353	-2198
1029.419	-2505
1029.486	-2079
1029.552	-1322
1029.619	-1668
1029.685	-1604
1029.751	-1521
1029.818	-1093
1029.884	-1791
1029.951	-1460
1030.017	-1545
1030.083	-1539
1030.149	-2227
1030.216	-1718
1030.282	-1889
1030.348	-1630
1030.414	-1628
1030.480	-1751
1030.546	-2167
1030.612	-2070
1030.678	-2358
1030.744	-1401
1030.810	-2591
1030.876	-1232
1030.942	-2381
1031.008	-1645
1031.074	-1947
1031.140	-2130
1031.206	-1655
1031.272	-2484
1031.337	-1937
1031.403	-1006
1031.469	-2174
1031.534	-1541
1031.600	-1291
1031.666	-1990
1031.731	-2294
1031.797	-2018
1031.863	-1964
1031.928	-1975
1031.994	-1693
1032.059	-2347
1032.125	-1947
1032.190	-769
1032.256	-1711
1032.321	-2085
1032.386	-1898
1032.452	-1631
1032.517	-1387
1032.582	-1420
1032.647	-2188
1032.713	-1902
1032.778	-2275
1032.843	-1822
1032.908	-2444
1032.974	-1111
1033.039	-2249
1033.104	-1499
1033.169	-2535
1033.234	-2096
1033.299	-1274
1033.364	-1976
1033.429	-1201
1033.494	-1000
1033.559	-1642
1033.624	-1809
1033.688	-1438
1033.753	-1879
1033.818	-1565
1033.883	-1627
1033.948	-1640
1034.013	-1799
1034.077	-2031
1034.142	-1484
1034.207	-767
1034.271	-531
1034.336	968
1034.400	-201
1034.465	-1065
1034.530	-784
1034.594	-1194
1034.658	-1388
1034.723	-2733
1034.787	-1912
1034.852	-1543
1034.916	-2025
1034.981	-2550
1035.045	-1565
1035.109	-2264
1035.173	-1920
1035.238	-1196
1035.302	-1994
1035.366	-2311
1035.430	-1565
1035.495	-1866
1035.559	-261
1035.623	-1600
1035.687	-1155
1035.751	-1294
1035.815	-2585
1035.879	-1866
1035.943	-1951
1036.007	-1423
1036.071	-1830
1036.135	-1515
1036.198	-1831
1036.262	-2661
1036.326	-1493
1036.390	-1932
1036.454	-1595
1036.517	-1787
1036.581	-1715
1036.645	-1213
1036.709	-1123
1036.772	-2381
1036.836	-1588
1036.900	-1854
1036.963	-1567
1037.026	-1963
1037.090	-2704
1037.154	-1325
1037.217	-2220
1037.280	-1959
1037.344	-1518
1037.407	-2514
1037.471	-731
1037.534	-2338
1037.597	-1959
1037.661	-2269
1037.724	-2215
1037.787	-1943
1037.850	-1169
1037.913	-1618
1037.977	-922
1038.040	-1936
1038.103	-1913
1038.166	-1224
1038.229	-1724
1038.292	-1661
1038.355	-1335
1038.418	-2285
1038.481	-1049
1038.544	-2532
1038.607	-2392
1038.670	-1575
1038.732	-2288
1038.795	-1938
1038.858	-2465
1038.921	-2046
1038.984	-1928
1039.046	-2858
1039.109	-1384
1039.172	-2380
1039.234	-1569
1039.297	-2613
1039.360	-1612
1039.422	-2427
1039.485	-2392
1039.547	-2376
1039.610	-1857
1039.672	-1786
1039.734	-1968
1039.797	-2159
1039.859	-969
1039.922	-1587
1039.984	-1394
1040.046	-2266
1040.109	-1699
1040.171	-2192
1040.233	-1397
1040.295	-2738
1040.358	-2377
1040.420	-2017
1040.482	-1595
1040.544	-1522
1040.606	-2154
1040.668	-1903
1040.730	-2045
1040.792	-1552
1040.854	-1394
1040.916	-2470
1040.978	-2153
1041.040	-1840
1041.102	-1639
1041.164	-1862
1041.225	-1140
1041.287	-2101
1041.349	-1888
1041.411	-1801
1041.472	-1813
1041.534	-1928
1041.596	-1550
1041.657	-2081
1041.719	-1960
1041.781	-1922
1041.842	-1584
1041.904	-2257
1041.965	-986
1042.027	-2474
1042.088	-1990
1042.150	-2232
1042.211	-1870
1042.272	-1603
1042.334	-1336
1042.395	-2582
1042.456	-2160
1042.518	-1041
1042.579	-1859
1042.640	-1896
1042.701	-1815
1042.763	-2351
1042.824	-2333
1042.885	-1154
1042.946	-1678
1043.007	-2104
1043.068	-1533
1043.129	-1956
1043.190	-1738
1043.251	-1561
1043.312	-1479
1043.373	-2046
1043.434	-1692
1043.495	-2790
1043.556	-1015
1043.616	-2215
1043.677	-1405
1043.738	-1536
1043.799	-2248
1043.859	-1931
1043.920	-544
1043.981	-2376
1044.041	-2041
1044.102	-2346
1044.162	-1512
1044.223	-1803
1044.284	-1068
1044.344	-1575
1044.405	-1574
1044.465	-1728
1044.525	-803
1044.586	-2326
1044.646	-1650
1044.707	-2106
1044.767	-1478
1044.827	-1589
1044.887	-1300
1044.948	-1663
1045.008	-986
1045.068	-1879
1045.128	-2046
1045.188	-1856
1045.249	-1477
1045.309	-1450
1045.369	-1261
1045.429	-2128
1045.489	-1359
1045.549	-2170
1045.609	-1711
1045.669	-1693
1045.729	-2400
1045.789	-2422
1045.848	-1297
1045.908	-1608
1045.968	-1535
1046.028	-1597
1046.088	-1043
1046.147	-951
1046.207	-1013
1046.267	-1405
1046.326	-1272
1046.386	-1415
1046.446	-1266
1046.505	-1702
1046.565	-103
1046.624	-1382
1046.684	-492
1046.743	-1073
1046.803	-28
1046.862	-551
1046.922	0
