'Start Wavelength	183.907
'End Wavelength	1046.922
'Gate Delay	5.000
'Gate Width (ms)	1.050
'Laser Output Level	0.000
'X Position	0.000
'Y Position	0.000
'Z Position	0.000
'Grid Point Number	1.000
'Shot Number	100.000
183.907	-168.000
183.977	324.000
184.047	-350
184.116	112
184.186	368
184.256	-200
184.325	-93
184.395	-61
184.465	203
184.534	-241
184.604	-749
184.674	327
184.743	-975
184.813	-133
184.883	-767
184.952	295
185.022	-114
185.092	-125
185.161	-748
185.231	-81
185.301	-387
185.370	740
185.440	-355
185.509	-30
185.579	-402
185.649	54
185.718	-535
185.788	750
185.857	-358
185.927	-171
185.996	-352
186.066	278
186.136	-355
186.205	-244
186.275	-755
186.344	566
186.414	-317
186.483	-84
186.553	398
186.622	1502
186.692	-418
186.761	351
186.831	-277
186.900	232
186.970	227
187.039	455
187.109	-155
187.178	581
187.248	64
187.317	1256
187.387	-739
187.456	260
187.526	93
187.595	224
187.664	-617
187.734	128
187.803	450
187.873	-35
187.942	-86
188.012	221
188.081	-377
188.150	199
188.220	507
188.289	171
188.358	184
188.428	950
188.497	-803
188.567	274
188.636	-590
188.705	-146
188.775	144
188.844	505
188.913	-477
188.983	-118
189.052	-838
189.121	285
189.191	-326
189.260	927
189.329	491
189.399	186
189.468	-507
189.537	167
189.606	-373
189.676	353
189.745	29
189.814	812
189.883	-584
189.953	-475
190.022	-225
190.091	84
190.161	1381
190.230	545
190.299	-85
190.368	-153
190.437	-688
190.507	10
190.576	-464
190.645	-386
190.714	-631
190.783	453
190.853	233
190.922	674
190.991	-223
191.060	82
191.129	-656
191.198	1014
191.268	-489
191.337	-111
191.406	-464
191.475	130
191.544	-352
191.613	628
191.682	-369
191.752	628
191.821	-218
191.890	-82
191.959	-516
192.028	-27
192.097	-480
192.166	388
192.235	-1130
192.304	669
192.373	-574
192.442	-341
192.511	253
192.580	777
192.650	-239
192.719	437
192.788	160
192.857	-79
192.926	-551
192.995	175
193.064	-338
193.133	744
193.202	472
193.271	1632
193.340	-459
193.409	483
193.478	901
193.547	1431
193.615	813
193.684	1392
193.753	1134
193.822	1397
193.891	261
193.960	-303
194.029	113
194.098	427
194.167	-1165
194.236	870
194.305	-272
194.374	780
194.443	633
194.512	625
194.580	-354
194.649	1099
194.718	16
194.787	338
194.856	-550
194.925	907
194.994	-36
195.062	-318
195.131	-261
195.200	1297
195.269	250
195.338	1288
195.407	482
195.475	237
195.544	213
195.613	640
195.682	91
195.751	637
195.819	104
195.888	935
195.957	554
196.026	1019
196.094	657
196.163	922
196.232	968
196.301	236
196.369	52
196.438	877
196.507	495
196.576	692
196.644	373
196.713	247
196.782	-255
196.850	739
196.919	404
196.988	629
197.056	-246
197.125	862
197.194	55
197.262	296
197.331	-217
197.400	498
197.468	8
197.537	-23
197.606	-195
197.674	1378
197.743	1066
197.812	863
197.880	1897
197.949	1201
198.017	812
198.086	1236
198.155	363
198.223	322
198.292	1672
198.360	952
198.429	132
198.497	508
198.566	66
198.635	1994
198.703	-201
198.772	1420
198.840	1010
198.909	1913
198.977	247
199.046	370
199.114	16
199.183	526
199.251	-294
199.320	744
199.388	-56
199.457	465
199.525	-874
199.594	315
199.662	-175
199.731	488
199.799	11
199.867	543
199.936	-731
200.004	810
200.073	431
200.141	636
200.210	-692
200.278	116
200.346	155
200.415	262
200.483	266
200.552	258
200.620	-224
200.688	7
200.757	-29
200.825	642
200.893	-585
200.962	607
201.030	-137
201.098	625
201.167	317
201.235	178
201.303	-259
201.372	290
201.440	18
201.508	-215
201.577	-29
201.645	501
201.713	311
201.781	409
201.850	-332
201.918	494
201.986	139
202.055	1041
202.123	-333
202.191	275
202.259	8
202.327	412
202.396	-247
202.464	754
202.532	204
202.600	1810
202.669	-253
202.737	203
202.805	-551
202.873	-39
202.941	37
203.009	532
203.078	-646
203.146	-509
203.214	-563
203.282	228
203.350	194
203.418	-163
203.487	-147
203.555	645
203.623	290
203.691	760
203.759	-752
203.827	-45
203.895	-261
203.963	730
204.031	-555
204.099	437
204.168	-106
204.236	21
204.304	34
204.372	156
204.440	237
204.508	-5
204.576	-594
204.644	144
204.712	-514
204.780	1042
204.848	-464
204.916	-244
204.984	-58
205.052	783
205.120	-270
205.188	1277
205.256	184
205.324	99
205.392	-930
205.460	-72
205.528	375
205.596	390
205.664	-125
205.732	46
205.799	1138
205.867	3898
205.935	17
206.003	1405
206.071	-511
206.139	-221
206.207	-324
206.275	704
206.343	-107
206.411	992
206.478	425
206.546	1073
206.614	91
206.682	425
206.750	200
206.818	611
206.885	374
206.953	-480
207.021	701
207.089	1508
207.157	-576
207.225	179
207.292	205
207.360	451
207.428	-300
207.496	243
207.563	162
207.631	200
207.699	-1258
207.767	679
207.834	-467
207.902	1298
207.970	-10
208.038	-106
208.105	294
208.173	78
208.241	996
208.309	1604
208.376	854
208.444	1202
208.512	355
208.579	-590
208.647	295
208.715	1280
208.782	8
208.850	323
208.918	-872
208.985	852
209.053	166
209.120	1070
209.188	-302
209.256	319
209.323	-84
209.391	878
209.459	1102
209.526	419
209.594	515
209.661	1150
209.729	291
209.796	194
209.864	53
209.932	-848
209.999	1382
210.067	804
210.134	594
210.202	795
210.269	1435
210.337	826
210.404	339
210.472	468
210.539	206
210.607	34
210.674	97
210.742	407
210.809	-7
210.877	1202
210.944	610
211.012	337
211.079	1542
211.146	430
211.214	-27
211.281	1167
211.349	404
211.416	921
211.484	753
211.551	-135
211.618	631
211.686	1279
211.753	-188
211.821	508
211.888	451
211.955	773
212.023	261
212.090	763
212.157	736
212.225	1493
212.292	1726
212.359	3495
212.427	9892
212.494	5016
212.561	775
212.629	1158
212.696	435
212.763	503
212.831	565
212.898	1742
212.965	181
213.032	1285
213.100	61
213.167	704
213.234	1164
213.301	1225
213.369	201
213.436	1953
213.503	420
213.570	664
213.638	322
213.705	200
213.772	-942
213.839	751
213.906	910
213.973	416
214.041	55
214.108	998
214.175	556
214.242	-114
214.309	604
214.376	1105
214.444	59
214.511	594
214.578	-46
214.645	941
214.712	612
214.779	1136
214.846	374
214.913	1285
214.980	992
215.048	1519
215.115	1036
215.182	1516
215.249	435
215.316	91
215.383	1121
215.450	656
215.517	79
215.584	1068
215.651	19
215.718	465
215.785	737
215.852	567
215.919	1110
215.986	1340
216.053	742
216.120	42
216.187	95
216.254	1068
216.321	-136
216.388	797
216.455	215
216.522	965
216.589	394
216.656	3596
216.722	2113
216.789	1481
216.856	2358
216.923	1695
216.990	595
217.057	991
217.124	818
217.191	1516
217.258	1724
217.324	2590
217.391	2918
217.458	2241
217.525	1480
217.592	1422
217.659	-642
217.725	1900
217.792	1617
217.859	2986
217.926	866
217.993	653
218.059	220
218.126	671
218.193	-235
218.260	453
218.327	-579
218.393	428
218.460	77
218.527	483
218.594	446
218.660	2071
218.727	2618
218.794	82
218.860	689
218.927	97
218.994	575
219.061	346
219.127	462
219.194	1984
219.261	306
219.327	368
219.394	159
219.461	-690
219.527	-31
219.594	941
219.661	277
219.727	-635
219.794	-91
219.860	595
219.927	407
219.994	1132
220.060	2667
220.127	2002
220.193	878
220.260	1120
220.326	1391
220.393	2927
220.460	4586
220.526	3581
220.593	1156
220.659	2669
220.726	1305
220.792	5960
220.859	4210
220.925	6294
220.992	9356
221.058	9046
221.125	8000
221.191	5898
221.258	2335
221.324	2538
221.391	857
221.457	485
221.524	1369
221.590	1581
221.657	5567
221.723	3287
221.789	3536
221.856	4775
221.922	777
221.989	1172
222.055	664
222.121	159
222.188	1787
222.254	778
222.321	284
222.387	579
222.453	-59
222.520	312
222.586	-331
222.652	806
222.719	-814
222.785	526
222.851	-608
222.918	444
222.984	202
223.050	1002
223.116	-1521
223.183	932
223.249	-560
223.315	30
223.382	-125
223.448	238
223.514	-478
223.580	806
223.647	-28
223.713	518
223.779	-272
223.845	606
223.911	374
223.978	-334
224.044	379
224.110	-111
224.176	-537
224.242	-47
224.309	-293
224.375	1104
224.441	-461
224.507	324
224.573	-766
224.639	338
224.705	-637
224.772	401
224.838	-724
224.904	712
224.970	107
225.036	355
225.102	-1097
225.168	376
225.234	315
225.300	406
225.366	-305
225.432	822
225.499	-194
225.565	247
225.631	82
225.697	740
225.763	857
225.829	1279
225.895	623
225.961	1133
226.027	1611
226.093	1391
226.159	1464
226.225	2977
226.291	6947
226.357	14123
226.423	7253
226.489	3253
226.554	1656
226.620	2131
226.686	2051
226.752	3563
226.818	5322
226.884	18051
226.950	17025
227.016	5534
227.082	3721
227.148	1944
227.214	1691
227.279	2273
227.345	614
227.411	1232
227.477	731
227.543	2846
227.609	2412
227.674	2970
227.740	1189
227.806	1741
227.872	-343
227.938	1378
228.003	1982
228.069	846
228.135	-1
228.201	803
228.267	180
228.332	696
228.398	207
228.464	962
228.530	129
228.595	869
228.661	-1426
228.727	1470
228.792	1339
228.858	197
228.924	-461
228.990	2356
229.055	-121
229.121	1613
229.187	-274
229.252	607
229.318	366
229.384	565
229.449	996
229.515	-1195
229.581	-1438
229.646	1231
229.712	-213
229.777	3013
229.843	2967
229.909	2346
229.974	1804
230.040	1816
230.105	695
230.171	819
230.236	2337
230.302	3907
230.368	1562
230.433	963
230.499	645
230.564	2442
230.630	437
230.695	388
230.761	902
230.826	-495
230.892	1878
230.957	801
231.023	250
231.088	851
231.154	-353
231.219	837
231.284	957
231.350	1919
231.415	-448
231.481	583
231.546	384
231.612	809
231.677	-92
231.742	-764
231.808	846
231.873	86
231.939	-1265
232.004	2680
232.069	1449
232.135	267
232.200	-409
232.265	808
232.331	-327
232.396	-315
232.461	-856
232.527	-867
232.592	-327
232.657	637
232.723	1603
232.788	1062
232.853	-48
232.918	-188
232.984	-282
233.049	-119
233.114	816
233.179	798
233.245	2380
233.310	4780
233.375	-614
233.440	514
233.506	-370
233.571	-230
233.636	-488
233.701	709
233.766	851
233.832	3024
233.897	-481
233.962	-148
234.027	1341
234.092	583
234.157	-485
234.222	427
234.288	1882
234.353	7607
234.418	6617
234.483	3999
234.548	1617
234.613	1328
234.678	1206
234.743	1626
234.808	7135
234.873	3796
234.938	1121
235.004	950
235.069	565
235.134	365
235.199	262
235.264	408
235.329	-1383
235.394	649
235.459	1390
235.524	418
235.589	1646
235.654	1066
235.719	-1306
235.784	634
235.849	811
235.913	3975
235.978	2701
236.043	5057
236.108	1330
236.173	421
236.238	2028
236.303	696
236.368	-150
236.433	3137
236.498	3924
236.563	3184
236.627	4587
236.692	22279
236.757	17109
236.822	5709
236.887	3749
236.952	3375
237.017	612
237.081	4106
237.146	2187
237.211	8528
237.276	19322
237.341	38101
237.405	17036
237.470	6492
237.535	4096
237.600	2766
237.664	1552
237.729	516
237.794	1034
237.859	5783
237.923	3927
237.988	1820
238.053	3785
238.118	3133
238.182	8584
238.247	10752
238.312	3727
238.376	3166
238.441	426
238.506	2267
238.570	-981
238.635	2018
238.700	479
238.764	1408
238.829	3145
238.893	5226
238.958	2232
239.023	1360
239.087	217
239.152	1194
239.216	-233
239.281	1487
239.346	120
239.410	712
239.475	439
239.539	10002
239.604	7017
239.668	2813
239.733	427
239.797	1848
239.862	4821
239.926	8260
239.991	2942
240.055	1570
240.120	1319
240.184	157
240.249	56
240.313	415
240.378	-131
240.442	4599
240.507	10252
240.571	2640
240.635	2876
240.700	5896
240.764	1145
240.829	1095
240.893	-1009
240.957	1402
241.022	4728
241.086	10490
241.151	3612
241.215	345
241.279	2209
241.344	3985
241.408	1929
241.472	861
241.537	1330
241.601	1215
241.665	359
241.730	168
241.794	2217
241.858	529
241.922	94
241.987	253
242.051	-368
242.115	-68
242.179	1244
242.244	343
242.308	352
242.372	949
242.436	932
242.501	1053
242.565	-423
242.629	-81
242.693	602
242.757	33
242.822	273
242.886	1686
242.950	348
243.014	496
243.078	573
243.142	1516
243.206	-225
243.271	1426
243.335	633
243.399	3030
243.463	10874
243.527	35864
243.591	10506
243.655	3767
243.719	1667
243.783	3087
243.847	2944
243.911	5799
243.975	5029
244.040	3217
244.104	2364
244.168	1374
244.232	2471
244.296	4356
244.360	4328
244.424	1009
244.488	622
244.552	1184
244.615	-954
244.679	1091
244.743	1052
244.807	877
244.871	407
244.935	943
244.999	-931
245.063	329
245.127	2228
245.191	3209
245.255	2290
245.319	1138
245.383	-53
245.446	2541
245.510	222
245.574	1457
245.638	1531
245.702	182
245.766	4803
245.829	3234
245.893	-269
245.957	380
246.021	978
246.085	1539
246.149	1919
246.212	7621
246.276	11539
246.340	4355
246.404	2587
246.467	3046
246.531	2770
246.595	3554
246.659	2594
246.722	244
246.786	1725
246.850	2975
246.913	3771
246.977	932
247.041	1013
247.104	1544
247.168	2141
247.232	6573
247.295	15336
247.359	8345
247.423	1831
247.486	5854
247.550	3478
247.614	2171
247.677	2877
247.741	1966
247.804	641
247.868	2511
247.932	3754
247.995	14113
248.059	3925
248.122	1566
248.186	2796
248.249	4291
248.313	21172
248.376	24439
248.440	14463
248.503	4603
248.567	4028
248.630	5446
248.694	7565
248.757	10374
248.821	24203
248.884	14854
248.948	10476
249.011	19642
249.075	28338
249.138	25906
249.202	8071
249.265	5008
249.328	6547
249.392	3570
249.455	3491
249.519	2852
249.582	2546
249.645	7358
249.709	4157
249.772	2621
249.835	2107
249.899	2593
249.962	2134
250.025	1647
250.089	7467
250.152	13512
250.215	4202
250.279	3851
250.342	3285
250.405	3475
250.468	2875
250.532	4146
250.595	7446
250.658	27782
250.721	53706
250.785	17167
250.848	8686
250.911	4289
250.974	4227
251.038	6103
251.101	15440
251.164	7065
251.227	5662
251.290	5876
251.354	8614
251.417	41576
251.480	43397
251.543	25184
251.606	78804
251.669	61792
251.732	20914
251.795	21689
251.859	21747
251.922	49135
251.985	29682
252.048	11239
252.111	7601
252.174	6063
252.237	10901
252.300	29937
252.363	29159
252.426	69515
252.489	28710
252.552	14278
252.615	9162
252.678	8994
252.741	21624
252.804	27144
252.867	66704
252.930	40346
252.993	22163
253.056	12309
253.119	9081
253.182	6113
253.245	10556
253.308	8259
253.371	6320
253.434	6634
253.497	7197
253.559	14567
253.622	9637
253.685	9480
253.748	10931
253.811	5130
253.874	6204
253.937	5163
254.000	4220
254.062	8570
254.125	15373
254.188	13234
254.251	10591
254.314	3718
254.376	7794
254.439	10775
254.502	8206
254.565	9106
254.628	17528
254.690	9234
254.753	3500
254.816	3528
254.878	4025
254.941	10397
255.004	10706
255.067	3959
255.129	3835
255.192	1627
255.255	749
255.317	2500
255.380	1201
255.443	222
255.505	839
255.568	856
255.631	512
255.693	1199
255.756	445
255.819	2192
255.881	737
255.944	1236
256.006	-64
256.069	1054
256.132	-909
256.194	1820
256.257	7168
256.319	5377
256.382	4025
256.444	2342
256.507	1395
256.569	793
256.632	783
256.694	2295
256.757	10005
256.819	35347
256.882	12034
256.944	4485
257.007	3431
257.069	3322
257.132	3012
257.194	2162
257.257	469
257.319	1515
257.381	1743
257.444	7317
257.506	37828
257.569	43276
257.631	19387
257.693	9608
257.756	4566
257.818	3434
257.880	1647
257.943	1556
258.005	502
258.067	936
258.130	921
258.192	1732
258.254	4704
258.317	2966
258.379	2137
258.441	7172
258.503	8224
258.566	9633
258.628	14680
258.690	2271
258.753	2650
258.815	5134
258.877	1558
258.939	1153
259.001	1343
259.064	1158
259.126	643
259.188	2839
259.250	1062
259.312	2494
259.375	8119
259.437	5615
259.499	1438
259.561	1268
259.623	1865
259.685	1407
259.747	1226
259.809	8692
259.872	20815
259.934	28552
259.996	29477
260.058	8501
260.120	1070
260.182	1900
260.244	1636
260.306	745
260.368	1230
260.430	548
260.492	4523
260.554	11584
260.616	5585
260.678	12797
260.740	21011
260.802	4381
260.864	2789
260.926	1625
260.988	2097
261.050	2383
261.112	8195
261.174	24225
261.236	17425
261.298	3888
261.359	7708
261.421	13586
261.483	2049
261.545	2577
261.607	-198
261.669	1065
261.731	3271
261.793	13270
261.854	3175
261.916	2438
261.978	2090
262.040	3536
262.102	1104
262.164	3298
262.225	2377
262.287	1728
262.349	5297
262.411	4260
262.472	1323
262.534	3172
262.596	13307
262.658	2851
262.719	-64
262.781	2951
262.843	10378
262.904	4857
262.966	1337
263.028	3560
263.090	20163
263.151	62772
263.213	20187
263.275	9597
263.336	2999
263.398	2443
263.459	283
263.521	956
263.583	5002
263.644	3396
263.706	80
263.767	221
263.829	118
263.891	565
263.952	-726
264.014	-292
264.075	2417
264.137	11518
264.198	3502
264.260	315
264.321	-303
264.383	4406
264.444	17059
264.506	4387
264.567	1004
264.629	5838
264.690	14626
264.752	4398
264.813	873
264.875	247
264.936	292
264.998	695
265.059	-1157
265.120	693
265.182	1221
265.243	15249
265.305	14886
265.366	2942
265.427	625
265.489	572
265.550	-1167
265.611	388
265.673	394
265.734	930
265.795	275
265.857	-666
265.918	-733
265.979	3319
266.040	26726
266.102	23078
266.163	4960
266.224	4319
266.286	1167
266.347	388
266.408	-141
266.469	-13
266.530	-519
266.592	572
266.653	1612
266.714	5269
266.775	519
266.836	662
266.898	-182
266.959	2467
267.020	1203
267.081	915
267.142	-874
267.203	-1374
267.264	-792
267.326	206
267.387	-219
267.448	-1453
267.509	-1026
267.570	-765
267.631	-1180
267.692	-1384
267.753	-1017
267.814	-1000
267.875	1410
267.936	7169
267.997	3392
268.058	3156
268.119	110
268.180	902
268.241	-1174
268.302	68
268.363	-1146
268.424	-133
268.485	168
268.546	17
268.607	-1260
268.668	0
268.729	-914
268.790	139
268.851	-969
268.912	4398
268.972	5366
269.033	1550
269.094	-815
269.155	-204
269.216	-519
269.277	84
269.338	-313
269.398	-404
269.459	30
269.520	1364
269.581	1243
269.642	2986
269.702	949
269.763	399
269.824	-283
269.885	787
269.945	2280
270.006	20
270.067	-790
270.128	-81
270.188	-694
270.249	-160
270.310	-790
270.370	453
270.431	-644
270.492	280
270.553	-616
270.613	2655
270.674	5846
270.734	2173
270.795	-653
270.856	1517
270.916	432
270.977	-766
271.038	378
271.098	536
271.159	1008
271.219	1592
271.280	-296
271.340	385
271.401	-1102
271.462	4245
271.522	1641
271.583	612
271.643	-410
271.704	643
271.764	653
271.825	5036
271.885	19244
271.946	30807
272.006	7973
272.066	12337
272.127	25675
272.187	6991
272.248	2032
272.308	2837
272.369	17206
272.429	9990
272.489	5347
272.550	5614
272.610	4631
272.671	3299
272.731	2937
272.791	6835
272.852	2335
272.912	2284
272.972	538
273.033	206
273.093	1706
273.153	2700
273.214	758
273.274	650
273.334	11462
273.394	25973
273.455	7327
273.515	7878
273.575	20688
273.635	7300
273.696	8684
273.756	23974
273.816	7471
273.876	4252
273.936	9208
273.997	22168
274.057	3692
274.117	2692
274.177	3755
274.237	29111
274.297	26916
274.358	16117
274.418	18213
274.478	14340
274.538	3751
274.598	2584
274.658	15033
274.718	20489
274.778	6948
274.838	3282
274.898	7058
274.958	29795
275.018	24239
275.078	16324
275.138	4724
275.198	2538
275.258	185
275.318	1835
275.378	3291
275.438	5304
275.498	2158
275.558	11467
275.618	27191
275.678	17640
275.738	8755
275.798	7058
275.858	3071
275.918	491
275.978	624
276.038	1936
276.098	145
276.157	3179
276.217	12898
276.277	4869
276.337	2190
276.397	1180
276.457	1762
276.517	1385
276.576	1036
276.636	-331
276.696	684
276.756	6437
276.815	4716
276.875	1016
276.935	854
276.995	772
277.055	277
277.114	637
277.174	1524
277.234	11164
277.293	3177
277.353	1345
277.413	-35
277.472	373
277.532	-259
277.592	192
277.651	2350
277.711	5130
277.771	882
277.830	10645
277.890	8053
277.950	4337
278.009	16216
278.069	6169
278.128	3078
278.188	5416
278.248	1616
278.307	4998
278.367	3444
278.426	325
278.486	-157
278.545	-305
278.605	-229
278.664	-705
278.724	462
278.783	7048
278.843	26103
278.902	6209
278.962	1390
279.021	2635
279.081	697
279.140	443
279.199	740
279.259	747
279.318	564
279.378	1638
279.437	5226
279.496	29438
279.556	72608
279.615	60486
279.675	12089
279.734	6607
279.793	10742
279.853	24953
279.912	8023
279.971	2920
280.031	1948
280.090	8369
280.149	18293
280.208	9413
280.268	50113
280.327	59236
280.386	9583
280.445	8111
280.505	7926
280.564	3388
280.623	2454
280.682	3556
280.742	9040
280.801	1428
280.860	57
280.919	770
280.978	850
281.037	555
281.097	-311
281.156	700
281.215	105
281.274	1284
281.333	14284
281.392	11254
281.451	1014
281.510	803
281.569	289
281.628	459
281.688	-571
281.747	222
281.806	299
281.865	207
281.924	-958
281.983	258
282.042	-1085
282.101	-532
282.160	-696
282.219	-256
282.278	-353
282.337	5492
282.396	3108
282.454	674
282.513	659
282.572	9655
282.631	4685
282.690	417
282.749	-251
282.808	819
282.867	-922
282.926	757
282.985	-677
283.043	-739
283.102	-1115
283.161	192
283.220	3725
283.279	13423
283.338	1829
283.396	348
283.455	313
283.514	415
283.573	1540
283.631	1746
283.690	241
283.749	-527
283.808	1616
283.866	4365
283.925	-848
283.984	270
284.043	631
284.101	94
284.160	-22
284.219	3036
284.277	-39
284.336	1709
284.395	12693
284.453	11807
284.512	2175
284.570	2378
284.629	1108
284.688	709
284.746	-197
284.805	448
284.863	525
284.922	1115
284.981	1023
285.039	3309
285.098	7095
285.156	23350
285.215	91088
285.273	89826
285.332	28227
285.390	12874
285.449	7047
285.507	4273
285.566	2382
285.624	1943
285.683	582
285.741	990
285.799	13
285.858	427
285.916	62
285.975	-306
286.033	-1536
286.091	-860
286.150	-1271
286.208	-162
286.267	296
286.325	398
286.383	1301
286.442	1293
286.500	-818
286.558	47
286.616	-880
286.675	212
286.733	-556
286.791	-538
286.850	667
286.908	2024
286.966	3092
287.024	482
287.083	-463
287.141	-731
287.199	-319
287.257	1369
287.315	52
287.374	820
287.432	4492
287.490	2244
287.548	219
287.606	201
287.664	-478
287.723	2531
287.781	3711
287.839	1162
287.897	728
287.955	2396
288.013	3956
288.071	14056
288.129	56482
288.187	186016
288.245	84273
288.303	23465
288.361	12444
288.419	10115
288.477	6472
288.535	3240
288.593	2690
288.651	1731
288.709	-74
288.767	270
288.825	-418
288.883	443
288.941	-455
288.999	90
289.057	-493
289.115	-256
289.173	380
289.231	29
289.289	91
289.346	400
289.404	281
289.462	1524
289.520	2032
289.578	-147
289.636	171
289.694	-704
289.751	-1506
289.809	-674
289.867	-906
289.925	929
289.983	-19
290.040	-774
290.098	-902
290.156	-483
290.214	-1096
290.271	-668
290.329	-1189
290.387	-141
290.444	-1639
290.502	-1178
290.560	-1212
290.617	-646
290.675	-1261
290.733	-559
290.790	-733
290.848	-562
290.906	-980
290.963	-304
291.021	152
291.078	-801
291.136	-293
291.194	5787
291.251	17732
291.309	3904
291.366	54
291.424	16
291.481	399
291.539	-730
291.596	-1355
291.654	-1077
291.711	-1498
291.769	-655
291.826	858
291.884	483
291.941	-1174
291.999	-503
292.056	100
292.114	-23
292.171	-880
292.228	351
292.286	-859
292.343	2145
292.401	2044
292.458	469
292.515	160
292.573	681
292.630	-122
292.687	246
292.745	-166
292.802	1618
292.859	8782
292.917	14936
292.974	6977
293.031	1450
293.089	36
293.146	-417
293.203	-884
293.260	-505
293.318	442
293.375	3305
293.432	138
293.489	-15
293.546	-1079
293.604	1375
293.661	6926
293.718	27916
293.775	13948
293.832	4707
293.889	2342
293.947	2412
294.004	1860
294.061	1602
294.118	4381
294.175	14552
294.232	21866
294.289	7274
294.346	1839
294.403	1968
294.460	1131
294.517	901
294.574	-480
294.631	-171
294.688	1280
294.745	7341
294.802	33015
294.859	39195
294.916	12486
294.973	5795
295.030	3450
295.087	3051
295.144	1679
295.201	1208
295.258	456
295.315	2114
295.372	9828
295.429	23874
295.486	8759
295.542	5293
295.599	13636
295.656	28906
295.713	17020
295.770	21642
295.827	7475
295.883	3038
295.940	2242
295.997	4571
296.054	4657
296.111	1551
296.167	664
296.224	88
296.281	-366
296.338	97
296.394	-29
296.451	1838
296.508	7280
296.564	18957
296.621	12959
296.678	22446
296.734	38562
296.791	13339
296.848	5145
296.904	5413
296.961	12400
297.018	23608
297.074	19642
297.131	6744
297.187	3903
297.244	7044
297.301	24106
297.357	50667
297.414	17496
297.470	5605
297.527	2530
297.583	2773
297.640	1846
297.696	1182
297.753	-492
297.809	-230
297.866	-354
297.922	508
297.979	-696
298.035	1048
298.092	1728
298.148	11891
298.204	12676
298.261	5369
298.317	9462
298.374	31460
298.430	18816
298.486	7746
298.543	3539
298.599	2862
298.656	2295
298.712	6559
298.768	19604
298.824	17313
298.881	3628
298.937	2108
298.993	988
299.050	1834
299.106	1543
299.162	922
299.218	489
299.275	1456
299.331	1087
299.387	5301
299.443	23459
299.500	29553
299.556	9734
299.612	4170
299.668	2330
299.724	2518
299.780	4212
299.837	1886
299.893	3746
299.949	18672
300.005	25297
300.061	20120
300.117	39932
300.173	20816
300.229	6916
300.285	6038
300.341	8024
300.397	4078
300.453	1120
300.510	1317
300.566	926
300.622	2208
300.678	8222
300.734	19856
300.790	19890
300.845	29121
300.901	15868
300.957	19150
301.013	15023
301.069	5522
301.125	3149
301.181	4212
301.237	1238
301.293	266
301.349	553
301.405	-773
301.461	-591
301.516	780
301.572	583
301.628	3566
301.684	3493
301.740	7441
301.796	12413
301.851	8766
301.907	12128
301.963	16086
302.019	25521
302.074	76313
302.130	79791
302.186	34106
302.242	12239
302.297	7826
302.353	7288
302.409	13685
302.464	12019
302.520	10161
302.576	24228
302.631	32005
302.687	15662
302.743	6273
302.798	3027
302.854	1529
302.910	2332
302.965	3032
303.021	5776
303.076	5635
303.132	6944
303.187	8755
303.243	3712
303.299	1653
303.354	774
303.410	277
303.465	585
303.521	851
303.576	781
303.632	2536
303.687	6624
303.743	23217
303.798	23128
303.853	8484
303.909	2458
303.964	3025
304.020	3389
304.075	6593
304.130	4684
304.186	10763
304.241	11566
304.297	9861
304.352	4101
304.358	3898
304.407	2256
304.449	1983
304.463	1888
304.518	2466
304.539	2269
304.573	1946
304.629	2318
304.630	2392
304.684	6022
304.720	13245
304.739	16804
304.794	31514
304.811	26901
304.850	15419
304.902	5942
304.905	5358
304.960	3576
304.992	3008
305.015	2579
305.071	3116
305.083	2770
305.126	1632
305.173	1192
305.181	1121
305.236	612
305.264	1223
305.292	1880
305.347	1699
305.354	1778
305.402	2134
305.445	2189
305.457	2265
305.512	4377
305.535	4474
305.567	4486
305.622	6025
305.626	6128
305.678	10764
305.716	22720
305.733	26633
305.788	33843
305.807	30021
305.843	24137
305.897	29449
305.898	29468
305.953	31068
305.988	20571
306.008	15126
306.063	8350
306.078	7292
306.118	5274
306.168	3538
306.173	3396
306.228	2164
306.259	2267
306.283	2507
306.338	2692
306.349	2711
306.393	2794
306.440	2952
306.448	3055
306.503	4261
306.530	5202
306.558	9497
306.613	23677
306.620	25615
306.668	32353
306.711	34368
306.723	33553
306.778	24968
306.801	18913
306.833	12695
306.888	5977
306.892	5678
306.943	4424
306.982	3918
306.997	3885
307.052	4330
307.072	4550
307.107	6466
307.162	11031
307.163	11073
307.217	18823
307.253	23896
307.272	24162
307.327	24409
307.343	22188
307.381	16584
307.434	11412
307.436	11916
307.491	28468
307.524	41462
307.546	41845
307.600	34639
307.614	30236
307.655	18512
307.704	9511
307.710	9593
307.765	12774
307.795	16956
307.819	22037
307.874	37523
307.885	38580
307.929	28003
307.975	13551
307.984	12833
308.038	14149
308.065	16614
308.093	28085
308.148	58758
308.156	66145
308.202	105183
308.246	135453
308.257	134484
308.312	76583
308.336	55285
308.366	41406
308.421	27636
308.426	26498
308.475	17389
308.517	11413
308.530	10537
308.585	9267
308.607	8824
308.639	9457
308.694	11776
308.697	11961
308.748	30215
308.787	48224
308.803	46881
308.857	33722
308.877	26757
308.912	20091
308.967	14006
308.967	13920
309.021	15858
309.058	17687
309.076	22181
309.130	39603
309.148	47013
309.185	84858
309.238	150909
309.239	151339
309.293	172286
309.328	155576
309.348	133779
309.402	61586
309.418	44623
309.457	30080
309.508	18391
309.511	17972
309.566	14862
309.598	13536
309.620	14239
309.674	16720
309.688	17664
309.729	17212
309.778	14807
309.783	14621
309.837	12671
309.868	11982
309.892	19061
309.946	36936
309.959	41637
310.001	56158
310.049	71223
310.055	68620
310.109	39389
310.139	22425
310.163	18165
310.218	11620
310.229	10355
310.272	9039
310.319	8352
310.326	8493
310.381	9252
310.409	9766
310.435	9805
310.489	9393
310.499	9335
310.543	10703
310.589	12096
310.598	12287
310.652	13758
310.679	13957
310.706	12028
310.760	8130
310.769	7506
310.814	6218
310.859	5126
310.868	5441
310.923	6832
310.948	7685
310.977	8514
311.031	9754
311.038	9908
311.085	9569
311.128	8921
311.139	8907
311.193	8874
311.218	8823
311.247	8492
311.301	7594
311.308	7472
311.356	8770
311.398	9906
311.410	9737
311.464	8623
311.488	8073
311.518	7634
311.572	6799
311.578	6684
311.626	10073
311.668	13004
311.680	13813
311.734	17126
311.758	18529
311.788	18097
311.842	17198
311.847	17030
311.896	21962
311.937	26150
311.950	25892
312.004	24320
312.027	23481
312.058	18908
312.112	10638
312.117	9778
312.165	9806
312.207	9772
312.297	20901
312.386	17119
312.476	11476
312.566	20194
312.656	9988
312.745	9174
312.835	10694
312.925	13097
313.015	12314
313.104	15695
313.194	8179
313.284	9165
313.374	9488
313.463	9475
313.553	9001
313.643	8253
313.732	6646
313.822	7742
313.912	10128
314.001	11361
314.091	14883
314.180	24222
314.270	14397
314.360	19692
314.449	13295
314.539	9776
314.628	8642
314.718	13021
314.808	18703
314.897	8362
314.987	8023
315.076	10768
315.166	15965
315.255	18094
315.345	13716
315.434	18561
315.524	14863
315.613	16586
315.703	13984
315.792	17840
315.881	33538
315.971	17714
316.060	28312
316.150	58987
316.239	60999
316.328	21894
316.418	8332
316.507	8960
316.597	12401
316.686	12097
316.775	22650
316.865	59879
316.954	11813
317.043	7648
317.133	8206
317.222	8344
317.311	7245
317.400	6851
317.490	10266
317.579	11429
317.668	7694
317.757	12388
317.847	21519
317.936	55713
318.025	31367
318.114	18536
318.203	14510
318.293	18957
318.382	31262
318.471	27032
318.560	38996
318.649	99982
318.738	22927
318.828	14705
318.917	16449
319.006	22891
319.095	59772
319.184	118476
319.273	60758
319.362	29404
319.451	12589
319.540	10963
319.629	22424
319.718	38239
319.807	22009
319.896	37596
319.985	140260
320.074	52888
320.163	19430
320.252	38235
320.341	31539
320.430	27165
320.519	23994
320.608	15421
320.697	13520
320.786	13486
320.875	14790
320.964	17555
321.053	24574
321.142	35388
321.230	38388
321.319	33943
321.408	77476
321.497	37720
321.586	32035
321.675	52285
321.764	50171
321.852	31893
321.941	43980
322.030	28804
322.119	34839
322.207	76016
322.296	82282
322.385	42632
322.474	32604
322.562	80233
322.651	52566
322.740	34965
322.829	55480
322.917	82104
323.006	35913
323.095	26463
323.183	25100
323.272	35818
323.361	49941
323.449	154313
323.538	55917
323.626	119126
323.715	74136
323.804	34183
323.892	115544
323.981	65684
324.069	22457
324.158	67061
324.246	62489
324.335	19716
324.424	26303
324.512	11912
324.601	16221
324.689	30532
324.778	56912
324.866	56571
324.954	17007
325.043	15072
325.131	33431
325.220	66226
325.308	75683
325.397	51698
325.485	30442
325.574	9524
325.662	8652
325.750	10453
325.839	8331
325.927	9295
326.015	13621
326.104	26412
326.192	39886
326.280	10482
326.369	9383
326.457	12898
326.545	20946
326.634	9814
326.722	6717
326.810	7453
326.898	7638
326.987	9091
327.075	21387
327.163	32152
327.251	18484
327.340	20696
327.428	30213
327.516	8430
327.604	7961
327.692	11554
327.781	16668
327.869	31782
327.957	16599
328.045	11822
328.133	7942
328.221	15266
328.309	9200
328.397	7587
328.485	9893
328.574	13354
328.662	40786
328.750	33528
328.838	16731
328.926	8395
329.014	6845
329.102	12967
329.190	41172
329.278	23010
329.366	6662
329.454	7045
329.542	7610
329.630	7498
329.718	7021
329.806	9270
329.893	10636
329.981	11217
330.069	7441
330.157	19514
330.245	48491
330.333	26452
330.421	9830
330.509	13095
330.597	47598
330.684	38716
330.772	19940
330.860	37398
330.948	48150
331.036	17021
331.123	6420
331.211	8596
331.299	14708
331.387	34112
331.475	63859
331.562	19749
331.650	8811
331.738	12345
331.825	22401
331.913	8861
332.001	6886
332.089	14411
332.176	37915
332.264	75360
332.352	58221
332.439	18703
332.527	13145
332.614	12277
332.702	19318
332.790	10805
332.877	30787
332.965	70052
333.052	12793
333.140	12273
333.228	23654
333.315	9165
333.403	12392
333.490	47660
333.578	33064
333.665	10573
333.753	8483
333.840	8035
333.928	13486
334.015	51471
334.103	55011
334.190	154307
334.278	42987
334.365	21553
334.452	14374
334.540	9345
334.627	15612
334.715	25611
334.802	39161
334.889	197433
334.977	171617
335.064	25095
335.151	12495
335.239	15069
335.326	21216
335.413	68519
335.501	94196
335.588	15672
335.675	10932
335.762	17162
335.850	35826
335.937	18121
336.024	44519
336.111	198370
336.199	86613
336.286	17007
336.373	7678
336.460	6169
336.547	7972
336.635	12014
336.722	10471
336.809	10560
336.896	14907
336.983	47235
337.070	116175
337.157	151367
337.245	126590
337.332	91211
337.419	14186
337.506	10457
337.593	13982
337.680	42285
337.767	128075
337.854	37792
337.941	50518
338.028	64579
338.115	20721
338.202	27347
338.289	41407
338.376	132403
338.463	44488
338.550	74991
338.637	77853
338.724	34727
338.811	57786
338.898	12839
338.984	8820
339.071	14343
339.158	12158
339.245	29585
339.332	19984
339.419	39994
339.506	37554
339.593	6010
339.679	5469
339.766	6267
339.853	10274
339.940	19213
340.027	7960
340.113	7304
340.200	10781
340.287	9291
340.374	9812
340.460	16735
340.547	7001
340.634	12194
340.720	43754
340.807	24779
340.894	5854
340.980	8330
341.067	6028
341.154	8304
341.240	8838
341.327	22565
341.414	6464
341.500	5417
341.587	7096
341.674	6980
341.760	14887
341.847	17199
341.933	6422
342.020	3233
342.106	3709
342.193	6176
342.279	11555
342.366	7973
342.452	15011
342.539	9343
342.625	18974
342.712	46497
342.798	19569
342.885	9687
342.971	3484
343.058	3683
343.144	3649
343.230	3840
343.317	4361
343.403	3024
343.490	3498
343.576	3571
343.662	4449
343.749	5988
343.835	9753
343.921	17327
344.008	79061
344.094	185781
344.180	41931
344.267	16631
344.353	57152
344.439	76505
344.525	26222
344.612	8819
344.698	7561
344.784	5698
344.870	4462
344.957	4483
345.043	9009
345.129	6269
345.215	15639
345.301	7526
345.387	4577
345.474	4787
345.560	5896
345.646	11301
345.732	7567
345.818	6277
345.904	5256
345.990	8179
346.076	10783
346.162	27225
346.249	8848
346.335	4615
346.421	5280
346.507	20062
346.593	73909
346.679	19847
346.765	8866
346.851	6347
346.937	5522
347.023	4728
347.108	5883
347.194	4386
347.280	3967
347.366	6795
347.452	19763
347.538	89125
347.624	66759
347.710	66666
347.796	13750
347.882	7611
347.967	6471
348.053	16350
348.139	8362
348.225	4997
348.311	3834
348.397	3851
348.482	6113
348.568	9376
348.654	3325
348.740	5231
348.825	4014
348.911	9839
348.997	41613
349.083	91715
349.168	18476
349.254	4989
349.340	4940
349.425	4903
349.511	7021
349.597	11298
349.682	16104
349.768	52147
349.854	25304
349.939	8693
350.025	4520
350.110	3081
350.196	2151
350.282	1760
350.367	4737
350.453	17319
350.538	16859
350.624	8795
350.709	10271
350.795	5305
350.880	4215
350.966	5626
351.051	13782
351.137	12027
351.222	5490
351.308	14660
351.393	43617
351.479	9831
351.564	3182
351.649	5199
351.735	3565
351.820	2900
351.906	3922
351.991	9564
352.076	29399
352.162	42023
352.247	8421
352.332	5465
352.418	9440
352.503	13557
352.588	65621
352.673	53467
352.759	11333
352.844	6022
352.929	6216
353.014	9299
353.100	6531
353.185	10703
353.270	16657
353.355	17440
353.441	5675
353.526	9691
353.611	15321
353.696	17707
353.781	9970
353.866	4594
353.952	5300
354.037	14988
354.122	33936
354.207	31289
354.292	11986
354.377	5223
354.462	4129
354.547	6914
354.632	7777
354.717	14736
354.802	13886
354.887	4791
354.972	4024
355.057	2862
355.142	2321
355.227	5492
355.312	8671
355.397	21359
355.482	53458
355.567	25349
355.652	19706
355.737	19862
355.822	55884
355.907	45219
355.991	7259
356.076	3678
356.161	5477
356.246	3520
356.331	4667
356.416	12895
356.501	87105
356.585	89764
356.670	13121
356.755	9017
356.840	12599
356.924	60299
357.009	215995
357.094	81887
357.179	19128
357.263	11733
357.348	13559
357.433	16481
357.517	11922
357.602	8587
357.687	5918
357.771	8604
357.856	8160
357.941	10035
358.025	43443
358.110	197340
358.195	91298
358.279	14431
358.364	10760
358.448	40076
358.533	108179
358.617	77263
358.702	76706
358.787	28001
358.871	16501
358.956	13739
359.040	3602
359.125	3139
359.209	2929
359.294	3328
359.378	5018
359.462	12157
359.547	9498
359.631	9773
359.716	3910
359.800	6388
359.885	15820
359.969	7497
360.053	4568
360.138	4919
360.222	7371
360.306	15807
360.391	12189
360.475	13988
360.559	29841
360.644	41141
360.728	31203
360.812	47486
360.896	131294
360.981	67789
361.065	41425
361.149	9497
361.233	8846
361.318	7383
361.402	8257
361.486	7434
361.570	4478
361.654	6805
361.739	20172
361.823	84666
361.907	128471
361.991	22576
362.075	13593
362.159	30728
362.243	21997
362.327	19596
362.411	23559
362.495	16969
362.580	8874
362.664	5552
362.748	4070
362.832	5597
362.916	8700
363.000	31156
363.084	103478
363.168	154671
363.252	36103
363.336	15733
363.420	23816
363.503	99073
363.587	113777
363.671	18447
363.755	13313
363.839	19199
363.923	6428
364.007	16744
364.091	23080
364.175	37292
364.258	149424
364.342	84845
364.426	69731
364.510	41608
364.594	26560
364.677	30468
364.761	112359
364.845	78705
364.929	28470
365.013	22852
365.096	18194
365.180	23534
365.264	37272
365.347	152373
365.431	73819
365.515	24078
365.598	7191
365.682	7179
365.766	24610
365.849	31364
365.933	11816
366.017	20467
366.100	18275
366.184	5996
366.267	7010
366.351	3791
366.435	2510
366.518	2418
366.602	2736
366.685	4990
366.769	6077
366.852	20156
366.936	31002
367.019	13113
367.103	15963
367.186	37438
367.270	7490
367.353	1929
367.436	3563
367.520	3175
367.603	5351
367.687	8924
367.770	18562
367.853	10596
367.937	36224
368.020	61607
368.104	14902
368.187	14685
368.270	20883
368.353	18949
368.437	35646
368.520	107381
368.603	52908
368.687	44173
368.770	78921
368.853	19393
368.936	25996
369.020	33029
369.103	8610
369.186	4411
369.269	4796
369.352	13032
369.436	23019
369.519	13366
369.602	4040
369.685	7882
369.768	7885
369.851	7356
369.934	3281
370.018	8272
370.101	15685
370.184	16058
370.267	12936
370.350	17353
370.433	30268
370.516	65462
370.599	78323
370.682	25470
370.765	47462
370.848	53033
370.931	99850
371.014	44900
371.097	8202
371.180	5411
371.263	2131
371.346	1743
371.429	3373
371.511	5070
371.594	11570
371.677	24865
371.760	34976
371.843	17248
371.926	71862
372.009	170976
372.091	53409
372.174	40855
372.257	95437
372.340	35395
372.423	43411
372.505	59011
372.588	19509
372.671	28695
372.754	91581
372.836	45179
372.919	47262
373.002	101272
373.085	25102
373.167	14868
373.250	38855
373.332	89870
373.415	108390
373.498	226009
373.580	81769
373.663	108383
373.746	145926
373.828	34791
373.911	18448
373.993	21312
374.076	94482
374.159	95303
374.241	31695
374.324	82007
374.406	50599
374.489	66021
374.571	198051
374.654	78917
374.736	38258
374.819	124122
374.901	161450
374.983	162941
375.066	28786
375.148	14193
375.231	69861
375.313	145273
375.395	60288
375.478	11684
375.560	6436
375.643	9725
375.725	36990
375.807	150955
375.890	148212
375.972	91232
376.054	44416
376.136	92938
376.219	33765
376.301	41369
376.383	123033
376.465	44623
376.548	29284
376.630	36104
376.712	105062
376.794	45358
376.877	5465
376.959	3632
377.041	6177
377.123	29244
377.205	33156
377.287	3974
377.369	3194
377.452	3962
377.534	2721
377.616	3862
377.698	3502
377.780	2149
377.862	3804
377.944	5179
378.026	2140
378.108	3386
378.190	2708
378.272	4023
378.354	2546
378.436	2440
378.518	11936
378.600	55523
378.682	35514
378.764	55095
378.846	43060
378.928	16992
379.010	19183
379.091	9304
379.173	3417
379.255	2941
379.337	6412
379.419	24619
379.501	76351
379.583	33681
379.664	8871
379.746	19252
379.828	56294
379.910	74057
379.991	61166
380.073	10940
380.155	8115
380.237	5321
380.318	2110
380.400	3420
380.482	11915
380.564	18898
380.645	18890
380.727	18017
380.809	8731
380.890	6371
380.972	3910
381.053	4117
381.135	6741
381.217	16285
381.298	59397
381.380	28710
381.461	23573
381.543	100700
381.624	120004
381.706	22403
381.787	15259
381.869	13685
381.951	39953
382.032	170210
382.113	106395
382.195	25724
382.276	15859
382.358	30945
382.439	96349
382.521	100699
382.602	155688
382.684	64976
382.765	123218
382.846	91809
382.928	41213
383.009	20988
383.090	14211
383.172	49714
383.253	80011
383.334	60196
383.416	129171
383.497	59903
383.578	13238
383.659	22484
383.741	47209
383.822	121460
383.903	64393
383.984	64890
384.066	162362
384.147	98931
384.228	18262
384.309	14629
384.390	8964
384.471	6416
384.553	9016
384.634	16190
384.715	15488
384.796	5829
384.877	8321
384.958	46042
385.039	57848
385.120	20098
385.201	9022
385.282	20063
385.363	24217
385.444	12010
385.525	17565
385.606	75653
385.687	65826
385.768	22930
385.849	27017
385.930	83673
386.011	143477
386.092	38282
386.173	9388
386.254	11995
386.335	12320
386.416	10147
386.496	34727
386.577	61592
386.658	34388
386.739	20757
386.820	24288
386.901	20550
386.981	14037
387.062	6810
387.143	11564
387.224	54183
387.304	55635
387.385	23421
387.466	17905
387.547	27162
387.627	12197
387.708	20286
387.789	94280
387.869	117482
387.950	30646
388.031	7103
388.111	11307
388.192	45908
388.273	73495
388.353	35295
388.434	10310
388.514	18203
388.595	88333
388.676	114943
388.756	54585
388.837	54109
388.917	31193
388.998	7913
389.078	7574
389.159	5764
389.239	3397
389.320	11156
389.400	8301
389.480	27340
389.561	67157
389.641	28952
389.722	11535
389.802	19354
389.883	26500
389.963	74621
390.043	62425
390.124	27929
390.204	19781
390.284	61697
390.365	40229
390.445	66304
390.525	93805
390.605	57441
390.686	27057
390.766	8955
390.846	5228
390.927	3248
391.007	4163
391.087	9491
391.167	6542
391.247	5562
391.328	22438
391.408	36750
391.488	23068
391.568	5372
391.648	7327
391.728	11503
391.808	10310
391.888	12408
391.969	31585
392.049	54041
392.129	30881
392.209	31038
392.289	66203
392.369	40211
392.449	55580
392.529	30247
392.609	16538
392.689	19796
392.769	62375
392.849	53200
392.929	45591
393.009	113312
393.089	69156
393.169	43529
393.248	129625
393.328	470951
393.408	491204
393.488	137848
393.568	39447
393.648	20966
393.728	12951
393.807	9356
393.887	7924
393.967	7176
394.047	8405
394.127	10517
394.206	13961
394.286	49099
394.366	217532
394.446	220585
394.525	45903
394.605	13395
394.685	18794
394.764	68126
394.844	112609
394.924	70779
395.003	15478
395.083	9234
395.163	7198
395.242	7338
395.322	7435
395.402	3255
395.481	9838
395.561	38414
395.640	112663
395.720	73172
395.799	113768
395.879	82286
395.958	24784
396.038	70097
396.117	283742
396.197	301039
396.276	108219
396.356	50652
396.435	49360
396.515	25398
396.594	22621
396.673	41650
396.753	141073
396.832	435972
396.912	334224
396.991	87537
397.070	24012
397.150	12670
397.229	9955
397.308	11558
397.388	20111
397.467	10071
397.546	4589
397.625	3170
397.705	7619
397.784	8824
397.863	3581
397.942	3468
398.022	4939
398.101	35029
398.180	112992
398.259	66536
398.338	15096
398.417	7851
398.497	7410
398.576	7680
398.655	2715
398.734	3123
398.813	4085
398.892	30285
398.971	115589
399.050	55091
399.129	5014
399.208	3421
399.287	3290
399.366	2076
399.445	3221
399.524	4346
399.603	2620
399.682	8600
399.761	29642
399.840	116473
399.919	89667
399.998	12096
400.077	2048
400.156	1790
400.235	7517
400.313	5149
400.392	8029
400.471	30054
400.550	47042
400.629	13745
400.708	6795
400.786	9991
400.865	38072
400.944	41033
401.023	14644
401.102	1585
401.180	1661
401.259	5063
401.338	8323
401.416	10018
401.495	7421
401.574	9132
401.652	5100
401.731	10113
401.810	7880
401.888	2868
401.967	434
402.046	1104
402.124	7592
402.203	12728
402.281	5656
402.360	8875
402.438	44354
402.517	33138
402.596	10532
402.674	12267
402.753	5172
402.831	3056
402.910	3999
402.988	21750
403.066	75153
403.145	38444
403.223	19857
403.302	54132
403.380	38439
403.459	39055
403.537	15901
403.615	7145
403.694	606
403.772	1247
403.850	1321
403.929	941
404.007	1749
404.085	7536
404.164	7633
404.242	1907
404.320	4568
404.398	13474
404.477	26243
404.555	124431
404.633	105143
404.711	17017
404.789	5220
404.868	3648
404.946	1196
405.024	1138
405.102	-710
405.180	-269
405.258	-422
405.336	2275
405.415	2734
405.493	13233
405.571	10615
405.649	1732
405.727	2043
405.805	7284
405.883	5479
405.961	8595
406.039	14721
406.117	3832
406.195	5703
406.273	27600
406.351	110830
406.429	70021
406.507	19990
406.585	5582
406.663	2568
406.740	5017
406.818	5049
406.896	3066
406.974	2861
407.052	7446
407.130	63426
407.208	87682
407.285	14939
407.363	1941
407.441	1981
407.519	1772
407.596	2894
407.674	9559
407.752	26434
407.830	44250
407.907	24473
407.985	5642
408.063	1265
408.141	1821
408.218	11049
408.296	10769
408.373	2976
408.451	3380
408.529	2900
408.606	621
408.684	-285
408.762	-340
408.839	-945
408.917	-56
408.994	-584
409.072	282
409.149	102
409.227	1428
409.304	3396
409.382	2239
409.459	1485
409.537	5727
409.614	3567
409.692	1645
409.769	1780
409.846	6181
409.924	9316
410.001	4913
410.079	2276
410.156	2482
410.233	470
410.311	540
410.388	-124
410.465	1753
410.543	1685
410.620	812
410.697	1521
410.775	2768
410.852	-931
410.929	2843
411.006	5103
411.083	1834
411.161	6594
411.238	13852
411.315	9189
411.392	1663
411.469	3294
411.547	3191
411.624	-824
411.701	424
411.778	1612
411.855	7779
411.932	2976
412.009	2027
412.086	1325
412.163	4218
412.240	6778
412.317	8415
412.394	7529
412.471	894
412.548	-220
412.625	1319
412.702	4280
412.779	11354
412.856	3950
412.933	1382
413.010	550
413.087	4174
413.164	25887
413.241	39127
413.318	7508
413.395	4323
413.471	6292
413.548	2908
413.625	1789
413.702	5852
413.779	3755
413.855	239
413.932	-356
414.009	-459
414.086	168
414.162	343
414.239	4884
414.316	28633
414.393	58659
414.469	18045
414.546	514
414.623	71
414.699	-147
414.776	2361
414.853	992
414.929	1484
415.006	2417
415.082	7483
415.159	3186
415.236	1523
415.312	1177
415.389	5115
415.465	8002
415.542	3657
415.618	197
415.695	5109
415.771	2510
415.848	3420
415.924	4628
416.000	4556
416.077	1293
416.153	-798
416.230	-1700
416.306	-863
416.383	1649
416.459	668
416.535	-1440
416.612	410
416.688	3
416.764	-76
416.841	-637
416.917	1475
416.993	527
417.069	2878
417.146	4610
417.222	5311
417.298	2005
417.374	914
417.451	1774
417.527	2390
417.603	3484
417.679	1801
417.755	972
417.831	-517
417.908	-745
417.984	-181
418.060	-806
418.136	6507
418.212	8876
418.288	2552
418.364	1750
418.440	1463
418.516	4382
418.592	13937
418.668	19116
418.744	18672
418.820	12600
418.896	3143
418.972	-516
419.048	661
419.124	8100
419.200	5052
419.276	303
419.352	-1382
419.428	-877
419.504	262
419.579	1693
419.655	1514
419.731	1038
419.807	11603
419.883	21694
419.959	13859
420.034	2168
420.110	7630
420.186	36097
420.262	26828
420.337	5192
420.413	3677
420.489	-446
420.565	298
420.640	351
420.716	778
420.792	-914
420.867	989
420.943	-41
421.019	4853
421.094	2822
421.170	1498
421.245	-18
421.321	456
421.397	251
421.472	3975
421.548	12015
421.623	9466
421.699	3452
421.774	2337
421.850	1995
421.925	6203
422.001	5183
422.076	2809
422.152	3915
422.227	9297
422.302	10017
422.378	13607
422.453	27911
422.529	68963
422.604	201074
422.679	327072
422.755	216238
422.830	75368
422.905	28324
422.981	14889
423.056	8366
423.131	6694
423.207	3906
423.282	5342
423.357	11778
423.432	7025
423.508	6048
423.583	18628
423.658	13661
423.733	5493
423.808	7837
423.883	6343
423.959	4163
424.034	2651
424.109	1465
424.184	473
424.259	-510
424.334	-252
424.409	-700
424.484	873
424.559	1135
424.634	1172
424.709	2085
424.784	3565
424.859	1968
424.934	6227
425.009	26725
425.084	43504
425.159	14647
425.234	2521
425.309	-939
425.384	-180
425.459	-1244
425.534	1457
425.609	3877
425.683	2381
425.758	275
425.833	2193
425.908	3428
425.983	14668
426.058	46922
426.132	20766
426.207	5478
426.282	14565
426.357	13179
426.431	2519
426.506	2001
426.581	3445
426.655	2423
426.730	1339
426.805	335
426.879	1241
426.954	1762
427.029	8676
427.103	40208
427.178	98435
427.253	41982
427.327	6304
427.402	10043
427.476	19959
427.551	5308
427.625	5318
427.700	5634
427.774	2801
427.849	5889
427.923	1662
427.998	626
428.072	3340
428.147	11563
428.221	32273
428.296	82041
428.370	37067
428.444	8241
428.519	17529
428.593	39504
428.667	31096
428.742	38870
428.816	29878
428.890	70665
428.965	87931
429.039	38861
429.113	47106
429.188	13913
429.262	1850
429.336	5880
429.410	23936
429.485	17960
429.559	31935
429.633	22780
429.707	4502
429.781	15928
429.855	90286
429.930	121188
430.004	89987
430.078	144927
430.152	104779
430.226	97092
430.300	89482
430.374	14512
430.448	8337
430.522	37810
430.596	117950
430.670	62344
430.744	90640
430.818	133049
430.892	27628
430.966	4397
431.040	2372
431.114	83
431.188	1320
431.262	2229
431.336	2637
431.410	14688
431.484	47173
431.557	23195
431.631	2214
431.705	1426
431.779	12566
431.853	62834
431.927	43748
432.000	4236
432.074	1662
432.148	6623
432.222	5835
432.295	1162
432.369	297
432.443	5570
432.516	43631
432.590	101180
432.664	40416
432.737	4762
432.811	-308
432.885	-560
432.958	-227
433.032	-1935
433.106	-891
433.179	-1277
433.253	-1399
433.326	-1462
433.400	-1382
433.473	-631
433.547	-681
433.620	-655
433.694	3093
433.767	4910
433.841	2346
433.914	-1023
433.988	-651
434.061	-622
434.134	-682
434.208	-1588
434.281	-1369
434.355	-524
434.428	-459
434.501	-1903
434.575	66
434.648	1076
434.721	-266
434.795	-1595
434.868	-1775
434.941	-2154
435.014	-1972
435.088	-1075
435.161	-936
435.234	462
435.307	3707
435.381	-366
435.454	162
435.527	1451
435.600	830
435.673	451
435.746	18
435.819	-476
435.892	-852
435.966	-933
436.039	652
436.112	439
436.185	-185
436.258	-1598
436.331	-2190
436.404	-2578
436.477	-1068
436.550	-1745
436.623	-592
436.696	-1509
436.769	539
436.842	397
436.915	2531
436.987	4203
437.060	599
437.133	-1161
437.206	-171
437.279	110
437.352	-1414
437.425	-1419
437.498	-268
437.570	4106
437.643	4787
437.716	-250
437.789	-897
437.861	1705
437.934	9268
438.007	3424
438.080	-639
438.152	446
438.225	3611
438.298	46172
438.370	134549
438.443	53014
438.516	9357
438.588	199
438.661	-1247
438.734	-831
438.806	2247
438.879	1024
438.951	1482
439.024	3433
439.096	-263
439.169	-373
439.241	-605
439.314	-515
439.386	6170
439.459	10875
439.531	14093
439.604	2484
439.676	-367
439.749	-1385
439.821	-1016
439.893	-882
439.966	546
440.038	850
440.110	1584
440.183	-519
440.255	-1122
440.327	2637
440.400	24397
440.472	95530
440.544	58962
440.617	6389
440.689	3556
440.761	4210
440.833	8399
440.905	4921
440.978	-1020
441.050	-881
441.122	-981
441.194	-957
441.266	17
441.338	-1151
441.411	2989
441.483	27212
441.555	42274
441.627	9621
441.699	10547
441.771	10864
441.843	1721
441.915	-786
441.987	-499
442.059	-1121
442.131	2486
442.203	6261
442.275	8023
442.347	6273
442.419	5055
442.491	28386
442.563	75525
442.635	42399
442.706	43249
442.778	28330
442.850	3057
442.922	119
442.994	3559
443.066	6476
443.137	4642
443.209	2377
443.281	3724
443.353	12951
443.425	45955
443.496	138796
443.568	134002
443.640	48543
443.711	10871
443.783	4487
443.855	2217
443.926	936
443.998	2673
444.070	7042
444.141	4493
444.213	4527
444.285	7142
444.356	8784
444.428	8699
444.499	1999
444.571	-488
444.642	266
444.714	1274
444.785	4665
444.857	11089
444.928	35386
445.000	18411
445.071	23411
445.143	25456
445.214	8935
445.285	18450
445.357	61792
445.428	109605
445.500	232094
445.571	161893
445.642	75654
445.714	46744
445.785	53303
445.856	12457
445.928	7302
445.999	4771
446.070	2840
446.141	3731
446.213	6740
446.284	3956
446.355	7348
446.426	4148
446.497	2381
446.569	10761
446.640	13635
446.711	6321
446.782	1271
446.853	8208
446.924	5845
446.995	1837
447.066	4601
447.138	14028
447.209	4502
447.280	-975
447.351	-1385
447.422	56
447.493	3791
447.564	4649
447.635	4460
447.706	844
447.777	-1080
447.847	-305
447.918	494
447.989	5475
448.060	8032
448.131	25004
448.202	17782
448.273	9689
448.344	2977
448.414	1438
448.485	-159
448.556	581
448.627	-730
448.698	-378
448.768	-504
448.839	1725
448.910	11784
448.981	8291
449.051	51
449.122	-355
449.193	-919
449.263	1174
449.334	-208
449.405	2132
449.475	7453
449.546	7674
449.616	13112
449.687	9195
449.758	1136
449.828	792
449.899	-142
449.969	-987
450.040	-489
450.110	3433
450.181	4815
450.251	608
450.322	-722
450.392	1376
450.463	99
450.533	-44
450.604	989
450.674	1408
450.744	249
450.815	130
450.885	10
450.955	-208
451.026	-918
451.096	1129
451.166	3155
451.237	15867
451.307	39627
451.377	12819
451.447	1062
451.518	12
451.588	1142
451.658	1544
451.728	6395
451.799	39270
451.869	42086
451.939	9174
452.009	1612
452.079	269
452.149	1150
452.219	8650
452.289	46706
452.360	30188
452.430	3965
452.500	2356
452.570	3095
452.640	6474
452.710	27696
452.780	42402
452.850	21171
452.920	15635
452.990	5240
453.060	1988
453.129	5794
453.199	9081
453.269	37688
453.339	80933
453.409	124231
453.479	132970
453.549	195421
453.619	219508
453.688	81481
453.758	11731
453.828	3716
453.898	3193
453.968	1310
454.037	1351
454.087	1176
454.107	1099
454.168	339
454.177	215
454.247	105
454.249	107
454.316	-156
454.330	352
454.386	2284
454.411	9512
454.456	21798
454.492	27122
454.525	32002
454.574	15022
454.595	7620
454.655	2225
454.665	1352
454.734	2876
454.736	3023
454.804	8495
454.817	14281
454.873	38800
454.898	41007
454.943	45070
454.979	29925
455.013	16165
455.060	7535
455.082	3712
455.141	4311
455.152	4354
455.221	23688
455.222	23953
455.291	48342
455.303	43126
455.360	18922
455.384	19091
455.430	18536
455.465	19139
455.499	19756
455.546	31167
455.569	36666
455.627	21931
455.638	19269
455.707	2458
455.708	2461
455.777	771
455.789	951
455.846	1788
455.869	1262
455.916	258
455.950	772
455.985	1264
456.031	1591
456.054	1670
456.112	531
456.124	358
456.193	3
456.193	-13
456.262	2085
456.274	2385
456.332	3646
456.355	4576
456.401	6209
456.436	4170
456.470	2213
456.516	828
456.540	99
456.597	16
456.609	22
456.678	253
456.678	243
456.747	-91
456.759	-144
456.817	-171
456.840	68
456.886	147
456.920	-228
456.955	-400
457.001	71
457.024	409
457.082	1609
457.093	1819
457.162	4090
457.163	4109
457.232	7802
457.243	6980
457.301	2862
457.324	1968
457.370	476
457.405	261
457.439	284
457.485	467
457.508	396
457.566	820
457.577	922
457.646	1234
457.647	1244
457.715	1497
457.727	1767
457.784	3728
457.808	5705
457.853	8570
457.889	10495
457.922	11389
457.969	7247
457.991	6418
458.050	7418
458.060	7585
458.129	14056
458.130	14223
458.198	17347
458.211	15815
458.267	9378
458.292	6840
458.336	3970
458.372	3268
458.405	3400
458.453	5127
458.474	6459
458.533	12360
458.543	12914
458.611	26497
458.614	26533
458.680	19409
458.694	16083
458.749	7576
458.775	5750
458.818	3114
458.855	2379
458.887	1773
458.936	1071
458.955	906
459.016	1054
459.024	1144
459.093	2179
459.097	2216
459.162	1527
459.177	1464
459.230	2055
459.257	2494
459.299	2556
459.338	2158
459.368	2060
459.418	2376
459.437	2367
459.499	1608
459.505	1593
459.574	2055
459.579	2069
459.643	1615
459.659	1520
459.711	1481
459.740	1496
459.780	1419
459.820	1752
459.849	2092
459.900	2740
459.917	2820
459.981	3127
459.986	3143
460.054	1379
460.061	1374
460.123	1994
460.141	2049
460.191	2297
460.222	2899
460.260	3180
460.302	3306
460.328	3362
460.382	2717
460.397	2604
460.462	1728
460.465	1730
460.534	3777
460.543	3891
460.602	10367
460.623	13306
460.671	21694
460.703	30610
460.739	30524
460.783	26589
460.808	23842
460.864	7203
460.876	5361
460.944	2223
460.945	2192
461.013	2552
461.024	2551
461.081	2149
461.104	2313
461.150	2351
461.184	2266
461.218	2296
461.264	1774
461.286	1522
461.345	1470
461.355	1565
461.423	2107
461.425	2124
461.491	2439
461.505	2488
461.559	4664
461.585	5988
461.628	9878
461.665	15033
461.696	18049
461.745	29686
461.764	30757
461.825	13444
461.832	12295
461.901	3557
461.905	3484
461.969	3103
461.985	2901
462.037	2780
462.065	2814
462.105	2876
462.145	3307
462.173	4932
462.225	8129
462.241	8809
462.305	15913
462.310	15947
462.378	14490
462.385	13158
462.446	5151
462.465	4237
462.514	3252
462.545	3326
462.582	3115
462.625	2631
462.650	2478
462.705	2557
462.718	2795
462.785	3621
462.786	3636
462.854	5129
462.865	5503
462.922	7781
462.945	9039
462.990	8569
463.025	5349
463.058	3780
463.104	3357
463.126	3151
463.184	2833
463.194	2824
463.262	2831
463.264	2847
463.330	2953
463.344	2949
463.398	3982
463.424	4308
463.466	3634
463.504	3522
463.533	4029
463.583	4282
463.601	4223
463.663	3755
463.669	3783
463.737	4782
463.743	4920
463.805	9064
463.823	10132
463.873	15493
463.903	20033
463.940	22545
463.982	27216
464.008	25536
464.062	13557
464.076	12048
464.142	4041
464.144	3890
464.211	2737
464.221	2663
464.279	2691
464.301	2833
464.347	3854
464.381	4440
464.414	4604
464.461	5207
464.482	5502
464.540	6627
464.550	6493
464.617	4380
464.620	4289
464.685	3997
464.699	4157
464.753	5546
464.779	6101
464.820	6758
464.859	7458
464.888	7139
464.938	6488
464.956	6829
465.018	8511
465.023	8411
465.091	6387
465.098	6122
465.158	4982
465.177	4781
465.226	4962
465.257	5098
465.293	5428
465.336	5832
465.361	6180
465.416	6924
465.428	7542
465.495	11019
465.496	11074
465.563	17365
465.575	18648
465.631	23733
465.654	26508
465.698	19486
465.734	10557
465.765	8420
465.813	6032
465.833	5575
465.893	5563
465.900	5567
465.968	5725
465.972	5718
466.035	4724
466.052	4464
466.102	5388
466.131	5868
466.170	5399
466.210	4908
466.237	5377
466.290	6371
466.304	6416
466.369	6418
466.372	6462
466.439	7449
466.449	7589
466.506	7808
466.528	7848
466.573	10496
466.607	12532
466.641	17623
466.687	24700
466.708	27708
466.766	36915
466.775	34395
466.842	14440
466.845	13469
466.909	9505
466.925	8802
466.977	7736
467.004	7271
467.044	7686
467.083	8131
467.111	8753
467.163	9872
467.178	10127
467.242	11125
467.245	11093
467.312	10109
467.321	9965
467.379	9403
467.400	9176
467.446	10112
467.480	10764
467.559	9811
467.638	7330
467.717	8477
467.796	9238
467.875	9621
467.955	8642
468.034	12018
468.113	28599
468.192	41081
468.271	13192
468.350	8647
468.429	8739
468.508	10178
468.588	7994
468.667	7983
468.746	9462
468.825	9278
468.904	6633
468.983	7874
469.062	12316
469.141	16463
469.220	7344
469.299	6975
469.378	7146
469.456	9993
469.535	6744
469.614	8607
469.693	7862
469.772	11358
469.851	14231
469.930	11407
470.009	6747
470.088	6996
470.166	6975
470.245	8144
470.324	8122
470.403	6704
470.482	7195
470.560	6898
470.639	6773
470.718	8650
470.797	7443
470.875	8632
470.954	12397
471.033	14653
471.111	6178
471.190	6229
471.269	5528
471.347	5315
471.426	6190
471.505	6996
471.583	8281
471.662	7405
471.740	6494
471.819	6985
471.898	5731
471.976	6817
472.055	6785
472.133	7139
472.212	10028
472.290	9944
472.369	6142
472.447	7221
472.526	5560
472.604	6491
472.683	6314
472.761	6880
472.839	6065
472.918	6276
472.996	5550
473.075	8217
473.153	7476
473.231	5976
473.310	7171
473.388	7609
473.466	6589
473.545	8030
473.623	9245
473.701	9211
473.780	5713
473.858	6342
473.936	8564
474.014	6047
474.093	6518
474.171	11079
474.249	15189
474.327	10323
474.405	5194
474.484	5010
474.562	5389
474.640	6642
474.718	6559
474.796	7042
474.874	5941
474.952	5390
475.030	4543
475.108	5481
475.187	6804
475.265	6583
475.343	7475
475.421	8442
475.499	5708
475.577	6921
475.655	7926
475.733	17490
475.811	29423
475.889	27097
475.966	20171
476.044	6397
476.122	6272
476.200	7449
476.278	6535
476.356	6630
476.434	6338
476.512	8165
476.590	8346
476.667	8341
476.745	4364
476.823	6122
476.901	6111
476.979	6980
477.056	6507
477.134	7168
477.212	7032
477.290	7078
477.367	5673
477.445	6366
477.523	5351
477.601	5419
477.678	5652
477.756	7774
477.834	8340
477.911	6426
477.989	5991
478.066	6570
478.144	6280
478.222	6908
478.299	7781
478.377	8163
478.454	5318
478.532	4854
478.609	4727
478.687	6268
478.764	5142
478.842	5257
478.919	5181
478.997	6375
479.074	4796
479.152	6848
479.229	8176
479.307	6424
479.384	4947
479.461	4873
479.539	5374
479.616	6886
479.694	5678
479.771	6218
479.848	6371
479.926	8659
480.003	10386
480.080	5513
480.157	4587
480.235	4911
480.312	5209
480.389	5084
480.467	10765
480.544	14172
480.621	6922
480.698	5757
480.775	6762
480.853	7453
480.930	6348
481.007	6456
481.084	6438
481.161	7855
481.238	6635
481.315	5303
481.392	4102
481.470	5860
481.547	5834
481.624	5853
481.701	4989
481.778	4758
481.855	6005
481.932	10349
482.009	17197
482.086	14249
482.163	5215
482.240	6227
482.317	9625
482.393	9638
482.470	5429
482.547	5957
482.624	5306
482.701	5570
482.778	5476
482.855	5423
482.932	4626
483.009	4293
483.085	5338
483.162	6251
483.239	5238
483.316	4107
483.393	5334
483.469	5574
483.546	5837
483.623	7870
483.699	5674
483.776	5554
483.853	5859
483.930	9460
484.006	23467
484.083	42853
484.160	23187
484.236	27650
484.313	20913
484.389	16655
484.466	14410
484.543	12913
484.619	13277
484.696	15767
484.772	14988
484.849	17773
484.925	13574
485.002	12761
485.078	13550
485.155	13966
485.231	11521
485.308	12162
485.384	12993
485.461	15591
485.537	25104
485.614	34614
485.690	14056
485.766	12070
485.843	11722
485.919	15287
485.995	15959
486.072	11612
486.148	10799
486.224	11392
486.301	11033
486.377	14043
486.453	12812
486.530	13556
486.606	17028
486.682	19515
486.758	23568
486.835	27702
486.911	20713
486.987	33528
487.063	33956
487.139	32716
487.215	24655
487.292	14809
487.368	11986
487.444	13016
487.520	14997
487.596	14575
487.672	19574
487.748	44116
487.824	63911
487.900	25881
487.976	13552
488.052	12954
488.128	14387
488.204	12395
488.280	12732
488.356	13699
488.432	29293
488.508	46854
488.584	18675
488.660	10402
488.736	10845
488.812	10687
488.888	13784
488.964	16475
489.039	29823
489.115	46493
489.191	30693
489.267	12687
489.343	10463
489.418	9537
489.494	9417
489.570	8051
489.646	11131
489.722	9767
489.797	9185
489.873	14613
489.949	34469
490.024	33824
490.100	9873
490.176	8990
490.251	10453
490.327	13267
490.403	8496
490.478	9244
490.554	7327
490.629	7042
490.705	6525
490.781	8677
490.856	7469
490.932	10376
491.007	8247
491.083	8660
491.158	8865
491.234	11800
491.309	25567
491.385	30892
491.460	9331
491.536	10668
491.611	7831
491.686	8999
491.762	10139
491.837	20283
491.913	33290
491.988	46920
492.063	56717
492.139	22157
492.214	14499
492.289	7020
492.365	6588
492.440	8282
492.515	8538
492.590	8519
492.666	6229
492.741	10613
492.816	15644
492.891	10253
492.967	6908
493.042	6781
493.117	6516
493.192	7323
493.267	10826
493.342	29736
493.418	39336
493.493	9002
493.568	6394
493.643	6645
493.718	8055
493.793	12563
493.868	14216
493.943	7621
494.018	6566
494.093	6367
494.168	6999
494.243	5393
494.318	5862
494.393	6717
494.468	4770
494.543	5238
494.618	5302
494.693	6133
494.768	5978
494.842	5749
494.917	4600
494.992	6132
495.067	4864
495.142	5098
495.217	5843
495.292	5529
495.366	6476
495.441	8845
495.516	10568
495.591	13486
495.665	38410
495.740	92867
495.815	43911
495.890	9513
495.964	5918
496.039	9034
496.114	7494
496.188	8240
496.263	8284
496.338	7967
496.412	8207
496.487	11471
496.561	9982
496.636	10252
496.710	8584
496.785	9908
496.860	11366
496.934	8961
497.009	7955
497.083	7658
497.158	7792
497.232	10644
497.307	13120
497.381	10011
497.455	12120
497.530	18929
497.604	12488
497.679	12083
497.753	20492
497.827	27552
497.902	23885
497.976	25613
498.050	47996
498.125	193671
498.199	234280
498.273	41977
498.348	25382
498.422	20058
498.496	17411
498.570	15809
498.645	11716
498.719	12276
498.793	15588
498.867	23413
498.941	30205
499.016	74509
499.090	216497
499.164	105155
499.238	11530
499.312	9103
499.386	9894
499.460	10442
499.534	10341
499.609	11789
499.683	18453
499.757	19570
499.831	31998
499.905	139509
499.979	161578
500.053	29474
500.127	24819
500.201	15421
500.275	10551
500.349	9815
500.422	11614
500.496	15293
500.570	27586
500.644	75363
500.718	160567
500.792	51112
500.866	11226
500.940	14222
501.013	13230
501.087	11124
501.161	17427
501.235	22041
501.309	49964
501.382	138323
501.456	145310
501.530	31654
501.603	50113
501.677	26428
501.751	7723
501.825	11641
501.898	18660
501.972	59424
502.046	47968
502.119	11268
502.193	23644
502.266	64457
502.340	41351
502.413	27166
502.487	60592
502.561	40487
502.634	13113
502.708	8680
502.781	7358
502.855	6873
502.928	5085
503.002	6442
503.075	5410
503.149	7056
503.222	6665
503.295	7932
503.369	9404
503.442	12398
503.516	39813
503.589	114763
503.662	88324
503.736	24926
503.809	50757
503.882	49809
503.956	58382
504.029	63898
504.102	29600
504.175	36716
504.249	13722
504.322	10952
504.395	9862
504.468	7626
504.542	6024
504.615	5932
504.688	4580
504.761	3315
504.834	7354
504.907	6180
504.980	9761
505.053	6781
505.127	5376
505.200	11823
505.273	10049
505.346	7673
505.419	4913
505.492	5157
505.565	4153
505.638	3955
505.711	4228
505.784	4490
505.857	3909
505.930	6506
506.003	4075
506.076	6808
506.149	7203
506.221	10178
506.294	8763
506.367	18551
506.440	76017
506.513	55366
506.586	11097
506.659	6781
506.731	5515
506.804	5964
506.877	7579
506.950	7267
507.022	4809
507.095	5368
507.168	8911
507.241	6430
507.313	3424
507.386	3273
507.459	7503
507.531	4200
507.604	3720
507.677	5527
507.749	2502
507.822	6913
507.894	10170
507.967	12726
508.040	6484
508.112	6347
508.185	5463
508.257	5086
508.330	9180
508.402	5855
508.475	5083
508.547	6476
508.620	6020
508.692	11101
508.765	7599
508.837	5151
508.909	5721
508.982	4514
509.054	5326
509.127	5166
509.199	3840
509.271	3640
509.344	4551
509.416	3627
509.488	4738
509.560	5718
509.633	4366
509.705	5965
509.777	5166
509.849	8214
509.922	5128
509.994	4984
510.066	5464
510.138	4028
510.210	12088
510.283	9340
510.355	6752
510.427	7295
510.499	6903
510.571	6501
510.643	5232
510.715	9727
510.787	6469
510.859	7352
510.931	8018
511.003	9027
511.076	8089
511.148	4895
511.219	6084
511.291	10365
511.363	15355
511.435	6424
511.507	3858
511.579	6478
511.651	5765
511.723	4994
511.795	4813
511.867	4740
511.939	6981
512.010	15551
512.082	14676
512.154	5665
512.226	5060
512.298	8590
512.369	11381
512.441	9752
512.513	9154
512.585	5894
512.656	8212
512.728	7959
512.800	5838
512.871	7070
512.943	6083
513.015	5226
513.086	6488
513.158	6719
513.230	5538
513.301	8520
513.373	11844
513.444	5965
513.516	4792
513.588	4908
513.659	5521
513.731	7648
513.802	5444
513.874	12870
513.945	20579
514.016	7626
514.088	5951
514.159	5335
514.231	9225
514.302	10911
514.374	8331
514.445	7216
514.516	19089
514.588	16520
514.659	8469
514.730	16066
514.802	14613
514.873	7328
514.944	10122
515.016	7647
515.087	7117
515.158	10238
515.229	19395
515.301	9702
515.372	10341
515.443	6195
515.514	5032
515.585	4786
515.656	5782
515.728	5880
515.799	4772
515.870	5142
515.941	5985
516.012	4215
516.083	7885
516.154	6503
516.225	9784
516.296	9617
516.367	6406
516.438	7513
516.509	7575
516.580	10970
516.651	25646
516.722	84790
516.793	50045
516.864	14475
516.935	14620
517.006	14738
517.077	16397
517.148	31653
517.219	72614
517.289	113888
517.360	83441
517.431	45976
517.502	9588
517.573	8615
517.643	8318
517.714	8162
517.785	8832
517.856	8398
517.926	10512
517.997	10997
518.068	11081
518.138	16152
518.209	16228
518.280	46111
518.350	176328
518.421	66567
518.492	13477
518.562	11089
518.633	11571
518.703	10013
518.774	17637
518.845	40693
518.915	43411
518.986	15832
519.056	13785
519.127	21628
519.197	29511
519.268	81210
519.338	70812
519.408	15944
519.479	13319
519.549	10661
519.620	9920
519.690	6036
519.760	6820
519.831	7256
519.901	7247
519.971	6357
520.042	6087
520.112	8405
520.182	7889
520.253	9098
520.323	6561
520.393	5924
520.463	8647
520.534	4091
520.604	12377
520.674	8733
520.744	9014
520.814	11015
520.885	12907
520.955	24923
521.025	99570
521.095	56755
521.165	9735
521.235	7675
521.305	5340
521.375	6188
521.445	6980
521.515	6991
521.585	8716
521.655	8112
521.725	8101
521.795	8989
521.865	4399
521.935	11591
522.005	9388
522.075	6026
522.145	6168
522.215	6644
522.285	12240
522.355	15072
522.424	31441
522.494	30809
522.564	12330
522.634	15538
522.704	47325
522.774	20259
522.843	6790
522.913	6461
522.983	7330
523.053	5597
523.122	6905
523.192	7594
523.262	23799
523.331	25023
523.401	7762
523.471	4462
523.540	5556
523.610	3545
523.680	4450
523.749	5752
523.819	6331
523.888	7096
523.958	4480
524.027	4811
524.097	5775
524.166	5953
524.236	4171
524.305	6795
524.375	5429
524.444	3488
524.514	6452
524.583	4901
524.653	6481
524.722	9618
524.791	4555
524.861	6318
524.930	3679
524.999	4151
525.069	7532
525.138	6661
525.207	7791
525.277	6820
525.346	5393
525.415	6060
525.484	4861
525.554	6534
525.623	7970
525.692	6843
525.761	6329
525.830	6922
525.900	6665
525.969	11567
526.038	16152
526.107	24490
526.176	77172
526.245	66974
526.314	24489
526.383	42571
526.452	52978
526.522	90352
526.591	103977
526.660	34358
526.729	18227
526.797	18812
526.867	30883
526.935	136975
527.004	236856
527.073	132265
527.142	15695
527.211	8386
527.280	8274
527.349	8070
527.418	3743
527.487	6636
527.555	3375
527.624	4481
527.693	2254
527.762	4720
527.831	3090
527.899	4401
527.968	4897
528.037	3061
528.106	5503
528.174	9226
528.243	8970
528.312	11473
528.380	16354
528.449	5418
528.518	5801
528.586	2830
528.655	4443
528.723	3516
528.792	3708
528.861	3473
528.929	2760
528.998	4802
529.066	2320
529.135	3442
529.203	2467
529.272	2287
529.340	3798
529.409	6277
529.477	2482
529.545	4415
529.614	8075
529.682	5205
529.751	9326
529.819	9050
529.887	5585
529.956	3890
530.024	4921
530.092	1932
530.161	4002
530.229	5941
530.297	3683
530.365	4858
530.434	2729
530.502	2480
530.570	3262
530.638	2266
530.707	4058
530.775	5281
530.843	3413
530.911	4104
530.979	3048
531.047	2747
531.115	3255
531.183	3173
531.252	4186
531.320	3441
531.388	2751
531.456	3538
531.524	1872
531.592	4421
531.660	4981
531.728	2866
531.796	2864
531.864	3770
531.932	4087
532.000	3227
532.067	3535
532.135	4273
532.203	4665
532.271	4179
532.339	8326
532.407	20340
532.475	13918
532.542	7504
532.610	7174
532.678	7939
532.746	31398
532.814	90382
532.881	26191
532.949	6124
533.017	4496
533.084	4608
533.152	3764
533.220	3840
533.287	3394
533.355	3849
533.423	3958
533.490	2067
533.558	3682
533.625	4060
533.693	4697
533.761	4366
533.828	4442
533.896	3399
533.963	8114
534.031	10290
534.098	13881
534.166	7407
534.233	3479
534.300	5198
534.368	5327
534.435	4852
534.503	4707
534.570	4017
534.637	3553
534.705	4744
534.772	6093
534.840	7671
534.907	33459
534.974	48243
535.041	7646
535.109	6710
535.176	4635
535.243	4324
535.310	4139
535.378	3548
535.445	3125
535.512	4346
535.579	3263
535.646	2931
535.714	4698
535.781	6063
535.848	4923
535.915	6311
535.982	4490
536.049	4974
536.116	5404
536.183	4341
536.250	4955
536.317	4690
536.384	5342
536.451	7900
536.518	8168
536.585	4689
536.652	8193
536.719	10648
536.786	8108
536.853	6391
536.920	9234
536.987	16269
537.053	11492
537.120	43450
537.187	43995
537.254	6606
537.321	4473
537.388	6485
537.454	3374
537.521	4667
537.588	4036
537.654	5407
537.721	5128
537.788	6232
537.855	3712
537.921	5063
537.988	4569
538.055	5195
538.121	3980
538.188	4824
538.254	6502
538.321	14498
538.388	10309
538.454	5317
538.521	5530
538.587	4540
538.654	4571
538.720	4774
538.787	4402
538.853	4986
538.920	7037
538.986	7458
539.053	5260
539.119	6087
539.185	5004
539.252	6428
539.318	8092
539.385	8453
539.451	5566
539.517	7341
539.583	7200
539.650	13469
539.716	36990
539.782	13834
539.849	4340
539.915	5619
539.981	4231
540.047	6549
540.114	5865
540.180	7212
540.246	4755
540.312	7037
540.378	13304
540.444	16516
540.510	13273
540.576	39364
540.643	15645
540.709	5058
540.775	5580
540.841	5209
540.907	7235
540.973	12405
541.039	9180
541.105	10115
541.171	5410
541.237	5286
541.303	6104
541.369	7469
541.435	7044
541.500	12293
541.566	8327
541.632	5567
541.698	3917
541.764	6062
541.830	4637
541.896	4389
541.961	5711
542.027	4510
542.093	5572
542.159	5667
542.224	5247
542.290	8874
542.356	10424
542.421	16351
542.487	8308
542.553	5720
542.618	7134
542.684	6308
542.750	5868
542.815	7713
542.881	10617
542.947	33887
543.012	29035
543.078	6005
543.143	4659
543.209	7241
543.274	5533
543.340	7216
543.405	12764
543.471	22289
543.536	6756
543.602	5118
543.667	3940
543.732	6218
543.798	3980
543.863	5760
543.928	4501
543.994	3738
544.059	5322
544.124	3948
544.190	4199
544.255	6663
544.320	4666
544.386	5045
544.451	7201
544.516	8752
544.581	8029
544.646	21568
544.712	37779
544.777	10371
544.842	7724
544.907	8848
544.972	7407
545.037	7790
545.102	8524
545.168	8716
545.233	8335
545.298	9420
545.363	9756
545.428	10490
545.493	14155
545.558	29663
545.623	15486
545.688	8723
545.753	7269
545.818	7600
545.883	8379
545.947	8094
546.012	9221
546.077	10067
546.142	9212
546.207	7064
546.272	9585
546.337	10941
546.401	8927
546.466	9098
546.531	7221
546.596	10013
546.661	8638
546.725	9976
546.790	7469
546.855	9173
546.919	8756
546.984	10139
547.049	10397
547.113	13690
547.178	11529
547.243	13364
547.307	14977
547.372	17059
547.436	17806
547.501	16238
547.565	15293
547.630	16403
547.695	15795
547.759	19585
547.823	17674
547.888	14721
547.952	14317
548.017	15478
548.081	15715
548.146	21877
548.210	20217
548.274	16263
548.339	15371
548.403	15424
548.468	13149
548.532	13518
548.596	14281
548.660	13325
548.725	16062
548.789	18578
548.853	19853
548.917	16277
548.982	21021
549.046	22699
549.110	13284
549.174	13224
549.238	13546
549.303	14352
549.367	15021
549.431	14238
549.495	14375
549.559	14076
549.623	15484
549.687	17642
549.751	21343
549.815	20521
549.879	20953
549.943	18223
550.007	20222
550.071	20794
550.135	20695
550.199	19147
550.263	17607
550.327	19111
550.391	23122
550.455	20578
550.519	19262
550.582	20733
550.646	23744
550.710	26526
550.774	21970
550.838	22752
550.901	23280
550.965	25249
551.029	24863
551.093	29415
551.156	33630
551.220	52699
551.284	66854
551.347	37848
551.411	53500
551.475	69521
551.538	28125
551.602	22493
551.666	21592
551.729	18488
551.793	19092
551.856	20227
551.920	17608
551.983	17727
552.047	17227
552.110	18334
552.174	17494
552.237	18228
552.301	17115
552.364	16997
552.428	15880
552.491	17017
552.554	17398
552.618	17672
552.681	17752
552.745	16800
552.808	20844
552.871	21021
552.934	19286
552.998	18277
553.061	19462
553.124	17991
553.187	15964
553.251	17601
553.314	17993
553.377	18457
553.440	19725
553.503	29380
553.567	36832
553.630	19843
553.693	18512
553.756	18119
553.819	17415
553.882	16948
553.945	17600
554.008	16862
554.071	15896
554.134	16580
554.197	16517
554.260	15321
554.323	17137
554.386	17395
554.449	16128
554.512	17887
554.575	15892
554.638	16515
554.701	15197
554.764	16171
554.827	15307
554.889	15289
554.952	14148
555.015	13976
555.078	14013
555.141	14549
555.203	13945
555.266	14946
555.329	15460
555.391	14633
555.454	13685
555.517	14314
555.580	13104
555.642	12719
555.705	12164
555.768	13220
555.830	12868
555.893	11744
555.955	11428
556.018	12615
556.080	11777
556.143	12315
556.206	11845
556.268	13714
556.330	13742
556.393	13491
556.455	13105
556.518	18149
556.580	19920
556.643	12583
556.705	10996
556.767	11020
556.830	11548
556.892	13232
556.955	16176
557.017	14298
557.079	11301
557.142	10332
557.204	12040
557.266	19720
557.328	17089
557.391	10281
557.453	9228
557.515	10031
557.577	11789
557.639	12979
557.701	10776
557.764	10140
557.826	11840
557.888	13211
557.950	12670
558.012	13784
558.074	16000
558.136	30440
558.198	73730
558.260	32824
558.322	14853
558.384	15708
558.446	18348
558.508	21686
558.570	26617
558.632	36561
558.694	50380
558.756	54529
558.818	141817
558.880	367750
558.942	122873
559.003	82177
559.065	45590
559.127	21109
559.189	21826
559.251	24381
559.312	31939
559.374	65808
559.436	226334
559.498	122868
559.559	24615
559.621	21940
559.683	24388
559.744	38680
559.806	106259
559.868	167921
559.929	39120
559.991	25139
560.052	29599
560.114	75698
560.176	53655
560.237	43360
560.299	72457
560.360	21760
560.422	11597
560.483	11828
560.545	10766
560.606	9971
560.667	10299
560.729	9618
560.790	9468
560.852	10345
560.913	10034
560.974	9850
561.036	9439
561.097	9785
561.158	9836
561.220	10731
561.281	10111
561.342	10862
561.403	12171
561.465	13384
561.526	26311
561.587	36217
561.648	12082
561.709	10595
561.771	11296
561.832	10411
561.893	9731
561.954	10082
562.015	9222
562.076	9638
562.137	8202
562.198	9924
562.259	9559
562.320	9020
562.381	9913
562.442	12227
562.503	11047
562.564	8882
562.625	9153
562.686	9446
562.747	9055
562.808	9781
562.869	9440
562.930	11918
562.991	11647
563.051	11044
563.112	10410
563.173	10519
563.234	9449
563.294	9844
563.355	9118
563.416	10731
563.477	9195
563.537	9816
563.598	11040
563.659	10026
563.720	10414
563.780	10706
563.841	10554
563.901	11859
563.962	9927
564.023	10825
564.083	10898
564.144	10826
564.204	11521
564.265	11703
564.325	13655
564.386	28778
564.446	28347
564.507	10596
564.567	9738
564.628	9724
564.688	9606
564.749	10152
564.809	12132
564.869	15094
564.930	11106
564.990	10009
565.050	8159
565.111	9542
565.171	8891
565.231	8921
565.292	10366
565.352	8647
565.412	9566
565.472	9953
565.532	9867
565.593	10239
565.653	8744
565.713	10505
565.773	10311
565.833	12143
565.893	15139
565.953	11869
566.013	9509
566.074	12006
566.134	16733
566.194	26122
566.254	28145
566.314	18361
566.374	11356
566.434	12118
566.494	11605
566.554	11062
566.614	11207
566.673	11226
566.733	11622
566.793	13401
566.853	12563
566.913	12279
566.973	13116
567.033	14022
567.092	12687
567.152	12111
567.212	13819
567.272	14226
567.331	16071
567.391	15377
567.451	16581
567.511	23065
567.570	22832
567.630	14700
567.690	13371
567.749	13397
567.809	13989
567.868	15590
567.928	17680
567.988	20715
568.047	21169
568.107	23216
568.166	30420
568.226	43829
568.285	58928
568.345	49887
568.404	39533
568.464	35323
568.523	34072
568.582	34809
568.642	37145
568.701	44834
568.761	63552
568.820	98038
568.879	95312
568.939	72719
568.998	53845
569.057	40213
569.116	33160
569.176	28277
569.235	24326
569.294	21614
569.353	20382
569.413	19200
569.472	17382
569.531	15802
569.590	15141
569.649	14835
569.708	13019
569.767	14593
569.827	14864
569.886	12646
569.945	12375
570.004	12298
570.063	12274
570.122	13145
570.181	13197
570.240	16513
570.299	15224
570.358	12889
570.417	11554
570.475	10822
570.534	11270
570.593	11706
570.652	10734
570.711	11948
570.770	11229
570.829	13626
570.887	11132
570.946	12465
571.005	10622
571.064	11438
571.122	11068
571.181	14703
571.240	12243
571.299	11232
571.357	11599
571.416	13142
571.475	14880
571.533	15705
571.592	10150
571.650	13232
571.709	10070
571.768	10748
571.826	9798
571.885	9286
571.943	8677
572.002	9002
572.060	10132
572.119	9552
572.177	7923
572.236	8548
572.294	9363
572.352	9210
572.411	8350
572.469	9051
572.528	8466
572.586	8906
572.644	9321
572.703	10939
572.761	8787
572.819	9310
572.877	8343
572.936	8470
572.994	8292
573.052	8440
573.110	8781
573.169	9560
573.227	7256
573.285	8706
573.343	8119
573.401	9695
573.459	8492
573.517	8418
573.576	9084
573.634	8561
573.692	8721
573.750	10068
573.808	9475
573.866	9998
573.924	15703
573.982	15431
574.040	9396
574.098	10303
574.155	8537
574.213	8437
574.271	7645
574.329	8717
574.387	7296
574.445	8276
574.503	7285
574.560	7679
574.618	7906
574.676	7537
574.734	7311
574.792	8635
574.849	7916
574.907	7633
574.965	7766
575.022	7662
575.080	7267
575.138	8383
575.195	7866
575.253	8114
575.311	9005
575.368	8378
575.426	6675
575.483	8901
575.541	7681
575.598	7832
575.656	8968
575.713	8577
575.771	8277
575.828	8447
575.886	8717
575.943	9158
576.001	8579
576.058	10047
576.115	8892
576.173	12170
576.230	13600
576.287	14048
576.345	12251
576.402	10297
576.459	10657
576.517	9821
576.574	11907
576.631	13238
576.688	10738
576.746	10030
576.803	9298
576.860	9127
576.917	9726
576.974	9768
577.031	8906
577.089	8967
577.146	9601
577.203	10077
577.260	10949
577.317	12252
577.374	14205
577.431	12417
577.488	10942
577.545	9002
577.602	8620
577.659	9271
577.716	8070
577.773	9162
577.830	8233
577.886	7957
577.943	8344
578.000	8835
578.057	9585
578.114	10725
578.171	10187
578.227	11298
578.284	9912
578.341	11059
578.398	9968
578.454	10993
578.511	13089
578.568	14557
578.625	11027
578.681	9648
578.738	8343
578.794	8995
578.851	8718
578.908	8409
578.964	8353
579.021	8912
579.077	9023
579.134	9209
579.190	8059
579.247	9372
579.303	8583
579.360	8595
579.416	7819
579.473	8609
579.529	7938
579.586	9002
579.642	7845
579.698	10081
579.755	9253
579.811	9051
579.867	8775
579.924	8981
579.980	8845
580.036	10272
580.093	10199
580.149	12432
580.205	13129
580.261	11590
580.317	11197
580.374	11808
580.430	13890
580.486	13823
580.542	11637
580.598	10974
580.619	10589
580.654	9904
580.692	10292
580.710	10466
580.765	9962
580.767	9925
580.823	10285
580.838	10367
580.879	10521
580.911	10337
580.935	10183
580.984	9513
580.991	9405
581.047	10847
581.057	10760
581.103	10209
581.130	10988
581.159	11765
581.203	12163
581.215	12236
581.270	12208
581.276	12186
581.326	11657
581.349	11701
581.382	11767
581.422	11789
581.438	11741
581.494	13421
581.494	13430
581.550	11748
581.567	11938
581.606	12202
581.640	12354
581.661	12423
581.713	13529
581.717	13607
581.773	11912
581.786	12214
581.829	12965
581.859	12845
581.885	12775
581.932	13313
581.940	13358
581.996	13487
582.004	13562
582.052	13739
582.077	13331
582.107	12941
582.150	13951
582.163	14202
582.219	14706
582.223	14792
582.274	16001
582.296	16182
582.330	15992
582.368	16964
582.386	17376
582.441	14490
582.441	14467
582.497	16057
582.514	15834
582.552	15543
582.587	15972
582.608	16144
582.659	16050
582.663	16046
582.719	16903
582.732	16942
582.774	17064
582.805	17849
582.830	18315
582.877	17690
582.885	17580
582.941	17530
582.950	17619
582.996	18179
583.023	18523
583.052	18869
583.095	19715
583.107	20044
583.162	20825
583.168	20970
583.218	21578
583.240	21460
583.273	21023
583.313	19954
583.328	19805
583.384	21229
583.385	21247
583.439	21367
583.458	21371
583.494	21195
583.531	20970
583.549	21020
583.603	22271
583.605	22309
583.660	21527
583.676	21687
583.715	22637
583.748	23640
583.770	24252
583.820	24646
583.825	24647
583.881	24240
583.893	24296
583.936	24809
583.965	25037
583.991	25059
584.038	25631
584.046	25871
584.101	26178
584.110	26401
584.156	27089
584.183	26494
584.211	25730
584.255	26183
584.266	26363
584.321	25605
584.328	25572
584.376	26709
584.400	27624
584.431	28067
584.472	27357
584.486	27275
584.541	27121
584.545	27118
584.596	28219
584.617	28515
584.651	29775
584.689	31959
584.706	32567
584.761	32650
584.762	32603
584.816	32547
584.834	32825
584.871	33695
584.906	33826
584.926	33974
584.978	34090
584.980	34193
585.035	36547
585.051	37085
585.090	38437
585.123	40076
585.145	41152
585.195	41632
585.200	41758
585.254	44125
585.267	44514
585.309	46884
585.340	49281
585.364	51053
585.412	53522
585.419	54024
585.473	57332
585.484	58186
585.528	66173
585.556	73327
585.583	89985
585.628	125393
585.637	140281
585.692	253063
585.700	273183
585.747	331970
585.772	306685
585.801	217015
585.845	93280
585.856	81057
585.910	58939
585.917	56822
585.965	53274
585.989	52265
586.019	51813
586.061	50384
586.074	50376
586.128	52012
586.133	51989
586.183	55637
586.205	57133
586.237	58790
586.277	59684
586.292	59480
586.346	59777
586.349	59563
586.401	59030
586.421	59300
586.455	64477
586.493	70487
586.509	80128
586.564	113783
586.565	114416
586.618	173994
586.637	189154
586.672	145277
586.709	92610
586.727	83513
586.781	67389
586.781	67551
586.835	63269
586.853	61950
586.889	61824
586.925	61287
586.944	61521
586.996	62662
586.998	62922
587.052	65634
587.068	66150
587.106	66624
587.140	66714
587.161	67629
587.212	69704
587.215	70035
587.269	72543
587.284	73008
587.323	73252
587.356	73265
587.377	74430
587.427	76162
587.431	76460
587.485	77695
587.499	77964
587.539	80340
587.571	81242
587.593	82535
587.643	85334
587.648	85960
587.702	90064
587.715	91096
587.755	94549
587.786	96438
587.810	97064
587.858	96944
587.864	97804
587.917	104654
587.930	106096
587.971	114361
588.001	120106
588.025	121245
588.073	121870
588.079	122559
588.133	126956
588.145	127831
588.187	135608
588.217	141421
588.241	148259
588.288	161405
588.295	163767
588.348	181844
588.360	185843
588.402	204149
588.431	216889
588.456	230662
588.503	259207
588.510	264744
588.564	308362
588.575	318187
588.617	369276
588.646	406077
588.671	456865
588.718	561536
588.725	588660
588.778	810565
588.789	859418
588.832	1153978
588.861	1363004
588.886	1490712
588.932	1695462
588.939	1691696
588.993	1533511
589.004	1516544
589.047	1529285
589.075	1474148
589.100	1273154
589.147	887273
589.154	856731
589.207	646981
589.218	607401
589.261	561348
589.290	537382
589.314	556075
589.361	601646
589.368	624972
589.421	830314
589.433	877516
589.475	1177124
589.504	1395248
589.528	1471666
589.576	1538982
589.582	1525227
589.635	1368665
589.647	1317908
589.689	954439
589.718	702872
589.742	598554
589.790	414062
589.795	408333
589.849	360580
589.861	350614
589.902	344106
589.932	336831
589.955	296632
590.004	209537
590.009	207696
590.062	185240
590.075	179389
590.115	168892
590.146	160141
590.168	158257
590.218	152839
590.222	153264
590.275	153002
590.289	152344
590.328	150283
590.360	147677
590.381	145170
590.431	137680
590.435	138097
590.488	136877
590.503	136039
590.541	135087
590.574	133366
590.594	132866
590.645	129942
590.647	130372
590.700	128229
590.716	127058
590.753	125704
590.787	123628
590.806	123688
590.859	122080
590.859	122553
590.912	120828
590.930	119873
590.965	121059
591.001	121205
591.018	121442
591.071	120526
591.072	120007
591.124	122245
591.143	122315
591.177	123828
591.214	124372
591.230	125469
591.283	127577
591.285	127094
591.336	129932
591.356	130381
591.389	129411
591.427	126683
591.442	126348
591.495	123217
591.498	122436
591.547	122563
591.569	121849
591.600	122149
591.640	121223
591.653	122753
591.706	127142
591.711	127021
591.759	140574
591.782	146621
591.811	154894
591.853	165153
591.864	160773
591.917	134761
591.924	130367
591.969	129522
591.995	128156
592.022	132387
592.066	137739
592.075	142261
592.127	166115
592.137	169783
592.180	189323
592.208	200522
592.233	181642
592.279	143133
592.285	142805
592.338	134559
592.350	132036
592.390	131277
592.421	129632
592.443	130857
592.491	131543
592.495	132360
592.548	134875
592.562	134926
592.600	135529
592.633	134829
592.653	134611
592.704	131601
592.705	132400
592.775	134080
592.846	133334
592.916	135189
592.987	139608
593.058	138217
593.128	132942
593.199	130336
593.270	129413
593.341	130361
593.411	132558
593.482	130879
593.553	130177
593.623	128917
593.694	136750
593.764	152309
593.835	132891
593.906	131630
593.976	133537
594.047	145262
594.117	175268
594.188	176742
594.258	131060
594.329	127858
594.399	131440
594.470	127640
594.540	129597
594.611	131503
594.681	130236
594.751	135122
594.822	138303
594.892	144709
594.963	152819
595.033	150934
595.103	152525
595.174	170141
595.244	248528
595.314	303664
595.384	161123
595.455	152948
595.525	156477
595.595	157449
595.665	158813
595.736	156183
595.806	154219
595.876	153740
595.946	152823
596.016	149338
596.087	155992
596.157	156185
596.227	157179
596.297	164639
596.367	171999
596.437	190249
596.507	249950
596.577	305013
596.647	183313
596.717	169366
596.787	171173
596.857	168607
596.927	171053
596.997	168614
597.067	169666
597.137	175686
597.207	174326
597.277	173824
597.347	173477
597.417	168675
597.487	169229
597.557	175735
597.626	177413
597.696	193812
597.766	234906
597.836	295785
597.906	191561
597.975	165648
598.045	163826
598.115	165232
598.185	169027
598.254	182248
598.324	187789
598.394	184956
598.464	185924
598.533	181715
598.603	170728
598.672	172423
598.742	172965
598.812	174430
598.881	176330
598.951	173277
599.020	172068
599.090	171914
599.159	176415
599.229	170243
599.299	165418
599.368	173890
599.437	165156
599.507	168900
599.576	172130
599.646	163119
599.715	161958
599.785	166186
599.854	179204
599.924	198431
599.993	180081
600.062	166092
600.132	167327
600.201	171467
600.270	183565
600.340	181808
600.409	178638
600.478	179542
600.547	181541
600.617	179274
600.686	162979
600.755	154417
600.824	153435
600.894	152157
600.963	145282
601.032	143320
601.101	145809
601.170	143081
601.239	144619
601.308	149682
601.378	142602
601.447	142315
601.516	137662
601.585	139882
601.654	148827
601.723	143894
601.792	142766
601.861	144637
601.930	146334
601.999	152287
602.068	143600
602.137	152648
602.206	149176
602.275	144664
602.343	158410
602.412	156088
602.481	146702
602.550	144589
602.619	145581
602.688	149939
602.756	151056
602.825	146351
602.894	150036
602.963	152452
603.032	155585
603.100	152208
603.169	152257
603.238	154988
603.307	151051
603.375	146262
603.444	153511
603.513	153689
603.581	151172
603.650	154192
603.719	151526
603.787	153294
603.856	158425
603.924	158596
603.993	161535
604.061	161689
604.130	166514
604.198	168719
604.267	167618
604.335	169782
604.404	170472
604.472	172066
604.541	172979
604.609	173624
604.678	170582
604.746	173775
604.815	177216
604.883	180609
604.951	179598
605.020	177910
605.088	184967
605.156	188079
605.225	185884
605.293	186956
605.361	189722
605.429	186642
605.498	189904
605.566	192696
605.634	199415
605.702	206520
605.771	209358
605.839	208600
605.907	202548
605.975	197844
606.043	197140
606.111	194742
606.180	194685
606.248	195948
606.316	197881
606.384	206471
606.452	232986
606.520	222510
606.588	203857
606.656	196321
606.724	196025
606.792	187515
606.860	174680
606.928	159724
606.996	158315
607.064	154472
607.132	159812
607.200	166366
607.267	170827
607.335	170051
607.403	171553
607.471	171780
607.539	166475
607.607	164592
607.674	154420
607.742	159596
607.810	159538
607.878	154184
607.946	154011
608.013	161067
608.081	164453
608.149	160281
608.216	165838
608.284	171526
608.352	170654
608.419	185297
608.487	239009
608.555	186794
608.622	164119
608.690	171339
608.757	184172
608.825	186545
608.893	185586
608.960	189807
609.028	214043
609.095	258119
609.163	187541
609.230	169957
609.298	157439
609.365	151952
609.432	160238
609.500	172853
609.567	190910
609.635	210466
609.702	220342
609.769	216083
609.837	200732
609.904	167305
609.971	159074
610.039	171244
610.106	215841
610.173	378052
610.241	787627
610.308	427922
610.375	194888
610.442	169729
610.509	156991
610.577	157275
610.644	162583
610.711	164670
610.778	168139
610.845	170407
610.912	182174
610.980	185158
611.047	187135
611.114	187298
611.181	177284
611.248	175103
611.315	184137
611.382	188343
611.449	191436
611.516	193936
611.583	194057
611.650	195248
611.717	196328
611.784	200717
611.851	206325
611.918	220926
611.984	248788
612.051	347571
612.118	655589
612.185	1487165
612.252	874961
612.319	278400
612.386	238647
612.452	227081
612.519	241847
612.586	301800
612.653	245001
612.719	218640
612.786	210264
612.853	197237
612.919	192604
612.986	195629
613.053	186219
613.120	177418
613.186	172859
613.253	174776
613.319	172172
613.386	175420
613.453	178706
613.519	186624
613.586	198824
613.652	225527
613.719	206031
613.785	198925
613.852	182299
613.918	177214
613.985	179422
614.051	184199
614.118	190763
614.184	185339
614.250	176309
614.317	176418
614.383	174847
614.449	179481
614.516	178979
614.582	190158
614.648	179877
614.715	174863
614.781	176209
614.847	186753
614.914	190589
614.980	182952
615.046	174337
615.112	175187
615.179	174492
615.245	180287
615.311	184197
615.377	198269
615.443	202018
615.509	190718
615.575	193120
615.642	190375
615.708	199329
615.774	210841
615.840	232283
615.906	253614
615.972	293692
616.038	437257
616.104	825533
616.170	1764470
616.236	1384632
616.302	405364
616.368	320559
616.434	254867
616.500	244615
616.565	261152
616.631	306027
616.697	258298
616.763	266029
616.829	369005
616.895	594624
616.961	545865
617.026	273312
617.092	216697
617.158	210714
617.224	205319
617.289	200631
617.355	198843
617.421	211258
617.487	202896
617.552	188956
617.618	188342
617.684	186506
617.749	189795
617.815	180348
617.880	176721
617.946	176482
618.012	179999
618.077	180451
618.143	174833
618.208	180050
618.274	191234
618.339	198193
618.405	177874
618.470	178982
618.536	186817
618.601	205624
618.667	192509
618.732	175553
618.798	170663
618.863	171632
618.928	170173
618.994	180974
619.059	186442
619.124	209045
619.190	185591
619.255	176277
619.320	178169
619.386	173644
619.451	167095
619.516	168019
619.581	169359
619.647	174516
619.712	173101
619.777	166635
619.842	170536
619.907	172339
619.972	174878
620.038	175287
620.103	170809
620.168	165049
620.233	167329
620.298	168258
620.363	167150
620.428	169804
620.493	172398
620.558	170569
620.623	169099
620.688	168702
620.753	167584
620.818	171138
620.883	172086
620.948	172285
621.013	171157
621.078	176294
621.143	183734
621.207	185453
621.272	187046
621.337	191909
621.402	208813
621.467	268590
621.532	268700
621.596	216636
621.661	198560
621.726	191484
621.791	192343
621.855	195628
621.920	205554
621.985	225328
622.049	244781
622.114	234851
622.179	213151
622.243	227456
622.308	218180
622.373	219928
622.437	218055
622.502	207243
622.566	206363
622.631	213351
622.695	207552
622.760	211264
622.824	204076
622.889	206893
622.953	213479
623.018	247704
623.082	238862
623.147	210307
623.211	201617
623.276	207691
623.340	194292
623.404	189108
623.469	193237
623.533	194520
623.597	190763
623.662	190974
623.726	186759
623.790	178734
623.854	183567
623.919	183246
623.983	181015
624.047	185457
624.111	178119
624.176	183022
624.240	191621
624.304	196392
624.368	183693
624.432	180381
624.496	187685
624.560	188867
624.625	197757
624.689	183128
624.753	185707
624.817	181702
624.881	179056
624.945	169373
625.009	168887
625.073	169868
625.137	180777
625.201	194002
625.265	191975
625.329	171216
625.393	179911
625.456	176269
625.520	185095
625.584	199634
625.648	233478
625.712	346044
625.776	728765
625.839	757071
625.903	301579
625.967	206137
626.031	323876
626.095	474494
626.158	201808
626.222	151216
626.286	143928
626.349	144417
626.413	139335
626.477	146267
626.540	137308
626.604	139536
626.668	137687
626.731	136894
626.795	151807
626.858	148161
626.922	141677
626.986	135160
627.049	134083
627.113	136314
627.176	128757
627.240	129858
627.303	132437
627.366	135453
627.430	130833
627.493	136356
627.557	143013
627.620	136503
627.684	139168
627.747	137632
627.810	133267
627.874	128358
627.937	125157
628.000	132084
628.064	130606
628.127	115189
628.190	120635
628.253	123163
628.317	117177
628.380	116664
628.443	116734
628.506	115680
628.569	110599
628.632	109554
628.696	110261
628.759	109641
628.822	106731
628.885	104726
628.948	105126
629.011	108995
629.074	105332
629.137	100610
629.200	106302
629.263	110847
629.326	99839
629.389	101232
629.452	106336
629.515	108753
629.578	102625
629.641	107638
629.704	107216
629.767	106026
629.830	95835
629.892	98280
629.955	97383
630.018	102555
630.081	101711
630.144	112119
630.207	100895
630.269	109518
630.332	122449
630.395	104267
630.458	91618
630.520	93811
630.583	90879
630.646	88690
630.708	90377
630.771	93295
630.834	89381
630.896	88013
630.959	88105
631.021	90411
631.084	94909
631.146	106074
631.209	118679
631.272	91303
631.334	86651
631.397	86793
631.459	82383
631.522	85099
631.584	88540
631.646	89888
631.709	91924
631.771	110117
631.834	95354
631.896	86307
631.958	78272
632.021	83635
632.083	85230
632.145	89153
632.208	82875
632.270	82879
632.332	80650
632.395	82037
632.457	87752
632.519	84374
632.581	80504
632.643	79781
632.706	81919
632.768	78723
632.830	77900
632.892	76911
632.954	81941
633.016	83914
633.078	77855
633.141	75882
633.203	80220
633.265	79994
633.327	75763
633.389	76846
633.451	85965
633.513	95284
633.575	100600
633.637	89722
633.698	82297
633.760	78733
633.822	75673
633.884	78069
633.946	77189
634.008	77566
634.070	75909
634.132	77918
634.193	81923
634.255	81783
634.317	82408
634.379	80743
634.441	80192
634.502	77772
634.564	72682
634.626	70984
634.687	70577
634.749	73883
634.811	70941
634.873	66672
634.934	68686
634.996	72244
635.057	70075
635.119	71710
635.181	71825
635.242	73189
635.304	66936
635.365	72334
635.427	72474
635.488	69490
635.550	70351
635.611	69521
635.673	70316
635.734	78083
635.796	75429
635.857	78441
635.918	73665
635.980	80161
636.041	80003
636.102	81684
636.164	79065
636.225	76766
636.286	77327
636.348	75584
636.409	70211
636.470	67397
636.531	72205
636.593	88565
636.654	77742
636.715	62842
636.776	62597
636.838	60455
636.899	68361
636.960	64132
637.021	60856
637.082	62391
637.143	64316
637.204	59346
637.265	60492
637.326	60397
637.387	60192
637.448	58498
637.509	60072
637.570	60586
637.631	59731
637.692	57442
637.753	53873
637.814	58763
637.875	57075
637.936	58195
637.997	58699
638.058	60324
638.119	64406
638.179	58426
638.240	59467
638.301	59474
638.362	58319
638.423	60565
638.483	58706
638.544	56089
638.605	57389
638.666	56038
638.726	57826
638.787	55973
638.848	55827
638.908	54631
638.969	55201
639.030	58231
639.090	52919
639.151	54395
639.211	56599
639.272	65831
639.332	84222
639.393	59886
639.453	57137
639.514	56640
639.574	53421
639.635	50529
639.695	55135
639.756	53635
639.816	54000
639.877	57817
639.937	74278
639.997	83379
640.058	53859
640.118	50209
640.178	49489
640.239	48946
640.299	49904
640.359	48781
640.420	48770
640.480	51327
640.540	52752
640.600	53011
640.661	53359
640.721	53040
640.781	58360
640.841	49651
640.901	50177
640.961	51317
641.021	52613
641.082	55559
641.142	64639
641.202	51585
641.262	47057
641.322	48506
641.382	47884
641.442	50584
641.502	49786
641.562	49852
641.622	48387
641.682	50059
641.742	49612
641.802	50744
641.861	54339
641.921	54004
641.981	54330
642.041	54807
642.101	59897
642.161	47293
642.221	46821
642.280	46406
642.340	46230
642.400	46395
642.460	47632
642.519	48441
642.579	47184
642.639	50914
642.698	46069
642.758	46926
642.818	47700
642.877	47011
642.937	49455
642.997	52536
643.056	62964
643.116	48980
643.175	49530
643.235	45507
643.294	47880
643.354	47785
643.414	49163
643.473	52230
643.532	54852
643.592	63648
643.651	84997
643.711	126337
643.770	226086
643.830	525918
643.889	980289
643.948	226667
644.008	71112
644.067	55837
644.126	49306
644.186	48517
644.245	44171
644.304	40767
644.363	44699
644.423	41834
644.482	43888
644.541	44086
644.600	42822
644.659	48774
644.719	55296
644.778	69895
644.837	92481
644.896	163336
644.955	320385
645.014	110626
645.073	52144
645.132	49888
645.191	46564
645.250	43976
645.309	48454
645.368	47585
645.427	51771
645.486	66492
645.545	88622
645.604	46212
645.663	42850
645.722	43764
645.781	43949
645.840	45346
645.898	49398
645.957	60061
646.016	74124
646.075	118858
646.134	212795
646.192	549171
646.251	708020
646.310	117190
646.369	55454
646.427	49954
646.486	44548
646.545	43525
646.603	42744
646.662	40388
646.721	40359
646.779	36629
646.838	39623
646.896	42330
646.955	48930
647.014	63801
647.072	95887
647.131	214011
647.189	99002
647.248	41289
647.306	37442
647.365	39079
647.423	36038
647.481	38516
647.540	35238
647.598	36794
647.657	34127
647.715	35213
647.773	36550
647.832	38284
647.890	37484
647.948	37777
648.007	37964
648.065	36020
648.123	36019
648.181	37258
648.240	36129
648.298	35839
648.356	39105
648.414	39256
648.472	38795
648.531	39145
648.589	36751
648.647	35280
648.705	37277
648.763	38091
648.821	36887
648.879	36563
648.937	38505
648.995	40868
649.053	43568
649.111	52432
649.169	69751
649.227	105468
649.285	194546
649.343	504507
649.401	222762
649.459	95039
649.516	61421
649.574	43121
649.632	48687
649.690	49104
649.748	53018
649.806	53373
649.863	75277
649.921	158370
649.979	100096
650.037	39195
650.094	34791
650.152	36101
650.210	32946
650.268	33260
650.325	33181
650.383	32286
650.440	31879
650.498	34071
650.556	33316
650.613	29563
650.671	32412
650.728	35478
650.786	39740
650.843	33984
650.901	31200
650.958	30844
651.016	30249
651.073	31205
651.131	30091
651.188	31893
651.246	33969
651.303	30795
651.360	30589
651.418	31202
651.475	31793
651.532	27688
651.590	30084
651.647	30913
651.704	32023
651.762	31289
651.819	29564
651.876	30845
651.933	29459
651.990	29997
652.048	28675
652.105	30127
652.162	30496
652.219	27787
652.276	28601
652.333	28638
652.390	26595
652.448	28311
652.505	28592
652.562	27629
652.619	26626
652.676	29060
652.733	27948
652.790	26918
652.847	24916
652.904	28035
652.961	26973
653.017	25762
653.074	26699
653.131	26135
653.188	25890
653.245	25740
653.302	27296
653.359	26149
653.415	26327
653.472	26093
653.529	27182
653.586	25923
653.642	26978
653.699	25717
653.756	27144
653.813	25571
653.869	24959
653.926	25197
653.983	25741
654.039	25725
654.096	25852
654.152	27792
654.209	25459
654.266	29221
654.322	29674
654.379	33823
654.435	33612
654.492	37198
654.548	49719
654.605	72036
654.661	37415
654.717	30746
654.774	33143
654.830	31519
654.887	29945
654.943	31616
655.000	29687
655.056	29980
655.112	31584
655.168	30894
655.225	32278
655.281	38301
655.337	51859
655.394	86752
655.450	56050
655.506	51574
655.562	89404
655.618	58987
655.675	29535
655.731	29619
655.787	28704
655.843	29813
655.899	26977
655.955	28042
656.011	29021
656.067	25605
656.123	27807
656.179	29116
656.235	30450
656.291	27190
656.347	31416
656.403	29768
656.459	33084
656.515	36656
656.571	37107
656.627	31621
656.683	31065
656.739	30204
656.795	27242
656.850	29026
656.906	32891
656.962	28612
657.018	25833
657.074	29485
657.129	30892
657.185	32971
657.241	43228
657.297	32375
657.352	28631
657.408	26092
657.464	32825
657.519	30332
657.575	26062
657.630	27481
657.686	26524
657.742	27221
657.797	28373
657.853	28860
657.908	30455
657.964	26364
658.019	28469
658.075	29998
658.130	28143
658.186	25453
658.241	26563
658.297	25955
658.352	27878
658.407	26649
658.463	26317
658.518	27118
658.573	27450
658.629	24645
658.684	24764
658.739	25454
658.795	23502
658.850	25359
658.905	25998
658.960	25376
659.016	24720
659.071	26251
659.126	27786
659.181	28780
659.236	36683
659.291	35818
659.346	30877
659.401	30763
659.457	26695
659.512	25643
659.567	28111
659.622	26457
659.677	27676
659.732	28421
659.787	29467
659.842	36769
659.897	46370
659.952	28333
660.007	26195
660.061	27950
660.116	27730
660.171	25897
660.226	26125
660.281	26164
660.336	24866
660.391	25141
660.445	25886
660.500	26807
660.555	27589
660.610	26685
660.664	26519
660.719	26829
660.774	26058
660.828	26413
660.883	25959
660.938	26817
660.992	26678
661.047	27864
661.101	24913
661.156	25777
661.211	25548
661.265	26121
661.320	25873
661.374	26245
661.429	26129
661.483	27649
661.538	27373
661.592	26689
661.647	27796
661.701	26318
661.755	27408
661.810	28708
661.864	27520
661.919	26965
661.973	28787
662.027	26965
662.081	26302
662.136	27730
662.190	28641
662.244	31750
662.299	28436
662.353	27258
662.407	27902
662.461	29527
662.515	29794
662.569	30400
662.624	30732
662.678	28971
662.732	27372
662.786	27875
662.840	30947
662.894	29792
662.948	26695
663.002	25487
663.056	25834
663.110	26026
663.164	26377
663.218	26140
663.272	25675
663.326	28094
663.380	29562
663.434	30829
663.488	29828
663.542	29488
663.595	29128
663.649	29850
663.703	28602
663.757	28743
663.811	28369
663.864	26620
663.918	26932
663.972	27546
664.026	27376
664.079	26627
664.133	28756
664.187	25513
664.240	25730
664.294	26502
664.348	28398
664.401	26689
664.455	25865
664.508	26610
664.562	27356
664.615	27031
664.669	25810
664.722	26641
664.776	27025
664.829	27965
664.883	29046
664.936	29332
664.990	31447
665.043	32139
665.097	36011
665.150	35968
665.203	33152
665.257	31612
665.310	30940
665.363	30878
665.417	32145
665.470	31395
665.523	32383
665.576	30582
665.630	29553
665.683	31431
665.736	31739
665.789	31607
665.842	30558
665.895	31972
665.949	31270
666.002	29008
666.055	31595
666.108	32440
666.161	31358
666.214	31494
666.267	31445
666.320	34048
666.373	31439
666.426	31456
666.479	31418
666.532	36043
666.585	42213
666.638	43338
666.691	38805
666.744	42230
666.796	40678
666.849	36993
666.902	31885
666.955	30135
667.008	28385
667.060	28008
667.113	27281
667.166	27059
667.219	28947
667.271	29153
667.324	29098
667.377	28674
667.430	27843
667.482	29219
667.535	28663
667.587	30724
667.640	31968
667.693	38091
667.745	41865
667.798	41923
667.850	32364
667.903	31362
667.955	31718
668.008	32023
668.060	39147
668.113	37660
668.165	37580
668.218	36910
668.270	35538
668.322	33613
668.375	34097
668.427	35305
668.479	30949
668.532	34200
668.584	35298
668.636	31502
668.689	33755
668.741	33884
668.793	32763
668.845	32261
668.898	33277
668.950	32892
669.002	33449
669.054	34092
669.106	34121
669.158	35132
669.211	32221
669.263	32661
669.315	35613
669.367	32422
669.419	34168
669.471	34840
669.523	31465
669.575	34140
669.627	34456
669.679	31070
669.731	31287
669.783	31478
669.835	32209
669.886	30995
669.938	31949
669.990	30399
670.042	28841
670.094	30990
670.146	28668
670.197	29594
670.249	32121
670.301	30862
670.353	31503
670.404	32523
670.456	34301
670.508	38304
670.560	47353
670.611	62360
670.663	90997
670.715	192757
670.766	253330
670.818	70278
670.869	34459
670.921	31975
670.972	32981
671.024	31433
671.075	30819
671.127	31657
671.178	29824
671.230	30982
671.281	30985
671.333	32498
671.384	35601
671.436	38575
671.487	40305
671.538	41791
671.590	47123
671.641	60560
671.692	78036
671.744	118212
671.795	79743
671.846	46277
671.897	40792
671.949	40180
672.000	35100
672.051	35018
672.102	36811
672.153	34453
672.204	35166
672.256	33779
672.307	35781
672.358	36000
672.409	34950
672.460	32885
672.511	32397
672.562	33425
672.613	32515
672.664	32935
672.715	34048
672.766	34182
672.817	32535
672.868	31314
672.919	31477
672.970	31768
673.021	33290
673.071	30982
673.122	31017
673.173	30895
673.224	30987
673.275	31586
673.326	30292
673.376	31011
673.427	31680
673.478	30377
673.528	29907
673.579	29711
673.630	29687
673.680	31180
673.731	29180
673.782	28787
673.832	31349
673.883	33508
673.934	29658
673.984	29111
674.035	31147
674.085	29834
674.136	33464
674.186	35788
674.237	44333
674.287	58728
674.338	35935
674.388	31432
674.438	29913
674.489	31209
674.539	32264
674.589	33666
674.640	32632
674.690	30950
674.740	35324
674.791	35614
674.841	33409
674.891	33213
674.942	30197
674.992	29317
675.042	27419
675.092	26835
675.142	29061
675.193	28517
675.243	27377
675.293	30854
675.343	31113
675.393	31883
675.443	31023
675.493	26950
675.543	29133
675.593	31753
675.643	28868
675.693	29338
675.743	30241
675.793	27791
675.843	28128
675.893	29217
675.943	26545
675.993	28358
676.043	30015
676.093	27853
676.142	25944
676.192	30077
676.242	28112
676.292	27089
676.341	30720
676.391	29702
676.441	26486
676.491	26595
676.540	25397
676.590	26400
676.640	27468
676.689	26739
676.739	26132
676.789	24942
676.838	26084
676.888	25622
676.937	27094
676.987	25141
677.037	24518
677.086	23551
677.136	26544
677.185	25037
677.235	22176
677.284	23989
677.333	24351
677.383	23556
677.432	22373
677.482	24053
677.531	24557
677.580	25918
677.630	22531
677.679	22451
677.728	25843
677.778	23091
677.827	21858
677.876	22381
677.925	22909
677.975	24415
678.024	24090
678.073	25116
678.122	28054
678.171	27194
678.220	26759
678.269	30530
678.319	29153
678.368	27340
678.417	27546
678.466	29193
678.515	29468
678.564	29017
678.613	27025
678.662	26740
678.711	27070
678.760	25949
678.809	25821
678.857	26479
678.906	26475
678.955	26881
679.004	26680
679.053	25856
679.102	26175
679.151	26598
679.199	24977
679.248	23757
679.297	27407
679.346	27941
679.394	26389
679.443	24680
679.492	26112
679.540	25903
679.589	28104
679.638	25338
679.686	23156
679.735	24003
679.784	26025
679.832	27281
679.881	23959
679.929	23096
679.978	21884
680.026	24265
680.075	23801
680.123	23552
680.172	22454
680.220	21293
680.268	24303
680.317	22921
680.365	22583
680.414	21891
680.462	22712
680.510	23644
680.559	21643
680.607	21455
680.655	23178
680.703	23239
680.752	21899
680.800	20190
680.848	20843
680.896	20960
680.945	22292
680.993	23004
681.041	22039
681.089	21777
681.137	19889
681.185	20627
681.233	22577
681.258	22368
681.281	22114
681.329	20292
681.377	20571
681.380	20744
681.425	22757
681.473	25280
681.502	25213
681.521	25065
681.569	23818
681.617	23521
681.624	23525
681.665	23075
681.713	23216
681.745	23076
681.761	22920
681.809	22655
681.857	22240
681.867	22542
681.904	23344
681.952	24072
681.989	24047
682.000	23968
682.048	24945
682.096	23712
682.111	23681
682.143	23404
682.191	23135
682.233	24131
682.239	24219
682.286	23088
682.334	22342
682.354	22864
682.382	23471
682.430	24046
682.476	23502
682.477	23436
682.525	23592
682.572	23125
682.598	22681
682.620	22235
682.667	23511
682.715	25153
682.720	25171
682.763	24799
682.810	23301
682.841	23194
682.857	23024
682.905	23100
682.952	24262
682.963	24394
683.000	24691
683.047	24263
683.085	23666
683.095	23424
683.142	23486
683.190	24099
683.206	23822
683.237	23246
683.284	23501
683.328	24279
683.332	24293
683.379	23541
683.426	24147
683.449	23682
683.473	23141
683.521	23986
683.568	24024
683.571	24011
683.615	23195
683.662	23582
683.693	23791
683.709	23877
683.757	23343
683.804	24295
683.814	24650
683.851	25613
683.898	24472
683.936	24487
683.945	24465
683.992	24632
684.039	24252
684.057	24468
684.086	24697
684.133	25017
684.179	25108
684.180	25069
684.227	25940
684.274	25090
684.300	25229
684.321	25170
684.368	25203
684.415	26075
684.422	25973
684.462	25273
684.509	24069
684.543	24800
684.556	25070
684.603	25068
684.649	25084
684.665	25025
684.696	24816
684.743	26462
684.786	27846
684.790	27971
684.837	28372
684.883	30893
684.908	31864
684.930	32374
684.977	33535
685.023	29411
685.029	29432
685.070	28811
685.117	28799
685.150	30054
685.164	30805
685.210	31749
685.257	32868
685.272	32351
685.303	30701
685.350	30352
685.393	30567
685.396	30593
685.443	30633
685.490	32062
685.514	31945
685.536	31525
685.583	31826
685.629	31137
685.636	31073
685.675	30786
685.722	29977
685.757	31594
685.768	32141
685.815	32180
685.861	32522
685.878	32453
685.908	32598
685.954	33488
686.000	35798
686.000	35847
686.047	39589
686.093	46530
686.121	45416
686.139	42432
686.185	38820
686.232	35198
686.242	34436
686.278	32963
686.324	31516
686.363	29338
686.370	29118
686.416	29588
686.463	31454
686.484	30849
686.509	30238
686.555	29986
686.601	30525
686.606	30547
686.647	30671
686.693	30409
686.727	31000
686.739	31238
686.785	31283
686.831	31479
686.848	31354
686.877	30658
686.923	29705
686.969	29095
686.969	29095
687.015	30273
687.061	31227
687.090	31540
687.107	31495
687.153	31176
687.199	29917
687.211	29778
687.245	30076
687.291	32700
687.332	34714
687.336	34828
687.382	34804
687.428	32869
687.453	32181
687.474	31120
687.520	30776
687.565	29343
687.574	29139
687.611	29681
687.657	29888
687.695	31029
687.702	31286
687.748	31602
687.794	33108
687.816	32908
687.839	31956
687.885	30527
687.931	29696
687.937	29734
687.976	30879
688.022	30835
688.058	32126
688.067	32372
688.113	31639
688.158	30583
688.179	30520
688.204	30764
688.249	31626
688.295	32703
688.300	32883
688.340	34395
688.386	34168
688.421	33787
688.431	33489
688.477	32603
688.522	32535
688.542	32388
688.567	32550
688.613	32077
688.658	32046
688.663	32048
688.703	32229
688.749	33554
688.784	33125
688.794	32946
688.839	32803
688.884	32559
688.905	31734
688.930	30893
688.975	32176
689.020	33031
689.026	33031
689.065	33290
689.110	31838
689.146	32516
689.155	32609
689.201	30985
689.246	30642
689.267	30632
689.291	31065
689.336	31807
689.381	32127
689.388	32174
689.426	32259
689.471	32468
689.509	31838
689.516	31742
689.561	31168
689.606	31866
689.630	31687
689.651	31703
689.696	31522
689.741	32140
689.750	32261
689.785	32472
689.830	31933
689.871	31545
689.875	31524
689.920	31204
689.965	30967
689.992	30474
690.010	30542
690.054	31406
690.099	32156
690.112	32299
690.144	32117
690.189	31700
690.233	30547
690.233	30573
690.278	30320
690.323	30867
690.354	30955
690.367	31189
690.412	32251
690.457	32612
690.474	32746
690.501	32464
690.546	31410
690.590	31353
690.595	31307
690.635	31902
690.680	31800
690.716	32124
690.724	32341
690.769	33904
690.813	34539
690.836	34542
690.857	35219
690.902	37955
690.946	40356
690.957	40880
690.991	45591
691.035	51930
691.077	57485
691.080	57619
691.124	58215
691.168	59734
691.198	60019
691.213	58563
691.257	54988
691.301	50319
691.318	48473
691.346	45679
691.390	41363
691.434	37325
691.439	36772
691.478	36331
691.522	36517
691.559	36058
691.567	36028
691.611	35786
691.655	35393
691.680	35032
691.699	34964
691.743	35470
691.787	35246
691.800	35243
691.831	36048
691.875	37607
691.919	38319
691.921	38291
691.964	38724
692.008	39933
692.041	39888
692.052	39705
692.096	39167
692.139	39034
692.162	38281
692.183	37661
692.227	38053
692.271	37603
692.282	37399
692.315	37364
692.359	37440
692.402	37464
692.403	37519
692.447	37202
692.490	37455
692.523	37560
692.534	37826
692.578	38891
692.622	38600
692.643	38849
692.666	38407
692.709	37537
692.753	36465
692.763	36119
692.797	36032
692.840	36097
692.884	36495
692.884	36559
692.928	37064
692.971	37821
693.004	38112
693.015	38123
693.059	38050
693.102	37313
693.124	37183
693.146	37716
693.189	38963
693.233	40086
693.245	40366
693.276	41084
693.320	41331
693.363	41978
693.365	41940
693.407	42853
693.450	43286
693.485	43542
693.493	44020
693.537	46280
693.580	48559
693.605	49873
693.624	51575
693.667	55062
693.710	58792
693.725	60169
693.753	69548
693.797	83900
693.840	97853
693.845	99335
693.883	97643
693.926	95235
693.966	93597
693.970	92551
694.013	79383
694.056	66308
694.086	57659
694.099	56903
694.142	53646
694.185	50336
694.206	48449
694.229	48154
694.272	47724
694.315	47648
694.326	47519
694.358	46776
694.401	44921
694.444	43698
694.446	43557
694.487	42623
694.530	41205
694.566	40150
694.573	39999
694.616	38353
694.659	36714
694.686	35890
694.702	35885
694.745	35108
694.787	34456
694.806	34183
694.830	34602
694.873	35516
694.916	35733
694.926	35805
694.959	35702
695.002	35469
695.044	35194
695.046	35118
695.087	35643
695.130	36123
695.166	36702
695.172	36856
695.215	36650
695.258	36777
695.286	37015
695.301	37068
695.343	36693
695.386	36180
695.406	35940
695.428	35587
695.471	34637
695.514	34183
695.526	33915
695.556	34545
695.599	35234
695.641	35818
695.646	35825
695.684	35603
695.726	35267
695.766	35050
695.769	35159
695.811	35458
695.854	35780
695.886	36027
695.896	35898
695.938	34942
695.981	34122
696.005	33444
696.023	33882
696.065	35127
696.108	36419
696.125	36797
696.150	36987
696.192	37135
696.235	37217
696.245	37141
696.277	36388
696.319	35569
696.361	34541
696.365	34393
696.404	34544
696.446	34504
696.485	34351
696.488	34477
696.530	35257
696.572	36271
696.604	36812
696.614	36706
696.656	35694
696.698	34821
696.724	34190
696.740	34151
696.783	33950
696.825	33853
696.844	33633
696.867	33910
696.909	34557
696.951	34849
696.964	34939
696.992	34831
697.034	34411
697.076	34091
697.083	33968
697.118	34415
697.160	34810
697.202	35263
697.203	35194
697.244	35104
697.286	35068
697.323	34840
697.327	34826
697.369	34108
697.411	33330
697.442	32726
697.453	33105
697.494	34272
697.536	35536
697.562	36198
697.578	36142
697.620	35690
697.661	35395
697.682	35109
697.703	35520
697.744	36303
697.786	37063
697.801	37251
697.828	37683
697.869	38130
697.911	38624
697.921	38665
697.952	38104
697.994	37236
698.035	36358
698.040	36165
698.077	35481
698.118	34566
698.160	33735
698.160	33650
698.201	34176
698.243	34564
698.279	34910
698.284	34991
698.325	34973
698.367	34903
698.399	34762
698.408	34689
698.449	34016
698.491	33316
698.518	32765
698.532	33071
698.573	33819
698.614	34531
698.638	34855
698.656	35193
698.697	35804
698.738	36401
698.757	36598
698.779	36836
698.820	37145
698.862	37424
698.877	37445
698.903	38380
698.944	39731
698.985	41081
698.996	41360
699.026	40394
699.067	38922
699.116	37078
699.235	34596
699.354	34584
699.474	37117
699.593	44949
699.713	42373
699.832	35343
699.951	36968
700.070	34484
700.190	34544
700.309	35603
700.428	43582
700.547	35254
700.667	35931
700.786	43244
700.905	34632
701.024	40308
701.143	35836
701.262	30009
701.381	31673
701.500	33076
701.619	33033
701.738	30826
701.857	29997
701.976	29307
702.095	29522
702.214	33648
702.333	32466
702.452	31139
702.571	29990
702.690	30114
702.809	28522
702.928	27920
703.047	30675
703.165	29321
703.284	28659
703.403	30289
703.522	37431
703.640	35522
703.759	46831
703.878	68810
703.997	34406
704.115	30535
704.234	29567
704.353	27656
704.471	26824
704.590	25951
704.708	26839
704.827	26064
704.946	30674
705.064	35340
705.183	29663
705.301	39615
705.420	56072
705.538	47411
705.656	39018
705.775	37746
705.893	47668
706.012	50235
706.130	41465
706.249	41272
706.367	44483
706.485	47166
706.604	44533
706.722	45221
706.840	56188
706.958	53559
707.077	41304
707.195	37221
707.313	37536
707.431	36785
707.549	36730
707.668	38362
707.786	39118
707.904	36466
708.022	34937
708.140	35515
708.258	34398
708.376	36573
708.494	36166
708.612	43388
708.730	63538
708.848	55741
708.966	49323
709.084	47646
709.202	46212
709.320	48565
709.438	48827
709.556	48023
709.674	49160
709.791	47690
709.909	45966
710.027	45260
710.145	45772
710.263	48059
710.380	49042
710.498	45281
710.616	46366
710.733	46850
710.851	49059
710.969	50817
711.086	47450
711.204	45595
711.322	46576
711.439	47266
711.557	49866
711.674	46883
711.792	45880
711.909	42499
712.027	43252
712.144	42434
712.262	44652
712.379	52948
712.497	73762
712.614	70529
712.732	58029
712.849	55988
712.966	63061
713.084	70020
713.201	61348
713.318	57265
713.436	55441
713.553	57988
713.670	60405
713.787	67927
713.905	68380
714.022	55703
714.139	55640
714.256	60556
714.373	71173
714.490	96182
714.608	205976
714.725	756621
714.842	658410
714.959	85545
715.076	60205
715.193	52618
715.310	49412
715.427	47971
715.544	45319
715.661	47442
715.778	48013
715.895	55073
716.011	53310
716.128	46573
716.245	46847
716.362	51153
716.479	52339
716.596	44121
716.713	45812
716.829	44859
716.946	45343
717.063	41231
717.180	41037
717.296	40603
717.413	41295
717.530	41862
717.646	39839
717.763	40047
717.880	39314
717.996	40115
718.113	39744
718.229	38843
718.346	36823
718.462	40215
718.579	46469
718.695	65775
718.812	64161
718.928	69578
719.045	45469
719.161	36691
719.277	35136
719.394	35457
719.510	38171
719.626	40210
719.743	51175
719.859	51015
719.975	75613
720.092	237302
720.208	462751
720.324	74097
720.440	44101
720.557	47003
720.673	63242
720.789	106356
720.905	245123
721.021	69262
721.137	37947
721.253	39229
721.369	41643
721.486	49700
721.602	73035
721.718	35015
721.834	31327
721.950	33203
722.066	31151
722.181	31953
722.297	32863
722.413	30833
722.529	31406
722.645	30800
722.761	31363
722.877	30219
722.993	29224
723.108	32213
723.224	31450
723.340	31786
723.456	29175
723.571	30453
723.687	28036
723.803	27989
723.918	27904
724.034	29486
724.150	30109
724.265	39253
724.381	95144
724.497	108319
724.612	29665
724.728	27497
724.843	28345
724.959	38107
725.074	91732
725.190	92742
725.305	35605
725.421	29152
725.536	23725
725.651	24983
725.767	23978
725.882	23213
725.997	23813
726.113	24768
726.228	23375
726.343	22999
726.459	23318
726.574	27827
726.689	23615
726.804	24232
726.920	24183
727.035	25589
727.150	26131
727.265	23712
727.380	25427
727.495	22559
727.610	20408
727.725	22572
727.841	22569
727.956	27247
728.071	32142
728.186	21245
728.301	19377
728.416	21929
728.531	19897
728.645	19709
728.760	21989
728.875	21771
728.990	20299
729.105	20717
729.220	20927
729.335	21685
729.449	19617
729.564	18433
729.679	18438
729.794	19030
729.908	25455
730.023	21417
730.138	16965
730.253	18624
730.367	17607
730.482	17472
730.596	17999
730.711	19705
730.826	18553
730.940	19754
731.055	19005
731.169	18461
731.284	17365
731.398	19791
731.513	25845
731.627	23739
731.742	29167
731.856	30473
731.970	20619
732.085	23661
732.199	28988
732.313	46190
732.428	104517
732.542	253974
732.656	130576
732.771	35112
732.885	24255
732.999	23614
733.113	24086
733.227	21913
733.342	17670
733.456	18480
733.570	16763
733.684	17091
733.798	17802
733.912	16311
734.026	15577
734.140	16337
734.254	22425
734.368	49531
734.482	56443
734.596	16251
734.710	15544
734.824	16096
734.938	14733
735.052	15753
735.166	20251
735.280	16462
735.393	14908
735.507	16161
735.621	28357
735.735	61035
735.849	20961
735.962	14717
736.076	18279
736.190	19144
736.303	33057
736.417	40085
736.531	16591
736.644	16380
736.758	12891
736.872	13075
736.985	12907
737.099	11977
737.212	12054
737.326	13376
737.439	13465
737.553	12272
737.666	13828
737.780	11644
737.893	12990
738.007	11861
738.120	12242
738.233	12188
738.347	11847
738.460	11295
738.573	12995
738.687	12938
738.800	13987
738.913	16333
739.026	14448
739.140	13318
739.253	11465
739.366	11071
739.479	12020
739.592	11385
739.705	11770
739.818	12282
739.932	10427
740.045	11261
740.158	11833
740.271	13098
740.384	10861
740.497	11166
740.610	11375
740.723	11743
740.836	11229
740.949	12638
741.062	15980
741.174	15132
741.287	13009
741.400	11385
741.513	11265
741.626	12358
741.739	12231
741.851	12002
741.964	10709
742.077	11379
742.189	11366
742.302	11921
742.415	11545
742.527	10366
742.640	11180
742.753	11020
742.865	10185
742.978	9508
743.090	11168
743.203	11685
743.316	9986
743.428	8786
743.541	10632
743.653	9528
743.766	10024
743.878	12204
743.990	21088
744.103	16648
744.215	10281
744.327	9970
744.440	12744
744.552	18013
744.664	11523
744.777	9425
744.889	8927
745.001	10163
745.113	8806
745.226	8164
745.338	9002
745.450	8991
745.562	9885
745.674	9517
745.786	8513
745.898	8895
746.010	9074
746.122	8827
746.234	8587
746.347	7833
746.459	8795
746.570	7583
746.682	8242
746.794	8401
746.906	8691
747.018	8597
747.130	8928
747.242	8374
747.354	9333
747.466	10027
747.577	8288
747.689	8412
747.801	8732
747.913	7938
748.024	8328
748.136	7852
748.248	7695
748.359	8073
748.471	8410
748.583	8103
748.694	8113
748.806	12086
748.918	17913
749.029	11051
749.141	9774
749.252	9507
749.364	11957
749.475	21678
749.587	18222
749.698	9098
749.809	8463
749.921	7940
750.032	8253
750.144	7616
750.255	6800
750.366	6773
750.478	8115
750.589	8103
750.700	8850
750.811	9492
750.923	11853
751.034	22789
751.145	20475
751.256	7953
751.367	7771
751.479	7799
751.590	7661
751.701	6903
751.812	7289
751.923	7997
752.034	7900
752.145	7014
752.256	7342
752.367	7089
752.478	7336
752.589	7724
752.700	7119
752.811	7751
752.922	7176
753.032	8548
753.143	9280
753.254	6336
753.365	8129
753.476	6830
753.586	7230
753.697	7183
753.808	7667
753.919	7171
754.029	6489
754.140	6747
754.251	6957
754.361	6941
754.472	7310
754.582	7922
754.693	7072
754.804	7726
754.914	6069
755.025	6047
755.135	6373
755.246	7640
755.356	6465
755.466	7506
755.577	6822
755.687	6643
755.798	6508
755.908	6373
756.018	6361
756.129	7729
756.239	7072
756.349	6360
756.460	7247
756.570	7697
756.680	8389
756.790	8011
756.900	8376
757.011	7072
757.121	7558
757.231	6861
757.341	7536
757.451	5402
757.561	6600
757.671	6316
757.781	5987
757.891	7570
758.001	8921
758.111	8491
758.221	8093
758.331	9640
758.441	8049
758.551	12598
758.661	10932
758.771	8962
758.880	8891
758.990	9514
759.100	7934
759.210	8575
759.320	8706
759.429	8232
759.539	8956
759.649	9618
759.758	9979
759.868	10683
759.978	10390
760.087	11167
760.197	11144
760.307	10141
760.416	9500
760.526	9223
760.635	10810
760.745	9486
760.854	10843
760.964	11144
761.073	11261
761.182	10584
761.292	11314
761.401	13505
761.511	10023
761.620	9785
761.729	10225
761.839	10425
761.948	10080
762.057	10789
762.166	11072
762.276	8340
762.385	9893
762.494	8739
762.603	9992
762.712	10606
762.822	11024
762.931	11354
763.040	9320
763.149	10765
763.258	10425
763.367	11067
763.476	11516
763.585	11722
763.694	12491
763.803	12805
763.912	13622
764.021	12344
764.130	13161
764.238	12719
764.347	14064
764.456	14463
764.565	15280
764.674	15263
764.783	16917
764.891	16708
765.000	19121
765.109	21312
765.217	23268
765.326	29827
765.435	36203
765.543	36426
765.652	43446
765.761	57276
765.869	76890
765.978	113008
766.086	182309
766.195	317024
766.303	589809
766.412	743736
766.520	649019
766.629	493128
766.737	253251
766.846	150217
766.954	99412
767.062	73372
767.171	56621
767.279	44481
767.387	35503
767.496	31134
767.604	28775
767.712	24739
767.820	22256
767.928	22209
768.037	20830
768.145	20708
768.253	19997
768.361	18829
768.469	19588
768.577	20851
768.685	20634
768.793	21314
768.901	23414
769.009	25176
769.117	29022
769.225	35649
769.333	48699
769.441	73272
769.549	123287
769.657	251676
769.765	540482
769.873	607994
769.981	448691
770.088	192117
770.196	98777
770.304	63411
770.412	47532
770.519	37861
770.627	30497
770.735	25822
770.842	22779
770.950	20761
771.058	18852
771.165	17653
771.273	17170
771.380	16451
771.488	15433
771.595	14226
771.703	13290
771.810	13671
771.918	13725
772.025	13580
772.133	11755
772.240	12332
772.348	13568
772.455	12640
772.562	11726
772.670	10999
772.777	12008
772.884	10491
772.991	10369
773.099	11087
773.206	9905
773.313	11109
773.420	10409
773.528	10071
773.635	10054
773.742	10156
773.849	10317
773.956	9779
774.063	9428
774.170	9881
774.277	11100
774.384	10193
774.491	10653
774.598	10968
774.705	10735
774.812	12746
774.919	11015
775.026	11486
775.133	10513
775.239	10842
775.346	9905
775.453	9272
775.560	9559
775.667	9993
775.773	9191
775.880	10027
775.987	9546
776.093	9570
776.200	9673
776.307	8522
776.413	10437
776.520	9837
776.627	9532
776.733	8882
776.840	8059
776.946	10143
777.053	9477
777.159	9832
777.266	8204
777.372	10494
777.478	9684
777.585	9484
777.691	8936
777.798	9108
777.904	10546
778.010	12327
778.117	11732
778.223	8331
778.329	8580
778.435	8782
778.542	9115
778.648	8683
778.754	7740
778.860	8241
778.966	9309
779.072	9430
779.178	8431
779.284	8718
779.391	8176
779.497	7576
779.603	10824
779.708	10736
779.815	19093
779.920	52865
780.026	91621
780.132	17353
780.238	9571
780.344	8106
780.450	9365
780.556	8438
780.661	8058
780.767	7781
780.873	7379
780.979	8708
781.085	7595
781.190	6723
781.296	6977
781.402	7537
781.507	6629
781.613	7234
781.719	7369
781.824	6966
781.930	8269
782.035	8721
782.141	7030
782.246	6818
782.352	6940
782.457	6895
782.563	6627
782.668	7172
782.773	8245
782.879	7274
782.984	8439
783.090	9085
783.195	12376
783.300	10041
783.405	9213
783.511	8503
783.616	8766
783.721	8211
783.826	6783
783.932	8576
784.037	7717
784.142	7740
784.247	8848
784.352	7705
784.457	7607
784.562	7378
784.667	6414
784.772	7094
784.877	6230
784.982	7061
785.087	6293
785.192	7522
785.297	6654
785.402	6693
785.507	6535
785.611	7227
785.716	7383
785.821	6854
785.926	6254
786.031	6415
786.135	7167
786.240	5555
786.345	5911
786.450	5608
786.554	5279
786.659	5807
786.763	4856
786.868	5983
786.973	6670
787.077	6636
787.182	5633
787.286	6508
787.391	5994
787.495	5811
787.600	6244
787.704	5301
787.809	6204
787.913	5344
788.017	6001
788.122	6288
788.226	5192
788.330	5223
788.435	6462
788.539	5336
788.643	5033
788.747	5580
788.852	4933
788.956	4211
789.060	5575
789.164	4915
789.268	5888
789.372	5743
789.476	5391
789.580	4409
789.684	4299
789.788	6063
789.892	4507
789.996	6664
790.100	5850
790.204	5739
790.308	7011
790.412	5977
790.516	5955
790.620	5775
790.724	6763
790.828	6469
790.931	5735
791.035	7603
791.139	5416
791.242	4515
791.346	5704
791.450	5341
791.554	4836
791.657	3761
791.761	5777
791.864	6100
791.968	5379
792.072	5107
792.175	5507
792.279	4546
792.382	5300
792.486	5217
792.589	6330
792.693	5846
792.796	4759
792.899	5483
793.003	4717
793.106	3571
793.209	5271
793.313	6859
793.416	4448
793.519	5703
793.623	8462
793.726	11242
793.829	6112
793.932	4840
794.035	5349
794.138	6067
794.242	7151
794.345	9193
794.448	10030
794.551	14200
794.654	30676
794.757	50253
794.860	16997
794.963	9363
795.066	4497
795.169	6182
795.272	4924
795.375	4071
795.477	3741
795.580	5069
795.683	3186
795.786	4693
795.889	4132
795.991	6431
796.094	7794
796.197	6183
796.300	5720
796.402	3724
796.505	4154
796.608	3783
796.710	4970
796.813	3840
796.915	3894
797.018	4402
797.120	4068
797.223	3160
797.326	4609
797.428	3624
797.530	4198
797.633	5331
797.735	7918
797.838	18006
797.940	13010
798.042	4041
798.145	3844
798.247	4782
798.349	2848
798.452	3958
798.554	4290
798.656	3371
798.758	4812
798.860	3774
798.962	3795
799.065	3397
799.167	4272
799.269	5775
799.371	5185
799.473	6159
799.575	9280
799.677	10627
799.779	7645
799.881	8509
799.983	6629
800.085	4745
800.187	4308
800.289	4668
800.390	4511
800.492	4365
800.594	4592
800.696	4111
800.798	3853
800.899	2976
801.001	2641
801.103	3253
801.205	3945
801.306	3026
801.408	3307
801.509	4013
801.611	3741
801.713	3236
801.814	3308
801.916	3221
802.017	3667
802.119	2712
802.220	3553
802.322	3521
802.423	10920
802.525	7358
802.626	3899
802.727	3770
802.829	4365
802.930	1899
803.031	4507
803.133	2671
803.234	2625
803.335	2875
803.436	2414
803.538	3766
803.639	2497
803.740	3815
803.841	3264
803.942	2990
804.043	3654
804.144	2617
804.245	2770
804.346	2549
804.447	3229
804.548	5033
804.649	5981
804.750	3008
804.851	2057
804.952	2649
805.053	3236
805.154	2133
805.255	3940
805.355	2887
805.456	1825
805.557	2637
805.658	1736
805.758	3942
805.859	2357
805.960	2862
806.061	2065
806.161	1864
806.262	3088
806.362	2490
806.463	3349
806.564	3386
806.664	3741
806.765	6622
806.865	6779
806.966	3804
807.066	3135
807.166	4155
807.267	3461
807.367	1889
807.468	2980
807.568	1904
807.668	3739
807.769	3128
807.869	2220
807.969	2678
808.069	3145
808.170	3165
808.270	2690
808.370	3732
808.470	4813
808.570	2618
808.670	2688
808.770	2507
808.870	2288
808.970	2876
809.070	1810
809.170	1676
809.271	4094
809.370	2101
809.470	1488
809.570	2237
809.670	2196
809.770	1784
809.870	2743
809.970	2725
810.070	2861
810.169	3154
810.269	1604
810.369	3560
810.469	2245
810.568	2790
810.668	2867
810.768	2077
810.867	2367
810.967	1611
811.066	2639
811.166	3229
811.265	2368
811.365	2437
811.464	1699
811.564	2856
811.663	2917
811.763	1322
811.862	3032
811.962	2577
812.061	2439
812.160	1680
812.260	2472
812.359	3068
812.458	2336
812.557	3474
812.657	3772
812.756	3137
812.855	2356
812.954	2575
813.053	3478
813.153	2195
813.252	1693
813.351	2815
813.450	2344
813.549	1891
813.648	2725
813.747	1677
813.846	2851
813.945	2014
814.044	2851
814.143	2609
814.242	3020
814.341	1735
814.439	2778
814.538	2894
814.637	2701
814.736	2485
814.835	3787
814.933	2940
815.032	3831
815.131	2916
815.229	3716
815.328	3694
815.427	3389
815.525	3930
815.624	4986
815.722	3823
815.821	3531
815.919	4338
816.018	4379
816.116	4878
816.215	4685
816.313	4795
816.412	5077
816.510	5155
816.609	7144
816.707	5605
816.805	5673
816.904	6102
817.002	6902
817.100	8198
817.198	7935
817.296	8256
817.395	11247
817.493	12490
817.591	13632
817.689	17951
817.787	23413
817.885	36117
817.983	60048
818.081	115747
818.179	245945
818.277	514736
818.375	492020
818.473	203585
818.571	92676
818.669	59551
818.767	49234
818.865	47467
818.963	53735
819.061	71849
819.158	113872
819.256	212852
819.354	426238
819.452	719885
819.549	582960
819.647	270042
819.745	128985
819.842	76529
819.940	51564
820.038	37906
820.135	29580
820.233	24111
820.330	17831
820.428	15305
820.525	14334
820.623	12087
820.720	10597
820.818	9886
820.915	8884
821.012	7592
821.110	6861
821.207	7518
821.304	6160
821.402	6454
821.499	6484
821.596	6466
821.693	5659
821.791	6581
821.888	7129
821.985	13250
822.082	9479
822.179	5836
822.276	4720
822.373	4272
822.470	4000
822.567	3920
822.664	2880
822.761	4447
822.858	2387
822.955	4089
823.052	2856
823.149	3474
823.246	3314
823.343	2543
823.440	2651
823.536	2870
823.633	3163
823.730	2023
823.827	2728
823.923	2638
824.020	4112
824.117	2192
824.213	1685
824.310	3204
824.407	2833
824.503	2922
824.600	2829
824.696	1985
824.793	3825
824.889	2204
824.986	2344
825.082	1794
825.179	3308
825.275	3130
825.371	2714
825.468	2276
825.564	1718
825.660	2647
825.757	2383
825.853	2749
825.949	1793
826.045	2178
826.142	1710
826.238	1827
826.334	2192
826.430	1431
826.526	2936
826.622	1736
826.718	2684
826.814	2013
826.910	3514
827.006	2406
827.102	2184
827.198	2342
827.294	2269
827.390	1745
827.486	2833
827.582	1033
827.678	961
827.774	3058
827.869	1606
827.965	2824
828.061	991
828.157	1734
828.252	1968
828.348	933
828.444	2319
828.539	1548
828.635	2164
828.731	2275
828.826	1642
828.922	1966
829.017	2691
829.113	1807
829.208	1860
829.304	1635
829.399	2296
829.495	1994
829.590	3198
829.685	1469
829.781	2543
829.876	1336
829.971	2124
830.066	1828
830.162	2124
830.257	1785
830.352	1747
830.447	2807
830.543	3580
830.638	1543
830.733	3612
830.828	1497
830.923	3277
831.018	2637
831.113	3619
831.208	2832
831.303	2441
831.398	2063
831.493	1042
831.588	2439
831.683	482
831.778	1706
831.873	1922
831.967	2699
832.062	1760
832.157	936
832.252	3209
832.346	1466
832.441	3252
832.536	4392
832.631	10800
832.725	8455
832.820	1970
832.914	1190
833.009	1645
833.104	3058
833.198	3327
833.293	2164
833.387	2725
833.482	2793
833.576	1039
833.670	2587
833.765	2810
833.859	2495
833.954	2434
834.048	2130
834.142	2147
834.237	1203
834.331	1537
834.425	2261
834.519	219
834.613	2210
834.708	1969
834.802	2528
834.896	1129
834.990	1537
835.084	1529
835.178	2137
835.272	2510
835.366	2060
835.460	1836
835.554	1621
835.648	2044
835.742	2037
835.836	2666
835.930	1305
836.024	2380
836.117	3739
836.211	4193
836.305	7182
836.399	10348
836.493	2273
836.586	2549
836.680	880
836.774	889
836.867	1852
836.961	1246
837.055	1033
837.148	1316
837.242	2159
837.335	1908
837.429	2854
837.522	2980
837.616	4620
837.709	12719
837.803	9092
837.896	2968
837.989	3542
838.083	7754
838.176	17772
838.269	14829
838.363	3721
838.456	1630
838.549	4275
838.642	5678
838.735	11085
838.829	5279
838.922	2446
839.015	1721
839.108	735
839.201	2125
839.294	1912
839.387	2496
839.480	2553
839.573	5348
839.666	9399
839.759	3438
839.852	567
839.945	2003
840.038	1468
840.131	2119
840.223	2071
840.316	1654
840.409	2206
840.502	305
840.594	2183
840.687	792
840.780	1850
840.873	2511
840.965	3387
841.058	6739
841.150	15371
841.243	10550
841.336	2514
841.428	1404
841.521	2169
841.613	2691
841.706	3184
841.798	2130
841.890	1918
841.983	717
842.075	2693
842.167	2825
842.260	3573
842.352	6049
842.444	9090
842.537	17885
842.629	24894
842.721	5109
842.813	2318
842.905	1489
842.997	3592
843.090	3704
843.182	8783
843.274	17506
843.366	39360
843.458	75692
843.550	44208
843.642	6968
843.734	3597
843.826	6226
843.918	4800
844.009	2562
844.101	2572
844.193	2168
844.285	1877
844.377	965
844.469	1692
844.560	1403
844.652	1390
844.744	1432
844.835	2180
844.927	2714
845.019	4796
845.110	2439
845.202	1619
845.293	771
845.385	901
845.476	1574
845.568	2049
845.659	2267
845.751	2050
845.842	909
845.934	1237
846.025	1460
846.116	1417
846.208	1823
846.299	1238
846.390	1498
846.482	2373
846.573	3607
846.664	5950
846.755	8095
846.846	6664
846.937	1051
847.029	987
847.120	1770
847.211	1198
847.302	2204
847.393	51
847.484	1044
847.575	797
847.666	1071
847.757	1237
847.847	1831
847.938	1409
848.029	2047
848.120	617
848.211	787
848.302	1591
848.392	1274
848.483	2193
848.574	508
848.664	907
848.755	1691
848.846	1490
848.936	1156
849.027	1825
849.118	2035
849.208	1688
849.299	2960
849.389	4770
849.480	9399
849.570	18482
849.661	31557
849.751	52804
849.841	18829
849.932	3277
850.022	2141
850.112	1931
850.203	1697
850.293	1007
850.383	1484
850.474	731
850.564	1444
850.654	1130
850.744	1409
850.834	1021
850.924	1828
851.014	1753
851.104	1850
851.194	2251
851.284	3316
851.374	3712
851.464	2170
851.554	2985
851.644	4222
851.734	7966
851.824	5546
851.914	1039
852.004	2048
852.094	835
852.183	1231
852.273	1865
852.363	1292
852.452	993
852.542	912
852.632	1875
852.721	1471
852.811	2668
852.901	1545
852.990	1601
853.080	2208
853.169	2118
853.259	2158
853.348	1971
853.438	3486
853.527	4482
853.617	6779
853.706	11951
853.795	22348
853.885	49928
853.974	90335
854.063	164980
854.152	237809
854.242	94444
854.331	20556
854.420	8305
854.509	6706
854.598	6092
854.687	6457
854.777	6669
854.866	3497
854.955	2759
855.044	2393
855.133	1704
855.222	1358
855.311	1358
855.400	1475
855.488	1951
855.577	1429
855.666	1094
855.755	3045
855.844	2296
855.933	1695
856.021	1609
856.110	2386
856.199	1166
856.288	1191
856.376	1685
856.465	373
856.554	855
856.642	1377
856.731	420
856.819	1740
856.908	1699
856.996	1819
857.085	700
857.173	1586
857.262	568
857.350	1426
857.438	622
857.527	1136
857.615	1828
857.703	1965
857.792	1098
857.880	1082
857.968	1145
858.056	1311
858.145	1324
858.233	935
858.321	334
858.409	1452
858.497	1195
858.585	613
858.673	788
858.761	1376
858.849	783
858.937	646
859.025	935
859.113	1048
859.201	986
859.289	1093
859.377	319
859.465	991
859.552	991
859.640	620
859.728	1345
859.816	1119
859.903	1399
859.991	398
860.079	859
860.166	645
860.254	896
860.342	1273
860.429	775
860.517	224
860.604	909
860.692	968
860.779	461
860.867	1159
860.954	452
861.042	1836
861.129	1765
861.216	1723
861.304	542
861.391	610
861.478	1349
861.565	1278
861.653	1983
861.740	785
861.827	506
861.914	1500
862.001	1055
862.089	399
862.176	1879
862.263	999
862.350	863
862.437	649
862.524	887
862.611	906
862.698	926
862.785	1663
862.871	1393
862.958	598
863.045	981
863.132	782
863.219	415
863.306	1022
863.392	1009
863.479	1663
863.566	714
863.652	1835
863.739	1177
863.826	1468
863.912	717
863.999	360
864.086	48
864.172	1163
864.259	491
864.345	-13
864.432	493
864.518	972
864.604	1018
864.691	1049
864.777	2020
864.863	961
864.950	1947
865.036	1412
865.122	2652
865.209	2126
865.295	2588
865.381	2733
865.467	3107
865.553	4611
865.639	6983
865.726	10663
865.812	24325
865.898	46232
865.984	69971
866.070	126635
866.156	129540
866.242	36328
866.328	9411
866.414	4132
866.499	3968
866.585	3395
866.671	2907
866.757	2588
866.843	2379
866.928	1871
867.014	1648
867.100	2188
867.186	3331
867.271	4296
867.357	6458
867.442	6862
867.528	2941
867.614	1121
867.699	1629
867.785	1524
867.870	821
867.956	1405
868.041	2809
868.127	3538
868.212	4201
868.297	2327
868.383	1589
868.468	2707
868.553	5658
868.639	7187
868.724	13597
868.809	10731
868.894	3527
868.979	1742
869.065	3083
869.150	1665
869.235	1077
869.320	1170
869.405	380
869.490	476
869.575	654
869.660	926
869.745	1435
869.830	801
869.915	1506
870.000	1132
870.085	809
870.169	1239
870.254	1830
870.339	359
870.424	494
870.509	547
870.593	-113
870.678	864
870.763	411
870.847	528
870.932	329
871.016	1083
871.101	228
871.186	970
871.270	614
871.355	346
871.439	473
871.523	975
871.608	398
871.692	614
871.777	511
871.861	1860
871.945	605
872.030	1302
872.114	791
872.198	-481
872.282	830
872.367	710
872.451	63
872.535	909
872.619	887
872.703	484
872.787	888
872.871	601
872.955	117
873.039	718
873.123	760
873.207	1287
873.291	1852
873.375	1950
873.459	1253
873.543	-242
873.627	-89
873.711	1235
873.794	790
873.878	20
873.962	68
874.045	359
874.129	77
874.137	116
874.213	504
874.245	615
874.296	798
874.352	261
874.380	-1
874.460	815
874.464	848
874.547	129
874.568	311
874.631	849
874.676	630
874.714	459
874.784	570
874.798	590
874.881	1259
874.892	1156
874.965	450
874.999	668
875.048	1003
875.107	933
875.131	875
875.215	359
875.215	359
875.298	228
875.323	245
875.381	306
875.430	517
875.465	681
875.538	-210
875.548	-334
875.631	486
875.646	423
875.714	80
875.753	27
875.798	14
875.861	667
875.881	847
875.964	283
875.968	290
876.047	487
876.076	633
876.130	862
876.183	954
876.213	1027
876.291	1065
876.296	1063
876.379	472
876.398	525
876.462	729
876.506	1038
876.545	1385
876.613	1015
876.628	881
876.711	836
876.721	817
876.794	855
876.828	508
876.877	-63
876.935	380
876.960	626
877.043	761
877.043	761
877.125	529
877.150	678
877.208	1098
877.258	1171
877.291	1169
877.365	678
877.374	617
877.456	518
877.472	619
877.539	1186
877.579	1031
877.622	742
877.687	1070
877.704	1199
877.787	1154
877.794	1104
877.869	482
877.901	600
877.952	818
878.008	1011
878.034	1090
878.115	724
878.117	718
878.199	683
878.222	706
878.282	786
878.329	1335
878.364	1702
878.437	858
878.447	749
878.529	392
878.544	418
878.611	340
878.651	189
878.694	132
878.758	500
878.776	623
878.858	892
878.865	872
878.941	265
878.972	-66
879.023	-249
879.078	357
879.105	498
879.185	869
879.187	880
879.269	303
879.292	244
879.351	129
879.399	190
879.433	172
879.506	652
879.516	697
879.598	108
879.613	71
879.680	83
879.720	285
879.762	517
879.827	576
879.844	536
879.926	663
879.933	637
880.007	669
880.040	435
880.089	69
880.147	578
880.171	645
880.253	1374
880.254	1373
880.335	1270
880.360	1553
880.417	2109
880.467	3198
880.499	3937
880.574	4357
880.580	4328
880.662	1423
880.680	1121
880.744	263
880.787	-94
880.825	-167
880.893	186
880.907	187
880.989	579
881.000	546
881.070	379
881.106	312
881.152	244
881.213	138
881.233	57
881.315	-435
881.319	-428
881.396	243
881.426	191
881.478	-232
881.532	148
881.559	462
881.639	103
881.641	90
881.722	436
881.745	411
881.803	604
881.852	832
881.885	733
881.958	227
881.966	212
882.047	1076
882.064	1096
882.129	1267
882.171	1395
882.210	1344
882.277	2031
882.291	2159
882.372	982
882.383	808
882.454	-121
882.489	-33
882.535	103
882.596	-84
882.616	-172
882.697	-143
882.702	-153
882.778	379
882.808	727
882.859	657
882.914	449
882.940	374
883.020	-80
883.021	-79
883.102	175
883.127	183
883.183	191
883.233	216
883.264	159
883.339	417
883.345	415
883.426	-280
883.445	-305
883.507	50
883.551	122
883.587	76
883.657	447
883.668	488
883.749	223
883.763	148
883.830	47
883.869	163
883.910	122
883.975	44
883.991	112
884.072	98
884.081	169
884.152	569
884.187	456
884.233	188
884.292	54
884.314	53
884.394	127
884.398	128
884.475	136
884.504	99
884.555	67
884.610	-21
884.636	-138
884.716	-138
884.716	-133
884.797	338
884.821	603
884.877	431
884.927	253
884.958	312
885.033	36
885.038	38
885.118	281
885.139	384
885.199	418
885.244	383
885.279	477
885.350	614
885.359	533
885.439	-74
885.456	-224
885.520	139
885.561	434
885.600	277
885.667	-125
885.680	-63
885.760	254
885.773	337
885.840	482
885.878	534
885.920	450
885.984	292
886.000	365
886.080	565
886.089	611
886.160	280
886.195	99
886.240	352
886.300	596
886.320	524
886.400	403
886.406	398
886.480	260
886.511	155
886.560	362
886.616	657
886.640	767
886.720	734
886.722	741
886.800	703
886.827	603
886.879	346
886.932	273
886.959	294
887.038	200
887.039	205
887.119	417
887.143	604
887.198	396
887.248	-17
887.278	80
887.354	195
887.358	204
887.437	657
887.459	737
887.517	681
887.564	679
887.596	550
887.669	137
887.676	108
887.755	-248
887.774	-338
887.835	-180
887.880	71
887.914	149
887.985	135
887.994	96
888.073	-213
888.090	-271
888.153	31
888.195	216
888.232	150
888.300	-16
888.311	41
888.391	468
888.405	559
888.470	671
888.510	701
888.549	711
888.615	753
888.628	608
888.708	-341
888.720	-477
888.787	-44
888.825	201
888.866	-54
888.930	-492
888.945	-378
889.024	298
889.035	388
889.103	46
889.140	-153
889.182	33
889.245	337
889.261	294
889.340	67
889.349	45
889.419	519
889.454	748
889.498	683
889.559	600
889.577	447
889.656	-221
889.664	-281
889.735	72
889.768	244
889.814	210
889.873	174
889.978	84
890.083	177
890.187	755
890.292	136
890.397	1262
890.501	179
890.606	230
890.710	759
890.815	545
890.919	543
891.024	568
891.128	125
891.233	-73
891.337	484
891.442	17
891.546	320
891.650	216
891.755	656
891.859	1363
891.963	-11
892.068	1131
892.172	223
892.276	-336
892.380	110
892.484	933
892.589	-691
892.693	795
892.797	-201
892.901	178
893.005	30
893.109	432
893.213	846
893.317	915
893.421	367
893.525	30
893.629	741
893.733	582
893.837	514
893.941	772
894.045	490
894.148	-389
894.252	-300
894.356	391
894.460	1311
894.564	439
894.667	226
894.771	-128
894.875	44
894.978	117
895.082	669
895.186	-449
895.289	678
895.393	759
895.496	441
895.600	453
895.703	356
895.807	410
895.910	351
896.014	783
896.117	359
896.221	423
896.324	-45
896.427	413
896.531	-331
896.634	-339
896.737	-121
896.840	79
896.944	338
897.047	563
897.150	778
897.253	337
897.356	732
897.460	151
897.563	124
897.666	740
897.769	493
897.872	575
897.975	144
898.078	329
898.181	297
898.284	-155
898.387	688
898.490	218
898.593	721
898.695	-378
898.798	-273
898.901	158
899.004	723
899.107	-46
899.209	-76
899.312	-216
899.415	-78
899.518	117
899.620	278
899.723	145
899.826	734
899.928	420
900.031	169
900.133	183
900.236	-947
900.338	118
900.441	-421
900.543	737
900.646	190
900.748	237
900.851	517
900.953	-306
901.055	102
901.158	123
901.260	178
901.362	691
901.465	1
901.567	361
901.669	371
901.771	479
901.873	-553
901.976	-271
902.078	-136
902.180	710
902.282	-493
902.384	453
902.486	-346
902.588	533
902.690	933
902.792	444
902.894	141
902.996	-246
903.098	-431
903.200	528
903.302	450
903.404	-752
903.505	-649
903.607	401
903.709	831
903.811	347
903.913	483
904.014	-422
904.116	-185
904.218	366
904.319	846
904.421	-273
904.523	581
904.624	-35
904.726	295
904.827	186
904.929	-11
905.030	1162
905.132	-59
905.233	-445
905.335	-788
905.436	-49
905.537	-251
905.639	23
905.740	432
905.841	29
905.943	22
906.044	318
906.145	-133
906.247	-495
906.348	625
906.449	-83
906.550	-155
906.651	566
906.752	-40
906.854	-173
906.955	371
907.056	-439
907.157	489
907.258	-45
907.359	-618
907.460	78
907.561	105
907.662	-210
907.762	333
907.863	-33
907.964	-68
908.065	-128
908.166	174
908.267	118
908.367	-377
908.468	627
908.569	488
908.670	312
908.770	-397
908.871	289
908.971	662
909.072	918
909.173	130
909.273	103
909.374	363
909.474	778
909.575	-268
909.675	-499
909.776	-61
909.876	338
909.977	578
910.077	556
910.177	17
910.278	221
910.378	-54
910.478	394
910.579	-372
910.679	-453
910.779	49
910.879	263
910.980	-669
911.080	-465
911.180	-599
911.280	417
911.380	626
911.480	269
911.580	-274
911.680	208
911.780	482
911.880	204
911.980	450
912.080	382
912.180	780
912.280	-555
912.380	190
912.480	339
912.580	-331
912.679	277
912.779	208
912.879	63
912.979	334
913.078	-997
913.178	-907
913.278	972
913.377	487
913.477	32
913.577	-276
913.676	0
913.776	382
913.875	626
913.975	58
914.074	450
914.174	-839
914.273	-204
914.373	1083
914.472	-49
914.572	-45
914.671	189
914.770	257
914.870	-75
914.969	-34
915.068	-772
915.167	242
915.267	127
915.366	-651
915.465	-32
915.564	-345
915.663	-99
915.763	-319
915.862	-51
915.961	139
916.060	-1018
916.159	355
916.258	-142
916.357	-466
916.456	330
916.555	-138
916.654	156
916.752	378
916.851	-44
916.950	-99
917.049	8
917.148	-152
917.247	161
917.345	418
917.444	17
917.543	-92
917.642	-344
917.740	-109
917.839	-420
917.937	476
918.036	-228
918.135	-503
918.233	-249
918.332	161
918.430	-89
918.529	311
918.627	325
918.726	-207
918.824	-50
918.923	-33
919.021	76
919.119	348
919.218	254
919.316	-243
919.414	-234
919.512	-145
919.611	-711
919.709	-242
919.807	-232
919.905	81
920.003	-102
920.102	213
920.200	-557
920.298	62
920.396	115
920.494	-578
920.592	-760
920.690	-767
920.788	-236
920.886	-851
920.984	-73
921.082	-855
921.180	803
921.277	-473
921.375	135
921.473	604
921.571	456
921.669	110
921.766	-288
921.864	391
921.962	-295
922.060	437
922.157	-190
922.255	682
922.352	-386
922.450	649
922.548	538
922.645	424
922.743	246
922.840	811
922.938	248
923.035	578
923.133	-378
923.230	480
923.327	752
923.425	-143
923.522	12
923.619	80
923.717	139
923.814	826
923.911	140
924.008	764
924.106	563
924.203	-204
924.300	259
924.397	402
924.494	765
924.591	374
924.688	542
924.786	917
924.883	549
924.979	1052
925.077	310
925.173	139
925.270	167
925.367	757
925.464	928
925.561	1540
925.658	340
925.755	69
925.852	186
925.948	281
926.045	654
926.142	-170
926.239	45
926.335	149
926.432	161
926.529	10
926.625	583
926.722	-88
926.818	578
926.915	713
927.011	249
927.108	-357
927.204	447
927.301	141
927.397	643
927.494	724
927.590	863
927.687	124
927.783	-185
927.879	-510
927.976	-322
928.072	452
928.168	53
928.264	633
928.361	-288
928.457	114
928.553	121
928.649	176
928.745	666
928.841	398
928.937	376
929.033	127
929.129	117
929.225	262
929.321	-58
929.417	37
929.513	-430
929.609	88
929.705	4
929.801	464
929.897	-95
929.993	368
930.089	-222
930.184	-100
930.280	89
930.376	338
930.471	26
930.567	590
930.663	254
930.758	-395
930.854	-112
930.950	472
931.045	630
931.141	110
931.236	527
931.332	-33
931.427	-257
931.523	147
931.618	480
931.714	53
931.809	-523
931.905	241
932.000	-267
932.095	-3
932.191	666
932.286	-128
932.381	33
932.476	-385
932.572	-238
932.667	-954
932.762	-542
932.857	94
932.952	30
933.047	-203
933.142	-75
933.237	5
933.332	-311
933.427	-640
933.522	85
933.617	1041
933.712	-85
933.807	-307
933.902	-370
933.997	214
934.092	-118
934.187	-71
934.282	-321
934.376	68
934.471	-160
934.566	-128
934.661	124
934.755	-86
934.850	-463
934.945	-55
935.039	68
935.134	-188
935.228	171
935.323	-448
935.417	518
935.512	-306
935.606	294
935.701	205
935.795	-245
935.890	-109
935.984	249
936.079	222
936.173	455
936.267	-460
936.362	-1593
936.456	153
936.550	-303
936.644	508
936.738	578
936.833	39
936.927	-521
937.021	-144
937.115	-474
937.209	-1402
937.303	454
937.397	-569
937.491	154
937.585	-398
937.679	-596
937.773	272
937.867	325
937.961	888
938.055	-512
938.149	184
938.243	-710
938.337	-1330
938.430	543
938.524	69
938.618	-613
938.712	-224
938.805	11
938.899	-475
938.993	-449
939.086	-769
939.180	-119
939.274	108
939.367	-592
939.461	-268
939.554	-208
939.648	-95
939.741	-439
939.835	-531
939.928	81
940.022	-619
940.115	248
940.208	-532
940.302	-26
940.395	83
940.488	-1239
940.582	742
940.675	-659
940.768	360
940.861	-656
940.954	-79
941.048	-803
941.141	-1049
941.234	-876
941.327	-46
941.420	623
941.513	-334
941.606	64
941.699	-254
941.792	-899
941.885	-834
941.978	-144
942.071	-253
942.164	-857
942.257	-1252
942.349	-987
942.442	-224
942.535	-997
942.628	-1095
942.721	-354
942.813	-1824
942.906	90
942.999	-723
943.091	-1395
943.184	-668
943.277	-405
943.369	-116
943.462	-886
943.554	-875
943.647	-552
943.739	-320
943.832	-1089
943.924	-1281
944.017	-44
944.109	-717
944.201	399
944.294	-833
944.386	-414
944.478	418
944.571	109
944.663	349
944.755	140
944.847	-484
944.940	-433
945.032	-1708
945.124	-725
945.216	295
945.308	-340
945.400	1066
945.492	-1040
945.584	-441
945.676	-456
945.768	-67
945.860	134
945.952	-556
946.044	-380
946.136	-365
946.228	-324
946.320	-1290
946.412	-517
946.503	-380
946.595	42
946.687	-1004
946.779	-882
946.870	162
946.962	-98
947.054	-889
947.145	-347
947.237	-587
947.329	-34
947.420	-708
947.512	-619
947.603	-362
947.695	-116
947.786	-1376
947.878	-489
947.969	-261
948.061	-1131
948.152	-1658
948.243	-578
948.335	-623
948.426	-1900
948.517	-571
948.609	-520
948.700	-1106
948.791	-1312
948.882	-577
948.973	-828
949.065	-1096
949.156	-139
949.247	-1224
949.338	-1171
949.429	-588
949.520	-572
949.611	-845
949.702	-528
949.793	-418
949.884	-1487
949.975	-1112
950.066	-1039
950.157	-696
950.247	-649
950.338	-1095
950.429	-976
950.520	-298
950.611	-301
950.701	-987
950.792	-1037
950.883	382
950.973	0
951.064	-547
951.155	-758
951.245	-243
951.336	325
951.427	-602
951.517	-296
951.608	-1403
951.698	-550
951.788	-595
951.879	-884
951.969	-1225
952.060	-859
952.150	-698
952.240	-167
952.331	-2313
952.421	768
952.511	-2012
952.602	-468
952.692	-544
952.782	-605
952.872	-276
952.962	-1063
953.052	-179
953.143	-710
953.233	-118
953.323	-552
953.413	-1357
953.503	-585
953.593	-147
953.683	214
953.773	-1356
953.863	-675
953.953	-1914
954.042	-652
954.132	-549
954.222	-542
954.312	-1267
954.402	-580
954.492	-712
954.581	-415
954.671	-705
954.761	-711
954.850	-223
954.940	-1437
955.030	-513
955.119	-754
955.209	-272
955.298	-1183
955.388	-1118
955.477	-503
955.567	-676
955.656	-521
955.746	-1178
955.835	-732
955.925	-885
956.014	-534
956.103	-1037
956.193	-182
956.282	-1088
956.371	-875
956.461	-697
956.550	-724
956.639	-312
956.728	-1643
956.817	-677
956.906	-578
956.995	-987
957.085	-689
957.174	-94
957.263	-606
957.352	-1133
957.441	-961
957.530	-638
957.619	-1133
957.708	-820
957.796	-808
957.885	-1061
957.974	-972
958.063	-998
958.152	-1733
958.241	-637
958.329	432
958.418	-1052
958.507	-858
958.596	544
958.684	-1204
958.773	-564
958.861	-1288
958.950	-343
959.039	-538
959.127	-627
959.216	-341
959.304	-879
959.393	-383
959.481	-617
959.570	-1024
959.658	-836
959.746	-298
959.835	53
959.923	388
960.011	-847
960.100	-452
960.188	-756
960.276	-1112
960.365	-1742
960.453	-1039
960.541	-1683
960.629	-632
960.717	-723
960.805	-1038
960.893	-1164
960.981	-836
961.069	-398
961.158	-1176
961.245	-1334
961.333	-442
961.421	-1621
961.509	-195
961.597	-540
961.685	-463
961.773	-792
961.861	-1346
961.949	-1044
962.036	-1283
962.124	-51
962.212	-597
962.299	-1821
962.387	-927
962.475	-498
962.562	-940
962.650	-601
962.738	-407
962.825	-999
962.913	-663
963.000	-373
963.088	-300
963.175	-455
963.263	-770
963.350	-1606
963.438	-1131
963.525	-965
963.612	212
963.700	1318
963.787	2794
963.874	422
963.962	157
964.049	-510
964.136	-315
964.223	-823
964.310	-810
964.398	-172
964.485	-357
964.572	-753
964.659	361
964.746	-816
964.833	-1762
964.920	-719
965.007	-1201
965.094	-609
965.181	-1375
965.268	-511
965.355	-868
965.441	-1286
965.528	-1480
965.615	116
965.702	-681
965.789	-207
965.875	-37
965.962	-715
966.049	-723
966.136	-939
966.222	-1144
966.309	-836
966.395	-1034
966.482	-1506
966.569	-1027
966.655	-1284
966.742	-1419
966.828	107
966.915	-985
967.001	-312
967.087	-1212
967.174	-1515
967.260	-449
967.347	-876
967.433	-443
967.519	1595
967.605	-843
967.692	-1382
967.778	-1107
967.864	-835
967.950	-834
968.036	-1581
968.123	-229
968.209	-1180
968.295	-1915
968.381	-107
968.467	19
968.553	-1889
968.639	-125
968.725	-1193
968.811	-71
968.897	-168
968.983	-697
969.069	-1965
969.154	-705
969.240	-103
969.326	-1732
969.412	-1175
969.497	-1267
969.583	-1028
969.669	-110
969.755	-297
969.840	-1064
969.926	-765
970.012	-1592
970.097	175
970.183	-956
970.268	-1601
970.354	75
970.439	-847
970.525	1028
970.610	-1493
970.696	460
970.781	-680
970.866	-1222
970.952	-1207
971.037	-547
971.122	-1565
971.208	-555
971.293	-983
971.378	-1908
971.463	-681
971.549	-429
971.634	-1181
971.719	-1260
971.804	-396
971.889	201
971.974	-1482
972.059	-949
972.144	-882
972.229	-1680
972.314	-750
972.399	-625
972.484	-1451
972.569	-45
972.654	-1435
972.739	947
972.824	-296
972.908	-1111
972.993	-872
973.078	-866
973.163	-973
973.247	-1021
973.332	-2201
973.417	274
973.501	-1382
973.586	-801
973.671	-1116
973.755	-1176
973.840	-331
973.924	-941
974.009	-310
974.093	-1200
974.178	-596
974.262	-353
974.346	-18
974.431	-443
974.515	-111
974.600	-590
974.684	-858
974.768	-2018
974.852	-262
974.937	-1898
975.021	351
975.105	-653
975.189	-238
975.273	-679
975.358	-1044
975.442	-856
975.526	-301
975.610	-1868
975.694	-1253
975.778	-151
975.862	-1245
975.946	-2301
976.030	-180
976.114	-877
976.198	-739
976.281	-1083
976.365	-123
976.449	-1052
976.533	-248
976.617	-1783
976.700	-613
976.784	-98
976.868	-1304
976.951	-557
977.035	-977
977.119	-912
977.202	-1858
977.286	-934
977.369	-435
977.453	-642
977.536	-1388
977.620	-1104
977.703	-410
977.787	-1194
977.870	-424
977.953	-186
978.037	-1729
978.120	43
978.203	-1427
978.287	-9
978.370	-1014
978.453	-914
978.536	-1332
978.620	346
978.703	-628
978.786	-1134
978.869	-1572
978.952	-904
979.035	-810
979.118	-179
979.201	-1382
979.284	-730
979.367	-1839
979.450	-1507
979.533	-1817
979.616	-870
979.699	-1437
979.782	-864
979.865	-924
979.948	-1859
980.030	-2038
980.113	-1394
980.196	-1504
980.279	-1009
980.361	-1430
980.444	-1224
980.526	-1049
980.609	-1310
980.692	-2179
980.774	-622
980.857	-2283
980.939	-295
981.022	-1345
981.104	-1124
981.187	-1215
981.269	-1065
981.352	-1456
981.434	-815
981.516	-1793
981.599	-101
981.681	-887
981.763	-1114
981.846	-1661
981.928	-1298
982.010	-1494
982.092	-1759
982.174	101
982.256	-1666
982.339	-941
982.421	-900
982.503	-752
982.585	-2317
982.667	-404
982.749	-1228
982.831	-1126
982.913	-1727
982.995	-235
983.077	-1118
983.158	-327
983.240	-2076
983.322	-141
983.404	-1121
983.486	-1759
983.568	-765
983.649	-1129
983.731	-195
983.813	-1433
983.894	-346
983.976	-2418
984.058	-1110
984.139	-641
984.221	-797
984.302	73
984.384	-1040
984.465	-2113
984.547	-1136
984.628	-1414
984.710	-77
984.791	-1526
984.872	-1600
984.954	-941
985.035	-1263
985.116	-1618
985.198	-1530
985.279	-834
985.360	-1240
985.441	-1317
985.522	-616
985.604	-1789
985.685	-2627
985.766	-346
985.847	-345
985.928	-1724
986.009	-2145
986.090	-1216
986.171	-1323
986.252	-1027
986.333	-837
986.414	-1015
986.495	-708
986.576	-1281
986.656	-1722
986.737	-1137
986.818	-1563
986.899	-605
986.980	-1281
987.060	-840
987.141	-1696
987.222	-972
987.302	-1576
987.383	-1244
987.464	-1148
987.544	-1599
987.625	-606
987.705	-886
987.786	-1231
987.866	-1206
987.947	-657
988.027	-1239
988.108	-1563
988.188	-909
988.268	-693
988.349	-979
988.429	-1369
988.509	-1628
988.589	-1082
988.670	-3054
988.750	-222
988.830	-1100
988.910	-1073
988.990	-1696
989.070	-1028
989.151	-1551
989.231	-2458
989.311	-1272
989.391	-1194
989.471	-1483
989.551	-1148
989.631	-1955
989.711	-199
989.791	-1209
989.870	-1329
989.950	-191
990.030	-1424
990.110	-1721
990.190	-1314
990.269	-1380
990.349	-995
990.429	-478
990.509	-968
990.588	-1303
990.668	-1307
990.747	-1419
990.827	-1316
990.907	-1611
990.986	-1048
991.066	-1621
991.145	-2363
991.225	-664
991.304	-1794
991.383	-1232
991.463	-1882
991.542	-2154
991.622	-798
991.701	-2401
991.780	-2117
991.859	-1365
991.939	-1299
992.018	-1431
992.097	-144
992.176	-491
992.256	-2036
992.335	-2623
992.414	-1133
992.493	-2284
992.572	-1877
992.651	-305
992.730	-1057
992.809	-1676
992.888	-1844
992.967	-811
993.046	-1035
993.125	-2306
993.203	-1444
993.282	-707
993.361	-1540
993.440	-1854
993.519	-1931
993.597	-2108
993.676	-2004
993.755	-511
993.834	-589
993.912	-2351
993.991	99
994.069	-1784
994.148	-1234
994.226	-2117
994.305	-1556
994.384	-1703
994.462	-147
994.540	-2370
994.619	-1213
994.697	-1601
994.776	-1693
994.854	-1337
994.932	-2023
995.011	-869
995.089	-2286
995.167	-489
995.245	-1438
995.324	-2287
995.402	-628
995.480	-2129
995.558	-589
995.636	-2030
995.714	-1198
995.792	-1024
995.870	-1851
995.948	-1779
996.026	-1080
996.104	-2932
996.182	-1166
996.260	-1555
996.338	-1614
996.416	-2167
996.494	-1531
996.572	-1221
996.649	-2164
996.727	-2307
996.805	-1671
996.883	-1815
996.960	-2161
997.038	-1060
997.116	-1629
997.193	-2394
997.271	-1094
997.348	-2317
997.426	-879
997.504	-2624
997.581	-1035
997.658	-444
997.736	-1962
997.813	-2038
997.891	-831
997.968	-2254
998.046	-1226
998.123	-1534
998.200	-1394
998.277	-2530
998.355	-1043
998.432	-2979
998.509	-1406
998.586	-574
998.663	-1940
998.741	-1912
998.818	-2380
998.895	-1124
998.972	-1034
999.049	-1755
999.126	-1801
999.203	-639
999.280	-2216
999.357	-2474
999.434	-2072
999.511	-1092
999.587	-1229
999.664	-2327
999.741	-366
999.818	-1348
999.895	-1886
999.971	-2443
1000.048	-2069
1000.125	-604
1000.202	-2312
1000.278	-1246
1000.355	-1499
1000.431	-1677
1000.508	-1834
1000.584	-1849
1000.661	-1594
1000.738	-2538
1000.814	-1853
1000.890	-990
1000.967	-1189
1001.043	-1696
1001.120	-1957
1001.196	-1579
1001.272	-1895
1001.349	-1830
1001.425	-1930
1001.501	-1600
1001.577	-2603
1001.654	-1362
1001.730	-1481
1001.806	-1257
1001.882	-2609
1001.958	-1386
1002.034	-1325
1002.110	-1396
1002.186	-2510
1002.262	-1865
1002.338	-2943
1002.414	-887
1002.490	-1550
1002.566	-2107
1002.642	-2135
1002.718	-1660
1002.794	-1573
1002.870	-1683
1002.945	-2151
1003.021	-2110
1003.097	-1449
1003.173	-1816
1003.248	-2155
1003.324	-1693
1003.400	-1831
1003.475	-2191
1003.551	-2189
1003.626	-1980
1003.702	-1984
1003.777	-1432
1003.853	-2274
1003.928	-1947
1004.004	-1379
1004.079	-1012
1004.155	-1427
1004.230	-2935
1004.305	-722
1004.381	-2189
1004.456	-1784
1004.531	-1949
1004.607	-1245
1004.682	-2776
1004.757	-2444
1004.832	-2244
1004.907	-2269
1004.982	-1573
1005.057	-1617
1005.133	-2435
1005.208	-1364
1005.283	-1980
1005.358	-1275
1005.433	-2224
1005.508	-1562
1005.583	-2552
1005.657	-2233
1005.732	-1925
1005.807	-2496
1005.882	-1603
1005.957	-1394
1006.032	-1837
1006.106	-1873
1006.181	-1836
1006.256	-2476
1006.331	-2133
1006.405	-1947
1006.480	-1786
1006.554	-2349
1006.629	-1666
1006.704	-2131
1006.778	-961
1006.853	-1491
1006.927	-2080
1007.002	-2156
1007.076	-1471
1007.150	-2010
1007.225	-1022
1007.299	-1925
1007.373	-1592
1007.448	-872
1007.522	-765
1007.596	-1349
1007.671	-1628
1007.745	-1150
1007.819	-3143
1007.893	-1735
1007.967	-1185
1008.041	-2159
1008.115	-663
1008.190	-2252
1008.264	-1960
1008.338	-2289
1008.412	-2273
1008.486	-2263
1008.560	-1520
1008.633	-2849
1008.707	-1811
1008.781	-1808
1008.855	-1161
1008.929	-1644
1009.003	-2035
1009.076	-1662
1009.150	-1969
1009.224	-1727
1009.298	-1663
1009.371	-2757
1009.445	-1545
1009.519	-1803
1009.592	-2414
1009.666	-1636
1009.739	-1577
1009.813	-2621
1009.886	-1156
1009.960	-2808
1010.033	-1646
1010.107	-1383
1010.180	-2588
1010.253	-898
1010.327	-3077
1010.400	-1636
1010.473	-2043
1010.547	-603
1010.620	-2106
1010.693	-1651
1010.766	-2156
1010.840	-1836
1010.913	-1436
1010.986	-2670
1011.059	-1897
1011.132	-1642
1011.205	-1072
1011.278	-2037
1011.351	-1989
1011.424	-1891
1011.497	-2085
1011.570	-2559
1011.643	-1696
1011.716	-1963
1011.789	-1791
1011.862	-1836
1011.934	-1101
1012.007	-2774
1012.080	-1848
1012.153	-1882
1012.225	-1473
1012.298	-2138
1012.371	-1796
1012.443	-1586
1012.516	-3268
1012.588	-1128
1012.661	-1586
1012.733	-2966
1012.806	-613
1012.879	-2260
1012.951	-1540
1013.023	-1379
1013.096	-1771
1013.168	-2078
1013.241	-1248
1013.313	-1186
1013.385	-2229
1013.458	-2536
1013.530	-1725
1013.602	-3125
1013.674	-1885
1013.746	-2417
1013.819	-1846
1013.891	-1512
1013.963	-2471
1014.035	-2301
1014.107	-1065
1014.179	-1748
1014.251	-1705
1014.323	-1922
1014.395	-2360
1014.467	-1448
1014.539	-1471
1014.611	-2022
1014.683	-2224
1014.754	-1552
1014.826	-2656
1014.898	-1915
1014.970	-1794
1015.042	-1432
1015.113	-2038
1015.185	-1880
1015.257	-2004
1015.328	-1378
1015.400	-1414
1015.471	-2025
1015.543	-3265
1015.615	-2203
1015.686	-2070
1015.757	-2271
1015.829	-1189
1015.901	-2347
1015.972	-1997
1016.043	-1659
1016.115	-2010
1016.186	-1338
1016.257	-2725
1016.328	-2259
1016.400	-1309
1016.471	-2097
1016.542	-1163
1016.613	-1222
1016.685	-1740
1016.756	-1242
1016.827	-1439
1016.898	-2820
1016.969	-1467
1017.040	-2327
1017.111	-1550
1017.182	-2321
1017.253	-1742
1017.324	-1760
1017.395	-2341
1017.466	-1715
1017.537	-2081
1017.608	-1870
1017.678	-1640
1017.749	-2263
1017.820	-1779
1017.891	-1831
1017.961	-2820
1018.032	-2222
1018.103	-1489
1018.173	-2175
1018.244	-2494
1018.315	-2101
1018.385	-2054
1018.456	-2524
1018.526	-2056
1018.597	-2446
1018.667	-1783
1018.738	-2604
1018.808	-1164
1018.878	-2284
1018.949	-2279
1019.019	-2343
1019.089	-1806
1019.160	-1577
1019.230	-2498
1019.300	-1250
1019.371	-2390
1019.441	-2085
1019.511	-1380
1019.581	-1957
1019.651	-2109
1019.721	-1879
1019.791	-2271
1019.861	-1994
1019.931	-2314
1020.001	-1478
1020.071	-1254
1020.141	-2028
1020.211	-970
1020.281	-2268
1020.351	-2383
1020.421	-1481
1020.491	-1342
1020.560	-2471
1020.630	-2579
1020.700	-1944
1020.770	-2252
1020.839	-2082
1020.909	-1634
1020.979	-2485
1021.048	-2085
1021.118	-2239
1021.187	-1681
1021.257	-2183
1021.326	-1787
1021.396	-2527
1021.465	-1930
1021.535	-2631
1021.604	-2801
1021.674	-1914
1021.743	-2631
1021.812	-2170
1021.882	-2202
1021.951	-2411
1022.020	-2253
1022.089	-2116
1022.159	-2487
1022.228	-1698
1022.297	-2316
1022.366	-2243
1022.435	-2009
1022.504	-1843
1022.573	-2364
1022.642	-1431
1022.711	-2103
1022.781	-1708
1022.849	-1193
1022.918	-2168
1022.987	-2240
1023.056	-2108
1023.125	-1799
1023.194	-2048
1023.263	-2025
1023.331	-1867
1023.400	-2915
1023.469	-2762
1023.538	-2006
1023.606	-2006
1023.675	-2123
1023.744	-2531
1023.812	-2419
1023.881	-1886
1023.949	-1638
1024.018	-1339
1024.086	-2370
1024.155	-2026
1024.223	-2721
1024.292	-2096
1024.360	-2007
1024.429	-3083
1024.497	-1543
1024.565	-2135
1024.634	-2246
1024.702	-1342
1024.770	-1362
1024.838	-2316
1024.907	-1944
1024.975	-1861
1025.043	-2282
1025.111	-2541
1025.179	-1718
1025.247	-2037
1025.315	-2086
1025.383	-2933
1025.451	-2646
1025.519	-1926
1025.587	-2785
1025.655	-2210
1025.723	-2333
1025.791	-1666
1025.859	-2040
1025.927	-1058
1025.995	-2534
1026.062	-1808
1026.130	-1508
1026.198	-2183
1026.266	-2524
1026.333	-1636
1026.401	-2035
1026.469	-1561
1026.536	-1679
1026.604	-2129
1026.671	-2492
1026.739	-2463
1026.806	-2214
1026.874	-2277
1026.941	-2418
1027.009	-2590
1027.076	-2835
1027.144	-2126
1027.211	-2646
1027.278	-2435
1027.345	-2005
1027.413	-2479
1027.480	-2025
1027.547	-2034
1027.614	-2659
1027.682	-1939
1027.749	-2697
1027.816	-1950
1027.883	-2215
1027.950	-2123
1028.017	-2654
1028.084	-1988
1028.151	-2670
1028.218	-2536
1028.285	-1850
1028.352	-2295
1028.419	-2906
1028.486	-2244
1028.553	-2115
1028.619	-1580
1028.686	-1769
1028.753	-1882
1028.820	-2142
1028.886	-2163
1028.953	-1849
1029.020	-2343
1029.086	-1991
1029.153	-2814
1029.220	-2046
1029.286	-1703
1029.353	-2357
1029.419	-1996
1029.486	-2355
1029.552	-1819
1029.619	-2258
1029.685	-1524
1029.751	-1779
1029.818	-1271
1029.884	-2223
1029.951	-1364
1030.017	-1517
1030.083	-1670
1030.149	-2498
1030.216	-2767
1030.282	-1861
1030.348	-2350
1030.414	-2246
1030.480	-2103
1030.546	-2815
1030.612	-1675
1030.678	-1730
1030.744	-2184
1030.810	-2594
1030.876	-2102
1030.942	-2213
1031.008	-1950
1031.074	-2535
1031.140	-1981
1031.206	-2329
1031.272	-2519
1031.337	-2114
1031.403	-2121
1031.469	-2075
1031.534	-2069
1031.600	-1927
1031.666	-2384
1031.731	-1676
1031.797	-2414
1031.863	-1694
1031.928	-1928
1031.994	-2532
1032.059	-2019
1032.125	-1906
1032.190	-2005
1032.256	-2236
1032.321	-2474
1032.386	-2846
1032.452	-2136
1032.517	-2140
1032.582	-1940
1032.647	-2104
1032.713	-2810
1032.778	-1482
1032.843	-2564
1032.908	-2175
1032.974	-2001
1033.039	-1527
1033.104	-2093
1033.169	-2692
1033.234	-2701
1033.299	-1943
1033.364	-2262
1033.429	-2861
1033.494	-2243
1033.559	-3083
1033.624	-2437
1033.688	-1978
1033.753	-2346
1033.818	-2360
1033.883	-2636
1033.948	-2883
1034.013	-2128
1034.077	-2505
1034.142	-1956
1034.207	-1889
1034.271	-2308
1034.336	-2110
1034.400	-2251
1034.465	-2184
1034.530	-2550
1034.594	-2220
1034.658	-2176
1034.723	-2423
1034.787	-2846
1034.852	-2203
1034.916	-2316
1034.981	-2868
1035.045	-2582
1035.109	-2486
1035.173	-2335
1035.238	-2368
1035.302	-1742
1035.366	-2242
1035.430	-1504
1035.495	-3874
1035.559	-1195
1035.623	-2626
1035.687	-2029
1035.751	-1695
1035.815	-2834
1035.879	-2099
1035.943	-2646
1036.007	-1996
1036.071	-2236
1036.135	-2562
1036.198	-2282
1036.262	-2504
1036.326	-2479
1036.390	-2349
1036.454	-2851
1036.517	-1887
1036.581	-2289
1036.645	-2077
1036.709	-1970
1036.772	-1812
1036.836	-2268
1036.900	-2751
1036.963	-2027
1037.026	-2189
1037.090	-2301
1037.154	-2347
1037.217	-1364
1037.280	-1863
1037.344	-2139
1037.407	-3673
1037.471	-2505
1037.534	-2915
1037.597	-2508
1037.661	-2577
1037.724	-2089
1037.787	-1650
1037.850	-2121
1037.913	-2235
1037.977	-1652
1038.040	-2667
1038.103	-1981
1038.166	-2528
1038.229	-1925
1038.292	-2198
1038.355	-2385
1038.418	-2336
1038.481	-1226
1038.544	-1883
1038.607	-2513
1038.670	-1925
1038.732	-2306
1038.795	-2810
1038.858	-2272
1038.921	-2247
1038.984	-1915
1039.046	-3065
1039.109	-2696
1039.172	-2461
1039.234	-2476
1039.297	-2045
1039.360	-2980
1039.422	-2633
1039.485	-3052
1039.547	-2383
1039.610	-1658
1039.672	-2902
1039.734	-2451
1039.797	-3024
1039.859	-1940
1039.922	-1987
1039.984	-2463
1040.046	-2634
1040.109	-2433
1040.171	-2298
1040.233	-2817
1040.295	-2690
1040.358	-2833
1040.420	-2030
1040.482	-2783
1040.544	-2403
1040.606	-1921
1040.668	-1664
1040.730	-2427
1040.792	-2196
1040.854	-2739
1040.916	-2320
1040.978	-2081
1041.040	-1551
1041.102	-2748
1041.164	-2555
1041.225	-2562
1041.287	-2107
1041.349	-2879
1041.411	-1727
1041.472	-1962
1041.534	-2616
1041.596	-1797
1041.657	-2512
1041.719	-2343
1041.781	-1810
1041.842	-2391
1041.904	-2499
1041.965	-2987
1042.027	-3002
1042.088	-1952
1042.150	-2594
1042.211	-2775
1042.272	-1648
1042.334	-2861
1042.395	-2175
1042.456	-2578
1042.518	-1833
1042.579	-2341
1042.640	-2728
1042.701	-2584
1042.763	-2256
1042.824	-2579
1042.885	-2074
1042.946	-2724
1043.007	-2465
1043.068	-2905
1043.129	-2192
1043.190	-3523
1043.251	-2393
1043.312	-1803
1043.373	-2360
1043.434	-2179
1043.495	-2462
1043.556	-1725
1043.616	-2063
1043.677	-2727
1043.738	-2183
1043.799	-2248
1043.859	-1929
1043.920	-2056
1043.981	-2011
1044.041	-2819
1044.102	-2710
1044.162	-2241
1044.223	-2963
1044.284	-2056
1044.344	-1831
1044.405	-1925
1044.465	-2047
1044.525	-2970
1044.586	-2649
1044.646	-2031
1044.707	-2316
1044.767	-2086
1044.827	-3150
1044.887	-3101
1044.948	-1901
1045.008	-1709
1045.068	-2075
1045.128	-1957
1045.188	-2195
1045.249	-1845
1045.309	-2486
1045.369	-2208
1045.429	-2431
1045.489	-2256
1045.549	-2853
1045.609	-2080
1045.669	-2811
1045.729	-2426
1045.789	-1854
1045.848	-2439
1045.908	-2085
1045.968	-1824
1046.028	-2297
1046.088	-1061
1046.147	-864
1046.207	-2597
1046.267	-1016
1046.326	-2873
1046.386	-2663
1046.446	-958
1046.505	-1623
1046.565	-1540
1046.624	-656
1046.684	-1753
1046.743	-1963
1046.803	-1096
1046.862	-1480
1046.922	0
