'Start Wavelength	183.907
'End Wavelength	1046.922
'Gate Delay	5.000
'Gate Width (ms)	1.050
'Laser Output Level	0.000
'X Position	0.000
'Y Position	0.000
'Z Position	0.000
'Grid Point Number	1.000
'Shot Number	100.000
183.907	-120.000
183.977	-82.000
184.047	327
184.116	60
184.186	47
184.256	-119
184.325	522
184.395	-458
184.465	595
184.534	479
184.604	-117
184.674	51
184.743	-863
184.813	512
184.883	97
184.952	-191
185.022	697
185.092	-64
185.161	14
185.231	793
185.301	-82
185.370	-155
185.440	259
185.509	-798
185.579	118
185.649	-147
185.718	75
185.788	321
185.857	-66
185.927	-476
185.996	274
186.066	-458
186.136	-495
186.205	609
186.275	-54
186.344	34
186.414	710
186.483	-1071
186.553	1111
186.622	1398
186.692	723
186.761	-999
186.831	-144
186.900	12
186.970	470
187.039	-117
187.109	-135
187.178	641
187.248	3
187.317	190
187.387	29
187.456	302
187.526	579
187.595	-37
187.664	-71
187.734	878
187.803	492
187.873	-434
187.942	249
188.012	32
188.081	61
188.150	157
188.220	740
188.289	1535
188.358	342
188.428	622
188.497	-45
188.567	276
188.636	427
188.705	474
188.775	406
188.844	-2
188.913	706
188.983	-486
189.052	517
189.121	789
189.191	-191
189.260	550
189.329	417
189.399	390
189.468	553
189.537	327
189.606	-89
189.676	183
189.745	616
189.814	799
189.883	227
189.953	1377
190.022	344
190.091	2863
190.161	4385
190.230	814
190.299	464
190.368	514
190.437	342
190.507	593
190.576	-371
190.645	-30
190.714	297
190.783	-402
190.853	-254
190.922	376
190.991	-201
191.060	575
191.129	-541
191.198	861
191.268	-425
191.337	1103
191.406	-192
191.475	466
191.544	621
191.613	877
191.682	-20
191.752	-93
191.821	-163
191.890	230
191.959	-330
192.028	348
192.097	483
192.166	-99
192.235	-2
192.304	492
192.373	-468
192.442	-274
192.511	-109
192.580	-94
192.650	363
192.719	553
192.788	-204
192.857	109
192.926	245
192.995	690
193.064	-142
193.133	1074
193.202	1422
193.271	959
193.340	660
193.409	535
193.478	1807
193.547	1694
193.615	2261
193.684	1920
193.753	1420
193.822	870
193.891	347
193.960	677
194.029	-123
194.098	907
194.167	377
194.236	-201
194.305	370
194.374	1315
194.443	250
194.512	475
194.580	497
194.649	992
194.718	894
194.787	830
194.856	178
194.925	1288
194.994	390
195.062	697
195.131	1246
195.200	1684
195.269	1520
195.338	1234
195.407	-163
195.475	366
195.544	955
195.613	501
195.682	750
195.751	1457
195.819	909
195.888	947
195.957	1185
196.026	1432
196.094	1350
196.163	1823
196.232	1121
196.301	402
196.369	372
196.438	1329
196.507	674
196.576	94
196.644	514
196.713	487
196.782	373
196.850	597
196.919	-225
196.988	1105
197.056	-307
197.125	627
197.194	284
197.262	295
197.331	178
197.400	1298
197.468	774
197.537	486
197.606	1377
197.674	1971
197.743	3349
197.812	1629
197.880	4923
197.949	2433
198.017	3292
198.086	2011
198.155	1707
198.223	1816
198.292	4249
198.360	1220
198.429	626
198.497	959
198.566	1978
198.635	5693
198.703	1899
198.772	681
198.840	4399
198.909	4647
198.977	1401
199.046	607
199.114	869
199.183	698
199.251	389
199.320	-403
199.388	44
199.457	1153
199.525	577
199.594	43
199.662	838
199.731	387
199.799	950
199.867	694
199.936	270
200.004	171
200.073	726
200.141	746
200.210	86
200.278	380
200.346	724
200.415	475
200.483	894
200.552	397
200.620	-648
200.688	802
200.757	808
200.825	1213
200.893	128
200.962	515
201.030	322
201.098	524
201.167	1037
201.235	221
201.303	973
201.372	857
201.440	219
201.508	1440
201.577	1320
201.645	1591
201.713	723
201.781	693
201.850	2024
201.918	632
201.986	-10
202.055	960
202.123	937
202.191	845
202.259	313
202.327	1536
202.396	718
202.464	1178
202.532	1709
202.600	6779
202.669	3508
202.737	992
202.805	271
202.873	851
202.941	984
203.009	1098
203.078	-125
203.146	501
203.214	93
203.282	434
203.350	699
203.418	536
203.487	285
203.555	193
203.623	941
203.691	1286
203.759	435
203.827	-486
203.895	1375
203.963	592
204.031	569
204.099	516
204.168	138
204.236	502
204.304	880
204.372	802
204.440	540
204.508	208
204.576	1158
204.644	876
204.712	-175
204.780	666
204.848	-48
204.916	684
204.984	709
205.052	1229
205.120	265
205.188	474
205.256	-28
205.324	958
205.392	865
205.460	1004
205.528	1093
205.596	1118
205.664	754
205.732	616
205.799	5232
205.867	8689
205.935	2154
206.003	1385
206.071	372
206.139	2143
206.207	1085
206.275	1003
206.343	730
206.411	392
206.478	635
206.546	544
206.614	429
206.682	64
206.750	827
206.818	2680
206.885	1599
206.953	105
207.021	1013
207.089	1030
207.157	448
207.225	1600
207.292	80
207.360	78
207.428	884
207.496	1152
207.563	257
207.631	1070
207.699	742
207.767	1370
207.834	363
207.902	862
207.970	460
208.038	1281
208.105	623
208.173	1152
208.241	1771
208.309	2382
208.376	1089
208.444	3951
208.512	1779
208.579	242
208.647	1019
208.715	1550
208.782	1366
208.850	699
208.918	486
208.985	1155
209.053	947
209.120	1125
209.188	508
209.256	968
209.323	1607
209.391	1585
209.459	2016
209.526	829
209.594	699
209.661	1023
209.729	982
209.796	810
209.864	1107
209.932	615
209.999	913
210.067	1764
210.134	1302
210.202	2172
210.269	2328
210.337	2473
210.404	1406
210.472	1208
210.539	1302
210.607	1278
210.674	1579
210.742	1424
210.809	1480
210.877	1418
210.944	1698
211.012	647
211.079	2274
211.146	442
211.214	1581
211.281	2434
211.349	2122
211.416	1184
211.484	1931
211.551	988
211.618	1037
211.686	882
211.753	442
211.821	1910
211.888	1176
211.955	919
212.023	709
212.090	939
212.157	1045
212.225	1463
212.292	3718
212.359	8232
212.427	25900
212.494	10216
212.561	3138
212.629	2467
212.696	1748
212.763	1651
212.831	766
212.898	1466
212.965	505
213.032	1415
213.100	2237
213.167	2520
213.234	1864
213.301	882
213.369	1888
213.436	1046
213.503	847
213.570	1064
213.638	1334
213.705	1345
213.772	251
213.839	1570
213.906	2189
213.973	1179
214.041	242
214.108	1296
214.175	1758
214.242	1558
214.309	639
214.376	765
214.444	1074
214.511	2072
214.578	1379
214.645	1306
214.712	1949
214.779	1424
214.846	1330
214.913	2207
214.980	1643
215.048	1903
215.115	2616
215.182	2223
215.249	1643
215.316	1027
215.383	1480
215.450	629
215.517	1924
215.584	968
215.651	1179
215.718	1189
215.785	2589
215.852	2256
215.919	2440
215.986	2342
216.053	1776
216.120	1025
216.187	1415
216.254	1836
216.321	1936
216.388	1775
216.455	2509
216.522	2162
216.589	2709
216.656	5035
216.722	5426
216.789	2622
216.856	2703
216.923	2235
216.990	1905
217.057	1963
217.124	3346
217.191	2270
217.258	3727
217.324	3966
217.391	4281
217.458	2146
217.525	2122
217.592	2238
217.659	1649
217.725	2219
217.792	3539
217.859	4505
217.926	967
217.993	1143
218.059	2060
218.126	1981
218.193	798
218.260	790
218.327	518
218.393	1136
218.460	499
218.527	1
218.594	947
218.660	4782
218.727	4968
218.794	1009
218.860	1127
218.927	1238
218.994	1340
219.061	1280
219.127	1047
219.194	3650
219.261	1899
219.327	867
219.394	1278
219.461	449
219.527	699
219.594	3281
219.661	2227
219.727	1215
219.794	779
219.860	363
219.927	1039
219.994	3638
220.060	6259
220.127	3844
220.193	2379
220.260	2143
220.326	2719
220.393	4599
220.460	5665
220.526	3734
220.593	1927
220.659	2951
220.726	3087
220.792	11965
220.859	8368
220.925	7897
220.992	12020
221.058	14306
221.125	14920
221.191	12183
221.258	4084
221.324	2633
221.391	2290
221.457	1288
221.524	2362
221.590	2746
221.657	13643
221.723	9451
221.789	9527
221.856	8803
221.922	3536
221.989	2424
222.055	1586
222.121	907
222.188	2971
222.254	1833
222.321	1041
222.387	207
222.453	457
222.520	229
222.586	147
222.652	688
222.719	254
222.785	1348
222.851	167
222.918	899
222.984	449
223.050	657
223.116	191
223.183	1766
223.249	73
223.315	335
223.382	743
223.448	392
223.514	453
223.580	-254
223.647	-79
223.713	-100
223.779	692
223.845	275
223.911	340
223.978	237
224.044	1160
224.110	340
224.176	1211
224.242	622
224.309	-161
224.375	1070
224.441	231
224.507	9
224.573	-976
224.639	586
224.705	620
224.772	149
224.838	849
224.904	1740
224.970	1130
225.036	1174
225.102	257
225.168	1146
225.234	1202
225.300	1323
225.366	862
225.432	706
225.499	1191
225.565	1023
225.631	448
225.697	1101
225.763	1225
225.829	1394
225.895	2623
225.961	4251
226.027	3454
226.093	1582
226.159	3467
226.225	4210
226.291	11169
226.357	20171
226.423	9285
226.489	5204
226.554	3917
226.620	2581
226.686	4256
226.752	6627
226.818	10074
226.884	27499
226.950	24542
227.016	7836
227.082	3812
227.148	4065
227.214	4584
227.279	3241
227.345	1016
227.411	1637
227.477	2238
227.543	7560
227.609	8248
227.674	3579
227.740	2203
227.806	1973
227.872	1511
227.938	2120
228.003	2970
228.069	1569
228.135	706
228.201	449
228.267	625
228.332	1698
228.398	3357
228.464	2521
228.530	647
228.595	662
228.661	564
228.727	3586
228.792	3481
228.858	1338
228.924	673
228.990	3035
229.055	1457
229.121	2076
229.187	2027
229.252	1878
229.318	1120
229.384	1370
229.449	2081
229.515	139
229.581	44
229.646	2324
229.712	1622
229.777	6847
229.843	6684
229.909	4279
229.974	3865
230.040	3574
230.105	1949
230.171	2366
230.236	3683
230.302	5763
230.368	4701
230.433	1813
230.499	2651
230.564	1934
230.630	66
230.695	1178
230.761	1048
230.826	152
230.892	3997
230.957	1582
231.023	572
231.088	858
231.154	785
231.219	1920
231.284	2742
231.350	4158
231.415	908
231.481	1585
231.546	486
231.612	1208
231.677	297
231.742	203
231.808	1719
231.873	473
231.939	350
232.004	4250
232.069	4201
232.135	1386
232.200	1230
232.265	967
232.331	-21
232.396	703
232.461	556
232.527	686
232.592	421
232.657	1249
232.723	5734
232.788	3832
232.853	1552
232.918	1240
232.984	12
233.049	959
233.114	4942
233.179	4642
233.245	8321
233.310	10489
233.375	1887
233.440	1950
233.506	856
233.571	1119
233.636	1224
233.701	1919
233.766	5877
233.832	8592
233.897	2511
233.962	1752
234.027	3436
234.092	1860
234.157	1746
234.222	1672
234.288	4847
234.353	20787
234.418	18490
234.483	8990
234.548	3822
234.613	2741
234.678	2846
234.743	4546
234.808	21869
234.873	11944
234.938	4113
235.004	2395
235.069	1784
235.134	2282
235.199	1936
235.264	2133
235.329	542
235.394	2900
235.459	3896
235.524	3586
235.589	2328
235.654	1671
235.719	755
235.784	1900
235.849	2032
235.913	11856
235.978	12517
236.043	15410
236.108	3892
236.173	3801
236.238	4490
236.303	1813
236.368	2337
236.433	6247
236.498	13318
236.563	5938
236.627	9273
236.692	38930
236.757	29932
236.822	12573
236.887	10315
236.952	6777
237.017	4176
237.081	5862
237.146	6037
237.211	13093
237.276	36599
237.341	72282
237.405	32175
237.470	11599
237.535	10026
237.600	6173
237.664	4474
237.729	3094
237.794	4104
237.859	8480
237.923	9425
237.988	5496
238.053	9478
238.118	9425
238.182	26086
238.247	24929
238.312	12025
238.376	8266
238.441	4839
238.506	5540
238.570	1790
238.635	2894
238.700	2421
238.764	2282
238.829	12222
238.893	14991
238.958	4668
239.023	5377
239.087	2537
239.152	2879
239.216	2075
239.281	2433
239.346	1585
239.410	1939
239.475	4026
239.539	26005
239.604	21440
239.668	6226
239.733	3468
239.797	4829
239.862	13908
239.926	22990
239.991	8788
240.055	3300
240.120	2377
240.184	2761
240.249	1928
240.313	2141
240.378	3214
240.442	15382
240.507	26044
240.571	7308
240.635	11782
240.700	16585
240.764	5020
240.829	2841
240.893	1005
240.957	2667
241.022	13993
241.086	28813
241.151	13057
241.215	3260
241.279	6118
241.344	14767
241.408	5277
241.472	2321
241.537	3497
241.601	2354
241.665	1126
241.730	993
241.794	3241
241.858	1587
241.922	2211
241.987	1839
242.051	1308
242.115	1246
242.179	2148
242.244	1790
242.308	2262
242.372	3114
242.436	3830
242.501	2727
242.565	1040
242.629	1052
242.693	2587
242.757	997
242.822	1921
242.886	3334
242.950	2668
243.014	2348
243.078	3623
243.142	3647
243.206	2631
243.271	3608
243.335	2780
243.399	6527
243.463	27129
243.527	78892
243.591	22849
243.655	9405
243.719	4962
243.783	5037
243.847	8852
243.911	11120
243.975	14380
244.040	9455
244.104	5310
244.168	2928
244.232	6857
244.296	9654
244.360	9055
244.424	5586
244.488	4863
244.552	4080
244.615	2223
244.679	2946
244.743	4583
244.807	4559
244.871	2741
244.935	2749
244.999	1614
245.063	2197
245.127	3434
245.191	6709
245.255	6205
245.319	5345
245.383	3905
245.446	3654
245.510	2032
245.574	3931
245.638	3236
245.702	3159
245.766	12577
245.829	6910
245.893	4783
245.957	2800
246.021	3981
246.085	4380
246.149	5539
246.212	15607
246.276	22987
246.340	10075
246.404	6425
246.467	7097
246.531	10981
246.595	6898
246.659	5474
246.722	4226
246.786	6556
246.850	7562
246.913	10763
246.977	3209
247.041	3820
247.104	4888
247.168	5132
247.232	13299
247.295	33044
247.359	15108
247.423	5979
247.486	13318
247.550	8609
247.614	4989
247.677	6901
247.741	4301
247.804	4312
247.868	5165
247.932	12366
247.995	29368
248.059	10629
248.122	4536
248.186	7536
248.249	10955
248.313	49133
248.376	49550
248.440	31818
248.503	11322
248.567	9185
248.630	12702
248.694	17856
248.757	21299
248.821	51918
248.884	27563
248.948	25135
249.011	38507
249.075	60771
249.138	51857
249.202	18223
249.265	11367
249.328	18151
249.392	10905
249.455	7808
249.519	5445
249.582	8234
249.645	14675
249.709	10623
249.772	6529
249.835	6077
249.899	8682
249.962	6643
250.025	5177
250.089	17738
250.152	25259
250.215	10798
250.279	8390
250.342	9688
250.405	8638
250.468	6720
250.532	9183
250.595	16490
250.658	65637
250.721	112298
250.785	35751
250.848	18929
250.911	11521
250.974	10105
251.038	13400
251.101	31064
251.164	15090
251.227	15656
251.290	13146
251.354	20490
251.417	94069
251.480	92158
251.543	55855
251.606	177553
251.669	127617
251.732	44077
251.795	43561
251.859	45826
251.922	109356
251.985	59902
252.048	20640
252.111	15329
252.174	14274
252.237	24850
252.300	60840
252.363	66756
252.426	143866
252.489	58011
252.552	28424
252.615	19052
252.678	19303
252.741	45440
252.804	59594
252.867	144034
252.930	83106
252.993	43650
253.056	25714
253.119	17476
253.182	14075
253.245	24265
253.308	17830
253.371	17353
253.434	15939
253.497	15049
253.559	30257
253.622	18924
253.685	26614
253.748	26250
253.811	11615
253.874	18495
253.937	16923
254.000	11638
254.062	19675
254.125	31740
254.188	25609
254.251	24055
254.314	11475
254.376	21832
254.439	24289
254.502	19282
254.565	20412
254.628	37159
254.690	21545
254.753	11952
254.816	11185
254.878	11877
254.941	22891
255.004	24747
255.067	11050
255.129	10433
255.192	6066
255.255	4995
255.317	6638
255.380	5575
255.443	2655
255.505	3755
255.568	2882
255.631	3812
255.693	4108
255.756	3307
255.819	4429
255.881	2283
255.944	3303
256.006	3310
256.069	3774
256.132	3480
256.194	6859
256.257	25430
256.319	17942
256.382	15472
256.444	5994
256.507	4606
256.569	3332
256.632	3933
256.694	9088
256.757	18545
256.819	53837
256.882	19829
256.944	8482
257.007	7301
257.069	8716
257.132	5509
257.194	3962
257.257	4179
257.319	3531
257.381	4411
257.444	13706
257.506	65245
257.569	72466
257.631	50768
257.693	23317
257.756	11163
257.818	11585
257.880	5240
257.943	5309
258.005	3529
258.067	4135
258.130	3425
258.192	6425
258.254	16619
258.317	9826
258.379	5346
258.441	17912
258.503	18067
258.566	29310
258.628	39745
258.690	8527
258.753	6371
258.815	12526
258.877	5858
258.939	4408
259.001	3472
259.064	3895
259.126	6359
259.188	12086
259.250	5839
259.312	8253
259.375	29694
259.437	17208
259.499	5358
259.561	4519
259.623	4668
259.685	4440
259.747	5705
259.809	26568
259.872	52571
259.934	72915
259.996	56387
260.058	13471
260.120	7203
260.182	6166
260.244	4097
260.306	3906
260.368	5122
260.430	3166
260.492	6743
260.554	20319
260.616	21768
260.678	35015
260.740	55062
260.802	12526
260.864	8369
260.926	6274
260.988	5576
261.050	4973
261.112	9300
261.174	42075
261.236	41041
261.298	10565
261.359	23005
261.421	35737
261.483	7080
261.545	6656
261.607	3614
261.669	4412
261.731	14358
261.793	36972
261.854	12471
261.916	6656
261.978	4488
262.040	5845
262.102	6501
262.164	14061
262.225	11918
262.287	5229
262.349	14132
262.411	12151
262.472	5656
262.534	14816
262.596	37320
262.658	9430
262.719	4934
262.781	9933
262.843	35179
262.904	14618
262.966	8023
263.028	11117
263.090	56256
263.151	143523
263.213	39963
263.275	16829
263.336	8692
263.398	7053
263.459	4573
263.521	4918
263.583	12739
263.644	8585
263.706	3939
263.767	2874
263.829	3307
263.891	1793
263.952	2569
264.014	1339
264.075	2020
264.137	4538
264.198	5325
264.260	1395
264.321	1970
264.383	7269
264.444	10268
264.506	3239
264.567	2918
264.629	3352
264.690	3895
264.752	3497
264.813	3256
264.875	1803
264.936	2342
264.998	1457
265.059	1615
265.120	1910
265.182	4306
265.243	20437
265.305	20373
265.366	5503
265.427	3929
265.489	3760
265.550	920
265.611	4128
265.673	2794
265.734	1927
265.795	1899
265.857	1594
265.918	1931
265.979	6545
266.040	39984
266.102	32530
266.163	8982
266.224	6591
266.286	4291
266.347	3174
266.408	3144
266.469	4659
266.530	3091
266.592	2439
266.653	7049
266.714	13274
266.775	3964
266.836	2348
266.898	1805
266.959	3510
267.020	1576
267.081	3196
267.142	2347
267.203	1235
267.264	1812
267.326	3599
267.387	2754
267.448	1774
267.509	2531
267.570	1850
267.631	1057
267.692	609
267.753	2269
267.814	1851
267.875	6415
267.936	18308
267.997	5718
268.058	3892
268.119	2333
268.180	3226
268.241	1971
268.302	2159
268.363	878
268.424	2952
268.485	2829
268.546	1022
268.607	162
268.668	849
268.729	1233
268.790	2089
268.851	3040
268.912	9245
268.972	12335
269.033	5449
269.094	2177
269.155	2331
269.216	1626
269.277	2644
269.338	2205
269.398	1892
269.459	2831
269.520	5321
269.581	6537
269.642	8483
269.702	5020
269.763	3054
269.824	2460
269.885	3775
269.945	7300
270.006	3035
270.067	1617
270.128	1752
270.188	2141
270.249	1135
270.310	1092
270.370	1870
270.431	2278
270.492	1719
270.553	2999
270.613	7576
270.674	16970
270.734	7089
270.795	3051
270.856	6145
270.916	4683
270.977	3341
271.038	3681
271.098	4016
271.159	7309
271.219	7090
271.280	2780
271.340	3402
271.401	4794
271.462	19029
271.522	8072
271.583	3075
271.643	4102
271.704	3346
271.764	4125
271.825	11790
271.885	41689
271.946	58389
272.006	16599
272.066	23101
272.127	46683
272.187	12450
272.248	7764
272.308	8013
272.369	33844
272.429	18486
272.489	12062
272.550	11632
272.610	12872
272.671	10412
272.731	11082
272.791	22022
272.852	9510
272.912	7474
272.972	3901
273.033	4923
273.093	9884
273.153	7053
273.214	4635
273.274	6045
273.334	21549
273.394	50639
273.455	18658
273.515	18428
273.575	42421
273.635	17761
273.696	25422
273.756	53011
273.816	18613
273.876	12573
273.936	31966
273.997	59231
274.057	12928
274.117	8829
274.177	12650
274.237	55195
274.297	53361
274.358	43930
274.418	41180
274.478	28755
274.538	11002
274.598	12032
274.658	51154
274.718	65829
274.778	22557
274.838	10248
274.898	28266
274.958	92508
275.018	59090
275.078	33171
275.138	13662
275.198	8018
275.258	5729
275.318	8589
275.378	14925
275.438	13244
275.498	11179
275.558	37234
275.618	75908
275.678	36903
275.738	17393
275.798	13321
275.858	5800
275.918	4679
275.978	5779
276.038	5534
276.098	4403
276.157	10407
276.217	30435
276.277	13744
276.337	9778
276.397	5126
276.457	7364
276.517	4541
276.576	3394
276.636	3596
276.696	7297
276.756	19094
276.815	13780
276.875	6620
276.935	7464
276.995	6297
277.055	4019
277.114	4656
277.174	7283
277.234	24145
277.293	10338
277.353	6711
277.413	5168
277.472	5015
277.532	5653
277.592	7642
277.651	29671
277.711	60126
277.771	18674
277.830	63492
277.890	52752
277.950	37139
278.009	111402
278.069	40435
278.128	39724
278.188	58426
278.248	24410
278.307	64390
278.367	39795
278.426	12673
278.486	8076
278.545	6065
278.605	4752
278.664	6101
278.724	6687
278.783	19916
278.843	53640
278.902	15993
278.962	9404
279.021	11098
279.081	19806
279.140	17424
279.199	10944
279.259	10422
279.318	11564
279.378	17206
279.437	33299
279.496	115227
279.556	333963
279.615	281919
279.675	80929
279.734	45852
279.793	59568
279.853	85979
279.912	31381
279.971	18014
280.031	16462
280.090	28399
280.149	53631
280.208	53517
280.268	220494
280.327	240977
280.386	62689
280.445	38939
280.505	32388
280.564	17173
280.623	13042
280.682	16639
280.742	24507
280.801	8752
280.860	7711
280.919	5769
280.978	5220
281.037	6358
281.097	5081
281.156	5461
281.215	5375
281.274	6425
281.333	33375
281.392	26649
281.451	7031
281.510	4872
281.569	5115
281.628	3831
281.688	3980
281.747	4388
281.806	3607
281.865	3679
281.924	3371
281.983	3104
282.042	1542
282.101	2389
282.160	3194
282.219	3303
282.278	3888
282.337	15718
282.396	10914
282.454	4662
282.513	5227
282.572	23329
282.631	13600
282.690	4249
282.749	2900
282.808	4634
282.867	4612
282.926	4383
282.985	2464
283.043	2438
283.102	3168
283.161	4564
283.220	11373
283.279	29522
283.338	8659
283.396	4749
283.455	3982
283.514	5104
283.573	6495
283.631	5409
283.690	3441
283.749	3475
283.808	9423
283.866	11554
283.925	4000
283.984	3769
284.043	5951
284.101	6639
284.160	3775
284.219	4874
284.277	4990
284.336	8683
284.395	33165
284.453	30263
284.512	9127
284.570	12603
284.629	11067
284.688	10613
284.746	10736
284.805	12670
284.863	16998
284.922	19914
284.981	22571
285.039	32527
285.098	60696
285.156	153182
285.215	332227
285.273	322569
285.332	165061
285.390	81306
285.449	50340
285.507	34100
285.566	24455
285.624	18809
285.683	14029
285.741	11178
285.799	9900
285.858	8577
285.916	7182
285.975	5703
286.033	4755
286.091	4678
286.150	3721
286.208	4619
286.267	4615
286.325	6396
286.383	8006
286.442	6494
286.500	3538
286.558	3996
286.616	2869
286.675	4674
286.733	4937
286.791	3974
286.850	5831
286.908	6402
286.966	11537
287.024	5586
287.083	2831
287.141	2513
287.199	3780
287.257	5920
287.315	3678
287.374	4481
287.432	12054
287.490	7823
287.548	4371
287.606	4302
287.664	3521
287.723	5192
287.781	7504
287.839	4453
287.897	5205
287.955	6455
288.013	12989
288.071	33092
288.129	129657
288.187	369776
288.245	161595
288.303	48448
288.361	27445
288.419	20239
288.477	13542
288.535	9712
288.593	7859
288.651	5470
288.709	3466
288.767	3924
288.825	2982
288.883	2521
288.941	2272
288.999	2414
289.057	2696
289.115	2085
289.173	2397
289.231	3178
289.289	3020
289.346	2822
289.404	4138
289.462	6456
289.520	6421
289.578	3572
289.636	1217
289.694	1375
289.751	1488
289.809	1372
289.867	1752
289.925	3273
289.983	3642
290.040	1836
290.098	974
290.156	2190
290.214	3382
290.271	2041
290.329	827
290.387	606
290.444	1639
290.502	955
290.560	1011
290.617	1146
290.675	1112
290.733	2277
290.790	2831
290.848	1715
290.906	2035
290.963	2789
291.021	2270
291.078	1954
291.136	1903
291.194	7982
291.251	20936
291.309	5861
291.366	2113
291.424	1625
291.481	1934
291.539	3144
291.596	3085
291.654	1059
291.711	1212
291.769	2451
291.826	8393
291.884	4568
291.941	1783
291.999	1947
292.056	2911
292.114	3572
292.171	1220
292.228	2181
292.286	3137
292.343	8078
292.401	10144
292.458	6407
292.515	3880
292.573	5731
292.630	4473
292.687	6052
292.745	3141
292.802	4086
292.859	9758
292.917	28722
292.974	18092
293.031	5577
293.089	3892
293.146	2243
293.203	1656
293.260	1935
293.318	4645
293.375	3234
293.432	1245
293.489	2375
293.546	2017
293.604	6519
293.661	20835
293.718	54735
293.775	23232
293.832	11084
293.889	8982
293.947	12129
294.004	7734
294.061	5838
294.118	10758
294.175	21254
294.232	13822
294.289	6104
294.346	3032
294.403	3576
294.460	5041
294.517	3774
294.574	2724
294.631	2749
294.688	4466
294.745	13385
294.802	50279
294.859	37741
294.916	18948
294.973	15169
295.030	9237
295.087	7676
295.144	4701
295.201	3800
295.258	4046
295.315	5945
295.372	21225
295.429	45367
295.486	16744
295.542	6895
295.599	7740
295.656	12093
295.713	17601
295.770	36323
295.827	14158
295.883	5707
295.940	5486
295.997	10060
296.054	9380
296.111	4036
296.167	2559
296.224	1427
296.281	1896
296.338	1815
296.394	1896
296.451	4196
296.508	15224
296.564	30471
296.621	18715
296.678	38790
296.734	60823
296.791	20517
296.848	10111
296.904	10464
296.961	23668
297.018	43958
297.074	33685
297.131	11399
297.187	8529
297.244	14397
297.301	46547
297.357	92293
297.414	31155
297.470	10330
297.527	6602
297.583	4519
297.640	5853
297.696	4081
297.753	2567
297.809	1512
297.866	1079
297.922	2311
297.979	2962
298.035	3343
298.092	7205
298.148	24552
298.204	25373
298.261	11560
298.317	17133
298.374	51638
298.430	32885
298.486	16477
298.543	11392
298.599	8303
298.656	8716
298.712	14542
298.768	41335
298.824	30249
298.881	9187
298.937	5630
298.993	4550
299.050	5962
299.106	4664
299.162	3929
299.218	4296
299.275	3641
299.331	5442
299.387	13661
299.443	46256
299.500	53172
299.556	19823
299.612	9172
299.668	7697
299.724	10777
299.780	11924
299.837	7005
299.893	11277
299.949	40507
300.005	51124
300.061	38442
300.117	67535
300.173	34048
300.229	13927
300.285	15682
300.341	17526
300.397	9786
300.453	5524
300.510	3926
300.566	5371
300.622	8222
300.678	23835
300.734	44169
300.790	40896
300.845	54241
300.901	33177
300.957	41529
301.013	33670
301.069	13129
301.125	8440
301.181	8396
301.237	5027
301.293	3954
301.349	3734
301.405	3095
301.461	2225
301.516	3378
301.572	3648
301.628	9400
301.684	8942
301.740	13963
301.796	25125
301.851	17323
301.907	27351
301.963	31819
302.019	49964
302.074	139615
302.130	138182
302.186	59786
302.242	23177
302.297	14653
302.353	14075
302.409	27147
302.464	25592
302.520	20123
302.576	49900
302.631	59987
302.687	31361
302.743	12543
302.798	7017
302.854	5138
302.910	4850
302.965	6794
303.021	13987
303.076	12718
303.132	15908
303.187	20005
303.243	9825
303.299	5323
303.354	3401
303.410	3689
303.465	2352
303.521	2436
303.576	3239
303.632	6111
303.687	12807
303.743	43621
303.798	39439
303.853	14840
303.909	6626
303.964	6100
304.020	8778
304.075	12966
304.130	12455
304.186	23146
304.241	23609
304.297	19085
304.352	9718
304.358	9276
304.407	5693
304.449	5367
304.463	5263
304.518	5217
304.539	4773
304.573	4066
304.629	4734
304.630	4863
304.684	11026
304.720	23770
304.739	30170
304.794	53521
304.811	45219
304.850	25123
304.902	11336
304.905	10474
304.960	6134
304.992	5766
305.015	5496
305.071	5799
305.083	5313
305.126	3561
305.173	2586
305.181	2430
305.236	2142
305.264	2304
305.292	2487
305.347	3672
305.354	3793
305.402	4558
305.445	4629
305.457	4663
305.512	6794
305.535	7012
305.567	7276
305.622	7844
305.626	8148
305.678	15662
305.716	35514
305.733	42799
305.788	55921
305.807	47707
305.843	33671
305.897	42717
305.898	42783
305.953	46167
305.988	30029
306.008	21233
306.063	10462
306.078	9312
306.118	7017
306.168	4252
306.173	4023
306.228	3096
306.259	2930
306.283	2794
306.338	2712
306.349	2671
306.393	2723
306.440	3996
306.448	4156
306.503	3492
306.530	3810
306.558	5131
306.613	11385
306.620	12569
306.668	21759
306.711	35568
306.723	37772
306.778	34403
306.801	25845
306.833	15406
306.888	6924
306.892	6623
306.943	4490
306.982	4207
306.997	4132
307.052	3813
307.072	3440
307.107	2918
307.162	3509
307.163	3527
307.217	5686
307.253	6463
307.272	6588
307.327	7174
307.343	6955
307.381	6333
307.434	6470
307.436	6680
307.491	13694
307.524	20982
307.546	23750
307.600	30046
307.614	27338
307.655	17194
307.704	8440
307.710	7874
307.765	6787
307.795	7776
307.819	9104
307.874	13802
307.885	13882
307.929	11676
307.975	9548
307.984	9801
308.038	14574
308.065	19047
308.093	35616
308.148	79948
308.156	91427
308.202	157198
308.246	203750
308.257	200083
308.312	99848
308.336	65409
308.366	47012
308.421	30804
308.426	29261
308.475	17996
308.517	12280
308.530	11201
308.585	9266
308.607	8872
308.639	8496
308.694	8561
308.697	8609
308.748	13289
308.787	18631
308.803	18600
308.857	14466
308.877	12625
308.912	11373
308.967	11767
308.967	11793
309.021	17660
309.058	23393
309.076	29599
309.130	55103
309.148	65417
309.185	132892
309.238	248359
309.239	249187
309.293	298379
309.328	274056
309.348	233243
309.402	100560
309.418	69391
309.457	44794
309.508	26971
309.511	26521
309.566	26543
309.598	28032
309.620	34394
309.674	56043
309.688	61769
309.729	59130
309.778	45604
309.783	44271
309.837	28405
309.868	21262
309.892	22904
309.946	31137
309.959	34611
310.001	46542
310.049	56384
310.055	54757
310.109	33002
310.139	20334
310.163	15607
310.218	9535
310.229	8653
310.272	6706
310.319	5253
310.326	5094
310.381	4150
310.409	3795
310.435	3512
310.489	2981
310.499	2914
310.543	2869
310.589	2829
310.598	2832
310.652	2996
310.679	2995
310.706	2759
310.760	2500
310.769	2452
310.814	2496
310.859	2491
310.868	2520
310.923	2553
310.948	2749
310.977	3249
311.031	4147
311.038	4278
311.085	4034
311.128	3437
311.139	3266
311.193	2550
311.218	2219
311.247	2433
311.301	2936
311.308	2990
311.356	2535
311.398	2156
311.410	2130
311.464	1869
311.488	1761
311.518	1759
311.572	1883
311.578	1900
311.626	3288
311.668	4499
311.680	4361
311.734	3573
311.758	3241
311.788	3369
311.842	3633
311.847	3661
311.896	3874
311.937	4044
311.950	3954
312.004	3567
312.027	3401
312.058	3135
312.112	2667
312.117	2627
312.165	2357
312.207	2148
312.297	2245
312.386	2025
312.476	3488
312.566	7546
312.656	3802
312.745	1634
312.835	1625
312.925	2207
313.015	1835
313.104	1941
313.194	1914
313.284	2607
313.374	3089
313.463	3358
313.553	2129
313.643	2149
313.732	1329
313.822	2349
313.912	2568
314.001	3611
314.091	3150
314.180	1972
314.270	3915
314.360	4831
314.449	3865
314.539	2059
314.628	2120
314.718	2882
314.808	3030
314.897	2465
314.987	3230
315.076	4360
315.166	5364
315.255	4616
315.345	4883
315.434	4716
315.524	5119
315.613	7678
315.703	12050
315.792	29750
315.881	144578
315.971	43906
316.060	11334
316.150	10444
316.239	9155
316.328	3881
316.418	3006
316.507	2618
316.597	4368
316.686	4565
316.775	5316
316.865	9931
316.954	3625
317.043	2380
317.133	2492
317.222	3086
317.311	3004
317.400	3568
317.490	7266
317.579	8489
317.668	9661
317.757	20027
317.847	56049
317.936	245976
318.025	67913
318.114	44330
318.203	18446
318.293	8767
318.382	13063
318.471	10513
318.560	10222
318.649	10731
318.738	4085
318.828	4749
318.917	4837
319.006	5160
319.095	10556
319.184	16683
319.273	16625
319.362	12078
319.451	4657
319.540	3911
319.629	10148
319.718	17335
319.807	5385
319.896	7809
319.985	23441
320.074	13079
320.163	4089
320.252	5308
320.341	3596
320.430	3441
320.519	8208
320.608	4560
320.697	3369
320.786	3297
320.875	5759
320.964	8523
321.053	12668
321.142	18906
321.230	19258
321.319	13816
321.408	28173
321.497	11638
321.586	11519
321.675	11516
321.764	10931
321.852	7555
321.941	16223
322.030	11702
322.119	10793
322.207	32107
322.296	15428
322.385	8316
322.474	13417
322.562	39950
322.651	19545
322.740	15567
322.829	19276
322.917	13756
323.006	10764
323.095	9425
323.183	5756
323.272	9442
323.361	15340
323.449	44226
323.538	14368
323.626	27423
323.715	18734
323.804	7282
323.892	24766
323.981	16931
324.069	5939
324.158	12656
324.246	12745
324.335	6053
324.424	10763
324.512	3416
324.601	3542
324.689	5064
324.778	6975
324.866	9763
324.954	3434
325.043	3521
325.131	6105
325.220	9858
325.308	10578
325.397	8762
325.485	6095
325.574	2233
325.662	2123
325.750	2940
325.839	2118
325.927	2579
326.015	3068
326.104	3546
326.192	6251
326.280	2204
326.369	1714
326.457	4463
326.545	7872
326.634	3869
326.722	1672
326.810	2613
326.898	2211
326.987	3522
327.075	8039
327.163	7730
327.251	2702
327.340	2099
327.428	2780
327.516	1681
327.604	3084
327.692	2961
327.781	2230
327.869	3960
327.957	2883
328.045	4082
328.133	2765
328.221	2780
328.309	2569
328.397	2782
328.485	3577
328.574	6985
328.662	21088
328.750	10351
328.838	2735
328.926	2002
329.014	1273
329.102	3317
329.190	5983
329.278	5250
329.366	2265
329.454	1691
329.542	1026
329.630	701
329.718	1680
329.806	2812
329.893	1877
329.981	848
330.069	2236
330.157	5517
330.245	13566
330.333	6623
330.421	3350
330.509	5392
330.597	24393
330.684	13862
330.772	3527
330.860	3040
330.948	2345
331.036	2036
331.123	976
331.211	1205
331.299	1483
331.387	2930
331.475	5463
331.562	2156
331.650	1768
331.738	2272
331.825	2343
331.913	1092
332.001	1541
332.089	2630
332.176	3201
332.264	11119
332.352	8686
332.439	3362
332.527	1699
332.614	2378
332.702	2610
332.790	3051
332.877	5958
332.965	12943
333.052	5427
333.140	5976
333.228	15122
333.315	4194
333.403	2487
333.490	7317
333.578	8903
333.665	21499
333.753	8836
333.840	2576
333.928	3074
334.015	7291
334.103	9670
334.190	27078
334.278	7795
334.365	5711
334.452	5723
334.540	3220
334.627	2683
334.715	5340
334.802	10337
334.889	49087
334.977	57481
335.064	10846
335.151	4106
335.239	2907
335.326	4340
335.413	10431
335.501	13064
335.588	3268
335.675	2826
335.762	3379
335.850	3878
335.937	6265
336.024	14629
336.111	52954
336.199	28111
336.286	7287
336.373	3114
336.460	2675
336.547	2043
336.635	3153
336.722	2868
336.809	2520
336.896	4060
336.983	7945
337.070	15480
337.157	22238
337.245	27969
337.332	21523
337.419	2562
337.506	1760
337.593	1238
337.680	4185
337.767	9099
337.854	4637
337.941	5597
338.028	9802
338.115	2991
338.202	2332
338.289	7299
338.376	29868
338.463	8559
338.550	5895
338.637	6082
338.724	4793
338.811	8040
338.898	2275
338.984	1495
339.071	910
339.158	3243
339.245	9955
339.332	5079
339.419	6615
339.506	5368
339.593	1443
339.679	2132
339.766	1849
339.853	2369
339.940	7569
340.027	2675
340.113	2429
340.200	3682
340.287	2931
340.374	3340
340.460	7456
340.547	1857
340.634	6374
340.720	24782
340.807	14495
340.894	2189
340.980	2416
341.067	1259
341.154	3104
341.240	4108
341.327	11426
341.414	3638
341.500	2896
341.587	2826
341.674	2797
341.760	7851
341.847	8233
341.933	2785
342.020	836
342.106	1654
342.193	3260
342.279	5474
342.366	3784
342.452	8031
342.539	4460
342.625	9817
342.712	26476
342.798	10744
342.885	4052
342.971	1097
343.058	1425
343.144	1449
343.230	1735
343.317	2123
343.403	1770
343.490	1383
343.576	1735
343.662	2040
343.749	3195
343.835	4095
343.921	10941
344.008	69518
344.094	160793
344.180	33787
344.267	11086
344.353	32494
344.439	32394
344.525	11002
344.612	4807
344.698	3417
344.784	2417
344.870	2312
344.957	2247
345.043	4416
345.129	3006
345.215	6775
345.301	3363
345.387	2393
345.474	1600
345.560	1007
345.646	2866
345.732	1727
345.818	2305
345.904	2870
345.990	3270
346.076	3253
346.162	3764
346.249	2976
346.335	2169
346.421	3591
346.507	15373
346.593	53146
346.679	10255
346.765	2668
346.851	2332
346.937	1246
347.023	2952
347.108	3141
347.194	3331
347.280	2132
347.366	4677
347.452	16833
347.538	68919
347.624	43234
347.710	28488
347.796	4307
347.882	2183
347.967	1393
348.053	1656
348.139	1247
348.225	2266
348.311	1978
348.397	1645
348.482	3078
348.568	3634
348.654	1108
348.740	3902
348.825	3888
348.911	7120
348.997	30726
349.083	60545
349.168	8753
349.254	2422
349.340	1449
349.425	1679
349.511	3412
349.597	3917
349.682	8313
349.768	29695
349.854	13658
349.939	2319
350.025	1235
350.110	1683
350.196	981
350.282	430
350.367	1751
350.453	2732
350.538	2182
350.624	2086
350.709	2089
350.795	1106
350.880	1655
350.966	2751
351.051	3622
351.137	2144
351.222	1897
351.308	8724
351.393	23299
351.479	5496
351.564	1411
351.649	2103
351.735	1102
351.820	1382
351.906	1331
351.991	2663
352.076	14991
352.162	23375
352.247	4789
352.332	3201
352.418	5109
352.503	7621
352.588	32516
352.673	27212
352.759	6682
352.844	3360
352.929	3725
353.014	4749
353.100	3375
353.185	6864
353.270	11066
353.355	9557
353.441	2630
353.526	2958
353.611	7933
353.696	9263
353.781	5555
353.866	1903
353.952	2680
354.037	8104
354.122	19007
354.207	17260
354.292	6043
354.377	2412
354.462	1710
354.547	3833
354.632	2350
354.717	4538
354.802	5944
354.887	2677
354.972	1758
355.057	1539
355.142	1978
355.227	3144
355.312	4521
355.397	12558
355.482	29663
355.567	14379
355.652	10144
355.737	11846
355.822	36792
355.907	30223
355.991	4623
356.076	2870
356.161	2604
356.246	2173
356.331	2881
356.416	11118
356.501	77207
356.585	79706
356.670	8904
356.755	7631
356.840	9665
356.924	50937
357.009	194082
357.094	66866
357.179	12331
357.263	9186
357.348	6852
357.433	6432
357.517	6325
357.602	5575
357.687	4388
357.771	5391
357.856	7266
357.941	8080
358.025	38160
358.110	189102
358.195	81482
358.279	9420
358.364	7125
358.448	25273
358.533	63935
358.617	46188
358.702	45994
358.787	16361
358.871	8448
358.956	7153
359.040	2821
359.125	2108
359.209	2367
359.294	3479
359.378	5218
359.462	6307
359.547	3417
359.631	2180
359.716	1378
359.800	1840
359.885	3198
359.969	2186
360.053	3609
360.138	1866
360.222	3930
360.306	9505
360.391	5874
360.475	9335
360.559	19278
360.644	25926
360.728	19049
360.812	40705
360.896	120617
360.981	37582
361.065	14629
361.149	5176
361.233	3961
361.318	4726
361.402	7111
361.486	4626
361.570	2186
361.654	4605
361.739	14551
361.823	75654
361.907	120208
361.991	18072
362.075	8913
362.159	18678
362.243	13179
362.327	12641
362.411	17718
362.495	8496
362.580	4195
362.664	2727
362.748	2514
362.832	3697
362.916	6701
363.000	31009
363.084	102234
363.168	143505
363.252	29022
363.336	7627
363.420	9211
363.503	16314
363.587	15788
363.671	5380
363.755	4886
363.839	8123
363.923	3828
364.007	9392
364.091	9708
364.175	7844
364.258	28631
364.342	33147
364.426	65343
364.510	34847
364.594	12909
364.677	19784
364.761	101987
364.845	71047
364.929	16872
365.013	12814
365.096	10010
365.180	12033
365.264	6757
365.347	21946
365.431	8692
365.515	3091
365.598	2547
365.682	3539
365.766	1061
365.849	2360
365.933	3038
366.017	3688
366.100	1354
366.184	409
366.267	2342
366.351	1352
366.435	1603
366.518	1513
366.602	1685
366.685	2130
366.769	2163
366.852	3225
366.936	6286
367.019	4775
367.103	1654
367.186	3144
367.270	1936
367.353	634
367.436	2536
367.520	1909
367.603	3369
367.687	4805
367.770	10716
367.853	7559
367.937	22125
368.020	37145
368.104	7725
368.187	6828
368.270	9847
368.353	7853
368.437	10152
368.520	18701
368.603	14393
368.687	26308
368.770	48677
368.853	10464
368.936	7944
369.020	6732
369.103	3536
369.186	1432
369.269	1951
369.352	7025
369.436	9232
369.519	5813
369.602	992
369.685	3672
369.768	3149
369.851	2971
369.934	1273
370.018	3059
370.101	7925
370.184	7372
370.267	3789
370.350	6968
370.433	12729
370.516	51504
370.599	94077
370.682	32143
370.765	24407
370.848	31863
370.931	63973
371.014	20058
371.097	2910
371.180	3511
371.263	1543
371.346	826
371.429	2154
371.511	1486
371.594	4261
371.677	7025
371.760	5522
371.843	8216
371.926	55949
372.009	140661
372.091	38259
372.174	23653
372.257	62838
372.340	21737
372.423	8660
372.505	8552
372.588	5104
372.671	19532
372.754	64173
372.836	29405
372.919	7764
373.002	11444
373.085	5758
373.167	9258
373.250	24816
373.332	59173
373.415	90414
373.498	209683
373.580	73735
373.663	145199
373.746	180695
373.828	30373
373.911	9242
373.993	6568
374.076	11874
374.159	11736
374.241	14870
374.324	49158
374.406	32846
374.489	55004
374.571	159972
374.654	57853
374.736	27865
374.819	96679
374.901	143404
374.983	154708
375.066	23227
375.148	6465
375.231	11025
375.313	18519
375.395	8273
375.478	3823
375.560	3993
375.643	6658
375.725	27486
375.807	131457
375.890	85092
375.972	20320
376.054	11049
376.136	15724
376.219	8857
376.301	33260
376.383	107301
376.465	37005
376.548	19720
376.630	25745
376.712	82556
376.794	36915
376.877	4425
376.959	1633
377.041	2512
377.123	2788
377.205	2127
377.287	880
377.369	1773
377.452	2029
377.534	2158
377.616	1324
377.698	1303
377.780	766
377.862	2193
377.944	3154
378.026	308
378.108	2323
378.190	1228
378.272	2022
378.354	961
378.436	864
378.518	1348
378.600	7601
378.682	9135
378.764	32109
378.846	23790
378.928	5657
379.010	6419
379.091	5476
379.173	1206
379.255	1204
379.337	3797
379.419	15507
379.501	49117
379.583	17450
379.664	3900
379.746	10427
379.828	30387
379.910	41720
379.991	37703
380.073	5830
380.155	3793
380.237	2680
380.318	1675
380.400	2290
380.482	7162
380.564	11113
380.645	10524
380.727	9500
380.809	5771
380.890	3302
380.972	2188
381.053	2657
381.135	4050
381.217	10161
381.298	31404
381.380	15119
381.461	15834
381.543	85544
381.624	104102
381.706	17212
381.787	6295
381.869	8471
381.951	38606
382.032	163743
382.113	94236
382.195	14825
382.276	9445
382.358	24772
382.439	71899
382.521	89494
382.602	149487
382.684	58392
382.765	99293
382.846	109506
382.928	173269
383.009	90127
383.090	58444
383.172	251731
383.253	395716
383.334	122398
383.416	121926
383.497	60296
383.578	24606
383.659	47029
383.741	209093
383.822	596148
383.903	286124
383.984	83275
384.066	131293
384.147	77132
384.228	15171
384.309	11051
384.390	8820
384.471	6297
384.553	6064
384.634	8851
384.715	9510
384.796	4726
384.877	6229
384.958	29404
385.039	34086
385.120	10508
385.201	5662
385.282	5430
385.363	4671
385.444	5105
385.525	12602
385.606	55630
385.687	47650
385.768	8364
385.849	9672
385.930	64740
386.011	119471
386.092	28114
386.173	5527
386.254	3338
386.335	3772
386.416	3989
386.496	17902
386.577	29110
386.658	8387
386.739	4664
386.820	3487
386.901	2301
386.981	4043
387.062	2802
387.143	7028
387.224	31031
387.304	27983
387.385	8773
387.466	3816
387.547	4950
387.627	4557
387.708	12744
387.789	58906
387.869	73754
387.950	18488
388.031	3385
388.111	685
388.192	4008
388.273	5665
388.353	4684
388.434	5119
388.514	12682
388.595	70010
388.676	82954
388.756	30324
388.837	28719
388.917	16780
388.998	2614
389.078	3718
389.159	2897
389.239	2012
389.320	7217
389.400	4027
389.480	11068
389.561	31745
389.641	15573
389.722	5243
389.802	7247
389.883	13480
389.963	42622
390.043	21915
390.124	4611
390.204	10292
390.284	35677
390.365	20015
390.445	19253
390.525	85919
390.605	83107
390.686	18285
390.766	7718
390.846	4720
390.927	2457
391.007	2023
391.087	4361
391.167	3757
391.247	2166
391.328	5131
391.408	5256
391.488	4366
391.568	2062
391.648	4334
391.728	6711
391.808	7229
391.888	7427
391.969	17719
392.049	28280
392.129	12069
392.209	15587
392.289	41373
392.369	20598
392.449	9903
392.529	10437
392.609	11562
392.689	16776
392.769	45202
392.849	40565
392.929	29437
393.009	63979
393.089	66265
393.169	88897
393.248	289667
393.328	1005371
393.408	1071885
393.488	318991
393.568	88586
393.648	41509
393.728	25361
393.807	17393
393.887	15253
393.967	11542
394.047	10852
394.127	12445
394.206	15275
394.286	54414
394.366	285501
394.446	297997
394.525	51578
394.605	11979
394.685	9398
394.764	11245
394.844	15537
394.924	12754
395.003	7351
395.083	6630
395.163	5859
395.242	6504
395.322	6562
395.402	3380
395.481	6473
395.561	9541
395.640	23315
395.720	24591
395.799	18880
395.879	15298
395.958	16494
396.038	71324
396.117	362963
396.197	388736
396.276	76175
396.356	21764
396.435	16398
396.515	21577
396.594	32345
396.673	71716
396.753	289655
396.832	901873
396.912	646164
396.991	143193
397.070	41819
397.150	20943
397.229	14704
397.308	17723
397.388	22926
397.467	12166
397.546	6620
397.625	4111
397.705	7906
397.784	6546
397.863	3490
397.942	3404
398.022	2326
398.101	4183
398.180	11291
398.259	5896
398.338	4244
398.417	3978
398.497	2069
398.576	3036
398.655	1587
398.734	2012
398.813	1541
398.892	4633
398.971	10932
399.050	6048
399.129	540
399.208	1830
399.287	2230
399.366	525
399.445	989
399.524	1134
399.603	12
399.682	4196
399.761	7695
399.840	15001
399.919	9362
399.998	1574
400.077	342
400.156	117
400.235	2680
400.313	760
400.392	1400
400.471	14761
400.550	25550
400.629	5490
400.708	2769
400.786	761
400.865	1466
400.944	1850
401.023	2715
401.102	1011
401.180	868
401.259	772
401.338	408
401.416	2613
401.495	1220
401.574	2055
401.652	-301
401.731	2377
401.810	734
401.888	1033
401.967	159
402.046	1088
402.124	1948
402.203	2077
402.281	1567
402.360	2116
402.438	2927
402.517	1063
402.596	123
402.674	373
402.753	-21
402.831	1045
402.910	1595
402.988	11001
403.066	37220
403.145	20213
403.223	11357
403.302	28021
403.380	20271
403.459	19853
403.537	6998
403.615	2168
403.694	-543
403.772	1664
403.850	636
403.929	276
404.007	-378
404.085	4798
404.164	3727
404.242	700
404.320	2018
404.398	3634
404.477	18255
404.555	109368
404.633	92675
404.711	10834
404.789	2232
404.868	1494
404.946	-1
405.024	299
405.102	345
405.180	1404
405.258	-554
405.336	1331
405.415	121
405.493	2500
405.571	3029
405.649	793
405.727	-709
405.805	2556
405.883	1532
405.961	1624
406.039	659
406.117	963
406.195	3668
406.273	20488
406.351	85022
406.429	46295
406.507	3535
406.585	-89
406.663	2402
406.740	3273
406.818	1354
406.896	809
406.974	1942
407.052	5066
407.130	46250
407.208	64430
407.285	12021
407.363	1166
407.441	530
407.519	891
407.596	1410
407.674	7161
407.752	26938
407.830	21329
407.907	4061
407.985	1427
408.063	454
408.141	381
408.218	1952
408.296	1349
408.373	1384
408.451	2502
408.529	1724
408.606	237
408.684	602
408.762	764
408.839	560
408.917	-44
408.994	152
409.072	-90
409.149	371
409.227	2602
409.304	3461
409.382	2195
409.459	2824
409.537	5141
409.614	3777
409.692	2973
409.769	1704
409.846	5592
409.924	7234
410.001	1745
410.079	1786
410.156	1854
410.233	794
410.311	861
410.388	1267
410.465	1138
410.543	792
410.620	560
410.697	1579
410.775	2158
410.852	-608
410.929	2586
411.006	2190
411.083	384
411.161	2303
411.238	2248
411.315	371
411.392	407
411.469	2200
411.547	741
411.624	-426
411.701	-27
411.778	1461
411.855	5052
411.932	2358
412.009	-3
412.086	-62
412.163	492
412.240	496
412.317	1041
412.394	82
412.471	-62
412.548	-549
412.625	749
412.702	245
412.779	2078
412.856	1312
412.933	-262
413.010	694
413.087	2042
413.164	12733
413.241	19286
413.318	2336
413.395	2597
413.471	3263
413.548	1352
413.625	608
413.702	-836
413.779	391
413.855	224
413.932	-498
414.009	-913
414.086	-453
414.162	120
414.239	1241
414.316	13753
414.393	32338
414.469	9531
414.546	192
414.623	219
414.699	211
414.776	-40
414.853	-1148
414.929	628
415.006	-1051
415.082	50
415.159	-122
415.236	-206
415.312	778
415.389	3123
415.465	3184
415.542	1370
415.618	-249
415.695	2914
415.771	1142
415.848	992
415.924	979
416.000	-486
416.077	297
416.153	-1526
416.230	-1132
416.306	-305
416.383	-1169
416.459	-186
416.535	-1468
416.612	-159
416.688	-634
416.764	302
416.841	-607
416.917	-489
416.993	-47
417.069	939
417.146	-211
417.222	840
417.298	475
417.374	30
417.451	623
417.527	411
417.603	1054
417.679	624
417.755	1208
417.831	-841
417.908	-523
417.984	-504
418.060	-1060
418.136	3340
418.212	4830
418.288	916
418.364	589
418.440	-882
418.516	1035
418.592	347
418.668	3428
418.744	8512
418.820	6407
418.896	1405
418.972	-689
419.048	651
419.124	4114
419.200	1832
419.276	-141
419.352	-187
419.428	-588
419.504	271
419.579	392
419.655	-42
419.731	340
419.807	5815
419.883	11579
419.959	7808
420.034	1868
420.110	3964
420.186	19108
420.262	14668
420.337	781
420.413	745
420.489	451
420.565	897
420.640	-68
420.716	666
420.792	-1566
420.867	777
420.943	-827
421.019	2559
421.094	1113
421.170	778
421.245	-544
421.321	852
421.397	526
421.472	4015
421.548	13330
421.623	9192
421.699	1512
421.774	2373
421.850	1475
421.925	4644
422.001	2806
422.076	2737
422.152	2430
422.227	4854
422.302	6784
422.378	10383
422.453	21108
422.529	57481
422.604	189444
422.679	324081
422.755	190521
422.830	56135
422.905	20886
422.981	10339
423.056	5923
423.131	4213
423.207	2831
423.282	3080
423.357	7290
423.432	4409
423.508	3930
423.583	9746
423.658	7402
423.733	2530
423.808	1853
423.883	3446
423.959	2430
424.034	1895
424.109	1057
424.184	297
424.259	-186
424.334	511
424.409	-55
424.484	171
424.559	412
424.634	1160
424.709	2067
424.784	2529
424.859	881
424.934	1297
425.009	12062
425.084	22086
425.159	6923
425.234	990
425.309	-700
425.384	450
425.459	-252
425.534	-632
425.609	-1153
425.683	-650
425.758	-542
425.833	-245
425.908	1034
425.983	7790
426.058	25153
426.132	9217
426.207	884
426.282	751
426.357	-523
426.431	-347
426.506	164
426.581	-144
426.655	28
426.730	527
426.805	-705
426.879	742
426.954	-807
427.029	2861
427.103	24919
427.178	68652
427.253	28880
427.327	3108
427.402	223
427.476	1148
427.551	-285
427.625	-368
427.700	-331
427.774	-629
427.849	667
427.923	-320
427.998	-281
428.072	15
428.147	3128
428.221	22227
428.296	72890
428.370	36415
428.444	3208
428.519	768
428.593	1115
428.667	1182
428.742	1792
428.816	5759
428.890	36464
428.965	60099
429.039	12700
429.113	2172
429.188	220
429.262	-205
429.336	1790
429.410	8384
429.485	5482
429.559	1655
429.633	755
429.707	-74
429.781	4491
429.855	34968
429.930	57538
430.004	18323
430.078	9580
430.152	22746
430.226	101075
430.300	101688
430.374	13245
430.448	2730
430.522	3435
430.596	9617
430.670	15744
430.744	79954
430.818	114266
430.892	22289
430.966	2211
431.040	390
431.114	-1634
431.188	-889
431.262	-742
431.336	-770
431.410	935
431.484	2701
431.557	3727
431.631	804
431.705	889
431.779	13038
431.853	64277
431.927	44172
432.000	4006
432.074	753
432.148	-12
432.222	-692
432.295	-639
432.369	-173
432.443	1820
432.516	25119
432.590	71000
432.664	25494
432.737	1280
432.811	-374
432.885	-805
432.958	-532
433.032	-899
433.106	-1335
433.179	-1224
433.253	-1191
433.326	-1507
433.400	-351
433.473	-794
433.547	-1471
433.620	-905
433.694	464
433.767	679
433.841	-352
433.914	-881
433.988	-1489
434.061	-567
434.134	-1096
434.208	-2176
434.281	-916
434.355	-1322
434.428	-1106
434.501	-888
434.575	-1012
434.648	-1136
434.721	-1008
434.795	-1117
434.868	-842
434.941	-1319
435.014	-1319
435.088	-604
435.161	472
435.234	1615
435.307	2818
435.381	503
435.454	537
435.527	2260
435.600	2062
435.673	362
435.746	-101
435.819	-188
435.892	-547
435.966	-883
436.039	-1272
436.112	-449
436.185	-910
436.258	-1201
436.331	-1050
436.404	-1510
436.477	-946
436.550	-728
436.623	-382
436.696	-1715
436.769	101
436.842	-1079
436.915	-926
436.987	-698
437.060	-732
437.133	-1065
437.206	-1581
437.279	602
437.352	-1151
437.425	-1139
437.498	-607
437.570	1193
437.643	1012
437.716	-491
437.789	-965
437.861	246
437.934	3277
438.007	1263
438.080	-527
438.152	425
438.225	3684
438.298	38864
438.370	120059
438.443	47192
438.516	5773
438.588	-84
438.661	-789
438.734	-1110
438.806	-239
438.879	129
438.951	10
439.024	1167
439.096	149
439.169	-1213
439.241	-531
439.314	-1477
439.386	-596
439.459	521
439.531	1686
439.604	109
439.676	-805
439.749	-1055
439.821	-1055
439.893	-1114
439.966	-1612
440.038	-587
440.110	67
440.183	-318
440.255	-335
440.327	972
440.400	11541
440.472	60485
440.544	45054
440.617	4669
440.689	2274
440.761	1818
440.833	2956
440.905	2071
440.978	-431
441.050	-765
441.122	21
441.194	-1020
441.266	-210
441.338	-1008
441.411	1608
441.483	15064
441.555	26167
441.627	5959
441.699	251
441.771	-609
441.843	-894
441.915	-440
441.987	-1149
442.059	-899
442.131	258
442.203	-341
442.275	1259
442.347	1199
442.419	2987
442.491	27474
442.563	74209
442.635	31278
442.706	6306
442.778	3964
442.850	497
442.922	392
442.994	220
443.066	911
443.137	1407
443.209	838
443.281	2115
443.353	6523
443.425	35441
443.496	140688
443.568	141000
443.640	49548
443.711	8158
443.783	1515
443.855	128
443.926	-340
443.998	-638
444.070	82
444.141	522
444.213	1546
444.285	3348
444.356	2254
444.428	891
444.499	-759
444.571	-734
444.642	-629
444.714	-175
444.785	1873
444.857	1572
444.928	1105
445.000	1043
445.071	1446
445.143	2709
445.214	3362
445.285	4624
445.357	16150
445.428	88278
445.500	223621
445.571	135393
445.642	66375
445.714	19756
445.785	6371
445.856	3210
445.928	3513
445.999	2171
446.070	1662
446.141	1666
446.213	2701
446.284	406
446.355	-398
446.426	-559
446.497	169
446.569	-112
446.640	2231
446.711	3626
446.782	-542
446.853	-26
446.924	218
446.995	998
447.066	-276
447.138	-289
447.209	-832
447.280	-1639
447.351	-1103
447.422	-893
447.493	-936
447.564	956
447.635	2711
447.706	625
447.777	-1171
447.847	-656
447.918	-1555
447.989	-562
448.060	-652
448.131	512
448.202	1377
448.273	1673
448.344	-971
448.414	-65
448.485	-627
448.556	-564
448.627	-1387
448.698	-29
448.768	-1555
448.839	-1019
448.910	-317
448.981	-171
449.051	50
449.122	-919
449.193	-1209
449.263	-1115
449.334	-1630
449.405	433
449.475	2511
449.546	2349
449.616	89
449.687	377
449.758	-904
449.828	-1205
449.899	-946
449.969	-1336
450.040	-1821
450.110	-625
450.181	-1189
450.251	-906
450.322	-816
450.392	-812
450.463	-831
450.533	-848
450.604	-508
450.674	-1430
450.744	-1255
450.815	-1425
450.885	-918
450.955	-1152
451.026	-1299
451.096	-1159
451.166	-1099
451.237	-230
451.307	1226
451.377	-150
451.447	-1312
451.518	-610
451.588	-1385
451.658	-521
451.728	-888
451.799	525
451.869	1210
451.939	-543
452.009	-1134
452.079	-1046
452.149	-789
452.219	-725
452.289	1120
452.360	1313
452.430	-827
452.500	-555
452.570	947
452.640	2671
452.710	7176
452.780	8607
452.850	8360
452.920	9533
452.990	2615
453.060	164
453.129	-172
453.199	1047
453.269	2001
453.339	5668
453.409	9380
453.479	8301
453.549	10932
453.619	11408
453.688	3991
453.758	413
453.828	-903
453.898	-328
453.968	-1737
454.037	-913
454.087	-1181
454.107	-1307
454.168	-783
454.177	-723
454.247	-839
454.249	-832
454.316	-1096
454.330	-1016
454.386	-726
454.411	-427
454.456	-56
454.492	271
454.525	534
454.574	58
454.595	-155
454.655	-458
454.665	-517
454.734	-36
454.736	-4
454.804	509
454.817	792
454.873	1691
454.898	1574
454.943	1264
454.979	986
455.013	685
455.060	-184
455.082	-507
455.141	-209
455.152	-192
455.221	1494
455.222	1528
455.291	2250
455.303	2371
455.360	2635
455.384	3964
455.430	5727
455.465	4681
455.499	3731
455.546	2476
455.569	1848
455.627	1824
455.638	1810
455.707	127
455.708	136
455.777	-917
455.789	-798
455.846	-230
455.869	-101
455.916	1
455.950	-181
455.985	-331
456.031	272
456.054	546
456.112	-302
456.124	-484
456.193	266
456.193	256
456.262	-273
456.274	-127
456.332	573
456.355	604
456.401	434
456.436	314
456.470	274
456.516	100
456.540	-52
456.597	-88
456.609	-89
456.678	-297
456.678	-314
456.747	-155
456.759	-253
456.817	-579
456.840	-596
456.886	-719
456.920	11
456.955	705
457.001	323
457.024	179
457.082	181
457.093	167
457.162	870
457.163	889
457.232	1227
457.243	1163
457.301	548
457.324	225
457.370	1
457.405	317
457.439	605
457.485	722
457.508	695
457.566	676
457.577	773
457.646	1849
457.647	1876
457.715	5517
457.727	6321
457.784	11572
457.808	15064
457.853	18731
457.889	21397
457.922	19872
457.969	12301
457.991	13246
458.050	18865
458.060	19970
458.129	33928
458.130	34392
458.198	31221
458.211	27753
458.267	14892
458.292	9390
458.336	5434
458.372	5167
458.405	8204
458.453	13605
458.474	18266
458.533	35344
458.543	36584
458.611	55770
458.614	56129
458.680	30762
458.694	23038
458.749	10250
458.775	6706
458.818	3344
458.855	2724
458.887	2409
458.936	1628
458.955	1189
459.016	1369
459.024	1505
459.093	1893
459.097	1930
459.162	1883
459.177	1959
459.230	2629
459.257	2938
459.299	2865
459.338	2757
459.368	2947
459.418	3321
459.437	3123
459.499	2427
459.505	2420
459.574	1781
459.579	1779
459.643	1319
459.659	1319
459.711	1742
459.740	1792
459.780	1731
459.820	1951
459.849	1960
459.900	1435
459.917	1394
459.981	1927
459.986	1933
460.054	1573
460.061	1547
460.123	1933
460.141	2189
460.191	3133
460.222	3655
460.260	4153
460.302	5098
460.328	4683
460.382	3029
460.397	2966
460.462	2357
460.465	2395
460.534	4126
460.543	4356
460.602	13037
460.623	16457
460.671	26926
460.703	35610
460.739	32409
460.783	25876
460.808	20735
460.864	4516
460.876	3595
460.944	2203
460.945	2189
461.013	2441
461.024	2481
461.081	3267
461.104	3728
461.150	3583
461.184	3312
461.218	3133
461.264	2598
461.286	2378
461.345	2354
461.355	2388
461.423	2386
461.425	2381
461.491	1946
461.505	1867
461.559	2162
461.585	2543
461.628	3907
461.665	5025
461.696	5293
461.745	6029
461.764	5682
461.825	3741
461.832	3744
461.901	3765
461.905	3760
461.969	2323
461.985	2094
462.037	2767
462.065	2898
462.105	2397
462.145	2406
462.173	3216
462.225	4151
462.241	4145
462.305	4650
462.310	4591
462.378	3266
462.385	3139
462.446	3547
462.465	3503
462.514	3263
462.545	3479
462.582	2997
462.625	2145
462.650	2152
462.705	2131
462.718	2147
462.785	2487
462.786	2491
462.854	2481
462.865	2494
462.922	3023
462.945	3313
462.990	3253
463.025	3029
463.058	2864
463.104	2733
463.126	2665
463.184	2155
463.194	2215
463.262	2730
463.264	2761
463.330	2585
463.344	2535
463.398	3344
463.424	3555
463.466	2986
463.504	2628
463.533	2829
463.583	3008
463.601	3075
463.663	3474
463.669	3562
463.737	4629
463.743	4693
463.805	5666
463.823	6016
463.873	6246
463.903	6321
463.940	6658
463.982	6995
464.008	5988
464.062	3937
464.076	3894
464.142	3437
464.144	3439
464.211	3371
464.221	3348
464.279	3682
464.301	3930
464.347	3984
464.381	3910
464.414	3880
464.461	3871
464.482	3865
464.540	3884
464.550	3967
464.617	4182
464.620	4197
464.685	6125
464.699	6488
464.753	7728
464.779	8393
464.820	8237
464.859	7921
464.888	7258
464.938	6185
464.956	6247
465.018	6195
465.023	6173
465.091	5879
465.098	5866
465.158	5895
465.177	5840
465.226	5948
465.257	5923
465.293	6104
465.336	6415
465.361	7228
465.416	8977
465.428	9102
465.495	9872
465.496	9882
465.563	8655
465.575	8425
465.631	9781
465.654	10426
465.698	8254
465.734	6278
465.765	6171
465.813	6031
465.833	5756
465.893	4892
465.900	4976
465.968	5724
465.972	5751
466.035	5704
466.052	5739
466.102	5915
466.131	5902
466.170	5776
466.210	5709
466.237	5959
466.290	6393
466.304	6252
466.369	5460
466.372	5506
466.439	6609
466.449	6746
466.506	7329
466.528	7558
466.573	8383
466.607	8944
466.641	11278
466.687	14493
466.708	15815
466.766	19427
466.775	18542
466.842	11611
466.845	11258
466.909	8805
466.925	8196
466.977	7571
467.004	7262
467.044	7946
467.083	8582
467.111	9505
467.163	11197
467.178	11541
467.242	12857
467.245	12845
467.312	12049
467.321	11921
467.379	10345
467.400	9738
467.446	10248
467.480	10584
467.559	9013
467.638	8782
467.717	9162
467.796	11553
467.875	13639
467.955	10495
468.034	10268
468.113	14102
468.192	19181
468.271	12143
468.350	12051
468.429	16022
468.508	18734
468.588	12473
468.667	8659
468.746	8695
468.825	7884
468.904	8414
468.983	8225
469.062	8835
469.141	11608
469.220	8014
469.299	6891
469.378	8038
469.456	11679
469.535	10115
469.614	10024
469.693	8300
469.772	10370
469.851	10652
469.930	10619
470.009	10180
470.088	11490
470.166	14202
470.245	26022
470.324	31945
470.403	16996
470.482	10670
470.560	9146
470.639	10596
470.718	13177
470.797	8716
470.875	9727
470.954	10964
471.033	11181
471.111	8303
471.190	7692
471.269	6315
471.347	7099
471.426	7174
471.505	8256
471.583	9383
471.662	9246
471.740	7839
471.819	7759
471.898	7068
471.976	8243
472.055	7250
472.133	7999
472.212	9333
472.290	8118
472.369	6305
472.447	6970
472.526	7569
472.604	7526
472.683	9148
472.761	9584
472.839	8581
472.918	8409
472.996	7495
473.075	7421
473.153	8185
473.231	6742
473.310	8267
473.388	9019
473.466	7956
473.545	10735
473.623	15481
473.701	16597
473.780	8364
473.858	6868
473.936	9543
474.014	8255
474.093	8323
474.171	9936
474.249	10252
474.327	7998
474.405	6989
474.484	6654
474.562	7718
474.640	7524
474.718	7216
474.796	7409
474.874	7611
474.952	6124
475.030	6735
475.108	7177
475.187	8087
475.265	8867
475.343	15757
475.421	17878
475.499	7850
475.577	6400
475.655	7971
475.733	9864
475.811	12254
475.889	10892
475.966	9892
476.044	6720
476.122	10010
476.200	14775
476.278	11233
476.356	6126
476.434	6701
476.512	8984
476.590	13672
476.667	12205
476.745	6073
476.823	6455
476.901	5804
476.979	6213
477.056	6301
477.134	6668
477.212	7452
477.290	6822
477.367	5292
477.445	6071
477.523	5063
477.601	5454
477.678	5779
477.756	5699
477.834	5399
477.911	5826
477.989	5622
478.066	5319
478.144	6299
478.222	9808
478.299	19413
478.377	17167
478.454	5530
478.532	5904
478.609	5540
478.687	8533
478.764	5231
478.842	7377
478.919	7008
478.997	6682
479.074	4315
479.152	5220
479.229	5250
479.307	4757
479.384	3813
479.461	4793
479.539	3696
479.616	5636
479.694	5094
479.771	5377
479.848	4566
479.926	5221
480.003	6985
480.080	4331
480.157	4493
480.235	4480
480.312	4800
480.389	4354
480.467	5214
480.544	6254
480.621	4892
480.698	5084
480.775	5443
480.853	4569
480.930	4385
481.007	4633
481.084	4850
481.161	5430
481.238	5818
481.315	4334
481.392	4422
481.470	4468
481.547	4145
481.624	4546
481.701	4185
481.778	3910
481.855	4427
481.932	5608
482.009	6960
482.086	7364
482.163	6823
482.240	12059
482.317	25765
482.393	18707
482.470	5354
482.547	5366
482.624	4912
482.701	5299
482.778	4620
482.855	4314
482.932	4124
483.009	4499
483.085	5865
483.162	7381
483.239	7808
483.316	7033
483.393	7090
483.469	5202
483.546	6014
483.623	5440
483.699	4217
483.776	4912
483.853	4944
483.930	6664
484.006	10210
484.083	17679
484.160	18332
484.236	33316
484.313	25442
484.389	17902
484.466	16609
484.543	15657
484.619	16634
484.696	20478
484.772	16286
484.849	16118
484.925	14074
485.002	14109
485.078	14820
485.155	15105
485.231	13322
485.308	12623
485.384	13360
485.461	14503
485.537	17219
485.614	18770
485.690	13863
485.766	13320
485.843	14691
485.919	25157
485.995	27708
486.072	13099
486.148	12526
486.224	12592
486.301	12359
486.377	13510
486.453	13784
486.530	14267
486.606	18217
486.682	19968
486.758	19453
486.835	19366
486.911	17510
486.987	25796
487.063	47052
487.139	75672
487.215	51019
487.292	21249
487.368	16397
487.444	17844
487.520	23644
487.596	26203
487.672	42453
487.748	135185
487.824	214232
487.900	60135
487.976	19087
488.052	15915
488.128	19069
488.204	16023
488.280	14140
488.356	12711
488.432	16871
488.508	21640
488.584	15431
488.660	13368
488.736	14767
488.812	15725
488.888	20552
488.964	28390
489.039	69122
489.115	114676
489.191	66148
489.267	13773
489.343	11208
489.418	10042
489.494	9698
489.570	8707
489.646	11689
489.722	10630
489.797	10229
489.873	11735
489.949	15848
490.024	15957
490.100	8871
490.176	10693
490.251	14825
490.327	22596
490.403	11570
490.478	10025
490.554	8721
490.629	8940
490.705	8096
490.781	9905
490.856	8601
490.932	12498
491.007	12605
491.083	11663
491.158	8744
491.234	9860
491.309	12880
491.385	12553
491.460	8925
491.536	9823
491.611	11217
491.686	13037
491.762	18703
491.837	44338
491.913	72611
491.988	100514
492.063	144718
492.139	25767
492.214	10110
492.289	8505
492.365	8248
492.440	10259
492.515	8250
492.590	7387
492.666	6939
492.741	8731
492.816	9339
492.891	6306
492.967	8202
493.042	6140
493.117	6830
493.192	7578
493.267	9867
493.342	21941
493.418	27097
493.493	8562
493.568	6125
493.643	7296
493.718	7881
493.793	11909
493.868	19197
493.943	13262
494.018	8548
494.093	6292
494.168	5838
494.243	6140
494.318	5489
494.393	6482
494.468	5627
494.543	6638
494.618	8738
494.693	7242
494.768	5799
494.842	6615
494.917	5472
494.992	7018
495.067	6664
495.142	6656
495.217	7379
495.292	7072
495.366	8616
495.441	11669
495.516	15616
495.591	23318
495.665	91930
495.740	251800
495.815	101013
495.890	10987
495.964	4938
496.039	8755
496.114	5930
496.188	6914
496.263	7499
496.338	6030
496.412	5160
496.487	7368
496.561	10693
496.636	12148
496.710	7222
496.785	7387
496.860	7284
496.934	6715
497.009	7289
497.083	5587
497.158	5953
497.232	7025
497.307	9378
497.381	7255
497.455	6566
497.530	8604
497.604	6279
497.679	5855
497.753	10332
497.827	14215
497.902	12949
497.976	12941
498.050	22629
498.125	83190
498.199	103110
498.273	34473
498.348	25583
498.422	17917
498.496	17203
498.570	16120
498.645	7535
498.719	5990
498.793	8403
498.867	12211
498.941	13226
499.016	29417
499.090	86374
499.164	38391
499.238	7247
499.312	6642
499.386	11295
499.460	8887
499.534	6601
499.609	7832
499.683	8129
499.757	8082
499.831	13398
499.905	50807
499.979	54364
500.053	11316
500.127	16617
500.201	20540
500.275	10107
500.349	7992
500.422	8616
500.496	15565
500.570	40579
500.644	48811
500.718	58952
500.792	18196
500.866	6511
500.940	6651
501.013	7075
501.087	7661
501.161	17222
501.235	18482
501.309	16821
501.382	40304
501.456	46493
501.530	15175
501.603	13783
501.677	8163
501.751	4307
501.825	8007
501.898	8036
501.972	16884
502.046	12677
502.119	5989
502.193	12114
502.266	20698
502.340	11302
502.413	9366
502.487	16133
502.561	9918
502.634	6186
502.708	9125
502.781	7130
502.855	6302
502.928	3781
503.002	3747
503.075	3434
503.149	3203
503.222	3670
503.295	3531
503.369	4169
503.442	5229
503.516	11774
503.589	29398
503.662	20245
503.736	8534
503.809	17077
503.882	16396
503.956	23070
504.029	32569
504.102	73736
504.175	114603
504.249	31559
504.322	11145
504.395	7939
504.468	4755
504.542	4041
504.615	3044
504.688	4647
504.761	3539
504.834	7152
504.907	8758
504.980	19303
505.053	7732
505.127	8518
505.200	11360
505.273	3863
505.346	3611
505.419	2620
505.492	3628
505.565	2791
505.638	3095
505.711	2335
505.784	3052
505.857	2423
505.930	4636
506.003	2575
506.076	4477
506.149	3465
506.221	3554
506.294	4885
506.367	6873
506.440	24097
506.513	18802
506.586	5795
506.659	3979
506.731	4151
506.804	5666
506.877	10488
506.950	5322
507.022	3371
507.095	2494
507.168	5157
507.241	5696
507.313	3524
507.386	5406
507.459	11473
507.531	6382
507.604	3862
507.677	4391
507.749	1942
507.822	6392
507.894	15181
507.967	16435
508.040	8028
508.112	6638
508.185	7099
508.257	4873
508.330	12758
508.402	6870
508.475	4510
508.547	4634
508.620	4458
508.692	6477
508.765	5296
508.837	4184
508.909	4123
508.982	4622
509.054	7090
509.127	5541
509.199	4097
509.271	3295
509.344	3847
509.416	4035
509.488	4219
509.560	4770
509.633	5433
509.705	7868
509.777	5389
509.849	11016
509.922	6743
509.994	3844
510.066	4342
510.138	4447
510.210	11069
510.283	9796
510.355	8389
510.427	7231
510.499	6793
510.571	5815
510.643	6393
510.715	13937
510.787	11618
510.859	7154
510.931	7667
511.003	11773
511.076	11475
511.148	4224
511.219	3987
511.291	5674
511.363	6182
511.435	4480
511.507	4720
511.579	5332
511.651	5851
511.723	5517
511.795	4978
511.867	4139
511.939	4927
512.010	6265
512.082	7822
512.154	4775
512.226	6501
512.298	10475
512.369	15440
512.441	11736
512.513	13739
512.585	8770
512.656	8988
512.728	9306
512.800	7499
512.871	7266
512.943	6873
513.015	6046
513.086	7269
513.158	8873
513.230	7528
513.301	14510
513.373	22403
513.444	9257
513.516	6781
513.588	6996
513.659	9536
513.731	12619
513.802	9035
513.874	22996
513.945	48232
514.016	13158
514.088	6199
514.159	7153
514.231	12217
514.302	16016
514.374	9868
514.445	6083
514.516	10682
514.588	7426
514.659	5812
514.730	8855
514.802	11439
514.873	8110
514.944	9283
515.016	8194
515.087	10076
515.158	8772
515.229	10598
515.301	6493
515.372	9532
515.443	5887
515.514	6054
515.585	4856
515.656	7210
515.728	7248
515.799	6600
515.870	7894
515.941	9168
516.012	7919
516.083	10825
516.154	13299
516.225	22112
516.296	19858
516.367	17064
516.438	21455
516.509	29293
516.580	40800
516.651	120197
516.722	514556
516.793	241807
516.864	39832
516.935	36195
517.006	43930
517.077	57844
517.148	128507
517.219	550672
517.289	986291
517.360	142677
517.431	31415
517.502	14955
517.573	13178
517.643	12564
517.714	13690
517.785	16940
517.856	17526
517.926	26396
517.997	34062
518.068	47096
518.138	65351
518.209	92023
518.280	338730
518.350	1503944
518.421	622898
518.492	56272
518.562	26848
518.633	22499
518.703	22069
518.774	38553
518.845	119196
518.915	131949
518.986	31818
519.056	19453
519.127	34784
519.197	44098
519.268	48232
519.338	22933
519.408	10139
519.479	20699
519.549	16591
519.620	9885
519.690	5912
519.760	6294
519.831	6189
519.901	6694
519.971	5394
520.042	5029
520.112	5163
520.182	9732
520.253	13076
520.323	5520
520.393	5362
520.463	10187
520.534	3638
520.604	10476
520.674	6542
520.744	4501
520.814	11316
520.885	13760
520.955	9032
521.025	26778
521.095	13937
521.165	5765
521.235	4638
521.305	3420
521.375	5867
521.445	6393
521.515	10519
521.585	12841
521.655	11250
521.725	9167
521.795	7864
521.865	1846
521.935	6099
522.005	3894
522.075	3667
522.145	4859
522.215	4746
522.285	5968
522.355	6669
522.424	12111
522.494	11202
522.564	11067
522.634	28456
522.704	107656
522.774	41195
522.843	8162
522.913	7325
522.983	11434
523.053	7882
523.122	7343
523.192	12302
523.262	55811
523.331	59490
523.401	9063
523.471	4461
523.540	5861
523.610	2830
523.680	3153
523.749	4721
523.819	4686
523.888	4357
523.958	3414
524.027	3413
524.097	3149
524.166	3790
524.236	6603
524.305	6585
524.375	3481
524.444	3116
524.514	4994
524.583	3555
524.653	3673
524.722	4875
524.791	2434
524.861	5400
524.930	2610
524.999	4141
525.069	8240
525.138	4584
525.207	4031
525.277	5149
525.346	3843
525.415	4649
525.484	4730
525.554	4904
525.623	6303
525.692	7227
525.761	8219
525.830	10577
525.900	14456
525.969	21140
526.038	37260
526.107	69549
526.176	243912
526.245	214156
526.314	62804
526.383	116606
526.452	172224
526.522	273898
526.591	308641
526.660	81769
526.729	44475
526.797	45112
526.867	78390
526.935	346525
527.004	684646
527.073	417062
527.142	34431
527.211	13182
527.280	11294
527.349	12183
527.418	4984
527.487	6494
527.555	3786
527.624	4040
527.693	2767
527.762	4345
527.831	2536
527.899	4293
527.968	4059
528.037	2803
528.106	6920
528.174	14200
528.243	8286
528.312	11962
528.380	21668
528.449	4769
528.518	4115
528.586	1207
528.655	2975
528.723	2685
528.792	2477
528.861	1665
528.929	967
528.998	2709
529.066	1994
529.135	2081
529.203	1610
529.272	834
529.340	2497
529.409	2881
529.477	1297
529.545	1390
529.614	4558
529.682	1296
529.751	3164
529.819	5015
529.887	2531
529.956	2646
530.024	2960
530.092	1772
530.161	4391
530.229	10427
530.297	4195
530.365	3405
530.434	2941
530.502	1253
530.570	2332
530.638	1301
530.707	3784
530.775	4725
530.843	1519
530.911	2206
530.979	2722
531.047	1710
531.115	2452
531.183	2696
531.252	2775
531.320	2108
531.388	1308
531.456	3165
531.524	24
531.592	2850
531.660	4718
531.728	1652
531.796	1850
531.864	2491
531.932	2067
532.000	2861
532.067	3820
532.135	4239
532.203	5656
532.271	5586
532.339	12435
532.407	45249
532.475	26586
532.542	10592
532.610	11813
532.678	13797
532.746	67928
532.814	209569
532.881	49817
532.949	7805
533.017	5321
533.084	3951
533.152	2674
533.220	4079
533.287	4709
533.355	3610
533.423	2892
533.490	3042
533.558	2066
533.625	2793
533.693	3414
533.761	4007
533.828	4227
533.896	3176
533.963	12119
534.031	15488
534.098	24501
534.166	9942
534.233	3805
534.300	5549
534.368	4215
534.435	3730
534.503	5335
534.570	6509
534.637	6674
534.705	8135
534.772	11013
534.840	18577
534.907	100068
534.974	152986
535.041	17371
535.109	6640
535.176	3937
535.243	3710
535.310	5717
535.378	4293
535.445	4707
535.512	3694
535.579	4806
535.646	2730
535.714	3600
535.781	5411
535.848	4154
535.915	4636
535.982	3499
536.049	3675
536.116	5197
536.183	4557
536.250	4801
536.317	4506
536.384	7080
536.451	12322
536.518	14161
536.585	6879
536.652	10994
536.719	18814
536.786	15082
536.853	9899
536.920	13934
536.987	27542
537.053	24882
537.120	92858
537.187	90049
537.254	8708
537.321	4875
537.388	7829
537.454	4071
537.521	4244
537.588	4588
537.654	6617
537.721	6683
537.788	7664
537.855	4166
537.921	6482
537.988	5454
538.055	5852
538.121	4733
538.188	6458
538.254	10204
538.321	30696
538.388	18259
538.454	6323
538.521	5204
538.587	5759
538.654	4716
538.720	4911
538.787	4990
538.853	5759
538.920	7018
538.986	5958
539.053	5100
539.119	6329
539.185	6538
539.252	8617
539.318	15140
539.385	11224
539.451	8465
539.517	8705
539.583	10318
539.650	20545
539.716	69045
539.782	19554
539.849	7156
539.915	6974
539.981	6589
540.047	9963
540.114	8060
540.180	8500
540.246	7678
540.312	11870
540.378	27602
540.444	30587
540.510	24836
540.576	80784
540.643	24299
540.709	6276
540.775	6624
540.841	6335
540.907	6547
540.973	9302
541.039	11493
541.105	17081
541.171	7165
541.237	6191
541.303	7592
541.369	8808
541.435	10310
541.500	25644
541.566	15829
541.632	6322
541.698	4868
541.764	5997
541.830	4729
541.896	4210
541.961	5727
542.027	6115
542.093	6559
542.159	7153
542.224	5953
542.290	11649
542.356	21920
542.421	32399
542.487	11575
542.553	6047
542.618	6682
542.684	6597
542.750	6576
542.815	9200
542.881	13778
542.947	63835
543.012	52754
543.078	8029
543.143	5203
543.209	7217
543.274	6634
543.340	8639
543.405	21051
543.471	40049
543.536	8760
543.602	5773
543.667	4693
543.732	5809
543.798	3878
543.863	5435
543.928	4379
543.994	4738
544.059	6396
544.124	5733
544.190	6372
544.255	6021
544.320	6834
544.386	6428
544.451	10685
544.516	15146
544.581	11839
544.646	36214
544.712	66758
544.777	12369
544.842	6849
544.907	5860
544.972	5810
545.037	5929
545.102	5301
545.168	6294
545.233	6806
545.298	9297
545.363	7887
545.428	10425
545.493	21630
545.558	55673
545.623	21405
545.688	6944
545.753	7050
545.818	6711
545.883	8103
545.947	6415
546.012	6532
546.077	7444
546.142	9317
546.207	7927
546.272	13654
546.337	14721
546.401	11188
546.466	9877
546.531	8698
546.596	10957
546.661	11086
546.725	12043
546.790	10006
546.855	12578
546.919	11086
546.984	14689
547.049	15139
547.113	16951
547.178	17338
547.243	21125
547.307	24916
547.372	28214
547.436	27776
547.501	28046
547.565	30883
547.630	33060
547.695	30333
547.759	26033
547.823	26772
547.888	26396
547.952	27732
548.017	29196
548.081	30628
548.146	31452
548.210	30930
548.274	32829
548.339	31160
548.403	29106
548.468	27290
548.532	26626
548.596	27796
548.660	27067
548.725	30802
548.789	34071
548.853	32610
548.917	30629
548.982	29282
549.046	27877
549.110	23146
549.174	24479
549.238	27489
549.303	30092
549.367	33160
549.431	30395
549.495	28065
549.559	28529
549.623	33893
549.687	38526
549.751	42787
549.815	43377
549.879	45314
549.943	40723
550.007	43909
550.071	43146
550.135	42759
550.199	37106
550.263	37108
550.327	35528
550.391	34488
550.455	37912
550.519	40432
550.582	44084
550.646	53433
550.710	54633
550.774	49334
550.838	49183
550.901	50656
550.965	54976
551.029	54961
551.093	59970
551.156	66495
551.220	78801
551.284	106685
551.347	75803
551.411	58555
551.475	55877
551.538	53267
551.602	48522
551.666	45929
551.729	41750
551.793	42089
551.856	41055
551.920	39097
551.983	39247
552.047	39490
552.110	39898
552.174	39323
552.237	40939
552.301	38642
552.364	34513
552.428	34873
552.491	37155
552.554	38982
552.618	37959
552.681	39944
552.745	39251
552.808	57251
552.871	74685
552.934	48905
552.998	38610
553.061	36603
553.124	34990
553.187	34924
553.251	34899
553.314	34992
553.377	34931
553.440	37420
553.503	42344
553.567	43081
553.630	38732
553.693	36329
553.756	37375
553.819	36209
553.882	33634
553.945	33990
554.008	33903
554.071	34510
554.134	35890
554.197	33101
554.260	31648
554.323	33285
554.386	33354
554.449	34539
554.512	34270
554.575	31761
554.638	32531
554.701	32293
554.764	31784
554.827	30710
554.889	28039
554.952	26711
555.015	26863
555.078	27114
555.141	28697
555.203	26642
555.266	25986
555.329	26808
555.391	26137
555.454	27023
555.517	26995
555.580	24443
555.642	22913
555.705	23252
555.768	23138
555.830	22144
555.893	20404
555.955	20912
556.018	20659
556.080	20164
556.143	20832
556.206	20976
556.268	20833
556.330	20776
556.393	20514
556.455	19380
556.518	19271
556.580	20632
556.643	17703
556.705	17646
556.767	16444
556.830	17012
556.892	18808
556.955	26737
557.017	20673
557.079	16214
557.142	16598
557.204	17904
557.266	32547
557.328	27477
557.391	13146
557.453	13235
557.515	13413
557.577	16222
557.639	17580
557.701	14181
557.764	13681
557.826	14742
557.888	17598
557.950	17215
558.012	20300
558.074	25968
558.136	59393
558.198	173670
558.260	65565
558.322	22464
558.384	23712
558.446	28507
558.508	33534
558.570	43364
558.632	62974
558.694	90714
558.756	102675
558.818	309651
558.880	889343
558.942	287863
559.003	185638
559.065	99105
559.127	36608
559.189	35801
559.251	41480
559.312	55783
559.374	134189
559.436	532897
559.498	285823
559.559	42421
559.621	35500
559.683	38398
559.744	62081
559.806	215751
559.868	382369
559.929	69933
559.991	33772
560.052	48461
560.114	160662
560.176	108496
560.237	81830
560.299	159049
560.360	34520
560.422	11181
560.483	9198
560.545	8382
560.606	7634
560.667	5782
560.729	5985
560.790	5826
560.852	5113
560.913	6139
560.974	6098
561.036	6224
561.097	6579
561.158	6550
561.220	7010
561.281	6343
561.342	7412
561.403	9855
561.465	11040
561.526	32735
561.587	48292
561.648	10156
561.709	6035
561.771	6248
561.832	5324
561.893	5113
561.954	4536
562.015	4577
562.076	4958
562.137	4557
562.198	4440
562.259	5445
562.320	4993
562.381	7006
562.442	10353
562.503	8681
562.564	5367
562.625	5073
562.686	4873
562.747	4428
562.808	5282
562.869	4326
562.930	4166
562.991	3787
563.051	4721
563.112	3997
563.173	4167
563.234	3617
563.294	4293
563.355	4556
563.416	5504
563.477	4416
563.537	3986
563.598	5220
563.659	3411
563.720	4745
563.780	5719
563.841	5497
563.901	3852
563.962	3175
564.023	3879
564.083	4966
564.144	4364
564.204	4070
564.265	2689
564.325	4028
564.386	5168
564.446	5048
564.507	3781
564.567	3299
564.628	3399
564.688	3964
564.749	2284
564.809	4000
564.869	4301
564.930	3139
564.990	4222
565.050	3512
565.111	2910
565.171	2951
565.231	3724
565.292	4119
565.352	2935
565.412	4091
565.472	4238
565.532	5166
565.593	4982
565.653	4205
565.713	3753
565.773	5274
565.833	7172
565.893	10660
565.953	5138
566.013	3670
566.074	4168
566.134	5208
566.194	5248
566.254	8154
566.314	4991
566.374	3030
566.434	3728
566.494	3590
566.554	3603
566.614	3470
566.673	3567
566.733	4386
566.793	3950
566.853	4500
566.913	4080
566.973	3810
567.033	5252
567.092	4877
567.152	5066
567.212	5572
567.272	4003
567.331	4191
567.391	4589
567.451	5253
567.511	5199
567.570	5145
567.630	3638
567.690	4451
567.749	4625
567.809	4486
567.868	5530
567.928	5467
567.988	6162
568.047	6540
568.107	7589
568.166	10904
568.226	16345
568.285	23873
568.345	17427
568.404	11882
568.464	10419
568.523	8843
568.582	10393
568.642	12194
568.701	14966
568.761	22141
568.820	39475
568.879	32755
568.939	20000
568.998	12359
569.057	9145
569.116	7447
569.176	6090
569.235	5129
569.294	5881
569.353	4963
569.413	5163
569.472	3311
569.531	3764
569.590	3363
569.649	3486
569.708	3526
569.767	4023
569.827	6389
569.886	4698
569.945	4478
570.004	4380
570.063	4157
570.122	4152
570.181	4996
570.240	5302
570.299	4559
570.358	5357
570.417	3754
570.475	4306
570.534	5157
570.593	5315
570.652	4776
570.711	5177
570.770	3943
570.829	5820
570.887	5433
570.946	7252
571.005	3741
571.064	5115
571.122	6010
571.181	6285
571.240	3874
571.299	3316
571.357	3048
571.416	3727
571.475	3385
571.533	2994
571.592	3100
571.650	2494
571.709	2987
571.768	5136
571.826	4807
571.885	3936
571.943	3287
572.002	3219
572.060	3633
572.119	2975
572.177	3231
572.236	3086
572.294	2964
572.352	4121
572.411	3553
572.469	3569
572.528	3772
572.586	2711
572.644	3260
572.703	5782
572.761	3310
572.819	3159
572.877	1832
572.936	2502
572.994	2162
573.052	3051
573.110	2958
573.169	3408
573.227	3246
573.285	3071
573.343	3220
573.401	2537
573.459	3607
573.517	2638
573.576	3620
573.634	3395
573.692	3280
573.750	3128
573.808	2512
573.866	2935
573.924	2504
573.982	2293
574.040	2528
574.098	2994
574.155	2997
574.213	2745
574.271	2608
574.329	3216
574.387	2379
574.445	1795
574.503	2664
574.560	2016
574.618	3105
574.676	2842
574.734	2087
574.792	3765
574.849	3280
574.907	1661
574.965	1977
575.022	2591
575.080	1854
575.138	2388
575.195	2025
575.253	2028
575.311	3770
575.368	2817
575.426	2553
575.483	2312
575.541	2627
575.598	3054
575.656	2089
575.713	2540
575.771	2207
575.828	2634
575.886	1715
575.943	2407
576.001	2420
576.058	1635
576.115	1821
576.173	2711
576.230	4229
576.287	5840
576.345	4060
576.402	2320
576.459	2131
576.517	1861
576.574	2849
576.631	2767
576.688	2838
576.746	1841
576.803	1775
576.860	1598
576.917	2074
576.974	1914
577.031	1786
577.089	1682
577.146	1726
577.203	1793
577.260	3203
577.317	2433
577.374	3153
577.431	1730
577.488	1843
577.545	2400
577.602	2530
577.659	1922
577.716	1432
577.773	2022
577.830	1490
577.886	2355
577.943	2312
578.000	2063
578.057	1637
578.114	2823
578.171	2116
578.227	3050
578.284	2063
578.341	2329
578.398	2109
578.454	2258
578.511	2668
578.568	2738
578.625	2225
578.681	1502
578.738	1797
578.794	1966
578.851	2511
578.908	1858
578.964	1573
579.021	2437
579.077	2497
579.134	2636
579.190	2395
579.247	2258
579.303	2091
579.360	1810
579.416	2988
579.473	1854
579.529	1491
579.586	1552
579.642	2534
579.698	2090
579.755	2620
579.811	2742
579.867	1912
579.924	2143
579.980	1634
580.036	1776
580.093	2508
580.149	1692
580.205	2252
580.261	1709
580.317	1840
580.374	1938
580.430	3357
580.486	2610
580.542	1376
580.598	2652
580.619	2561
580.654	2408
580.692	2089
580.710	1932
580.765	2389
580.767	2405
580.823	3134
580.838	2898
580.879	2272
580.911	2397
580.935	2495
580.984	2351
580.991	2338
581.047	1895
581.057	1964
581.103	2245
581.130	2203
581.159	2161
581.203	2184
581.215	2192
581.270	1946
581.276	1988
581.326	2425
581.349	2203
581.382	1860
581.422	2283
581.438	2441
581.494	2278
581.494	2279
581.550	2775
581.567	2917
581.606	3187
581.640	2923
581.661	2768
581.713	3421
581.717	3475
581.773	2323
581.786	2321
581.829	2343
581.859	2394
581.885	2441
581.932	2210
581.940	2168
581.996	3178
582.004	3094
582.052	2535
582.077	2591
582.107	2683
582.150	2786
582.163	2861
582.219	1989
582.223	1985
582.274	1782
582.296	1814
582.330	1862
582.368	1974
582.386	2050
582.441	2540
582.441	2541
582.497	2074
582.514	2262
582.552	2763
582.587	2593
582.608	2400
582.659	2033
582.663	2019
582.719	2383
582.732	2308
582.774	2061
582.805	2322
582.830	2511
582.877	2359
582.885	2339
582.941	2260
582.950	2207
582.996	1887
583.023	2182
583.052	2652
583.095	3179
583.107	3264
583.162	2059
583.168	2127
583.218	2672
583.240	2314
583.273	1899
583.313	2268
583.328	2414
583.384	2577
583.385	2560
583.439	1950
583.458	2104
583.494	2301
583.531	2104
583.549	2106
583.603	2217
583.605	2225
583.660	2435
583.676	2427
583.715	2101
583.748	2634
583.770	3086
583.820	2518
583.825	2433
583.881	2943
583.893	2717
583.936	2176
583.965	2145
583.991	2069
584.038	2064
584.046	2057
584.101	1495
584.110	1576
584.156	2254
584.183	2378
584.211	2287
584.255	2270
584.266	2328
584.321	1631
584.328	1774
584.376	2883
584.400	2849
584.431	2701
584.472	2561
584.486	2541
584.541	2767
584.545	2764
584.596	2634
584.617	2597
584.651	2614
584.689	2901
584.706	3033
584.761	3335
584.762	3337
584.816	3298
584.834	3295
584.871	3447
584.906	3298
584.926	3188
584.978	3490
584.980	3510
585.035	4882
585.051	4968
585.090	4984
585.123	5654
585.145	6206
585.195	6790
585.200	6840
585.254	7905
585.267	8324
585.309	9671
585.340	10997
585.364	12140
585.412	13530
585.419	13745
585.473	16853
585.484	17446
585.528	20489
585.556	25292
585.583	33981
585.628	57981
585.637	65943
585.692	145772
585.700	162427
585.747	232462
585.772	186710
585.801	108652
585.845	33613
585.856	22698
585.910	11634
585.917	10720
585.965	8294
585.989	7339
586.019	6474
586.061	5888
586.074	5723
586.128	5703
586.133	5680
586.183	5433
586.205	5490
586.237	5526
586.277	4936
586.292	4753
586.346	4670
586.349	4675
586.401	4617
586.421	4596
586.455	4489
586.493	4677
586.509	5039
586.564	5720
586.565	5748
586.618	6652
586.637	6988
586.672	7341
586.709	7269
586.727	7147
586.781	7633
586.781	7627
586.835	5970
586.853	5815
586.889	5665
586.925	4845
586.944	4438
586.996	4699
586.998	4714
587.052	4894
587.068	4962
587.106	4922
587.140	4986
587.161	5116
587.212	5584
587.215	5585
587.269	5086
587.284	5159
587.323	5636
587.356	5784
587.377	5765
587.427	5920
587.431	5939
587.485	5982
587.499	6121
587.539	6397
587.571	6448
587.593	6580
587.643	6957
587.648	7011
587.702	7397
587.715	7711
587.755	8402
587.786	8532
587.810	8318
587.858	7932
587.864	8026
587.917	9298
587.930	9560
587.971	10270
588.001	10898
588.025	11319
588.073	12705
588.079	12934
588.133	14551
588.145	15107
588.187	16801
588.217	17868
588.241	19032
588.288	21927
588.295	22366
588.348	26989
588.360	28060
588.402	32558
588.431	36199
588.456	39147
588.503	45348
588.510	46313
588.564	56718
588.575	59130
588.617	68475
588.646	75933
588.671	83214
588.718	100104
588.725	104462
588.778	147912
588.789	160645
588.832	265398
588.861	354191
588.886	509350
588.932	854156
588.939	886348
588.993	1067496
589.004	1068599
589.047	662381
589.075	383659
589.100	268553
589.147	129672
589.154	122546
589.207	93597
589.218	89447
589.261	85418
589.290	85267
589.314	89023
589.361	101994
589.368	107340
589.421	162280
589.433	178251
589.475	334897
589.504	465789
589.528	619081
589.576	924730
589.582	900499
589.635	521316
589.647	435245
589.689	208236
589.718	87621
589.742	66851
589.790	39936
589.795	38347
589.849	27274
589.861	25247
589.902	21197
589.932	19057
589.955	17641
590.004	14971
590.009	14775
590.062	13265
590.075	12851
590.115	11872
590.146	11346
590.168	10980
590.218	10600
590.222	10514
590.275	9567
590.289	9277
590.328	9372
590.360	9446
590.381	9046
590.431	8263
590.435	8250
590.488	8266
590.503	8366
590.541	8261
590.574	7969
590.594	7696
590.645	7269
590.647	7278
590.700	7777
590.716	7931
590.753	7512
590.787	7238
590.806	7198
590.859	7034
590.859	7037
590.912	7817
590.930	8195
590.965	8127
591.001	7883
591.018	7610
591.071	6774
591.072	6776
591.124	6746
591.143	6760
591.177	6904
591.214	7086
591.230	7217
591.283	7843
591.285	7869
591.336	8226
591.356	8410
591.389	8523
591.427	8602
591.442	8231
591.495	6690
591.498	6599
591.547	6495
591.569	6472
591.600	6427
591.640	6336
591.653	6412
591.706	6813
591.711	6859
591.759	6262
591.782	5991
591.811	6551
591.853	7420
591.864	7338
591.917	6929
591.924	6876
591.969	7020
591.995	7106
592.022	6790
592.066	6317
592.075	6439
592.127	7272
592.137	7439
592.180	7109
592.208	6885
592.233	6832
592.279	6758
592.285	6785
592.338	7135
592.350	7231
592.390	7117
592.421	7060
592.443	7053
592.491	7069
592.495	7051
592.548	7049
592.562	7074
592.600	6862
592.633	6707
592.653	6556
592.704	6194
592.705	6238
592.775	6761
592.846	7523
592.916	8412
592.987	8566
593.058	7794
593.128	7521
593.199	7859
593.270	7099
593.341	6279
593.411	7163
593.482	8246
593.553	8638
593.623	8377
593.694	8539
593.764	8037
593.835	8570
593.906	7920
593.976	8090
594.047	8162
594.117	8467
594.188	8988
594.258	9039
594.329	8405
594.399	8982
594.470	9291
594.540	9409
594.611	9988
594.681	9935
594.751	9064
594.822	11707
594.892	11591
594.963	10572
595.033	10886
595.103	11405
595.174	11397
595.244	12491
595.314	12718
595.384	12061
595.455	12262
595.525	12647
595.595	12237
595.665	13023
595.736	12217
595.806	13069
595.876	13119
595.946	12904
596.016	13779
596.087	14364
596.157	14143
596.227	13690
596.297	14534
596.367	15931
596.437	17301
596.507	17328
596.577	18146
596.647	16858
596.717	18252
596.787	18085
596.857	18192
596.927	17790
596.997	18358
597.067	18591
597.137	19403
597.207	18713
597.277	19091
597.347	18494
597.417	16751
597.487	18389
597.557	18171
597.626	19345
597.696	19732
597.766	20047
597.836	18499
597.906	16756
597.975	15538
598.045	16140
598.115	17704
598.185	19039
598.254	21519
598.324	23635
598.394	23233
598.464	23158
598.533	21946
598.603	19471
598.672	20042
598.742	21037
598.812	21035
598.881	21125
598.951	21165
599.020	21172
599.090	22312
599.159	22478
599.229	22148
599.299	19968
599.368	21509
599.437	20938
599.507	19442
599.576	18747
599.646	18087
599.715	18745
599.785	17586
599.854	17049
599.924	17143
599.993	16621
600.062	16452
600.132	17562
600.201	18659
600.270	23395
600.340	22711
600.409	22589
600.478	22625
600.547	23379
600.617	20756
600.686	16653
600.755	14537
600.824	14796
600.894	12998
600.963	13178
601.032	13991
601.101	13320
601.170	12156
601.239	12019
601.308	13474
601.378	12648
601.447	12039
601.516	11175
601.585	12920
601.654	13889
601.723	12489
601.792	12079
601.861	13296
601.930	14594
601.999	14783
602.068	14536
602.137	15478
602.206	16256
602.275	15005
602.343	15738
602.412	16826
602.481	14787
602.550	15642
602.619	14914
602.688	16429
602.756	15284
602.825	15433
602.894	14738
602.963	16547
603.032	17117
603.100	16643
603.169	16242
603.238	16083
603.307	17035
603.375	17554
603.444	17173
603.513	17891
603.581	17604
603.650	18035
603.719	17359
603.787	17558
603.856	19026
603.924	19409
603.993	19506
604.061	21429
604.130	22030
604.198	23511
604.267	22812
604.335	23914
604.404	23171
604.472	23646
604.541	24236
604.609	24764
604.678	24501
604.746	24477
604.815	25574
604.883	25575
604.951	25668
605.020	25881
605.088	26912
605.156	27729
605.225	28214
605.293	27999
605.361	28515
605.429	28073
605.498	29226
605.566	30604
605.634	30999
605.702	32222
605.771	33743
605.839	33999
605.907	32920
605.975	31541
606.043	30112
606.111	31240
606.180	30747
606.248	30198
606.316	30436
606.384	29771
606.452	32757
606.520	33794
606.588	33455
606.656	32034
606.724	30425
606.792	30290
606.860	26614
606.928	25062
606.996	23933
607.064	23018
607.132	23210
607.200	25107
607.267	26139
607.335	27639
607.403	26828
607.471	25881
607.539	25651
607.607	26219
607.674	22648
607.742	23419
607.810	24034
607.878	23173
607.946	22765
608.013	23719
608.081	25454
608.149	25366
608.216	26065
608.284	26024
608.352	26770
608.419	25534
608.487	28043
608.555	25619
608.622	26172
608.690	28363
608.757	30715
608.825	30782
608.893	30375
608.960	29391
609.028	27628
609.095	27710
609.163	27565
609.230	24805
609.298	22769
609.365	23174
609.432	25376
609.500	27698
609.567	32461
609.635	37944
609.702	38262
609.769	36493
609.837	29196
609.904	23804
609.971	26207
610.039	32066
610.106	44314
610.173	95905
610.241	242928
610.308	122715
610.375	34356
610.442	26885
610.509	25770
610.577	26348
610.644	25726
610.711	26954
610.778	27509
610.845	27966
610.912	30463
610.980	31514
611.047	31539
611.114	30771
611.181	29830
611.248	28685
611.315	33334
611.382	31331
611.449	32704
611.516	34187
611.583	33612
611.650	32655
611.717	34820
611.784	35940
611.851	37709
611.918	44296
611.984	55089
612.051	90805
612.118	211135
612.185	572879
612.252	331505
612.319	62753
612.386	48353
612.452	43306
612.519	39879
612.586	38187
612.653	39546
612.719	40983
612.786	39205
612.853	34912
612.919	34253
612.986	35966
613.053	32717
613.120	30988
613.186	28709
613.253	32057
613.319	29268
613.386	30579
613.453	30729
613.519	31741
613.586	33573
613.652	37537
613.719	34382
613.785	34141
613.852	31850
613.918	29898
613.985	32354
614.051	33779
614.118	37356
614.184	35907
614.250	31038
614.317	31957
614.383	30764
614.449	31072
614.516	31365
614.582	31540
614.648	30247
614.715	30277
614.781	29464
614.847	30011
614.914	29272
614.980	29704
615.046	28584
615.112	29623
615.179	29115
615.245	30409
615.311	29933
615.377	32513
615.443	33013
615.509	30668
615.575	33170
615.642	31842
615.708	34751
615.774	37182
615.840	41881
615.906	47637
615.972	66414
616.038	115375
616.104	276927
616.170	732873
616.236	596832
616.302	100807
616.368	67487
616.434	44667
616.500	41999
616.565	48848
616.631	64667
616.697	47804
616.763	52222
616.829	83633
616.895	167644
616.961	148880
617.026	52823
617.092	33660
617.158	32701
617.224	31147
617.289	28051
617.355	26239
617.421	24552
617.487	26191
617.552	25742
617.618	23488
617.684	23561
617.749	26921
617.815	22706
617.880	21802
617.946	23196
618.012	23248
618.077	23182
618.143	21876
618.208	22148
618.274	24371
618.339	24454
618.405	20107
618.470	20794
618.536	19825
618.601	20051
618.667	17647
618.732	17653
618.798	16809
618.863	16565
618.928	16999
618.994	17839
619.059	18961
619.124	22078
619.190	17544
619.255	16226
619.320	16998
619.386	17263
619.451	16249
619.516	15912
619.581	15625
619.647	16246
619.712	15792
619.777	16350
619.842	15602
619.907	17149
619.972	17438
620.038	16832
620.103	16248
620.168	14766
620.233	16429
620.298	15254
620.363	15959
620.428	16730
620.493	17067
620.558	17917
620.623	17238
620.688	18265
620.753	17511
620.818	17927
620.883	18124
620.948	17618
621.013	17549
621.078	17861
621.143	16845
621.207	19077
621.272	17945
621.337	17723
621.402	17255
621.467	17952
621.532	16656
621.596	16876
621.661	16916
621.726	15564
621.791	16362
621.855	17169
621.920	16564
621.985	16838
622.049	17333
622.114	17576
622.179	17683
622.243	17461
622.308	17626
622.373	20235
622.437	18543
622.502	17103
622.566	16798
622.631	15334
622.695	17935
622.760	17952
622.824	17125
622.889	17933
622.953	18202
623.018	23121
623.082	23785
623.147	18864
623.211	18821
623.276	18797
623.340	16983
623.404	16310
623.469	16371
623.533	16960
623.597	16034
623.662	16762
623.726	14647
623.790	13982
623.854	12355
623.919	14223
623.983	13596
624.047	13527
624.111	14625
624.176	14906
624.240	15132
624.304	16742
624.368	14461
624.432	14968
624.496	16187
624.560	17722
624.625	18563
624.689	16604
624.753	17070
624.817	15841
624.881	15327
624.945	14391
625.009	14183
625.073	14381
625.137	14176
625.201	17032
625.265	17192
625.329	15138
625.393	15139
625.456	15222
625.520	15453
625.584	16750
625.648	16136
625.712	18033
625.776	20552
625.839	20418
625.903	14202
625.967	11325
626.031	14472
626.095	17521
626.158	14497
626.222	10350
626.286	11544
626.349	8833
626.413	8533
626.477	10310
626.540	9778
626.604	8599
626.668	9988
626.731	8276
626.795	8440
626.858	8544
626.922	7788
626.986	8883
627.049	7971
627.113	9906
627.176	8959
627.240	8362
627.303	8612
627.366	8449
627.430	9197
627.493	7975
627.557	7697
627.620	9270
627.684	8762
627.747	9594
627.810	7160
627.874	7504
627.937	6296
628.000	8240
628.064	7029
628.127	4850
628.190	7008
628.253	6536
628.317	5279
628.380	4947
628.443	5598
628.506	6076
628.569	5945
628.632	4053
628.696	4851
628.759	4488
628.822	4796
628.885	4601
628.948	4821
629.011	4789
629.074	5118
629.137	3425
629.200	3843
629.263	5036
629.326	4459
629.389	3252
629.452	3972
629.515	3820
629.578	3689
629.641	4153
629.704	4190
629.767	3597
629.830	4371
629.892	3075
629.955	3037
630.018	5723
630.081	4366
630.144	6727
630.207	3740
630.269	5598
630.332	3388
630.395	4351
630.458	3706
630.520	2928
630.583	3205
630.646	3842
630.708	3681
630.771	2905
630.834	4551
630.896	3829
630.959	3466
631.021	3545
631.084	2817
631.146	3852
631.209	4537
631.272	2755
631.334	4215
631.397	3810
631.459	3770
631.522	5898
631.584	5062
631.646	4780
631.709	6260
631.771	7639
631.834	6487
631.896	5818
631.958	3875
632.021	4784
632.083	2246
632.145	3538
632.208	2998
632.270	5198
632.332	3218
632.395	2596
632.457	3349
632.519	2270
632.581	3973
632.643	1868
632.706	3938
632.768	3055
632.830	4466
632.892	3249
632.954	2427
633.016	3706
633.078	3285
633.141	3553
633.203	2958
633.265	3948
633.327	3527
633.389	2925
633.451	3843
633.513	4163
633.575	4717
633.637	4708
633.698	4093
633.760	4514
633.822	5030
633.884	4520
633.946	4534
634.008	4523
634.070	5951
634.132	5796
634.193	6761
634.255	8455
634.317	7919
634.379	8654
634.441	6475
634.502	5720
634.564	5615
634.626	5489
634.687	5229
634.749	4431
634.811	4288
634.873	2926
634.934	3623
634.996	4175
635.057	2781
635.119	3469
635.181	2803
635.242	4589
635.304	2159
635.365	5871
635.427	3928
635.488	3344
635.550	3299
635.611	3650
635.673	2420
635.734	4549
635.796	4997
635.857	6517
635.918	5964
635.980	8654
636.041	8574
636.102	9494
636.164	10556
636.225	9941
636.286	6343
636.348	6465
636.409	4880
636.470	4054
636.531	4343
636.593	3060
636.654	4235
636.715	3432
636.776	2904
636.838	2631
636.899	3559
636.960	3076
637.021	2479
637.082	2840
637.143	3186
637.204	1477
637.265	2306
637.326	3277
637.387	3492
637.448	1724
637.509	2993
637.570	2707
637.631	3244
637.692	1829
637.753	1208
637.814	2777
637.875	3185
637.936	3164
637.997	1632
638.058	2663
638.119	3005
638.179	2324
638.240	2124
638.301	2336
638.362	957
638.423	1603
638.483	3323
638.544	590
638.605	1935
638.666	1225
638.726	2550
638.787	2826
638.848	2003
638.908	1835
638.969	1603
639.030	2102
639.090	1096
639.151	1885
639.211	2635
639.272	3402
639.332	5930
639.393	3694
639.453	2226
639.514	2512
639.574	2970
639.635	1403
639.695	2208
639.756	1269
639.816	3154
639.877	3077
639.937	6613
639.997	8336
640.058	1073
640.118	1575
640.178	2443
640.239	1967
640.299	1770
640.359	1465
640.420	2462
640.480	2954
640.540	3858
640.600	4854
640.661	3284
640.721	1739
640.781	4335
640.841	1232
640.901	2295
640.961	2803
641.021	3177
641.082	3629
641.142	4562
641.202	3189
641.262	389
641.322	3030
641.382	1341
641.442	2734
641.502	1398
641.562	2154
641.622	1516
641.682	2502
641.742	3408
641.802	2314
641.861	2354
641.921	2066
641.981	3063
642.041	2021
642.101	2710
642.161	1366
642.221	1113
642.280	1856
642.340	1708
642.400	1430
642.460	2530
642.519	1140
642.579	2217
642.639	1968
642.698	-329
642.758	3549
642.818	963
642.877	1223
642.937	1703
642.997	2116
643.056	3839
643.116	1010
643.175	3429
643.235	1838
643.294	2604
643.354	2633
643.414	3497
643.473	4837
643.532	7405
643.592	12228
643.651	22103
643.711	44469
643.770	91017
643.830	230796
643.889	525918
643.948	114350
644.008	13922
644.067	7026
644.126	4590
644.186	3866
644.245	3721
644.304	1067
644.363	3743
644.423	1495
644.482	2844
644.541	3359
644.600	763
644.659	4658
644.719	5018
644.778	9887
644.837	17939
644.896	42407
644.955	100687
645.014	32148
645.073	4414
645.132	3003
645.191	3106
645.250	1949
645.309	3805
645.368	2970
645.427	4751
645.486	7442
645.545	17884
645.604	3611
645.663	2350
645.722	1858
645.781	3652
645.840	4220
645.898	5531
645.957	10766
646.016	18186
646.075	39446
646.134	80956
646.192	227573
646.251	352989
646.310	44053
646.369	8218
646.427	6972
646.486	3689
646.545	3333
646.603	2499
646.662	2708
646.721	2229
646.779	2201
646.838	1625
646.896	4016
646.955	5375
647.014	9784
647.072	20514
647.131	61652
647.189	28184
647.248	2570
647.306	2061
647.365	1815
647.423	345
647.481	2571
647.540	-502
647.598	763
647.657	880
647.715	1319
647.773	119
647.832	1347
647.890	56
647.948	639
648.007	1875
648.065	-634
648.123	-250
648.181	1953
648.240	805
648.298	-1043
648.356	563
648.414	745
648.472	591
648.531	1052
648.589	704
648.647	191
648.705	844
648.763	608
648.821	1372
648.879	1210
648.937	1874
648.995	2665
649.053	3791
649.111	7345
649.169	14898
649.227	28198
649.285	61681
649.343	190190
649.401	90666
649.459	14004
649.516	7964
649.574	1967
649.632	5505
649.690	5540
649.748	4641
649.806	5355
649.863	14066
649.921	41728
649.979	27275
650.037	2422
650.094	200
650.152	1142
650.210	-85
650.268	1097
650.325	640
650.383	289
650.440	-644
650.498	249
650.556	603
650.613	-236
650.671	563
650.728	-107
650.786	321
650.843	805
650.901	-1024
650.958	518
651.016	263
651.073	718
651.131	187
651.188	-679
651.246	-329
651.303	-910
651.360	1173
651.418	197
651.475	332
651.532	-1303
651.590	753
651.647	-340
651.704	-136
651.762	-437
651.819	411
651.876	-614
651.933	-39
651.990	850
652.048	-1136
652.105	-834
652.162	300
652.219	-1391
652.276	205
652.333	302
652.390	-462
652.448	-364
652.505	-194
652.562	-689
652.619	-783
652.676	38
652.733	1181
652.790	-370
652.847	-1587
652.904	368
652.961	-578
653.017	-938
653.074	746
653.131	-602
653.188	-763
653.245	-747
653.302	-923
653.359	-829
653.415	-549
653.472	19
653.529	-40
653.586	-1698
653.642	20
653.699	229
653.756	-1107
653.813	-635
653.869	222
653.926	-846
653.983	-33
654.039	583
654.096	-864
654.152	427
654.209	-1801
654.266	353
654.322	-815
654.379	-140
654.435	-172
654.492	-733
654.548	68
654.605	1100
654.661	681
654.717	-338
654.774	488
654.830	87
654.887	-314
654.943	-375
655.000	-322
655.056	-699
655.112	0
655.168	-749
655.225	119
655.281	361
655.337	-521
655.394	-590
655.450	35
655.506	-313
655.562	-223
655.618	823
655.675	-1114
655.731	246
655.787	-163
655.843	118
655.899	-1023
655.955	926
656.011	875
656.067	182
656.123	1403
656.179	783
656.235	2070
656.291	-397
656.347	1626
656.403	241
656.459	35
656.515	-911
656.571	-119
656.627	157
656.683	219
656.739	524
656.795	-544
656.850	-306
656.906	116
656.962	1107
657.018	-497
657.074	-592
657.129	-268
657.185	1055
657.241	2680
657.297	1107
657.352	350
657.408	-1460
657.464	417
657.519	-892
657.575	-1552
657.630	-343
657.686	-429
657.742	-991
657.797	-737
657.853	-574
657.908	131
657.964	-1059
658.019	-950
658.075	433
658.130	-127
658.186	-1143
658.241	292
658.297	-1330
658.352	-1146
658.407	-624
658.463	-1497
658.518	-977
658.573	-522
658.629	-1560
658.684	-915
658.739	578
658.795	-1181
658.850	-432
658.905	-1390
658.960	-295
659.016	-927
659.071	-1053
659.126	-325
659.181	-344
659.236	1209
659.291	1368
659.346	-393
659.401	-461
659.457	-428
659.512	-779
659.567	136
659.622	-50
659.677	-208
659.732	-1271
659.787	-1577
659.842	-1193
659.897	-441
659.952	-108
660.007	44
660.061	-393
660.116	-1817
660.171	-1404
660.226	226
660.281	405
660.336	-2093
660.391	-61
660.445	-1567
660.500	-453
660.555	-698
660.610	-1432
660.664	-445
660.719	-846
660.774	286
660.828	-712
660.883	-292
660.938	-529
660.992	-1096
661.047	-491
661.101	-951
661.156	-1249
661.211	-1600
661.265	-712
661.320	-1482
661.374	-1062
661.429	-864
661.483	-800
661.538	-1430
661.592	-1127
661.647	-847
661.701	-64
661.755	-422
661.810	-561
661.864	-973
661.919	-860
661.973	77
662.027	-697
662.081	-1057
662.136	-1255
662.190	-907
662.244	-299
662.299	-579
662.353	-499
662.407	-678
662.461	-979
662.515	-662
662.569	-1752
662.624	-249
662.678	-1480
662.732	-897
662.786	-2093
662.840	-540
662.894	-524
662.948	-1024
663.002	-1144
663.056	-984
663.110	-838
663.164	-1131
663.218	-1002
663.272	-436
663.326	46
663.380	-1273
663.434	-196
663.488	-629
663.542	-414
663.595	-1120
663.649	-1366
663.703	-380
663.757	-838
663.811	-1627
663.864	-1122
663.918	364
663.972	-1248
664.026	-801
664.079	-589
664.133	-616
664.187	-884
664.240	-591
664.294	-738
664.348	-374
664.401	-1132
664.455	-681
664.508	-741
664.562	-378
664.615	-196
664.669	-1558
664.722	-1337
664.776	-955
664.829	-545
664.883	-851
664.936	-998
664.990	-916
665.043	-1086
665.097	-1601
665.150	-3
665.203	-1018
665.257	-869
665.310	-131
665.363	-693
665.417	-799
665.470	-580
665.523	-1253
665.576	-755
665.630	-864
665.683	-1263
665.736	-1299
665.789	-1015
665.842	-576
665.895	-827
665.949	-662
666.002	-1169
666.055	-1273
666.108	-593
666.161	-426
666.214	-1127
666.267	-634
666.320	473
666.373	159
666.426	-1426
666.479	-865
666.532	-865
666.585	-745
666.638	-171
666.691	-925
666.744	-524
666.796	-1163
666.849	-608
666.902	-323
666.955	-1111
667.008	-1016
667.060	-1066
667.113	-1684
667.166	-731
667.219	-681
667.271	319
667.324	-842
667.377	-660
667.430	-716
667.482	-711
667.535	-565
667.587	-52
667.640	-621
667.693	-850
667.745	710
667.798	896
667.850	-1551
667.903	-307
667.955	-355
668.008	-1213
668.060	-782
668.113	-1396
668.165	-179
668.218	-1133
668.270	-448
668.322	-1255
668.375	-1306
668.427	-973
668.479	-1384
668.532	-695
668.584	-210
668.636	-971
668.689	-432
668.741	-966
668.793	-341
668.845	-569
668.898	-287
668.950	-775
669.002	-784
669.054	-1361
669.106	-1176
669.158	-392
669.211	-780
669.263	-201
669.315	-1007
669.367	-747
669.419	-1047
669.471	-122
669.523	-18
669.575	1389
669.627	-94
669.679	5
669.731	206
669.783	-77
669.835	464
669.886	-896
669.938	253
669.990	-905
670.042	-1346
670.094	-794
670.146	-1460
670.197	-568
670.249	-360
670.301	-736
670.353	-502
670.404	-127
670.456	276
670.508	777
670.560	2253
670.611	3719
670.663	7224
670.715	22744
670.766	40251
670.818	11979
670.869	610
670.921	635
670.972	-564
671.024	-298
671.075	-15
671.127	-873
671.178	-227
671.230	-251
671.281	-48
671.333	-98
671.384	-511
671.436	660
671.487	519
671.538	1321
671.590	3161
671.641	5681
671.692	13255
671.744	29509
671.795	16708
671.846	2661
671.897	515
671.949	-915
672.000	-781
672.051	-750
672.102	-582
672.153	-904
672.204	-795
672.256	-313
672.307	-544
672.358	-360
672.409	-806
672.460	-797
672.511	-803
672.562	-806
672.613	-1526
672.664	-1066
672.715	-1066
672.766	-226
672.817	-1061
672.868	-1212
672.919	-446
672.970	-660
673.021	-783
673.071	-1443
673.122	-927
673.173	-885
673.224	-1136
673.275	-1211
673.326	-770
673.376	-677
673.427	-831
673.478	-299
673.528	78
673.579	-1271
673.630	-1586
673.680	-20
673.731	-1424
673.782	-893
673.832	-1027
673.883	-534
673.934	-1654
673.984	-1306
674.035	-1009
674.085	-1349
674.136	-472
674.186	-1761
674.237	-1248
674.287	-856
674.338	-786
674.388	-1322
674.438	-756
674.489	-589
674.539	-539
674.589	-213
674.640	-482
674.690	-724
674.740	-910
674.791	-616
674.841	-1060
674.891	-279
674.942	-822
674.992	-120
675.042	-736
675.092	-1087
675.142	-1336
675.193	-1819
675.243	-893
675.293	-966
675.343	-1056
675.393	-430
675.443	-928
675.493	-1106
675.543	-1719
675.593	-843
675.643	-1012
675.693	-2033
675.743	-1134
675.793	-1357
675.843	-1140
675.893	-960
675.943	-945
675.993	-545
676.043	-757
676.093	-134
676.142	-1266
676.192	-1277
676.242	-967
676.292	-663
676.341	-1145
676.391	-1722
676.441	-1018
676.491	-1697
676.540	-1415
676.590	-1320
676.640	-1616
676.689	-1133
676.739	-1443
676.789	-1244
676.838	-1272
676.888	-989
676.937	-1196
676.987	-1844
677.037	-1541
677.086	-1701
677.136	-1378
677.185	-1681
677.235	-1812
677.284	-1082
677.333	-1062
677.383	-1639
677.432	-1679
677.482	-875
677.531	-1512
677.580	-672
677.630	-1228
677.679	-990
677.728	-1088
677.778	-910
677.827	-1486
677.876	-1432
677.925	-1206
677.975	-680
678.024	-843
678.073	-1274
678.122	-1595
678.171	-1437
678.220	-1637
678.269	-766
678.319	-1214
678.368	-220
678.417	-1226
678.466	-961
678.515	-826
678.564	-1335
678.613	-1974
678.662	-1675
678.711	-1156
678.760	-1630
678.809	-995
678.857	-1318
678.906	-967
678.955	-1170
679.004	-889
679.053	-1402
679.102	-1086
679.151	-1282
679.199	-1508
679.248	-1368
679.297	-1880
679.346	-2019
679.394	-2192
679.443	-993
679.492	-1759
679.540	-749
679.589	-1177
679.638	-1583
679.686	-2192
679.735	-1213
679.784	-2418
679.832	-828
679.881	-1887
679.929	-1830
679.978	-1898
680.026	-1621
680.075	-1014
680.123	-1523
680.172	-1339
680.220	-989
680.268	-1297
680.317	-1672
680.365	-1035
680.414	-1863
680.462	-1135
680.510	-217
680.559	-1151
680.607	-1763
680.655	-1525
680.703	-980
680.752	-1652
680.800	-1558
680.848	-2918
680.896	-1466
680.945	-837
680.993	-988
681.041	-1625
681.089	-1048
681.137	-1109
681.185	-1765
681.233	-1675
681.258	-1854
681.281	-2032
681.329	-1020
681.377	-1888
681.380	-1833
681.425	-943
681.473	-866
681.502	-1401
681.521	-1786
681.569	-685
681.617	-1049
681.624	-1021
681.665	-875
681.713	-1216
681.745	-948
681.761	-831
681.809	-1355
681.857	-1469
681.867	-1261
681.904	-558
681.952	-802
681.989	-1109
682.000	-1212
682.048	-1867
682.096	-1394
682.111	-1294
682.143	-1104
682.191	-686
682.233	-113
682.239	-31
682.286	-1082
682.334	-849
682.354	-904
682.382	-1006
682.430	-284
682.476	-1856
682.477	-1895
682.525	-1180
682.572	-2064
682.598	-1783
682.620	-1533
682.667	-709
682.715	-719
682.720	-687
682.763	-509
682.810	-542
682.841	-1171
682.857	-1503
682.905	-1747
682.952	-586
682.963	-686
683.000	-1066
683.047	-1579
683.085	-107
683.095	281
683.142	-799
683.190	-800
683.206	-696
683.237	-507
683.284	-1204
683.328	-1144
683.332	-1141
683.379	-723
683.426	-366
683.449	-651
683.473	-974
683.521	-1033
683.568	-817
683.571	-809
683.615	-780
683.662	-662
683.693	-623
683.709	-571
683.757	-1074
683.804	-612
683.814	-684
683.851	-971
683.898	-500
683.936	-570
683.945	-605
683.992	-1022
684.039	-512
684.057	-480
684.086	-384
684.133	-619
684.179	-674
684.180	-684
684.227	-345
684.274	-40
684.300	-235
684.321	-412
684.368	-686
684.415	-995
684.422	-975
684.462	-804
684.509	-1075
684.543	-626
684.556	-491
684.603	-631
684.649	-793
684.665	-692
684.696	-441
684.743	-1059
684.786	-774
684.790	-753
684.837	-860
684.883	-482
684.908	-480
684.930	-495
684.977	-68
685.023	-481
685.029	-487
685.070	-562
685.117	-83
685.150	-199
685.164	-225
685.210	-52
685.257	613
685.272	342
685.303	-313
685.350	-163
685.393	-489
685.396	-506
685.443	-330
685.490	599
685.514	267
685.536	-161
685.583	199
685.629	-346
685.636	-277
685.675	272
685.722	-335
685.757	-366
685.768	-398
685.815	-405
685.861	59
685.878	-97
685.908	-323
685.954	28
686.000	254
686.000	256
686.047	156
686.093	269
686.121	61
686.139	-96
686.185	79
686.232	726
686.242	730
686.278	709
686.324	-205
686.363	-151
686.370	-140
686.416	-202
686.463	110
686.484	4
686.509	-84
686.555	19
686.601	48
686.606	120
686.647	773
686.693	289
686.727	-87
686.739	-284
686.785	-88
686.831	126
686.848	-89
686.877	-296
686.923	116
686.969	-194
686.969	-197
687.015	-123
687.061	334
687.090	377
687.107	351
687.153	876
687.199	-191
687.211	-148
687.245	203
687.291	11
687.332	485
687.336	513
687.382	312
687.428	541
687.453	359
687.474	147
687.520	848
687.565	92
687.574	54
687.611	94
687.657	-24
687.695	221
687.702	274
687.748	891
687.794	571
687.816	632
687.839	516
687.885	872
687.931	-67
687.937	-91
687.976	-19
688.022	319
688.058	225
688.067	197
688.113	171
688.158	183
688.179	225
688.204	329
688.249	342
688.295	883
688.300	878
688.340	746
688.386	506
688.421	367
688.431	345
688.477	339
688.522	753
688.542	575
688.567	385
688.613	562
688.658	754
688.663	788
688.703	914
688.749	475
688.784	240
688.794	194
688.839	658
688.884	-167
688.905	54
688.930	348
688.975	613
689.020	677
689.026	699
689.065	865
689.110	252
689.146	819
689.155	967
689.201	665
689.246	1048
689.267	1076
689.291	1097
689.336	956
689.381	841
689.388	863
689.426	914
689.471	860
689.509	988
689.516	1020
689.561	1007
689.606	673
689.630	676
689.651	752
689.696	630
689.741	967
689.750	959
689.785	837
689.830	786
689.871	571
689.875	544
689.920	981
689.965	450
689.992	335
690.010	392
690.054	554
690.099	1041
690.112	1012
690.144	838
690.189	596
690.233	913
690.233	918
690.278	812
690.323	935
690.354	1280
690.367	1390
690.412	1026
690.457	835
690.474	718
690.501	651
690.546	1217
690.590	1150
690.595	1101
690.635	581
690.680	664
690.716	447
690.724	445
690.769	887
690.813	864
690.836	889
690.857	927
690.902	1384
690.946	1282
690.957	1300
690.991	1348
691.035	1627
691.077	1683
691.080	1675
691.124	1564
691.168	1239
691.198	1189
691.213	1293
691.257	1270
691.301	1487
691.318	1480
691.346	1311
691.390	1128
691.434	1139
691.439	1108
691.478	1078
691.522	1068
691.559	1370
691.567	1462
691.611	1439
691.655	1899
691.680	2145
691.699	2149
691.743	1424
691.787	1412
691.800	1207
691.831	939
691.875	1409
691.919	1252
691.921	1250
691.964	1251
692.008	1134
692.041	1233
692.052	1373
692.096	1394
692.139	2031
692.162	2095
692.183	1841
692.227	1640
692.271	1221
692.282	1110
692.315	1150
692.359	1031
692.402	1489
692.403	1498
692.447	1200
692.490	1485
692.523	1260
692.534	1275
692.578	1828
692.622	2125
692.643	2169
692.666	1991
692.709	1901
692.753	1430
692.763	1390
692.797	1402
692.840	1374
692.884	1305
692.884	1312
692.928	1481
692.971	1555
693.004	1658
693.015	1683
693.059	1583
693.102	1667
693.124	1603
693.146	1501
693.189	1391
693.233	1226
693.245	1237
693.276	1330
693.320	1497
693.363	1003
693.365	1006
693.407	1442
693.450	1250
693.485	1508
693.493	1587
693.537	1824
693.580	1750
693.605	1897
693.624	1945
693.667	2060
693.710	1671
693.725	1701
693.753	1951
693.797	2144
693.840	2153
693.845	2223
693.883	2377
693.926	1903
693.966	1720
693.970	1745
694.013	1822
694.056	2067
694.086	2041
694.099	1975
694.142	1999
694.185	1916
694.206	1879
694.229	1935
694.272	1857
694.315	2026
694.326	2034
694.358	2216
694.401	2424
694.444	2678
694.446	2680
694.487	2820
694.530	2987
694.566	2951
694.573	2908
694.616	2659
694.659	2504
694.686	2344
694.702	2270
694.745	2152
694.787	2000
694.806	1931
694.830	1978
694.873	1850
694.916	1873
694.926	1904
694.959	2230
695.002	2457
695.044	2781
695.046	2779
695.087	2623
695.130	2458
695.166	2338
695.172	2360
695.215	2507
695.258	2505
695.286	2534
695.301	2430
695.343	2121
695.386	1832
695.406	1697
695.428	1760
695.471	1861
695.514	1777
695.526	1831
695.556	2133
695.599	2446
695.641	2531
695.646	2559
695.684	2689
695.726	2624
695.766	2586
695.769	2577
695.811	2429
695.854	2102
695.886	1996
695.896	2068
695.938	2074
695.981	2329
696.005	2385
696.023	2472
696.065	2659
696.108	2855
696.125	2945
696.150	2900
696.192	2781
696.235	2468
696.245	2454
696.277	2694
696.319	2862
696.361	3073
696.365	3075
696.404	3002
696.446	2900
696.485	2819
696.488	2839
696.530	2978
696.572	2996
696.604	3095
696.614	3125
696.656	3062
696.698	2992
696.724	3104
696.740	3113
696.783	2926
696.825	2652
696.844	2605
696.867	2791
696.909	2940
696.951	3082
696.964	3125
696.992	2901
697.034	2600
697.076	2351
697.083	2271
697.118	2555
697.160	3045
697.202	3472
697.203	3471
697.244	3110
697.286	2690
697.323	2262
697.327	2296
697.369	2612
697.411	2877
697.442	3043
697.453	3045
697.494	2965
697.536	3055
697.562	2986
697.578	3041
697.620	3272
697.661	3412
697.682	3498
697.703	3564
697.744	3613
697.786	3764
697.801	3784
697.828	3939
697.869	4112
697.911	4319
697.921	4348
697.952	4208
697.994	4070
698.035	3890
698.040	3851
698.077	3580
698.118	3294
698.160	3015
698.160	3001
698.201	3384
698.243	3758
698.279	4096
698.284	4108
698.325	4067
698.367	4028
698.399	3990
698.408	3946
698.449	3645
698.491	3404
698.518	3186
698.532	3243
698.573	3447
698.614	3619
698.638	3686
698.656	3657
698.697	3589
698.738	3514
698.757	3475
698.779	3547
698.820	3636
698.862	3738
698.877	3765
698.903	4047
698.944	4469
698.985	4893
698.996	4996
699.026	4555
699.067	3920
699.116	3153
699.235	3107
699.354	4371
699.474	3675
699.593	3375
699.713	3885
699.832	4468
699.951	4969
700.070	5387
700.190	3364
700.309	4322
700.428	3439
700.547	4504
700.667	4121
700.786	3376
700.905	3532
701.024	3721
701.143	3456
701.262	3374
701.381	3479
701.500	4202
701.619	5069
701.738	3970
701.857	3641
701.976	3702
702.095	4149
702.214	4052
702.333	4649
702.452	3573
702.571	4001
702.690	3682
702.809	2591
702.928	3523
703.047	4251
703.165	3472
703.284	2838
703.403	3531
703.522	4053
703.640	3622
703.759	4283
703.878	3998
703.997	3819
704.115	3290
704.234	3572
704.353	3257
704.471	2844
704.590	2771
704.708	2960
704.827	3057
704.946	3136
705.064	2914
705.183	3598
705.301	2603
705.420	3411
705.538	3256
705.656	2884
705.775	3119
705.893	3392
706.012	3930
706.130	2742
706.249	3324
706.367	2601
706.485	3911
706.604	1480
706.722	3177
706.840	3985
706.958	4828
707.077	3219
707.195	3147
707.313	3030
707.431	2961
707.549	2898
707.668	2672
707.786	3194
707.904	2601
708.022	3024
708.140	3440
708.258	3698
708.376	3000
708.494	2733
708.612	2858
708.730	3938
708.848	3014
708.966	3636
709.084	3585
709.202	3273
709.320	2386
709.438	2179
709.556	3120
709.674	2923
709.791	3404
709.909	2207
710.027	3342
710.145	2358
710.263	2926
710.380	2670
710.498	2297
710.616	2487
710.733	2704
710.851	2220
710.969	2954
711.086	2488
711.204	2814
711.322	2939
711.439	2047
711.557	2493
711.674	2971
711.792	2042
711.909	1878
712.027	2417
712.144	1329
712.262	2688
712.379	2461
712.497	2158
712.614	2111
712.732	2331
712.849	2881
712.966	3387
713.084	5057
713.201	2594
713.318	3268
713.436	2706
713.553	2771
713.670	2769
713.787	3252
713.905	2526
714.022	2315
714.139	3122
714.256	4594
714.373	7770
714.490	17575
714.608	53387
714.725	251871
714.842	251659
714.959	13926
715.076	5824
715.193	4077
715.310	4009
715.427	3535
715.544	2805
715.661	3302
715.778	2498
715.895	2563
716.011	2510
716.128	2527
716.245	2990
716.362	5196
716.479	3766
716.596	3278
716.713	2871
716.829	2124
716.946	2200
717.063	2387
717.180	1722
717.296	2461
717.413	1435
717.530	2737
717.646	2330
717.763	2334
717.880	1878
717.996	2581
718.113	1747
718.229	2411
718.346	2218
718.462	2974
718.579	3547
718.695	9451
718.812	3978
718.928	2332
719.045	2276
719.161	2018
719.277	2052
719.394	2948
719.510	2305
719.626	2296
719.743	3641
719.859	6817
719.975	14485
720.092	64145
720.208	150846
720.324	15151
720.440	3646
720.557	3517
720.673	6854
720.789	4793
720.905	4580
721.021	2611
721.137	2037
721.253	2623
721.369	1733
721.486	1047
721.602	2194
721.718	1416
721.834	1743
721.950	2180
722.066	1540
722.181	1620
722.297	2572
722.413	2362
722.529	1890
722.645	2470
722.761	2150
722.877	1548
722.993	2630
723.108	2657
723.224	2416
723.340	1847
723.456	1868
723.571	1371
723.687	1571
723.803	1193
723.918	2215
724.034	1676
724.150	978
724.265	2135
724.381	1789
724.497	2280
724.612	459
724.728	927
724.843	1413
724.959	1750
725.074	2419
725.190	2308
725.305	2291
725.421	1584
725.536	1807
725.651	1851
725.767	1339
725.882	1863
725.997	1070
726.113	1861
726.228	1239
726.343	1791
726.459	935
726.574	1287
726.689	1420
726.804	1338
726.920	728
727.035	1396
727.150	1715
727.265	1408
727.380	1912
727.495	1777
727.610	1243
727.725	1393
727.841	1844
727.956	2157
728.071	1394
728.186	644
728.301	2090
728.416	2484
728.531	1482
728.645	1948
728.760	1571
728.875	3041
728.990	1799
729.105	1666
729.220	1710
729.335	1693
729.449	1636
729.564	1360
729.679	710
729.794	1480
729.908	1829
730.023	1802
730.138	1396
730.253	1371
730.367	1294
730.482	1846
730.596	980
730.711	1530
730.826	2560
730.940	1498
731.055	1955
731.169	1816
731.284	1718
731.398	1733
731.513	1452
731.627	1379
731.742	2212
731.856	1590
731.970	2569
732.085	2784
732.199	4604
732.313	8480
732.428	22890
732.542	79094
732.656	44949
732.771	5592
732.885	2949
732.999	2668
733.113	2398
733.227	3230
733.342	1807
733.456	2512
733.570	1902
733.684	1606
733.798	1079
733.912	1546
734.026	1825
734.140	2019
734.254	1582
734.368	2966
734.482	2137
734.596	1410
734.710	1933
734.824	2159
734.938	2245
735.052	1438
735.166	2638
735.280	1484
735.393	812
735.507	2033
735.621	2133
735.735	1723
735.849	1468
735.962	2238
736.076	2293
736.190	1695
736.303	1784
736.417	2886
736.531	1850
736.644	2200
736.758	1639
736.872	1753
736.985	2229
737.099	1914
737.212	1978
737.326	1698
737.439	1942
737.553	1873
737.666	2354
737.780	1697
737.893	2173
738.007	1541
738.120	1288
738.233	1875
738.347	938
738.460	1781
738.573	1375
738.687	2097
738.800	1689
738.913	3203
739.026	2434
739.140	1644
739.253	1064
739.366	1143
739.479	624
739.592	1567
739.705	1020
739.818	2215
739.932	1231
740.045	1813
740.158	1725
740.271	977
740.384	1295
740.497	2073
740.610	2062
740.723	934
740.836	2770
740.949	2409
741.062	3495
741.174	1995
741.287	1937
741.400	2246
741.513	1976
741.626	2193
741.739	1176
741.851	1537
741.964	777
742.077	1185
742.189	1424
742.302	2967
742.415	2869
742.527	1221
742.640	1519
742.753	1518
742.865	1667
742.978	1348
743.090	1626
743.203	1421
743.316	748
743.428	943
743.541	1272
743.653	511
743.766	849
743.878	1025
743.990	1874
744.103	2624
744.215	2079
744.327	1173
744.440	1875
744.552	4169
744.664	1280
744.777	1136
744.889	999
745.001	1013
745.113	831
745.226	1299
745.338	1347
745.450	511
745.562	609
745.674	820
745.786	435
745.898	557
746.010	1972
746.122	1055
746.234	995
746.347	1051
746.459	942
746.570	359
746.682	1623
746.794	2705
746.906	1644
747.018	1150
747.130	728
747.242	689
747.354	869
747.466	963
747.577	780
747.689	620
747.801	2009
747.913	784
748.024	681
748.136	461
748.248	855
748.359	-80
748.471	1127
748.583	354
748.694	239
748.806	317
748.918	542
749.029	988
749.141	2069
749.252	875
749.364	1402
749.475	4311
749.587	1072
749.698	1259
749.809	892
749.921	339
750.032	942
750.144	93
750.255	1325
750.366	664
750.478	1148
750.589	244
750.700	802
750.811	2111
750.923	2605
751.034	4791
751.145	5178
751.256	1396
751.367	731
751.479	1027
751.590	17
751.701	585
751.812	909
751.923	1128
752.034	772
752.145	675
752.256	626
752.367	299
752.478	326
752.589	941
752.700	859
752.811	1066
752.922	704
753.032	1153
753.143	709
753.254	237
753.365	392
753.476	791
753.586	404
753.697	563
753.808	983
753.919	303
754.029	184
754.140	738
754.251	1319
754.361	521
754.472	596
754.582	182
754.693	-429
754.804	717
754.914	148
755.025	443
755.135	663
755.246	528
755.356	10
755.466	1012
755.577	658
755.687	245
755.798	414
755.908	1456
756.018	854
756.129	283
756.239	751
756.349	1061
756.460	378
756.570	1671
756.680	-147
756.790	-79
756.900	1247
757.011	407
757.121	527
757.231	331
757.341	631
757.451	514
757.561	-51
757.671	150
757.781	400
757.891	935
758.001	631
758.111	671
758.221	1013
758.331	782
758.441	1004
758.551	1815
758.661	1326
758.771	1051
758.880	318
758.990	558
759.100	733
759.210	1139
759.320	663
759.429	798
759.539	1295
759.649	814
759.758	1297
759.868	1463
759.978	463
760.087	1953
760.197	491
760.307	920
760.416	956
760.526	1259
760.635	1041
760.745	1055
760.854	674
760.964	2246
761.073	1521
761.182	1471
761.292	1682
761.401	1218
761.511	1037
761.620	537
761.729	1456
761.839	239
761.948	1199
762.057	187
762.166	1090
762.276	2
762.385	1216
762.494	808
762.603	583
762.712	741
762.822	314
762.931	192
763.040	-580
763.149	653
763.258	230
763.367	339
763.476	473
763.585	101
763.694	-311
763.803	307
763.912	459
764.021	595
764.130	-139
764.238	216
764.347	-249
764.456	555
764.565	90
764.674	563
764.783	368
764.891	182
765.000	808
765.109	529
765.217	55
765.326	1403
765.435	564
765.543	647
765.652	235
765.761	397
765.869	1355
765.978	2609
766.086	4455
766.195	9024
766.303	29253
766.412	129784
766.520	108597
766.629	8783
766.737	3121
766.846	1540
766.954	1137
767.062	1990
767.171	1320
767.279	1072
767.387	-442
767.496	181
767.604	158
767.712	537
767.820	470
767.928	476
768.037	71
768.145	309
768.253	1001
768.361	-1042
768.469	837
768.577	615
768.685	883
768.793	441
768.901	176
769.009	394
769.117	750
769.225	-227
769.333	1269
769.441	1597
769.549	4295
769.657	9221
769.765	39153
769.873	110405
769.981	22005
770.088	1691
770.196	1140
770.304	1266
770.412	849
770.519	741
770.627	610
770.735	561
770.842	413
770.950	538
771.058	160
771.165	1088
771.273	354
771.380	1179
771.488	1622
771.595	-301
771.703	284
771.810	1355
771.918	1235
772.025	750
772.133	715
772.240	296
772.348	1587
772.455	1078
772.562	852
772.670	563
772.777	1407
772.884	975
772.991	1271
773.099	1332
773.206	-7
773.313	722
773.420	1378
773.528	323
773.635	351
773.742	1675
773.849	627
773.956	781
774.063	1316
774.170	769
774.277	915
774.384	1142
774.491	549
774.598	1461
774.705	1432
774.812	849
774.919	1091
775.026	1574
775.133	618
775.239	1153
775.346	641
775.453	329
775.560	173
775.667	743
775.773	647
775.880	1448
775.987	1116
776.093	587
776.200	-171
776.307	178
776.413	800
776.520	830
776.627	1153
776.733	1130
776.840	-271
776.946	1598
777.053	1753
777.159	4876
777.266	2157
777.372	4328
777.478	3148
777.585	1824
777.691	838
777.798	705
777.904	769
778.010	1698
778.117	1719
778.223	901
778.329	-112
778.435	422
778.542	1050
778.648	1152
778.754	142
778.860	949
778.966	440
779.072	-248
779.178	220
779.284	-79
779.391	-12
779.497	-1039
779.603	1864
779.708	221
779.815	1013
779.920	501
780.026	325
780.132	527
780.238	188
780.344	98
780.450	1343
780.556	748
780.661	335
780.767	1141
780.873	336
780.979	376
781.085	351
781.190	307
781.296	533
781.402	-34
781.507	300
781.613	745
781.719	-143
781.824	275
781.930	1034
782.035	635
782.141	7
782.246	709
782.352	-421
782.457	10
782.563	-24
782.668	125
782.773	51
782.879	-144
782.984	1074
783.090	1554
783.195	2633
783.300	497
783.405	587
783.511	127
783.616	778
783.721	579
783.826	118
783.932	1068
784.037	-186
784.142	1037
784.247	438
784.352	662
784.457	193
784.562	443
784.667	563
784.772	199
784.877	-420
784.982	372
785.087	80
785.192	308
785.297	142
785.402	19
785.507	268
785.611	191
785.716	-148
785.821	-402
785.926	64
786.031	-428
786.135	246
786.240	590
786.345	-1584
786.450	425
786.554	121
786.659	340
786.763	-1059
786.868	751
786.973	-196
787.077	-316
787.182	-318
787.286	229
787.391	-10
787.495	-768
787.600	-81
787.704	-423
787.809	397
787.913	91
788.017	-44
788.122	640
788.226	348
788.330	-438
788.435	-789
788.539	-14
788.643	-599
788.747	-269
788.852	-8
788.956	150
789.060	-31
789.164	214
789.268	-369
789.372	507
789.476	-144
789.580	-483
789.684	-461
789.788	108
789.892	-769
789.996	543
790.100	322
790.204	52
790.308	456
790.412	661
790.516	-118
790.620	444
790.724	68
790.828	-324
790.931	-688
791.035	148
791.139	-175
791.242	-485
791.346	839
791.450	-186
791.554	-800
791.657	-452
791.761	-497
791.864	614
791.968	-451
792.072	200
792.175	583
792.279	-684
792.382	-505
792.486	495
792.589	-406
792.693	301
792.796	-779
792.899	908
793.003	804
793.106	-814
793.209	-777
793.313	968
793.416	-1198
793.519	1135
793.623	1248
793.726	1723
793.829	288
793.932	-77
794.035	-786
794.138	1612
794.242	858
794.345	-319
794.448	808
794.551	701
794.654	2138
794.757	1230
794.860	-473
794.963	236
795.066	-759
795.169	510
795.272	-778
795.375	163
795.477	-408
795.580	-530
795.683	-641
795.786	242
795.889	-1815
795.991	1013
796.094	484
796.197	-1335
796.300	-28
796.402	-132
796.505	-976
796.608	-41
796.710	293
796.813	697
796.915	-78
797.018	-2
797.120	-519
797.223	-1388
797.326	692
797.428	-5
797.530	-51
797.633	-666
797.735	1051
797.838	-1282
797.940	437
798.042	-844
798.145	-1474
798.247	544
798.349	-1291
798.452	794
798.554	-42
798.656	-448
798.758	304
798.860	-795
798.962	-92
799.065	-181
799.167	-960
799.269	1129
799.371	899
799.473	744
799.575	-817
799.677	-688
799.779	490
799.881	456
799.983	915
800.085	-257
800.187	-256
800.289	215
800.390	-383
800.492	-699
800.594	-52
800.696	-832
800.798	-705
800.899	-885
801.001	-993
801.103	-851
801.205	-1165
801.306	93
801.408	-814
801.509	-689
801.611	-621
801.713	-206
801.814	-1351
801.916	-181
802.017	-377
802.119	-1347
802.220	-996
802.322	-2725
802.423	229
802.525	-1510
802.626	-291
802.727	-43
802.829	186
802.930	-1961
803.031	729
803.133	-529
803.234	-820
803.335	-516
803.436	-1237
803.538	176
803.639	-518
803.740	430
803.841	-521
803.942	-870
804.043	37
804.144	-1374
804.245	-376
804.346	-236
804.447	-336
804.548	708
804.649	1231
804.750	-874
804.851	-1177
804.952	-464
805.053	-689
805.154	-1444
805.255	127
805.355	241
805.456	-406
805.557	-601
805.658	-1233
805.758	378
805.859	-523
805.960	199
806.061	-758
806.161	-728
806.262	306
806.362	-963
806.463	-949
806.564	-349
806.664	-363
806.765	-1214
806.865	-20
806.966	-418
807.066	-1482
807.166	499
807.267	212
807.367	-145
807.468	-298
807.568	-1742
807.668	-229
807.769	600
807.869	-493
807.969	-766
808.069	-431
808.170	-248
808.270	-287
808.370	-361
808.470	-182
808.570	-815
808.670	-380
808.770	-105
808.870	-433
808.970	-543
809.070	-760
809.170	-915
809.271	587
809.370	-741
809.470	245
809.570	-899
809.670	-896
809.770	-432
809.870	51
809.970	-324
810.070	-304
810.169	-347
810.269	-1778
810.369	-103
810.469	-778
810.568	-724
810.668	-435
810.768	-872
810.867	436
810.967	-1083
811.066	-627
811.166	-421
811.265	-206
811.365	-430
811.464	-1171
811.564	-225
811.663	553
811.763	-1734
811.862	-1072
811.962	-189
812.061	-1119
812.160	-1336
812.260	-599
812.359	-156
812.458	-513
812.557	-709
812.657	-778
812.756	-244
812.855	-463
812.954	-998
813.053	755
813.153	-708
813.252	-1354
813.351	161
813.450	-874
813.549	-663
813.648	33
813.747	-675
813.846	-436
813.945	-1047
814.044	-608
814.143	-320
814.242	-448
814.341	-1078
814.439	-115
814.538	-349
814.637	-1172
814.736	-1168
814.835	125
814.933	-1035
815.032	-157
815.131	-312
815.229	-528
815.328	183
815.427	581
815.525	-520
815.624	-225
815.722	-1027
815.821	597
815.919	-275
816.018	-880
816.116	248
816.215	-360
816.313	-716
816.412	428
816.510	294
816.609	1200
816.707	681
816.805	725
816.904	-85
817.002	1079
817.100	831
817.198	676
817.296	-287
817.395	252
817.493	534
817.591	170
817.689	1164
817.787	-165
817.885	1832
817.983	4192
818.081	10730
818.179	27816
818.277	78209
818.375	63316
818.473	12948
818.571	4569
818.669	2646
818.767	1927
818.865	2927
818.963	3494
819.061	4675
819.158	9265
819.256	23566
819.354	61726
819.452	151582
819.549	89690
819.647	17534
819.745	6156
819.842	3782
819.940	2224
820.038	1586
820.135	809
820.233	1711
820.330	197
820.428	93
820.525	915
820.623	368
820.720	-575
820.818	218
820.915	94
821.012	476
821.110	-597
821.207	648
821.304	365
821.402	44
821.499	912
821.596	595
821.693	1017
821.791	1692
821.888	201
821.985	1922
822.082	1577
822.179	1142
822.276	330
822.373	63
822.470	446
822.567	-426
822.664	-585
822.761	1395
822.858	-405
822.955	221
823.052	-287
823.149	-241
823.246	-536
823.343	-392
823.440	80
823.536	-831
823.633	-373
823.730	-250
823.827	-194
823.923	-140
824.020	147
824.117	-613
824.213	-198
824.310	271
824.407	-377
824.503	250
824.600	67
824.696	-280
824.793	199
824.889	-513
824.986	-694
825.082	-484
825.179	329
825.275	-176
825.371	-1064
825.468	-5
825.564	-1116
825.660	-149
825.757	-180
825.853	1086
825.949	-1444
826.045	-125
826.142	-530
826.238	-131
826.334	-415
826.430	-1192
826.526	-493
826.622	-354
826.718	91
826.814	-1269
826.910	268
827.006	-284
827.102	-981
827.198	365
827.294	-401
827.390	-1452
827.486	101
827.582	-1210
827.678	-915
827.774	135
827.869	-776
827.965	722
828.061	-1192
828.157	-93
828.252	-665
828.348	-911
828.444	-55
828.539	-1358
828.635	-1267
828.731	675
828.826	-1478
828.922	180
829.017	-249
829.113	-51
829.208	-579
829.304	-941
829.399	694
829.495	-1295
829.590	-141
829.685	-1441
829.781	-664
829.876	-1154
829.971	-487
830.066	-741
830.162	-476
830.257	-1059
830.352	-848
830.447	-45
830.543	-203
830.638	-1635
830.733	-1
830.828	-1186
830.923	-59
831.018	-573
831.113	-1387
831.208	-1107
831.303	-884
831.398	-258
831.493	-344
831.588	412
831.683	-1477
831.778	-925
831.873	86
831.967	-11
832.062	-713
832.157	-1431
832.252	151
832.346	-150
832.441	-118
832.536	193
832.631	1339
832.725	1303
832.820	-1131
832.914	-1565
833.009	-187
833.104	-202
833.198	-80
833.293	-1282
833.387	-354
833.482	121
833.576	-1842
833.670	-114
833.765	-88
833.859	-1127
833.954	-345
834.048	-4
834.142	-685
834.237	-915
834.331	-595
834.425	-321
834.519	-1554
834.613	602
834.708	-574
834.802	-479
834.896	-887
834.990	-1070
835.084	-47
835.178	-399
835.272	-796
835.366	-717
835.460	-809
835.554	-315
835.648	-983
835.742	-864
835.836	-814
835.930	-1763
836.024	314
836.117	-44
836.211	-725
836.305	-112
836.399	124
836.493	-1988
836.586	-66
836.680	-995
836.774	-936
836.867	153
836.961	-1676
837.055	-1018
837.148	-965
837.242	-426
837.335	-1237
837.429	-140
837.522	-1193
837.616	-943
837.709	323
837.803	-495
837.896	226
837.989	-988
838.083	-863
838.176	-1038
838.269	-1633
838.363	-362
838.456	-1273
838.549	-129
838.642	-523
838.735	1247
838.829	293
838.922	-861
839.015	-1252
839.108	-1304
839.201	-681
839.294	-912
839.387	-142
839.480	-791
839.573	-726
839.666	-1454
839.759	-1164
839.852	-1564
839.945	-1018
840.038	-1247
840.131	-613
840.223	-1214
840.316	-4
840.409	-1665
840.502	-948
840.594	814
840.687	-1926
840.780	-432
840.873	-1563
840.965	-1054
841.058	-1166
841.150	-477
841.243	-1685
841.336	190
841.428	-529
841.521	-1692
841.613	-411
841.706	-1370
841.798	-990
841.890	-1242
841.983	-1747
842.075	-277
842.167	-1662
842.260	-284
842.352	-442
842.444	-1076
842.537	-945
842.629	422
842.721	-1654
842.813	-964
842.905	-862
842.997	-382
843.090	-779
843.182	-804
843.274	-1604
843.366	-60
843.458	-911
843.550	465
843.642	-1388
843.734	-959
843.826	-1475
843.918	-589
844.009	-190
844.101	-1193
844.193	-863
844.285	-743
844.377	-338
844.469	138
844.560	-250
844.652	82
844.744	-729
844.835	-817
844.927	-631
845.019	-564
845.110	-830
845.202	-418
845.293	-1321
845.385	-943
845.476	-826
845.568	-455
845.659	-1003
845.751	-612
845.842	-1495
845.934	-1533
846.025	-1278
846.116	-144
846.208	-1039
846.299	-1177
846.390	-380
846.482	-723
846.573	-896
846.664	-354
846.755	-976
846.846	73
846.937	-2042
847.029	-2013
847.120	-1232
847.211	-545
847.302	-556
847.393	-1585
847.484	-57
847.575	-1070
847.666	-1149
847.757	-1308
847.847	-677
847.938	-936
848.029	-1497
848.120	-1229
848.211	-241
848.302	-727
848.392	-975
848.483	-158
848.574	-1570
848.664	-1148
848.755	-566
848.846	-943
848.936	-879
849.027	-609
849.118	-1090
849.208	-151
849.299	440
849.389	2227
849.480	5675
849.570	13788
849.661	27621
849.751	49367
849.841	16992
849.932	891
850.022	-272
850.112	66
850.203	-484
850.293	-952
850.383	-549
850.474	-833
850.564	-518
850.654	-899
850.744	-1165
850.834	-1219
850.924	-362
851.014	-921
851.104	-920
851.194	-660
851.284	-550
851.374	-647
851.464	-1437
851.554	70
851.644	-1281
851.734	-114
851.824	-1311
851.914	-926
852.004	-194
852.094	-770
852.183	-446
852.273	-934
852.363	12
852.452	-57
852.542	-471
852.632	-1346
852.721	-959
852.811	-1075
852.901	-116
852.990	204
853.080	-558
853.169	116
853.259	-302
853.348	155
853.438	990
853.527	2660
853.617	3335
853.706	8291
853.795	16510
853.885	39893
853.974	80357
854.063	146279
854.152	234839
854.242	86768
854.331	12463
854.420	4761
854.509	2628
854.598	2220
854.687	1143
854.777	838
854.866	249
854.955	689
855.044	418
855.133	-84
855.222	-813
855.311	-407
855.400	-87
855.488	-646
855.577	-455
855.666	-897
855.755	-163
855.844	-264
855.933	-1547
856.021	-543
856.110	-841
856.199	-1091
856.288	-1245
856.376	24
856.465	-1871
856.554	-319
856.642	-645
856.731	-1028
856.819	-1196
856.908	-1508
856.996	-1099
857.085	-1051
857.173	-939
857.262	-1401
857.350	-608
857.438	-955
857.527	-533
857.615	-1118
857.703	-314
857.792	-1397
857.880	-915
857.968	-1652
858.056	-1142
858.145	-704
858.233	-895
858.321	-1107
858.409	-777
858.497	-724
858.585	-1556
858.673	-653
858.761	-1394
858.849	-1407
858.937	-1080
859.025	-1457
859.113	-726
859.201	-1616
859.289	-484
859.377	-810
859.465	-811
859.552	-486
859.640	-1990
859.728	-526
859.816	-944
859.903	-724
859.991	-1766
860.079	-1293
860.166	-1140
860.254	-957
860.342	-612
860.429	-1371
860.517	-1014
860.604	-950
860.692	-727
860.779	-1137
860.867	-1466
860.954	-377
861.042	-938
861.129	-308
861.216	-732
861.304	-1346
861.391	-610
861.478	-1402
861.565	-1271
861.653	-195
861.740	-807
861.827	-1012
861.914	-883
862.001	-1265
862.089	-687
862.176	-1081
862.263	-2084
862.350	-571
862.437	-1484
862.524	-1238
862.611	-521
862.698	-655
862.785	-571
862.871	-804
862.958	-904
863.045	-1748
863.132	-836
863.219	-1646
863.306	-1961
863.392	-588
863.479	-1722
863.566	-1449
863.652	-396
863.739	-861
863.826	-1211
863.912	-1104
863.999	-1576
864.086	-1516
864.172	-1434
864.259	-1672
864.345	-976
864.432	-880
864.518	-1165
864.604	-861
864.691	-848
864.777	-671
864.863	554
864.950	169
865.036	-113
865.122	-172
865.209	500
865.295	-448
865.381	-1
865.467	318
865.553	2483
865.639	4063
865.726	8259
865.812	18918
865.898	39320
865.984	59971
866.070	113917
866.156	128706
866.242	32003
866.328	4880
866.414	2624
866.499	1831
866.585	469
866.671	712
866.757	-404
866.843	75
866.928	-351
867.014	-214
867.100	192
867.186	83
867.271	-388
867.357	192
867.442	-594
867.528	-186
867.614	188
867.699	237
867.785	970
867.870	30
867.956	246
868.041	-118
868.127	-181
868.212	155
868.297	163
868.383	334
868.468	424
868.553	924
868.639	826
868.724	2238
868.809	1544
868.894	1206
868.979	-852
869.065	-166
869.150	-1987
869.235	-660
869.320	-1112
869.405	-1066
869.490	-1261
869.575	-765
869.660	-1697
869.745	-756
869.830	-522
869.915	-898
870.000	-1018
870.085	-529
870.169	-564
870.254	-387
870.339	-1718
870.424	-537
870.509	-971
870.593	-256
870.678	-297
870.763	-710
870.847	-283
870.932	-904
871.016	-922
871.101	-1176
871.186	-825
871.270	-1243
871.355	-1000
871.439	-281
871.523	-648
871.608	-837
871.692	-648
871.777	-251
871.861	-783
871.945	-777
872.030	-525
872.114	-1411
872.198	-1506
872.282	-1369
872.367	-237
872.451	-1212
872.535	-883
872.619	-1001
872.703	-2156
872.787	-885
872.871	-539
872.955	-1281
873.039	-1126
873.123	-517
873.207	-447
873.291	-790
873.375	-1168
873.459	-643
873.543	-678
873.627	-1193
873.711	-1319
873.794	-569
873.878	-1731
873.962	-676
874.045	-756
874.129	-594
874.137	-677
874.213	-1500
874.245	-1179
874.296	-664
874.352	-1101
874.380	-1316
874.460	-627
874.464	-600
874.547	-368
874.568	-321
874.631	-170
874.676	-475
874.714	-745
874.784	-994
874.798	-1038
874.881	91
874.892	48
874.965	-295
874.999	-452
875.048	-652
875.107	-674
875.131	-686
875.215	-705
875.215	-704
875.298	-328
875.323	-631
875.381	-1321
875.430	-798
875.465	-439
875.538	-1313
875.548	-1432
875.631	-740
875.646	-872
875.714	-1532
875.753	-920
875.798	-187
875.861	-575
875.881	-715
875.964	-898
875.968	-898
876.047	-723
876.076	-709
876.130	-811
876.183	-843
876.213	-819
876.291	-500
876.296	-479
876.379	-1001
876.398	-989
876.462	-1004
876.506	-906
876.545	-759
876.613	-705
876.628	-707
876.711	-246
876.721	-309
876.794	-794
876.828	-789
876.877	-803
876.935	-492
876.960	-283
877.043	-240
877.043	-238
877.125	95
877.150	42
877.208	164
877.258	140
877.291	-1
877.365	-346
877.374	-353
877.456	353
877.472	257
877.539	-299
877.579	60
877.622	407
877.687	-227
877.704	-362
877.787	-433
877.794	-421
877.869	-418
877.901	-236
877.952	77
878.008	-161
878.034	-243
878.115	-164
878.117	-162
878.199	-531
878.222	-522
878.282	-586
878.329	-237
878.364	60
878.437	-188
878.447	-244
878.529	-941
878.544	-888
878.611	-362
878.651	-490
878.694	-707
878.758	-330
878.776	-211
878.858	-873
878.865	-837
878.941	-437
878.972	-345
879.023	-252
879.078	-481
879.105	-455
879.185	-78
879.187	-74
879.269	380
879.292	271
879.351	-146
879.399	-265
879.433	-191
879.506	247
879.516	279
879.598	-157
879.613	-209
879.680	-412
879.720	-356
879.762	-253
879.827	-600
879.844	-688
879.926	66
879.933	83
880.007	76
880.040	-162
880.089	-466
880.147	-551
880.171	-448
880.253	1359
880.254	1364
880.335	2257
880.360	2600
880.417	3834
880.467	5653
880.499	7149
880.574	9478
880.580	9292
880.662	2796
880.680	1932
880.744	371
880.787	-246
880.825	-186
880.893	247
880.907	286
880.989	-174
881.000	-132
881.070	155
881.106	-16
881.152	-209
881.213	10
881.233	75
881.315	-224
881.319	-213
881.396	85
881.426	-196
881.478	-729
881.532	-541
881.559	-347
881.639	-298
881.641	-303
881.722	136
881.745	-52
881.803	-171
881.852	13
881.885	-3
881.958	193
881.966	215
882.047	59
882.064	52
882.129	276
882.171	394
882.210	447
882.277	494
882.291	487
882.372	278
882.383	252
882.454	-291
882.489	-547
882.535	-395
882.596	-128
882.616	-105
882.697	153
882.702	158
882.778	409
882.808	223
882.859	-395
882.914	-401
882.940	-246
883.020	-25
883.021	-20
883.102	210
883.127	229
883.183	-276
883.233	-980
883.264	-988
883.339	-232
883.345	-179
883.426	-265
883.445	-199
883.507	-228
883.551	-336
883.587	-266
883.657	393
883.668	492
883.749	167
883.763	210
883.830	-31
883.869	-155
883.910	-40
883.975	-287
883.991	-309
884.072	79
884.081	87
884.152	5
884.187	57
884.233	109
884.292	112
884.314	105
884.394	-195
884.398	-208
884.475	-540
884.504	-579
884.555	-137
884.610	219
884.636	161
884.716	-82
884.716	-78
884.797	-82
884.821	-116
884.877	-162
884.927	-47
884.958	-25
885.033	-155
885.038	-150
885.118	-144
885.139	-90
885.199	-142
885.244	-306
885.279	83
885.350	926
885.359	885
885.439	461
885.456	305
885.520	-157
885.561	-267
885.600	-250
885.667	-234
885.680	-161
885.760	153
885.773	188
885.840	26
885.878	71
885.920	37
885.984	-414
886.000	-389
886.080	87
886.089	127
886.160	-16
886.195	-132
886.240	-223
886.300	-437
886.320	-297
886.400	690
886.406	725
886.480	50
886.511	-128
886.560	521
886.616	966
886.640	676
886.720	-169
886.722	-199
886.800	-127
886.827	87
886.879	139
886.932	-111
886.959	156
887.038	981
887.039	978
887.119	219
887.143	-26
887.198	-57
887.248	-44
887.278	151
887.354	388
887.358	371
887.437	-9
887.459	-135
887.517	377
887.564	906
887.596	615
887.669	-65
887.676	-69
887.755	-240
887.774	-282
887.835	-254
887.880	-247
887.914	-194
887.985	-112
887.994	-117
888.073	-202
888.090	-208
888.153	-18
888.195	56
888.232	-1
888.300	1
888.311	67
888.391	372
888.405	446
888.470	639
888.510	650
888.549	173
888.615	-452
888.628	-317
888.708	379
888.720	488
888.787	8
888.825	-298
888.866	-474
888.930	-707
888.945	-683
889.024	-529
889.035	-519
889.103	39
889.140	369
889.182	330
889.245	215
889.261	218
889.340	243
889.349	245
889.419	518
889.454	638
889.498	301
889.559	-155
889.577	-39
889.656	464
889.664	512
889.735	602
889.768	649
889.814	437
889.873	147
889.978	46
890.083	-41
890.187	417
890.292	75
890.397	1067
890.501	359
890.606	173
890.710	-2
890.815	307
890.919	-533
891.024	163
891.128	724
891.233	707
891.337	975
891.442	375
891.546	-15
891.650	633
891.755	214
891.859	1138
891.963	-105
892.068	852
892.172	323
892.276	201
892.380	284
892.484	249
892.589	423
892.693	1059
892.797	-182
892.901	-205
893.005	-955
893.109	223
893.213	526
893.317	-168
893.421	175
893.525	277
893.629	-500
893.733	-228
893.837	358
893.941	651
894.045	271
894.148	-332
894.252	-768
894.356	-57
894.460	179
894.564	1293
894.667	-528
894.771	5
894.875	-528
894.978	-20
895.082	1007
895.186	299
895.289	-284
895.393	542
895.496	33
895.600	-386
895.703	-512
895.807	-672
895.910	556
896.014	-204
896.117	63
896.221	700
896.324	-427
896.427	491
896.531	139
896.634	-1023
896.737	-279
896.840	-290
896.944	-387
897.047	-25
897.150	-421
897.253	107
897.356	-126
897.460	-578
897.563	-98
897.666	308
897.769	-160
897.872	-1703
897.975	-374
898.078	590
898.181	-154
898.284	-771
898.387	393
898.490	31
898.593	-693
898.695	-535
898.798	-71
898.901	31
899.004	-172
899.107	-602
899.209	128
899.312	-53
899.415	-93
899.518	-391
899.620	3
899.723	-420
899.826	781
899.928	639
900.031	-438
900.133	-578
900.236	-854
900.338	-1001
900.441	115
900.543	-538
900.646	187
900.748	-386
900.851	-190
900.953	-229
901.055	-98
901.158	-197
901.260	-513
901.362	282
901.465	-849
901.567	-442
901.669	-433
901.771	-146
901.873	118
901.976	664
902.078	160
902.180	-205
902.282	-332
902.384	-1028
902.486	271
902.588	16
902.690	-313
902.792	-311
902.894	-486
902.996	-290
903.098	88
903.200	-869
903.302	434
903.404	-366
903.505	-910
903.607	31
903.709	-706
903.811	-72
903.913	-1373
904.014	230
904.116	-250
904.218	-314
904.319	226
904.421	244
904.523	-600
904.624	-773
904.726	-898
904.827	-531
904.929	-689
905.030	-797
905.132	-1006
905.233	56
905.335	-781
905.436	-804
905.537	-1004
905.639	-533
905.740	-317
905.841	-1036
905.943	188
906.044	-245
906.145	-422
906.247	-671
906.348	-640
906.449	-720
906.550	-202
906.651	-35
906.752	-776
906.854	-222
906.955	-522
907.056	16
907.157	-400
907.258	-414
907.359	-545
907.460	82
907.561	-576
907.662	-659
907.762	-376
907.863	67
907.964	-99
908.065	395
908.166	-1375
908.267	-343
908.367	-406
908.468	-652
908.569	-641
908.670	-1075
908.770	425
908.871	472
908.971	54
909.072	-313
909.173	-1071
909.273	155
909.374	-386
909.474	-345
909.575	-569
909.675	-701
909.776	-298
909.876	-677
909.977	-492
910.077	-38
910.177	-488
910.278	-64
910.378	-1122
910.478	-833
910.579	-59
910.679	-392
910.779	-636
910.879	190
910.980	-627
911.080	-98
911.180	-1235
911.280	-695
911.380	-485
911.480	226
911.580	-993
911.680	-139
911.780	-316
911.880	-362
911.980	-461
912.080	13
912.180	-185
912.280	-19
912.380	-249
912.480	-465
912.580	-294
912.679	-168
912.779	167
912.879	-753
912.979	-351
913.078	-396
913.178	-987
913.278	-1117
913.377	-565
913.477	119
913.577	-1109
913.676	90
913.776	-622
913.875	49
913.975	-1020
914.074	-300
914.174	-762
914.273	-480
914.373	-153
914.472	-541
914.572	-78
914.671	-595
914.770	-435
914.870	-1032
914.969	196
915.068	-76
915.167	-783
915.267	-726
915.366	-246
915.465	-617
915.564	-595
915.663	55
915.763	-534
915.862	-474
915.961	-881
916.060	131
916.159	-1146
916.258	-261
916.357	-293
916.456	217
916.555	-761
916.654	-204
916.752	-510
916.851	-1103
916.950	-688
917.049	-5
917.148	-539
917.247	26
917.345	95
917.444	-149
917.543	-784
917.642	-263
917.740	-715
917.839	-272
917.937	-183
918.036	178
918.135	-476
918.233	-688
918.332	-706
918.430	-135
918.529	-358
918.627	-366
918.726	-1092
918.824	-46
918.923	-637
919.021	-689
919.119	-86
919.218	-992
919.316	-96
919.414	-119
919.512	-754
919.611	-951
919.709	-472
919.807	-963
919.905	-228
920.003	-731
920.102	-26
920.200	46
920.298	104
920.396	430
920.494	-80
920.592	-332
920.690	152
920.788	-133
920.886	-195
920.984	135
921.082	-421
921.180	614
921.277	-1032
921.375	-232
921.473	-61
921.571	-168
921.669	-510
921.766	-1066
921.864	-479
921.962	666
922.060	-335
922.157	172
922.255	91
922.352	193
922.450	945
922.548	-197
922.645	598
922.743	641
922.840	974
922.938	1556
923.035	1499
923.133	874
923.230	1588
923.327	1972
923.425	1819
923.522	1334
923.619	983
923.717	1029
923.814	-80
923.911	518
924.008	1235
924.106	-49
924.203	651
924.300	800
924.397	345
924.494	1425
924.591	89
924.688	715
924.786	475
924.883	1717
924.979	971
925.077	1331
925.173	488
925.270	1391
925.367	980
925.464	1680
925.561	1483
925.658	1093
925.755	1057
925.852	1209
925.948	1698
926.045	1266
926.142	-146
926.239	772
926.335	527
926.432	1710
926.529	788
926.625	407
926.722	1057
926.818	1127
926.915	560
927.011	823
927.108	1214
927.204	1241
927.301	605
927.397	971
927.494	347
927.590	429
927.687	650
927.783	1496
927.879	435
927.976	551
928.072	493
928.168	1116
928.264	969
928.361	637
928.457	729
928.553	417
928.649	350
928.745	1067
928.841	685
928.937	840
929.033	631
929.129	857
929.225	417
929.321	794
929.417	600
929.513	808
929.609	412
929.705	817
929.801	651
929.897	840
929.993	572
930.089	768
930.184	-55
930.280	490
930.376	1584
930.471	317
930.567	421
930.663	635
930.758	653
930.854	189
930.950	-28
931.045	217
931.141	-322
931.236	1143
931.332	763
931.427	282
931.523	647
931.618	680
931.714	-454
931.809	86
931.905	431
932.000	-635
932.095	869
932.191	400
932.286	467
932.381	127
932.476	240
932.572	345
932.667	677
932.762	182
932.857	242
932.952	529
933.047	-199
933.142	-389
933.237	711
933.332	922
933.427	324
933.522	-35
933.617	-404
933.712	290
933.807	164
933.902	662
933.997	453
934.092	728
934.187	-501
934.282	720
934.376	-598
934.471	-235
934.566	-676
934.661	137
934.755	-10
934.850	575
934.945	477
935.039	351
935.134	-253
935.228	-304
935.323	868
935.417	-624
935.512	-271
935.606	95
935.701	180
935.795	657
935.890	-175
935.984	-51
936.079	-213
936.173	431
936.267	-269
936.362	-466
936.456	1114
936.550	567
936.644	-654
936.738	-148
936.833	-345
936.927	-688
937.021	-908
937.115	-288
937.209	-542
937.303	224
937.397	-279
937.491	-258
937.585	-255
937.679	-242
937.773	-114
937.867	-495
937.961	572
938.055	86
938.149	-444
938.243	-793
938.337	-144
938.430	-574
938.524	365
938.618	179
938.712	-204
938.805	863
938.899	-414
938.993	373
939.086	318
939.180	-520
939.274	-160
939.367	347
939.461	-227
939.554	1
939.648	-453
939.741	-482
939.835	-250
939.928	-55
940.022	390
940.115	467
940.208	-257
940.302	372
940.395	882
940.488	-577
940.582	810
940.675	-374
940.768	-14
940.861	-153
940.954	-199
941.048	-1006
941.141	11
941.234	-33
941.327	627
941.420	2146
941.513	605
941.606	-462
941.699	408
941.792	-46
941.885	885
941.978	-571
942.071	40
942.164	-1280
942.257	-718
942.349	71
942.442	-447
942.535	-839
942.628	560
942.721	-57
942.813	-1183
942.906	464
942.999	361
943.091	155
943.184	-1556
943.277	-3
943.369	-159
943.462	-566
943.554	20
943.647	-352
943.739	-202
943.832	-144
943.924	-1373
944.017	40
944.109	-1004
944.201	-658
944.294	-481
944.386	242
944.478	167
944.571	-246
944.663	-353
944.755	-387
944.847	-86
944.940	-95
945.032	-1010
945.124	-167
945.216	52
945.308	-625
945.400	-996
945.492	61
945.584	343
945.676	-20
945.768	-36
945.860	229
945.952	-405
946.044	403
946.136	-858
946.228	-282
946.320	-1035
946.412	-129
946.503	-157
946.595	382
946.687	-611
946.779	19
946.870	-996
946.962	-1121
947.054	-397
947.145	-136
947.237	-1785
947.329	-14
947.420	-361
947.512	-48
947.603	-1330
947.695	-175
947.786	-409
947.878	-601
947.969	79
948.061	-534
948.152	-233
948.243	-830
948.335	-100
948.426	-1326
948.517	-1467
948.609	-96
948.700	-604
948.791	-493
948.882	-430
948.973	115
949.065	-1094
949.156	-421
949.247	-1606
949.338	-976
949.429	-1429
949.520	-214
949.611	-1254
949.702	-205
949.793	-113
949.884	-346
949.975	-606
950.066	-670
950.157	-948
950.247	-542
950.338	-942
950.429	-670
950.520	-243
950.611	-1027
950.701	-526
950.792	-409
950.883	-1036
950.973	-1412
951.064	-1079
951.155	-760
951.245	-29
951.336	-727
951.427	-780
951.517	807
951.608	-1390
951.698	-391
951.788	-115
951.879	-1053
951.969	-1113
952.060	-946
952.150	-668
952.240	89
952.331	-2046
952.421	809
952.511	-1335
952.602	-1032
952.692	-996
952.782	-395
952.872	-1235
952.962	-555
953.052	-804
953.143	-237
953.233	-1053
953.323	-459
953.413	-558
953.503	-979
953.593	-1301
953.683	-590
953.773	-1410
953.863	-1398
953.953	-1918
954.042	-250
954.132	-1215
954.222	-139
954.312	-1698
954.402	-466
954.492	-1120
954.581	-1099
954.671	-1463
954.761	-1953
954.850	-289
954.940	-1384
955.030	-553
955.119	-737
955.209	-1640
955.298	-1456
955.388	-1429
955.477	-199
955.567	-908
955.656	-1077
955.746	-807
955.835	-750
955.925	-1512
956.014	-653
956.103	-833
956.193	-770
956.282	-1138
956.371	-148
956.461	-1779
956.550	-874
956.639	-1065
956.728	-556
956.817	-798
956.906	-446
956.995	-1460
957.085	-1427
957.174	-790
957.263	-922
957.352	-836
957.441	-1250
957.530	-948
957.619	-873
957.708	-1028
957.796	-1195
957.885	-859
957.974	-1117
958.063	-947
958.152	-1513
958.241	-373
958.329	-918
958.418	-1363
958.507	-1787
958.596	-187
958.684	-1674
958.773	-1448
958.861	-842
958.950	-1034
959.039	-722
959.127	-336
959.216	-825
959.304	-1451
959.393	-1161
959.481	-1750
959.570	-1254
959.658	-1730
959.746	-1376
959.835	-658
959.923	-1270
960.011	-1154
960.100	-1421
960.188	-1030
960.276	-1686
960.365	-648
960.453	-1211
960.541	-1599
960.629	-1030
960.717	-1607
960.805	-2108
960.893	-876
960.981	-1027
961.069	-1270
961.158	-1470
961.245	-1307
961.333	-820
961.421	-1557
961.509	-1184
961.597	-979
961.685	-1065
961.773	-1150
961.861	-1253
961.949	-1514
962.036	-1278
962.124	-142
962.212	-1257
962.299	-1655
962.387	-1606
962.475	-1861
962.562	-1535
962.650	-632
962.738	-1142
962.825	-1122
962.913	-715
963.000	-1286
963.088	-1301
963.175	-1280
963.263	-1903
963.350	-1417
963.438	-1642
963.525	-1417
963.612	-755
963.700	-868
963.787	217
963.874	-1361
963.962	-407
964.049	-1429
964.136	-1850
964.223	-1427
964.310	-2005
964.398	-1114
964.485	-2015
964.572	-1854
964.659	-1480
964.746	-1307
964.833	-1706
964.920	-1644
965.007	-1240
965.094	-1189
965.181	-1394
965.268	-2066
965.355	-1501
965.441	-782
965.528	-965
965.615	-1090
965.702	-919
965.789	-2032
965.875	-1516
965.962	-2464
966.049	-2014
966.136	-1416
966.222	-1685
966.309	-1332
966.395	-1475
966.482	-1585
966.569	-1465
966.655	-1198
966.742	-1855
966.828	-2244
966.915	-828
967.001	-1289
967.087	-2279
967.174	-1358
967.260	-1925
967.347	-2484
967.433	-1642
967.519	-1137
967.605	-1414
967.692	-1491
967.778	-1385
967.864	-1933
967.950	-1017
968.036	-1508
968.123	-812
968.209	-1728
968.295	-1468
968.381	-878
968.467	-1028
968.553	-1761
968.639	-859
968.725	-2309
968.811	-1191
968.897	-1328
968.983	-2184
969.069	-3070
969.154	-987
969.240	-309
969.326	-2121
969.412	-1820
969.497	-2609
969.583	-2311
969.669	-1699
969.755	-1017
969.840	-1545
969.926	-953
970.012	-938
970.097	-685
970.183	-1319
970.268	-1764
970.354	-845
970.439	-2297
970.525	-1082
970.610	-2255
970.696	-63
970.781	-2173
970.866	-1580
970.952	-1463
971.037	-2212
971.122	-1803
971.208	-2106
971.293	-1915
971.378	-2149
971.463	-1810
971.549	-1530
971.634	-1632
971.719	-1099
971.804	-1416
971.889	-1946
971.974	-2092
972.059	-1727
972.144	-1260
972.229	-1201
972.314	-2400
972.399	-881
972.484	-1680
972.569	-1043
972.654	-2219
972.739	-1064
972.824	-1478
972.908	-1826
972.993	-1635
973.078	-1634
973.163	-2139
973.247	-1675
973.332	-2974
973.417	-554
973.501	-1755
973.586	-1322
973.671	-2136
973.755	-1539
973.840	-1495
973.924	-396
974.009	-1738
974.093	-1524
974.178	-861
974.262	-588
974.346	-1953
974.431	-1566
974.515	-1732
974.600	-1523
974.684	-1283
974.768	-1670
974.852	-771
974.937	-2095
975.021	-1465
975.105	-2023
975.189	-1914
975.273	-2624
975.358	-1934
975.442	-1765
975.526	-1142
975.610	-1675
975.694	-2659
975.778	-347
975.862	-1511
975.946	-3280
976.030	-159
976.114	-2003
976.198	-2105
976.281	-1306
976.365	-1036
976.449	-1577
976.533	-1027
976.617	-2597
976.700	-1452
976.784	-1623
976.868	-2011
976.951	-1617
977.035	-1459
977.119	-1970
977.202	-1531
977.286	-1250
977.369	-1758
977.453	-982
977.536	-2068
977.620	-1364
977.703	-1874
977.787	-1746
977.870	-1046
977.953	-593
978.037	-2537
978.120	-1004
978.203	-2299
978.287	-1541
978.370	-1713
978.453	-2102
978.536	-2057
978.620	-971
978.703	-2340
978.786	-1380
978.869	-2230
978.952	-2242
979.035	-978
979.118	-1036
979.201	-2280
979.284	-1140
979.367	-2348
979.450	-1211
979.533	-2512
979.616	-1493
979.699	-1964
979.782	-1800
979.865	-1819
979.948	-1985
980.030	-1694
980.113	-1171
980.196	-2033
980.279	-902
980.361	-1812
980.444	-1541
980.526	-958
980.609	-1424
980.692	-2161
980.774	-515
980.857	-2478
980.939	-465
981.022	-1774
981.104	-1501
981.187	-2338
981.269	-870
981.352	-1866
981.434	-2254
981.516	-2313
981.599	-1063
981.681	-1690
981.763	-2100
981.846	-1584
981.928	-1165
982.010	-1286
982.092	-1903
982.174	-1359
982.256	-1319
982.339	-1664
982.421	-1761
982.503	-2118
982.585	-2132
982.667	-1278
982.749	-1195
982.831	-2381
982.913	-1582
982.995	-1483
983.077	-2351
983.158	-949
983.240	-2227
983.322	-1333
983.404	-494
983.486	-2368
983.568	-826
983.649	-1917
983.731	-1712
983.813	-2278
983.894	-1784
983.976	-2472
984.058	-1638
984.139	-1203
984.221	-2681
984.302	-353
984.384	-1687
984.465	-2523
984.547	-1744
984.628	-2357
984.710	-453
984.791	-1814
984.872	-513
984.954	-1869
985.035	-1631
985.116	-2284
985.198	-1848
985.279	-1627
985.360	-1368
985.441	-1213
985.522	-979
985.604	-1556
985.685	-1990
985.766	-662
985.847	-127
985.928	-1989
986.009	-1446
986.090	-1541
986.171	-1029
986.252	-1976
986.333	-1180
986.414	-1848
986.495	-1797
986.576	-1774
986.656	-1093
986.737	-1314
986.818	-1768
986.899	-2305
986.980	-1442
987.060	-1976
987.141	-2065
987.222	-1971
987.302	-1107
987.383	-1890
987.464	-1536
987.544	-535
987.625	-1738
987.705	-809
987.786	-633
987.866	-1686
987.947	-1531
988.027	-2048
988.108	-1374
988.188	-1173
988.268	-2002
988.349	-1976
988.429	-1496
988.509	-607
988.589	-1259
988.670	-2944
988.750	-223
988.830	-1264
988.910	-1099
988.990	-2021
989.070	-1876
989.151	-1373
989.231	-2010
989.311	-980
989.391	-1643
989.471	-1925
989.551	-1653
989.631	-1950
989.711	-747
989.791	-1809
989.870	-1553
989.950	-1260
990.030	-1307
990.110	-1678
990.190	-1600
990.269	-1857
990.349	-730
990.429	-1412
990.509	-1227
990.588	-2559
990.668	-1324
990.747	-1336
990.827	-1883
990.907	-944
990.986	-1740
991.066	-1696
991.145	-1469
991.225	-939
991.304	-1588
991.383	-1215
991.463	-2225
991.542	-680
991.622	-2770
991.701	-1687
991.780	-925
991.859	-969
991.939	-871
992.018	-2306
992.097	-667
992.176	-1400
992.256	-1009
992.335	-2197
992.414	-193
992.493	-2273
992.572	-1387
992.651	-1046
992.730	-1259
992.809	-1401
992.888	-1860
992.967	-1739
993.046	-687
993.125	-2600
993.203	-947
993.282	-910
993.361	-916
993.440	-1566
993.519	-2496
993.597	-1899
993.676	-1713
993.755	-835
993.834	-1491
993.912	-2179
993.991	-548
994.069	-2118
994.148	-1584
994.226	-2196
994.305	-1291
994.384	-2307
994.462	-341
994.540	-1638
994.619	-1499
994.697	-1582
994.776	-2389
994.854	-1240
994.932	-2037
995.011	-1335
995.089	-2395
995.167	-1381
995.245	-1311
995.324	-2289
995.402	-1340
995.480	-1671
995.558	-1447
995.636	-2168
995.714	-1572
995.792	-1423
995.870	-2258
995.948	-2328
996.026	-1590
996.104	-2243
996.182	-1486
996.260	-1889
996.338	-1283
996.416	-2359
996.494	-1844
996.572	-947
996.649	-1650
996.727	-2718
996.805	-1270
996.883	-2340
996.960	-1635
997.038	-990
997.116	-1378
997.193	-2134
997.271	-1219
997.348	-2288
997.426	-1468
997.504	-1836
997.581	-1491
997.658	-806
997.736	-3078
997.813	-2525
997.891	-1653
997.968	-2013
998.046	-1961
998.123	-1593
998.200	-1540
998.277	-2300
998.355	-1316
998.432	-2942
998.509	-1612
998.586	-1534
998.663	-1886
998.741	-1936
998.818	-1767
998.895	-2101
998.972	-1670
999.049	-1954
999.126	-1901
999.203	-1943
999.280	-792
999.357	-2052
999.434	-1221
999.511	-1990
999.587	-1530
999.664	-2053
999.741	-1321
999.818	-1954
999.895	-1930
999.971	-2003
1000.048	-2084
1000.125	-962
1000.202	-2209
1000.278	-1758
1000.355	-1507
1000.431	-2504
1000.508	-2234
1000.584	-2257
1000.661	-1015
1000.738	-2067
1000.814	-1463
1000.890	-1473
1000.967	-2197
1001.043	-1515
1001.120	-2117
1001.196	-2386
1001.272	-2153
1001.349	-1850
1001.425	-546
1001.501	-1888
1001.577	-1470
1001.654	-1606
1001.730	-1811
1001.806	-1074
1001.882	-3313
1001.958	-1672
1002.034	-1628
1002.110	-1397
1002.186	-1289
1002.262	-1944
1002.338	-2760
1002.414	-1789
1002.490	-1605
1002.566	-1846
1002.642	-1739
1002.718	-1326
1002.794	-2139
1002.870	-2109
1002.945	-1559
1003.021	-1661
1003.097	-1919
1003.173	-2225
1003.248	-1415
1003.324	-1756
1003.400	-1222
1003.475	-2060
1003.551	-1230
1003.626	-2559
1003.702	-2505
1003.777	-2644
1003.853	-2690
1003.928	-2186
1004.004	-1530
1004.079	-1930
1004.155	-2166
1004.230	-3210
1004.305	-1115
1004.381	-2535
1004.456	-978
1004.531	-1666
1004.607	-1886
1004.682	-1568
1004.757	-1363
1004.832	-1972
1004.907	-1705
1004.982	-1779
1005.057	-1390
1005.133	-2745
1005.208	-2061
1005.283	-1639
1005.358	-1424
1005.433	-2862
1005.508	-1362
1005.583	-2683
1005.657	-1781
1005.732	-1844
1005.807	-2137
1005.882	-2126
1005.957	-1622
1006.032	-1413
1006.106	-1877
1006.181	-1743
1006.256	-1720
1006.331	-2812
1006.405	-1900
1006.480	-2244
1006.554	-2058
1006.629	-1286
1006.704	-1893
1006.778	-2444
1006.853	-1689
1006.927	-2439
1007.002	-1840
1007.076	-1737
1007.150	-1868
1007.225	-2009
1007.299	-1494
1007.373	-2142
1007.448	-2035
1007.522	-2323
1007.596	-2079
1007.671	-1724
1007.745	-1230
1007.819	-2865
1007.893	-2254
1007.967	-2105
1008.041	-2954
1008.115	-1778
1008.190	-2145
1008.264	-2342
1008.338	-2806
1008.412	-1424
1008.486	-1716
1008.560	-2436
1008.633	-1643
1008.707	-1978
1008.781	-604
1008.855	-2557
1008.929	-1938
1009.003	-1798
1009.076	-2281
1009.150	-2205
1009.224	-2232
1009.298	-1855
1009.371	-2710
1009.445	-1644
1009.519	-1833
1009.592	-2495
1009.666	-1182
1009.739	-2600
1009.813	-3057
1009.886	-1758
1009.960	-2093
1010.033	-2135
1010.107	-1723
1010.180	-3160
1010.253	-2198
1010.327	-2148
1010.400	-2025
1010.473	-2950
1010.547	-1375
1010.620	-2286
1010.693	-2429
1010.766	-2515
1010.840	-1595
1010.913	-2242
1010.986	-2818
1011.059	-2150
1011.132	-2937
1011.205	-1817
1011.278	-1677
1011.351	-2767
1011.424	-1853
1011.497	-2362
1011.570	-1926
1011.643	-2254
1011.716	-2658
1011.789	-2547
1011.862	-2022
1011.934	-2081
1012.007	-3468
1012.080	-1796
1012.153	-1652
1012.225	-1323
1012.298	-2840
1012.371	-2438
1012.443	-1470
1012.516	-3247
1012.588	-1806
1012.661	-1841
1012.733	-1750
1012.806	-1453
1012.879	-2054
1012.951	-2388
1013.023	-1857
1013.096	-2523
1013.168	-2638
1013.241	-753
1013.313	-2117
1013.385	-3239
1013.458	-2335
1013.530	-1581
1013.602	-1900
1013.674	-2476
1013.746	-2328
1013.819	-2381
1013.891	-1361
1013.963	-2770
1014.035	-1316
1014.107	-1781
1014.179	-1739
1014.251	-3041
1014.323	-1902
1014.395	-2211
1014.467	-1732
1014.539	-3076
1014.611	-2625
1014.683	-2253
1014.754	-1795
1014.826	-2546
1014.898	-2167
1014.970	-2845
1015.042	-1035
1015.113	-3208
1015.185	-2912
1015.257	-2243
1015.328	-1800
1015.400	-2969
1015.471	-2186
1015.543	-3098
1015.615	-1968
1015.686	-2880
1015.757	-1404
1015.829	-2615
1015.901	-2272
1015.972	-1832
1016.043	-2238
1016.115	-2416
1016.186	-1711
1016.257	-3095
1016.328	-2390
1016.400	-2221
1016.471	-1731
1016.542	-2524
1016.613	-2616
1016.685	-1731
1016.756	-2066
1016.827	-2390
1016.898	-2755
1016.969	-1863
1017.040	-2948
1017.111	-3256
1017.182	-2542
1017.253	-2372
1017.324	-2793
1017.395	-3425
1017.466	-2527
1017.537	-2738
1017.608	-2494
1017.678	-2016
1017.749	-2508
1017.820	-2149
1017.891	-3253
1017.961	-3064
1018.032	-2319
1018.103	-2398
1018.173	-2302
1018.244	-2794
1018.315	-2021
1018.385	-2078
1018.456	-2723
1018.526	-2883
1018.597	-1805
1018.667	-2209
1018.738	-2056
1018.808	-2512
1018.878	-2922
1018.949	-2383
1019.019	-2574
1019.089	-2505
1019.160	-2318
1019.230	-2819
1019.300	-2163
1019.371	-3225
1019.441	-2708
1019.511	-2928
1019.581	-2541
1019.651	-2631
1019.721	-1899
1019.791	-2627
1019.861	-2466
1019.931	-2180
1020.001	-2772
1020.071	-2602
1020.141	-2122
1020.211	-2348
1020.281	-2884
1020.351	-3159
1020.421	-1890
1020.491	-1063
1020.560	-2317
1020.630	-2737
1020.700	-2158
1020.770	-2893
1020.839	-3019
1020.909	-2363
1020.979	-2034
1021.048	-2045
1021.118	-2251
1021.187	-2773
1021.257	-2566
1021.326	-2242
1021.396	-2194
1021.465	-2325
1021.535	-2108
1021.604	-2726
1021.674	-1863
1021.743	-2366
1021.812	-2007
1021.882	-2119
1021.951	-2341
1022.020	-2289
1022.089	-1637
1022.159	-3177
1022.228	-2524
1022.297	-2418
1022.366	-2745
1022.435	-2837
1022.504	-3294
1022.573	-2884
1022.642	-1843
1022.711	-3107
1022.781	-1928
1022.849	-1831
1022.918	-2612
1022.987	-1937
1023.056	-2901
1023.125	-2580
1023.194	-2193
1023.263	-3468
1023.331	-1520
1023.400	-3228
1023.469	-2082
1023.538	-2810
1023.606	-2727
1023.675	-2360
1023.744	-2134
1023.812	-3583
1023.881	-2065
1023.949	-2351
1024.018	-1935
1024.086	-2249
1024.155	-2251
1024.223	-2209
1024.292	-2331
1024.360	-2506
1024.429	-2242
1024.497	-2993
1024.565	-2125
1024.634	-2664
1024.702	-1753
1024.770	-2929
1024.838	-2549
1024.907	-2003
1024.975	-1881
1025.043	-3066
1025.111	-2612
1025.179	-2472
1025.247	-2727
1025.315	-2408
1025.383	-2924
1025.451	-2407
1025.519	-2149
1025.587	-2560
1025.655	-1513
1025.723	-3260
1025.791	-1891
1025.859	-2609
1025.927	-2722
1025.995	-2460
1026.062	-2230
1026.130	-2692
1026.198	-2761
1026.266	-3104
1026.333	-2540
1026.401	-1466
1026.469	-2565
1026.536	-3355
1026.604	-2514
1026.671	-3245
1026.739	-2328
1026.806	-2426
1026.874	-2751
1026.941	-1858
1027.009	-2630
1027.076	-3450
1027.144	-1919
1027.211	-3127
1027.278	-3262
1027.345	-2172
1027.413	-2355
1027.480	-2911
1027.547	-2578
1027.614	-2648
1027.682	-1864
1027.749	-2890
1027.816	-2933
1027.883	-2935
1027.950	-2436
1028.017	-3155
1028.084	-2019
1028.151	-3316
1028.218	-2594
1028.285	-2178
1028.352	-2835
1028.419	-2528
1028.486	-3353
1028.553	-2239
1028.619	-3038
1028.686	-2225
1028.753	-2595
1028.820	-2705
1028.886	-2707
1028.953	-2821
1029.020	-2665
1029.086	-2933
1029.153	-2650
1029.220	-1866
1029.286	-1892
1029.353	-2673
1029.419	-2859
1029.486	-2290
1029.552	-2599
1029.619	-1914
1029.685	-2854
1029.751	-3055
1029.818	-1464
1029.884	-2870
1029.951	-2082
1030.017	-3250
1030.083	-2091
1030.149	-2318
1030.216	-2215
1030.282	-2355
1030.348	-2881
1030.414	-2994
1030.480	-2707
1030.546	-2512
1030.612	-1770
1030.678	-2215
1030.744	-2484
1030.810	-3025
1030.876	-1974
1030.942	-2182
1031.008	-2721
1031.074	-3333
1031.140	-1601
1031.206	-2346
1031.272	-2959
1031.337	-1772
1031.403	-2154
1031.469	-2430
1031.534	-1582
1031.600	-2990
1031.666	-1908
1031.731	-2930
1031.797	-2192
1031.863	-3075
1031.928	-2241
1031.994	-2949
1032.059	-2505
1032.125	-3200
1032.190	-2763
1032.256	-2987
1032.321	-2816
1032.386	-2722
1032.452	-2297
1032.517	-2249
1032.582	-2900
1032.647	-3193
1032.713	-2145
1032.778	-2233
1032.843	-2397
1032.908	-1959
1032.974	-2503
1033.039	-2704
1033.104	-2271
1033.169	-2608
1033.234	-2505
1033.299	-2363
1033.364	-1384
1033.429	-2249
1033.494	-2205
1033.559	-2565
1033.624	-2001
1033.688	-2968
1033.753	-2163
1033.818	-2121
1033.883	-2459
1033.948	-3223
1034.013	-2429
1034.077	-1736
1034.142	-1271
1034.207	-2435
1034.271	-1595
1034.336	-904
1034.400	-1135
1034.465	-893
1034.530	-2551
1034.594	-1967
1034.658	-1906
1034.723	-2412
1034.787	-3083
1034.852	-2730
1034.916	-2439
1034.981	-2155
1035.045	-2265
1035.109	-2853
1035.173	-2233
1035.238	-3600
1035.302	-2536
1035.366	-2288
1035.430	-2695
1035.495	-2745
1035.559	-2233
1035.623	-2218
1035.687	-2664
1035.751	-1867
1035.815	-2599
1035.879	-2284
1035.943	-2248
1036.007	-2750
1036.071	-2490
1036.135	-2551
1036.198	-2743
1036.262	-3066
1036.326	-1884
1036.390	-1830
1036.454	-1434
1036.517	-2414
1036.581	-1507
1036.645	-1311
1036.709	-1394
1036.772	-2059
1036.836	-2402
1036.900	-2671
1036.963	-2586
1037.026	-2505
1037.090	-2574
1037.154	-2158
1037.217	-2194
1037.280	-3464
1037.344	-2024
1037.407	-2299
1037.471	-1617
1037.534	-3179
1037.597	-2748
1037.661	-3038
1037.724	-1600
1037.787	-2007
1037.850	-2895
1037.913	-2412
1037.977	-2048
1038.040	-2675
1038.103	-2785
1038.166	-3014
1038.229	-2390
1038.292	-2625
1038.355	-2542
1038.418	-3307
1038.481	-1276
1038.544	-3060
1038.607	-2354
1038.670	-2704
1038.732	-2283
1038.795	-2519
1038.858	-2240
1038.921	-1887
1038.984	-2374
1039.046	-2431
1039.109	-2480
1039.172	-2725
1039.234	-3002
1039.297	-2804
1039.360	-2458
1039.422	-2636
1039.485	-2318
1039.547	-2714
1039.610	-2624
1039.672	-2802
1039.734	-3077
1039.797	-2779
1039.859	-2156
1039.922	-2246
1039.984	-1802
1040.046	-2452
1040.109	-2268
1040.171	-3005
1040.233	-2269
1040.295	-2632
1040.358	-2136
1040.420	-2645
1040.482	-2664
1040.544	-2413
1040.606	-2160
1040.668	-2574
1040.730	-1880
1040.792	-2976
1040.854	-3161
1040.916	-2680
1040.978	-3561
1041.040	-2202
1041.102	-2416
1041.164	-2667
1041.225	-1875
1041.287	-3105
1041.349	-2652
1041.411	-2472
1041.472	-2467
1041.534	-2883
1041.596	-2018
1041.657	-2208
1041.719	-2366
1041.781	-2230
1041.842	-2267
1041.904	-2223
1041.965	-2464
1042.027	-3182
1042.088	-2616
1042.150	-2190
1042.211	-2788
1042.272	-2362
1042.334	-2534
1042.395	-2225
1042.456	-2259
1042.518	-2406
1042.579	-1946
1042.640	-2617
1042.701	-2406
1042.763	-3259
1042.824	-2101
1042.885	-2979
1042.946	-2587
1043.007	-3383
1043.068	-1874
1043.129	-2462
1043.190	-2360
1043.251	-1885
1043.312	-2509
1043.373	-1979
1043.434	-2708
1043.495	-2104
1043.556	-2401
1043.616	-2358
1043.677	-2783
1043.738	-2735
1043.799	-2614
1043.859	-2532
1043.920	-2112
1043.981	-2434
1044.041	-1639
1044.102	-2049
1044.162	-2383
1044.223	-2945
1044.284	-2235
1044.344	-2502
1044.405	-2682
1044.465	-2575
1044.525	-2390
1044.586	-2409
1044.646	-2436
1044.707	-2095
1044.767	-2508
1044.827	-2713
1044.887	-2499
1044.948	-2974
1045.008	-2088
1045.068	-2804
1045.128	-2115
1045.188	-2809
1045.249	-2094
1045.309	-2438
1045.369	-2196
1045.429	-2511
1045.489	-2184
1045.549	-2588
1045.609	-2023
1045.669	-2269
1045.729	-2092
1045.789	-2882
1045.848	-2179
1045.908	-2057
1045.968	-2018
1046.028	-1961
1046.088	-2350
1046.147	-2065
1046.207	-1427
1046.267	-3118
1046.326	-1548
1046.386	-1835
1046.446	-1222
1046.505	-2115
1046.565	-589
1046.624	-1201
1046.684	-1594
1046.743	-1651
1046.803	-1275
1046.862	-1236
1046.922	0
