'Start Wavelength	183.907
'End Wavelength	1046.922
'Gate Delay	5.000
'Gate Width (ms)	1.050
'Laser Output Level	0.000
'X Position	0.000
'Y Position	0.000
'Z Position	0.000
'Grid Point Number	1.000
'Shot Number	100.000
183.907	-181.000
183.977	-107.000
184.047	23
184.116	-6
184.186	19
184.256	-98
184.325	501
184.395	312
184.465	702
184.534	335
184.604	-714
184.674	-148
184.743	-630
184.813	361
184.883	109
184.952	327
185.022	27
185.092	-783
185.161	-40
185.231	445
185.301	74
185.370	658
185.440	-254
185.509	73
185.579	-785
185.649	127
185.718	156
185.788	695
185.857	-367
185.927	63
185.996	-302
186.066	870
186.136	-56
186.205	26
186.275	259
186.344	133
186.414	-41
186.483	-109
186.553	434
186.622	1416
186.692	419
186.761	134
186.831	945
186.900	142
186.970	-119
187.039	93
187.109	697
187.178	393
187.248	947
187.317	-138
187.387	280
187.456	539
187.526	963
187.595	493
187.664	-201
187.734	4
187.803	15
187.873	605
187.942	1689
188.012	704
188.081	533
188.150	173
188.220	690
188.289	754
188.358	673
188.428	-393
188.497	-427
188.567	292
188.636	-425
188.705	244
188.775	450
188.844	737
188.913	553
188.983	250
189.052	-291
189.121	125
189.191	392
189.260	927
189.329	880
189.399	428
189.468	287
189.537	423
189.606	106
189.676	736
189.745	-116
189.814	1379
189.883	-242
189.953	283
190.022	297
190.091	2229
190.161	2494
190.230	753
190.299	-126
190.368	504
190.437	-271
190.507	-48
190.576	300
190.645	724
190.714	256
190.783	428
190.853	691
190.922	630
190.991	-80
191.060	693
191.129	-252
191.198	371
191.268	115
191.337	45
191.406	230
191.475	247
191.544	90
191.613	627
191.682	-315
191.752	-248
191.821	465
191.890	4
191.959	562
192.028	20
192.097	618
192.166	279
192.235	148
192.304	996
192.373	381
192.442	-100
192.511	198
192.580	478
192.650	474
192.719	493
192.788	878
192.857	1173
192.926	-469
192.995	346
193.064	1001
193.133	1273
193.202	2704
193.271	1536
193.340	2238
193.409	2361
193.478	1626
193.547	2485
193.615	3806
193.684	3317
193.753	1764
193.822	1572
193.891	444
193.960	980
194.029	174
194.098	645
194.167	598
194.236	931
194.305	254
194.374	445
194.443	528
194.512	1116
194.580	1114
194.649	1018
194.718	788
194.787	905
194.856	355
194.925	1105
194.994	688
195.062	979
195.131	889
195.200	517
195.269	561
195.338	1390
195.407	59
195.475	1188
195.544	782
195.613	143
195.682	-156
195.751	405
195.819	107
195.888	1277
195.957	1509
196.026	1170
196.094	763
196.163	910
196.232	1320
196.301	1889
196.369	1483
196.438	1687
196.507	1573
196.576	788
196.644	544
196.713	689
196.782	154
196.850	1103
196.919	508
196.988	1257
197.056	400
197.125	916
197.194	806
197.262	1087
197.331	794
197.400	559
197.468	186
197.537	85
197.606	838
197.674	1737
197.743	3416
197.812	802
197.880	3301
197.949	1961
198.017	3036
198.086	3209
198.155	1011
198.223	1658
198.292	4066
198.360	1879
198.429	753
198.497	849
198.566	2253
198.635	4094
198.703	1417
198.772	2523
198.840	4682
198.909	4497
198.977	1763
199.046	1287
199.114	1267
199.183	1323
199.251	329
199.320	1322
199.388	1066
199.457	1051
199.525	1100
199.594	824
199.662	454
199.731	1068
199.799	1535
199.867	1592
199.936	1499
200.004	1021
200.073	514
200.141	793
200.210	1016
200.278	980
200.346	2018
200.415	2496
200.483	1294
200.552	1327
200.620	760
200.688	514
200.757	818
200.825	983
200.893	1137
200.962	1008
201.030	566
201.098	1330
201.167	1455
201.235	1152
201.303	701
201.372	492
201.440	555
201.508	300
201.577	1158
201.645	970
201.713	1013
201.781	1224
201.850	713
201.918	1200
201.986	1028
202.055	1379
202.123	250
202.191	1036
202.259	329
202.327	1207
202.396	53
202.464	2034
202.532	1173
202.600	3723
202.669	2041
202.737	1638
202.805	1219
202.873	1125
202.941	1513
203.009	1513
203.078	522
203.146	1309
203.214	927
203.282	1290
203.350	931
203.418	919
203.487	1278
203.555	880
203.623	1140
203.691	1726
203.759	1094
203.827	709
203.895	1103
203.963	1055
204.031	1118
204.099	2142
204.168	1611
204.236	1259
204.304	1604
204.372	1644
204.440	1445
204.508	1062
204.576	643
204.644	1172
204.712	852
204.780	1688
204.848	1104
204.916	1110
204.984	1310
205.052	1165
205.120	735
205.188	1230
205.256	754
205.324	1203
205.392	723
205.460	1829
205.528	1705
205.596	1415
205.664	1936
205.732	1821
205.799	5252
205.867	7237
205.935	1982
206.003	2018
206.071	1119
206.139	1413
206.207	1576
206.275	1563
206.343	1752
206.411	1730
206.478	1112
206.546	1809
206.614	1237
206.682	1478
206.750	1439
206.818	2340
206.885	2261
206.953	223
207.021	2138
207.089	1598
207.157	1023
207.225	1678
207.292	935
207.360	2169
207.428	1729
207.496	1632
207.563	1674
207.631	1331
207.699	1550
207.767	2388
207.834	1705
207.902	2240
207.970	2121
208.038	1767
208.105	1655
208.173	2690
208.241	3236
208.309	3029
208.376	3025
208.444	3668
208.512	2776
208.579	1893
208.647	2290
208.715	2372
208.782	1803
208.850	1898
208.918	1663
208.985	2747
209.053	2145
209.120	2432
209.188	2026
209.256	2210
209.323	1732
209.391	3252
209.459	2857
209.526	1902
209.594	2099
209.661	2169
209.729	1253
209.796	2154
209.864	2573
209.932	2448
209.999	2443
210.067	3148
210.134	1740
210.202	2550
210.269	2668
210.337	3044
210.404	1915
210.472	1966
210.539	2303
210.607	2229
210.674	2937
210.742	1959
210.809	1976
210.877	2834
210.944	3081
211.012	2210
211.079	2791
211.146	2688
211.214	2191
211.281	3769
211.349	2552
211.416	2407
211.484	3145
211.551	2833
211.618	3306
211.686	2539
211.753	2416
211.821	3518
211.888	2125
211.955	3088
212.023	2579
212.090	2584
212.157	2733
212.225	2864
212.292	5083
212.359	10399
212.427	22966
212.494	9740
212.561	4027
212.629	3505
212.696	3353
212.763	3664
212.831	2270
212.898	2804
212.965	2990
213.032	1953
213.100	2805
213.167	3018
213.234	3281
213.301	2416
213.369	2688
213.436	3194
213.503	2553
213.570	3595
213.638	3273
213.705	2579
213.772	2003
213.839	3294
213.906	3078
213.973	3105
214.041	2354
214.108	2779
214.175	2915
214.242	2435
214.309	2643
214.376	2805
214.444	3370
214.511	3811
214.578	3203
214.645	3106
214.712	3662
214.779	3785
214.846	3478
214.913	5033
214.980	3175
215.048	4605
215.115	4597
215.182	3258
215.249	3118
215.316	2939
215.383	2453
215.450	3172
215.517	2138
215.584	2789
215.651	2062
215.718	3053
215.785	2760
215.852	2212
215.919	2787
215.986	2088
216.053	2574
216.120	1874
216.187	3143
216.254	3262
216.321	1908
216.388	3547
216.455	3068
216.522	3641
216.589	2972
216.656	6587
216.722	6293
216.789	5406
216.856	5681
216.923	4376
216.990	3807
217.057	3784
217.124	4168
217.191	5681
217.258	6229
217.324	6756
217.391	7312
217.458	5148
217.525	4412
217.592	4115
217.659	2261
217.725	4566
217.792	5210
217.859	5616
217.926	4022
217.993	2951
218.059	2435
218.126	3371
218.193	2916
218.260	3120
218.327	2090
218.393	2751
218.460	1507
218.527	2139
218.594	2540
218.660	5170
218.727	4995
218.794	2354
218.860	3055
218.927	1591
218.994	1814
219.061	2347
219.127	2341
219.194	4926
219.261	2147
219.327	2143
219.394	3034
219.461	1391
219.527	2135
219.594	3619
219.661	2469
219.727	1923
219.794	2515
219.860	1965
219.927	2999
219.994	6043
220.060	7041
220.127	6003
220.193	4514
220.260	4324
220.326	6895
220.393	10842
220.460	12866
220.526	8576
220.593	4664
220.659	6948
220.726	6196
220.792	15128
220.859	12614
220.925	17672
220.992	22106
221.058	20881
221.125	18250
221.191	14676
221.258	6768
221.324	5048
221.391	3284
221.457	4306
221.524	4226
221.590	5476
221.657	16627
221.723	11125
221.789	10958
221.856	9312
221.922	5194
221.989	3207
222.055	2638
222.121	2358
222.188	4318
222.254	3604
222.321	2534
222.387	1604
222.453	1954
222.520	2391
222.586	2214
222.652	1976
222.719	2087
222.785	3560
222.851	1884
222.918	2100
222.984	2392
223.050	3060
223.116	1601
223.183	2257
223.249	840
223.315	1659
223.382	1411
223.448	1857
223.514	1180
223.580	1368
223.647	1483
223.713	1220
223.779	1990
223.845	2238
223.911	2090
223.978	1043
224.044	1502
224.110	1320
224.176	1074
224.242	2252
224.309	902
224.375	2459
224.441	2078
224.507	948
224.573	447
224.639	2155
224.705	584
224.772	1842
224.838	968
224.904	1931
224.970	1225
225.036	2179
225.102	1910
225.168	2218
225.234	1056
225.300	1807
225.366	1438
225.432	1775
225.499	1350
225.565	1528
225.631	2423
225.697	3048
225.763	3322
225.829	4333
225.895	3714
225.961	6262
226.027	5148
226.093	4379
226.159	6904
226.225	10725
226.291	24883
226.357	36027
226.423	17787
226.489	9897
226.554	6307
226.620	6805
226.686	7941
226.752	11129
226.818	21708
226.884	50057
226.950	40211
227.016	15566
227.082	9288
227.148	6700
227.214	5662
227.279	5318
227.345	3762
227.411	3546
227.477	4655
227.543	11095
227.609	9590
227.674	5595
227.740	3338
227.806	2981
227.872	2864
227.938	2504
228.003	3620
228.069	2350
228.135	2012
228.201	2706
228.267	1845
228.332	2428
228.398	3250
228.464	2894
228.530	1275
228.595	1727
228.661	1168
228.727	3184
228.792	2608
228.858	2154
228.924	1349
228.990	3103
229.055	1190
229.121	2830
229.187	2031
229.252	2215
229.318	1631
229.384	2962
229.449	2089
229.515	1166
229.581	484
229.646	2270
229.712	1957
229.777	6682
229.843	5828
229.909	4477
229.974	3803
230.040	4689
230.105	3360
230.171	3411
230.236	5309
230.302	7478
230.368	4693
230.433	2959
230.499	2740
230.564	3791
230.630	2444
230.695	2553
230.761	2407
230.826	2263
230.892	4630
230.957	1973
231.023	2168
231.088	1999
231.154	2251
231.219	2802
231.284	2890
231.350	3974
231.415	1555
231.481	1883
231.546	1223
231.612	2340
231.677	1172
231.742	1106
231.808	1982
231.873	1284
231.939	558
232.004	3232
232.069	3781
232.135	2323
232.200	1682
232.265	1983
232.331	897
232.396	1450
232.461	1657
232.527	1415
232.592	1004
232.657	2102
232.723	2189
232.788	2083
232.853	1295
232.918	1361
232.984	665
233.049	1129
233.114	1803
233.179	2555
233.245	3750
233.310	3526
233.375	1058
233.440	1942
233.506	1781
233.571	1003
233.636	1198
233.701	1512
233.766	3010
233.832	3088
233.897	1586
233.962	958
234.027	1902
234.092	1681
234.157	1264
234.222	2529
234.288	2985
234.353	8424
234.418	6710
234.483	4890
234.548	2702
234.613	2484
234.678	2981
234.743	3527
234.808	7831
234.873	4548
234.938	3353
235.004	3361
235.069	2942
235.134	2447
235.199	2965
235.264	2684
235.329	1420
235.394	3198
235.459	3254
235.524	2781
235.589	1952
235.654	2551
235.719	1610
235.784	2894
235.849	2465
235.913	4143
235.978	3962
236.043	4458
236.108	2575
236.173	3143
236.238	3659
236.303	2765
236.368	2134
236.433	5284
236.498	5810
236.563	8082
236.627	19194
236.692	65520
236.757	47557
236.822	17263
236.887	11934
236.952	10275
237.017	7712
237.081	8265
237.146	11509
237.211	28020
237.276	63876
237.341	93911
237.405	40400
237.470	16011
237.535	9822
237.600	8035
237.664	5773
237.729	5548
237.794	8047
237.859	16407
237.923	7421
237.988	4478
238.053	4698
238.118	5446
238.182	12903
238.247	11335
238.312	5074
238.376	4184
238.441	1981
238.506	4127
238.570	1260
238.635	3200
238.700	2153
238.764	2570
238.829	5678
238.893	5789
238.958	4155
239.023	4217
239.087	2510
239.152	3060
239.216	1608
239.281	2340
239.346	2331
239.410	2281
239.475	2985
239.539	11553
239.604	8025
239.668	3925
239.733	2394
239.797	5843
239.862	16700
239.926	12069
239.991	4316
240.055	3227
240.120	1704
240.184	2522
240.249	1246
240.313	2060
240.378	1443
240.442	6445
240.507	9423
240.571	3801
240.635	3891
240.700	5422
240.764	1897
240.829	1881
240.893	1153
240.957	2452
241.022	5968
241.086	8650
241.151	3671
241.215	1060
241.279	3411
241.344	4359
241.408	3407
241.472	3625
241.537	3901
241.601	3940
241.665	2371
241.730	2950
241.794	2653
241.858	3751
241.922	2455
241.987	3542
242.051	2504
242.115	2223
242.179	2862
242.244	2610
242.308	3397
242.372	3601
242.436	3307
242.501	3931
242.565	1741
242.629	2600
242.693	2699
242.757	2696
242.822	2553
242.886	3214
242.950	3432
243.014	2933
243.078	3476
243.142	3521
243.206	2331
243.271	3920
243.335	3887
243.399	7229
243.463	32245
243.527	75976
243.591	21210
243.655	7836
243.719	4872
243.783	5827
243.847	8663
243.911	11350
243.975	8414
244.040	5057
244.104	4650
244.168	3599
244.232	4543
244.296	7985
244.360	9558
244.424	3716
244.488	3126
244.552	2781
244.615	2430
244.679	2974
244.743	3368
244.807	3178
244.871	1569
244.935	2421
244.999	1003
245.063	2101
245.127	3730
245.191	7627
245.255	5497
245.319	4552
245.383	2027
245.446	3190
245.510	1414
245.574	3005
245.638	2348
245.702	2055
245.766	8637
245.829	5287
245.893	2617
245.957	2373
246.021	3158
246.085	3412
246.149	4085
246.212	12924
246.276	20013
246.340	7945
246.404	4947
246.467	5930
246.531	7819
246.595	5946
246.659	4272
246.722	3232
246.786	5238
246.850	5503
246.913	6510
246.977	3618
247.041	3282
247.104	3657
247.168	4120
247.232	11577
247.295	28464
247.359	10956
247.423	4945
247.486	9177
247.550	5384
247.614	3010
247.677	4983
247.741	3588
247.804	3537
247.868	4765
247.932	10944
247.995	24535
248.059	7350
248.122	3521
248.186	5748
248.249	10191
248.313	46040
248.376	39938
248.440	25981
248.503	8539
248.567	7924
248.630	9107
248.694	12143
248.757	19858
248.821	48490
248.884	22921
248.948	23140
249.011	34573
249.075	55692
249.138	42842
249.202	15005
249.265	9720
249.328	9852
249.392	7664
249.455	7097
249.519	5999
249.582	7069
249.645	11259
249.709	8753
249.772	5750
249.835	6296
249.899	6563
249.962	5976
250.025	5984
250.089	18260
250.152	21454
250.215	9553
250.279	7446
250.342	8014
250.405	7005
250.468	6969
250.532	10270
250.595	17578
250.658	80696
250.721	114528
250.785	36583
250.848	19163
250.911	11643
250.974	10575
251.038	16364
251.101	30226
251.164	13143
251.227	13551
251.290	13570
251.354	25394
251.417	109112
251.480	93729
251.543	70834
251.606	191237
251.669	127394
251.732	47702
251.795	46720
251.859	50575
251.922	120172
251.985	58205
252.048	23255
252.111	15526
252.174	14313
252.237	25213
252.300	56619
252.363	68204
252.426	146291
252.489	52979
252.552	23358
252.615	15823
252.678	18254
252.741	45699
252.804	70195
252.867	151767
252.930	73074
252.993	35203
253.056	20103
253.119	14022
253.182	12175
253.245	22287
253.308	14036
253.371	10135
253.434	8634
253.497	9826
253.559	24280
253.622	13474
253.685	12403
253.748	11823
253.811	6874
253.874	8220
253.937	7676
254.000	6682
254.062	16291
254.125	24781
254.188	17092
254.251	12783
254.314	6731
254.376	11622
254.439	12060
254.502	9556
254.565	15900
254.628	26906
254.690	11082
254.753	6306
254.816	5361
254.878	6010
254.941	18479
255.004	16812
255.067	5977
255.129	5197
255.192	4504
255.255	2687
255.317	4103
255.380	3064
255.443	2253
255.505	2549
255.568	2642
255.631	2794
255.693	2598
255.756	1848
255.819	3553
255.881	2151
255.944	2482
256.006	2484
256.069	2656
256.132	1676
256.194	3827
256.257	6764
256.319	5845
256.382	4847
256.444	5563
256.507	4190
256.569	3810
256.632	5146
256.694	8208
256.757	36602
256.819	99280
256.882	34088
256.944	12096
257.007	9599
257.069	8075
257.132	5746
257.194	6345
257.257	4891
257.319	5024
257.381	7525
257.444	25719
257.506	121614
257.569	106669
257.631	33252
257.693	19949
257.756	10720
257.818	8289
257.880	5571
257.943	6421
258.005	3129
258.067	3988
258.130	3356
258.192	4498
258.254	6600
258.317	4584
258.379	4707
258.441	12967
258.503	11420
258.566	11936
258.628	13858
258.690	4070
258.753	5428
258.815	7448
258.877	3856
258.939	4052
259.001	4027
259.064	4329
259.126	3817
259.188	4753
259.250	3940
259.312	5461
259.375	7268
259.437	5713
259.499	4311
259.561	3309
259.623	4076
259.685	3562
259.747	3901
259.809	12045
259.872	18502
259.934	33445
259.996	26457
260.058	7612
260.120	3754
260.182	4366
260.244	3212
260.306	2874
260.368	3367
260.430	3007
260.492	6467
260.554	9738
260.616	5899
260.678	17520
260.740	17249
260.802	4829
260.864	4288
260.926	3215
260.988	3505
261.050	4087
261.112	9928
261.174	24075
261.236	14410
261.298	5330
261.359	8260
261.421	10548
261.483	3283
261.545	4817
261.607	2502
261.669	2542
261.731	4731
261.793	12043
261.854	5305
261.916	4883
261.978	3652
262.040	4325
262.102	2943
262.164	4298
262.225	3786
262.287	3926
262.349	8846
262.411	6731
262.472	3665
262.534	5020
262.596	8765
262.658	3100
262.719	2141
262.781	4508
262.843	8607
262.904	3347
262.966	3928
263.028	6573
263.090	36820
263.151	89459
263.213	24125
263.275	11774
263.336	5385
263.398	5312
263.459	3702
263.521	2786
263.583	9065
263.644	5031
263.706	2116
263.767	1571
263.829	2259
263.891	1266
263.952	2038
264.014	1363
264.075	4567
264.137	11379
264.198	4361
264.260	1702
264.321	2418
264.383	7956
264.444	18311
264.506	6099
264.567	3286
264.629	8964
264.690	15692
264.752	5859
264.813	3182
264.875	3049
264.936	2979
264.998	3047
265.059	2202
265.120	3786
265.182	9144
265.243	55166
265.305	44723
265.366	9810
265.427	6035
265.489	4817
265.550	2776
265.611	3627
265.673	1765
265.734	2677
265.795	2215
265.857	2503
265.918	4448
265.979	14755
266.040	89683
266.102	62831
266.163	16172
266.224	9763
266.286	6128
266.347	2959
266.408	3207
266.469	3345
266.530	2219
266.592	1418
266.653	4499
266.714	7272
266.775	2303
266.836	1444
266.898	1696
266.959	4626
267.020	3106
267.081	3285
267.142	2710
267.203	1656
267.264	737
267.326	3856
267.387	1320
267.448	1821
267.509	1795
267.570	2094
267.631	2087
267.692	997
267.753	1998
267.814	1539
267.875	6516
267.936	12681
267.997	8458
268.058	6853
268.119	3849
268.180	3381
268.241	1596
268.302	1735
268.363	1620
268.424	1821
268.485	2008
268.546	1582
268.607	1518
268.668	1558
268.729	1876
268.790	996
268.851	2505
268.912	6804
268.972	6728
269.033	3574
269.094	1102
269.155	1864
269.216	955
269.277	1745
269.338	1359
269.398	2345
269.459	2106
269.520	4393
269.581	4509
269.642	4598
269.702	2349
269.763	3119
269.824	2703
269.885	3872
269.945	5523
270.006	2688
270.067	764
270.128	1852
270.188	803
270.249	1978
270.310	866
270.370	3029
270.431	796
270.492	1710
270.553	1467
270.613	4235
270.674	11083
270.734	3924
270.795	1557
270.856	3850
270.916	2546
270.977	1942
271.038	2794
271.098	2832
271.159	4773
271.219	4317
271.280	2312
271.340	2353
271.401	1330
271.462	4401
271.522	2745
271.583	2058
271.643	1948
271.704	1654
271.764	3128
271.825	9262
271.885	39256
271.946	49579
272.006	13629
272.066	24691
272.127	42526
272.187	11907
272.248	5964
272.308	7659
272.369	31900
272.429	14548
272.489	8251
272.550	5899
272.610	8108
272.671	4768
272.731	3899
272.791	5477
272.852	3716
272.912	4166
272.972	2325
273.033	2065
273.093	3070
273.153	3204
273.214	2972
273.274	4057
273.334	19829
273.394	36543
273.455	10701
273.515	12316
273.575	26389
273.635	10343
273.696	15349
273.756	37736
273.816	10726
273.876	5809
273.936	10956
273.997	15467
274.057	3988
274.117	3679
274.177	7936
274.237	48323
274.297	34112
274.358	16227
274.418	28520
274.478	17109
274.538	5973
274.598	4903
274.658	12109
274.718	14591
274.778	5724
274.838	3111
274.898	7846
274.958	22246
275.018	38291
275.078	21757
275.138	6055
275.198	3170
275.258	2206
275.318	3567
275.378	6013
275.438	5805
275.498	4475
275.558	11727
275.618	27175
275.678	21471
275.738	9787
275.798	7809
275.858	3696
275.918	2181
275.978	3116
276.038	3092
276.098	2121
276.157	6304
276.217	15743
276.277	7438
276.337	4598
276.397	1707
276.457	2805
276.517	2175
276.576	1589
276.636	848
276.696	3047
276.756	10125
276.815	6068
276.875	2492
276.935	3120
276.995	2318
277.055	1908
277.114	2526
277.174	3695
277.234	14594
277.293	4677
277.353	3114
277.413	2222
277.472	2308
277.532	1999
277.592	2447
277.651	7964
277.711	12812
277.771	5405
277.830	20737
277.890	13982
277.950	13339
278.009	38838
278.069	12146
278.128	10574
278.188	13127
278.248	6001
278.307	15284
278.367	8372
278.426	4114
278.486	2339
278.545	2332
278.605	2471
278.664	1681
278.724	3706
278.783	14989
278.843	39151
278.902	9743
278.962	4590
279.021	4155
279.081	4088
279.140	4097
279.199	4466
279.259	5744
279.318	5175
279.378	6318
279.437	12753
279.496	45697
279.556	120553
279.615	76062
279.675	18475
279.734	12087
279.793	17683
279.853	30854
279.912	9773
279.971	5382
280.031	4288
280.090	12960
280.149	19116
280.208	15811
280.268	81473
280.327	67550
280.386	13223
280.445	13145
280.505	10801
280.564	5700
280.623	4386
280.682	8542
280.742	11961
280.801	2912
280.860	1611
280.919	2367
280.978	2340
281.037	1154
281.097	1179
281.156	1751
281.215	1824
281.274	4361
281.333	23500
281.392	14763
281.451	3028
281.510	2489
281.569	1793
281.628	1604
281.688	994
281.747	2354
281.806	1501
281.865	1587
281.924	1415
281.983	2107
282.042	103
282.101	1004
282.160	571
282.219	1016
282.278	2252
282.337	9091
282.396	4700
282.454	3217
282.513	3356
282.572	14888
282.631	6185
282.690	2293
282.749	759
282.808	2071
282.867	1786
282.926	2078
282.985	787
283.043	631
283.102	1115
283.161	2181
283.220	8089
283.279	17862
283.338	3476
283.396	2139
283.455	2076
283.514	2599
283.573	3822
283.631	2604
283.690	1442
283.749	1799
283.808	5031
283.866	5116
283.925	1736
283.984	2107
284.043	2383
284.101	2612
284.160	1319
284.219	3321
284.277	2652
284.336	5117
284.395	20731
284.453	15422
284.512	4238
284.570	5537
284.629	4751
284.688	3854
284.746	3182
284.805	4223
284.863	4551
284.922	5982
284.981	6449
285.039	11671
285.098	24197
285.156	75280
285.215	250443
285.273	221890
285.332	87531
285.390	37794
285.449	23424
285.507	15062
285.566	10340
285.624	8042
285.683	5440
285.741	4252
285.799	3779
285.858	3694
285.916	2667
285.975	2596
286.033	2169
286.091	2100
286.150	1485
286.208	2190
286.267	2280
286.325	3146
286.383	4089
286.442	3733
286.500	2250
286.558	1669
286.616	1721
286.675	2833
286.733	1972
286.791	2915
286.850	3292
286.908	4418
286.966	6148
287.024	2564
287.083	1513
287.141	1054
287.199	1603
287.257	3345
287.315	2517
287.374	3135
287.432	8987
287.490	6017
287.548	3226
287.606	3789
287.664	3263
287.723	4325
287.781	5478
287.839	3666
287.897	4024
287.955	8059
288.013	15035
288.071	40066
288.129	160363
288.187	365152
288.245	151135
288.303	49522
288.361	28375
288.419	20918
288.477	13829
288.535	10010
288.593	6809
288.651	5606
288.709	2780
288.767	2904
288.825	2169
288.883	2258
288.941	1526
288.999	1331
289.057	1491
289.115	1685
289.173	1187
289.231	1769
289.289	1371
289.346	1954
289.404	2186
289.462	4449
289.520	3251
289.578	1941
289.636	1069
289.694	1029
289.751	1707
289.809	2305
289.867	2069
289.925	3037
289.983	2262
290.040	2091
290.098	1637
290.156	1872
290.214	1804
290.271	1112
290.329	1675
290.387	1321
290.444	544
290.502	678
290.560	648
290.617	807
290.675	847
290.733	302
290.790	969
290.848	1059
290.906	530
290.963	1076
291.021	480
291.078	792
291.136	1284
291.194	9534
291.251	19203
291.309	4444
291.366	2334
291.424	1656
291.481	1349
291.539	721
291.596	647
291.654	215
291.711	416
291.769	909
291.826	3475
291.884	1561
291.941	595
291.999	498
292.056	1560
292.114	952
292.171	468
292.228	2071
292.286	1021
292.343	3444
292.401	3594
292.458	1906
292.515	537
292.573	1760
292.630	1620
292.687	1005
292.745	1501
292.802	3943
292.859	9459
292.917	17864
292.974	8497
293.031	2288
293.089	1250
293.146	1833
293.203	1226
293.260	327
293.318	1121
293.375	3511
293.432	2026
293.489	1787
293.546	1091
293.604	4286
293.661	15731
293.718	44333
293.775	16073
293.832	6468
293.889	3310
293.947	3358
294.004	2459
294.061	2925
294.118	7292
294.175	18907
294.232	22754
294.289	7099
294.346	4660
294.403	4374
294.460	2296
294.517	2219
294.574	1962
294.631	2055
294.688	3775
294.745	13792
294.802	50354
294.859	44628
294.916	13168
294.973	5698
295.030	4921
295.087	3901
295.144	2775
295.201	3539
295.258	2957
295.315	5273
295.372	18198
295.429	34940
295.486	11205
295.542	7907
295.599	19827
295.656	31720
295.713	21665
295.770	28835
295.827	9688
295.883	4877
295.940	3856
295.997	6026
296.054	5025
296.111	2757
296.167	2616
296.224	920
296.281	1173
296.338	1553
296.394	1583
296.451	3806
296.508	12748
296.564	22434
296.621	15705
296.678	42615
296.734	54244
296.791	17303
296.848	8451
296.904	8801
296.961	17466
297.018	34208
297.074	22504
297.131	8470
297.187	6555
297.244	11888
297.301	45106
297.357	74607
297.414	22660
297.470	8413
297.527	6174
297.583	4807
297.640	3799
297.696	3845
297.753	2801
297.809	2683
297.866	499
297.922	1885
297.979	1822
298.035	2324
298.092	6182
298.148	18957
298.204	16187
298.261	8857
298.317	19109
298.374	51362
298.430	26441
298.486	9534
298.543	6014
298.599	5614
298.656	5450
298.712	12689
298.768	39865
298.824	27611
298.881	8664
298.937	5199
298.993	3348
299.050	5402
299.106	3948
299.162	3232
299.218	3509
299.275	2783
299.331	5667
299.387	11827
299.443	45305
299.500	44507
299.556	16136
299.612	8323
299.668	6302
299.724	10703
299.780	10662
299.837	6159
299.893	8750
299.949	30747
300.005	33987
300.061	33435
300.117	61399
300.173	27068
300.229	10579
300.285	9136
300.341	10037
300.397	6064
300.453	3273
300.510	3947
300.566	4397
300.622	7218
300.678	24168
300.734	37102
300.790	32047
300.845	42012
300.901	23609
300.957	30599
301.013	19815
301.069	7341
301.125	5845
301.181	5697
301.237	4532
301.293	2785
301.349	2158
301.405	1949
301.461	876
301.516	2205
301.572	2221
301.628	5105
301.684	4859
301.740	9148
301.796	15005
301.851	10171
301.907	17435
301.963	22293
302.019	46767
302.074	127326
302.130	111681
302.186	44002
302.242	17435
302.297	12182
302.353	11542
302.409	20430
302.464	16733
302.520	14348
302.576	37429
302.631	38927
302.687	18347
302.743	7901
302.798	4720
302.854	4835
302.910	4334
302.965	6181
303.021	8328
303.076	7656
303.132	8273
303.187	10386
303.243	5260
303.299	4185
303.354	2344
303.410	2919
303.465	2409
303.521	2639
303.576	3502
303.632	5409
303.687	12429
303.743	40094
303.798	29785
303.853	10528
303.909	4741
303.964	4600
304.020	5491
304.075	9154
304.130	7145
304.186	13661
304.241	13131
304.297	11054
304.352	5384
304.358	5156
304.407	3304
304.449	3796
304.463	3965
304.518	2879
304.539	2970
304.573	3128
304.629	4295
304.630	4405
304.684	9804
304.720	22998
304.739	29525
304.794	43660
304.811	36339
304.850	18642
304.902	8760
304.905	8155
304.960	4707
304.992	5444
305.015	5957
305.071	4752
305.083	4431
305.126	3351
305.173	2604
305.181	2480
305.236	2036
305.264	1891
305.292	1796
305.347	2477
305.354	2620
305.402	3568
305.445	3871
305.457	3925
305.512	6125
305.535	5688
305.567	5225
305.622	6941
305.626	7251
305.678	14939
305.716	31740
305.733	37585
305.788	40400
305.807	35009
305.843	26674
305.897	40241
305.898	40374
305.953	38832
305.988	24481
306.008	16670
306.063	8280
306.078	7095
306.118	5186
306.168	3578
306.173	3431
306.228	3737
306.259	3354
306.283	3244
306.338	2706
306.349	3013
306.393	4238
306.440	5057
306.448	5176
306.503	5299
306.530	5716
306.558	7197
306.613	13466
306.620	14342
306.668	20358
306.711	28074
306.723	28768
306.778	21703
306.801	16151
306.833	10089
306.888	5599
306.892	5394
306.943	4237
306.982	3906
306.997	3876
307.052	3804
307.072	3876
307.107	4209
307.162	5315
307.163	5330
307.217	7827
307.253	9521
307.272	9748
307.327	9997
307.343	9208
307.381	7870
307.434	8101
307.436	8380
307.491	16739
307.524	23835
307.546	25090
307.600	24394
307.614	21852
307.655	14363
307.704	9204
307.710	9119
307.765	10519
307.795	12452
307.819	14708
307.874	22908
307.885	23265
307.929	20926
307.975	19909
307.984	21616
308.038	37152
308.065	49150
308.093	89058
308.148	188627
308.156	209337
308.202	297632
308.246	341338
308.257	328182
308.312	167981
308.336	107869
308.366	76422
308.421	42811
308.426	40159
308.475	27117
308.517	19964
308.530	18631
308.585	15951
308.607	14850
308.639	14446
308.694	14965
308.697	15081
308.748	22712
308.787	31049
308.803	31055
308.857	24529
308.877	22040
308.912	20644
308.967	20950
308.967	20959
309.021	31153
309.058	40619
309.076	55543
309.130	108193
309.148	129508
309.185	243437
309.238	435928
309.239	436928
309.293	442798
309.328	390714
309.348	330270
309.402	147282
309.418	102035
309.457	68630
309.508	39215
309.511	38322
309.566	29702
309.598	25424
309.620	24653
309.674	24194
309.688	24349
309.729	22071
309.778	18251
309.783	17955
309.837	15235
309.868	14248
309.892	18227
309.946	29440
309.959	32709
310.001	39061
310.049	43109
310.055	41634
310.109	24700
310.139	15091
310.163	11757
310.218	7087
310.229	6260
310.272	5492
310.319	5297
310.326	5256
310.381	4637
310.409	4509
310.435	4537
310.489	4481
310.499	4499
310.543	4643
310.589	4856
310.598	4914
310.652	5244
310.679	5279
310.706	4602
310.760	3302
310.769	3121
310.814	3244
310.859	3251
310.868	3232
310.923	3116
310.948	3166
310.977	3641
311.031	4405
311.038	4505
311.085	3854
311.128	3175
311.139	3244
311.193	3620
311.218	3780
311.247	3604
311.301	3314
311.308	3271
311.356	3251
311.398	3139
311.410	3082
311.464	2825
311.488	2729
311.518	2921
311.572	3302
311.578	3331
311.626	4198
311.668	5027
311.680	5066
311.734	5151
311.758	5166
311.788	5052
311.842	4794
311.847	4767
311.896	6238
311.937	7495
311.950	7304
312.004	6418
312.027	5983
312.058	5450
312.112	4553
312.117	4458
312.165	4046
312.207	3692
312.297	5663
312.386	4166
312.476	4859
312.566	6896
312.656	4982
312.745	3196
312.835	5077
312.925	4738
313.015	4535
313.104	5217
313.194	4117
313.284	4473
313.374	4719
313.463	3829
313.553	4351
313.643	3781
313.732	4042
313.822	3614
313.912	4581
314.001	4621
314.091	5231
314.180	6034
314.270	6397
314.360	6359
314.449	5534
314.539	3774
314.628	3151
314.718	4982
314.808	5720
314.897	4011
314.987	3874
315.076	5039
315.166	6372
315.255	6447
315.345	6267
315.434	6039
315.524	6523
315.613	6995
315.703	9696
315.792	19198
315.881	64911
315.971	23622
316.060	12252
316.150	15614
316.239	15495
316.328	7251
316.418	4707
316.507	4670
316.597	6815
316.686	5971
316.775	8045
316.865	17241
316.954	5229
317.043	3456
317.133	3744
317.222	4260
317.311	4069
317.400	3304
317.490	6663
317.579	6089
317.668	6490
317.757	12208
317.847	33299
317.936	116205
318.025	38363
318.114	21190
318.203	11506
318.293	7772
318.382	10820
318.471	12230
318.560	23995
318.649	42275
318.738	9886
318.828	5953
318.917	7393
319.006	11030
319.095	28054
319.184	61336
319.273	27372
319.362	11183
319.451	5670
319.540	5263
319.629	11519
319.718	15896
319.807	10609
319.896	28268
319.985	74680
320.074	21880
320.163	7176
320.252	8970
320.341	9635
320.430	6309
320.519	8492
320.608	4930
320.697	5639
320.786	4999
320.875	7377
320.964	8401
321.053	12002
321.142	16122
321.230	17327
321.319	14404
321.408	28653
321.497	13532
321.586	12637
321.675	16925
321.764	15269
321.852	10844
321.941	16675
322.030	11708
322.119	15393
322.207	29831
322.296	26122
322.385	13698
322.474	17431
322.562	36332
322.651	18919
322.740	14702
322.829	19080
322.917	21911
323.006	11850
323.095	10006
323.183	9651
323.272	14417
323.361	28950
323.449	77876
323.538	28906
323.626	50847
323.715	32532
323.804	14212
323.892	44015
323.981	23232
324.069	9846
324.158	26057
324.246	23927
324.335	9412
324.424	11755
324.512	12483
324.601	34560
324.689	138310
324.778	299561
324.866	43913
324.954	9631
325.043	6383
325.131	11681
325.220	18540
325.308	20835
325.397	14880
325.485	8940
325.574	3590
325.662	4241
325.750	3351
325.839	4129
325.927	2975
326.015	4435
326.104	7807
326.192	11644
326.280	4437
326.369	4567
326.457	5281
326.545	8981
326.634	4340
326.722	3561
326.810	3328
326.898	4218
326.987	4895
327.075	10239
327.163	15518
327.251	29619
327.340	129548
327.428	220223
327.516	22034
327.604	6982
327.692	5706
327.781	6072
327.869	9497
327.957	7469
328.045	4719
328.133	4436
328.221	4427
328.309	4641
328.397	4382
328.485	6257
328.574	7946
328.662	19665
328.750	12098
328.838	5741
328.926	4021
329.014	3984
329.102	6049
329.190	12733
329.278	7950
329.366	3482
329.454	2970
329.542	4029
329.630	4374
329.718	5265
329.806	5706
329.893	8008
329.981	12106
330.069	34326
330.157	146833
330.245	271731
330.333	107829
330.421	18367
330.509	12998
330.597	25290
330.684	15512
330.772	8346
330.860	9785
330.948	11039
331.036	4699
331.123	3675
331.211	3475
331.299	5438
331.387	12882
331.475	14594
331.562	4763
331.650	3614
331.738	3574
331.825	5809
331.913	2976
332.001	3105
332.089	4860
332.176	9160
332.264	22818
332.352	16833
332.439	5318
332.527	4014
332.614	3564
332.702	5215
332.790	4738
332.877	10052
332.965	19274
333.052	4867
333.140	5059
333.228	8528
333.315	3500
333.403	5198
333.490	12766
333.578	10779
333.665	8191
333.753	6037
333.840	4563
333.928	6002
334.015	17168
334.103	37553
334.190	81286
334.278	20136
334.365	10989
334.452	8621
334.540	6218
334.627	7276
334.715	11171
334.802	24371
334.889	102526
334.977	101012
335.064	17662
335.151	7825
335.239	7350
335.326	12502
335.413	55277
335.501	48236
335.588	8186
335.675	6496
335.762	9891
335.850	11896
335.937	13504
336.024	36783
336.111	107659
336.199	47437
336.286	12189
336.373	5940
336.460	3773
336.547	5502
336.635	4577
336.722	4902
336.809	5039
336.896	7836
336.983	30012
337.070	66398
337.157	85855
337.245	61727
337.332	41973
337.419	6645
337.506	4109
337.593	6406
337.680	26280
337.767	45373
337.854	13865
337.941	13939
338.028	16914
338.115	7226
338.202	8001
338.289	18446
338.376	55235
338.463	20890
338.550	37344
338.637	26180
338.724	11178
338.811	15754
338.898	4919
338.984	3386
339.071	4410
339.158	8032
339.245	13544
339.332	7371
339.419	12031
339.506	9788
339.593	2938
339.679	3323
339.766	3104
339.853	4990
339.940	7900
340.027	3958
340.113	3543
340.200	5027
340.287	3602
340.374	5076
340.460	7127
340.547	3352
340.634	7077
340.720	23405
340.807	12320
340.894	3259
340.980	3951
341.067	3426
341.154	3773
341.240	5508
341.327	10074
341.414	4237
341.500	3072
341.587	3675
341.674	2979
341.760	7941
341.847	7894
341.933	3581
342.020	2300
342.106	2298
342.193	3965
342.279	5926
342.366	5295
342.452	7341
342.539	4830
342.625	12215
342.712	23763
342.798	10491
342.885	4103
342.971	1835
343.058	3373
343.144	2466
343.230	2323
343.317	2787
343.403	1595
343.490	2378
343.576	2659
343.662	3138
343.749	4414
343.835	9239
343.921	19058
344.008	112419
344.094	193821
344.180	35195
344.267	13828
344.353	44613
344.439	35827
344.525	11857
344.612	5873
344.698	6170
344.784	3573
344.870	2961
344.957	3481
345.043	4904
345.129	4353
345.215	7133
345.301	3996
345.387	3100
345.474	1881
345.560	2384
345.646	3653
345.732	3709
345.818	3173
345.904	3094
345.990	2989
346.076	4196
346.162	6016
346.249	4003
346.335	3085
346.421	6024
346.507	26591
346.593	59718
346.679	12339
346.765	3983
346.851	3490
346.937	2682
347.023	2885
347.108	4055
347.194	3273
347.280	2908
347.366	5873
347.452	29731
347.538	86524
347.624	52369
347.710	32274
347.796	5750
347.882	4277
347.967	4666
348.053	4643
348.139	3685
348.225	2624
348.311	2363
348.397	2807
348.482	4190
348.568	4204
348.654	3563
348.740	7319
348.825	6206
348.911	9921
348.997	47794
349.083	68368
349.168	10210
349.254	3441
349.340	2715
349.425	2443
349.511	4941
349.597	6388
349.682	14179
349.768	33759
349.854	13805
349.939	3212
350.025	2921
350.110	2405
350.196	2047
350.282	2127
350.367	2367
350.453	5246
350.538	5997
350.624	3786
350.709	4001
350.795	2113
350.880	3304
350.966	4285
351.051	4946
351.137	3722
351.222	3814
351.308	13590
351.393	24429
351.479	5682
351.564	1839
351.649	2765
351.735	2396
351.820	2292
351.906	4111
351.991	6747
352.076	20392
352.162	22309
352.247	5355
352.332	3800
352.418	6349
352.503	10846
352.588	38620
352.673	23501
352.759	6233
352.844	3511
352.929	4126
353.014	4733
353.100	4282
353.185	4339
353.270	8442
353.355	7259
353.441	2936
353.526	4189
353.611	8753
353.696	7654
353.781	5531
353.866	2730
353.952	3311
354.037	7871
354.122	17033
354.207	13843
354.292	5325
354.377	2602
354.462	2609
354.547	3913
354.632	4394
354.717	5880
354.802	4972
354.887	1961
354.972	2908
355.057	2470
355.142	2540
355.227	3852
355.312	5806
355.397	12616
355.482	25889
355.567	12801
355.652	10321
355.737	14680
355.822	45626
355.907	27295
355.991	5044
356.076	2479
356.161	3035
356.246	2564
356.331	5251
356.416	18909
356.501	101037
356.585	82106
356.670	10066
356.755	6294
356.840	12713
356.924	75779
357.009	222804
357.094	67925
357.179	11913
357.263	8289
357.348	7754
357.433	6480
357.517	7454
357.602	5926
357.687	5198
357.771	5331
357.856	5497
357.941	11832
358.025	71209
358.110	249847
358.195	93313
358.279	10957
358.364	9044
358.448	30320
358.533	70198
358.617	47692
358.702	48028
358.787	16018
358.871	9389
358.956	6055
359.040	3115
359.125	3372
359.209	2442
359.294	3672
359.378	4500
359.462	6205
359.547	5475
359.631	3540
359.716	2706
359.800	2977
359.885	5965
359.969	3411
360.053	5942
360.138	6337
360.222	5776
360.306	8194
360.391	6136
360.475	8057
360.559	17023
360.644	25079
360.728	20080
360.812	62224
360.896	135442
360.981	42176
361.065	16100
361.149	5790
361.233	5367
361.318	4696
361.402	5386
361.486	4551
361.570	4256
361.654	6177
361.739	20042
361.823	105120
361.907	131748
361.991	19993
362.075	11630
362.159	18711
362.243	17006
362.327	22280
362.411	26960
362.495	12782
362.580	6746
362.664	4976
362.748	6358
362.832	9179
362.916	20997
363.000	61509
363.084	148622
363.168	166681
363.252	33259
363.336	12061
363.420	20647
363.503	76920
363.587	61800
363.671	11057
363.755	7970
363.839	9428
363.923	6609
364.007	12090
364.091	15772
364.175	42451
364.258	123092
364.342	93327
364.426	105739
364.510	49525
364.594	20947
364.677	35694
364.761	133408
364.845	74560
364.929	18536
365.013	12989
365.096	12071
365.180	15014
365.264	44391
365.347	110388
365.431	35032
365.515	8169
365.598	4517
365.682	5067
365.766	10295
365.849	8685
365.933	5629
366.017	7737
366.100	5115
366.184	2316
366.267	4629
366.351	3438
366.435	2569
366.518	2128
366.602	2574
366.685	3232
366.769	3683
366.852	8500
366.936	11056
367.019	6407
367.103	7313
367.186	10156
367.270	4817
367.353	2353
367.436	3866
367.520	2786
367.603	4925
367.687	6037
367.770	10299
367.853	9277
367.937	35305
368.020	42910
368.104	9319
368.187	8662
368.270	11604
368.353	9786
368.437	15821
368.520	36762
368.603	22470
368.687	37379
368.770	52311
368.853	11097
368.936	11600
369.020	9613
369.103	3993
369.186	2605
369.269	3389
369.352	6884
369.436	9847
369.519	5256
369.602	2146
369.685	4337
369.768	4733
369.851	3684
369.934	2981
370.018	4272
370.101	8339
370.184	7396
370.267	5802
370.350	8411
370.433	17867
370.516	66293
370.599	75112
370.682	22740
370.765	27640
370.848	41215
370.931	75605
371.014	23714
371.097	5843
371.180	4052
371.263	3095
371.346	2576
371.429	4049
371.511	3037
371.594	6602
371.677	11269
371.760	12363
371.843	17218
371.926	105390
372.009	200878
372.091	48633
372.174	40345
372.257	84580
372.340	26196
372.423	18044
372.505	16760
372.588	9158
372.671	28538
372.754	74202
372.836	32189
372.919	36353
373.002	47536
373.085	11112
373.167	12596
373.250	37360
373.332	81405
373.415	144179
373.498	273421
373.580	89971
373.663	164095
373.746	184626
373.828	31302
373.911	12456
373.993	19218
374.076	62571
374.159	40876
374.241	24664
374.324	58529
374.406	38627
374.489	97229
374.571	217387
374.654	67892
374.736	47760
374.819	142601
374.901	204192
374.983	186910
375.066	29741
375.148	15314
375.231	62538
375.313	81228
375.395	22557
375.478	7213
375.560	6206
375.643	10102
375.725	48596
375.807	176795
375.890	106384
375.972	35609
376.054	19259
376.136	30267
376.219	16414
376.301	55348
376.383	129571
376.465	39536
376.548	21018
376.630	38949
376.712	100837
376.794	36255
376.877	5319
376.959	3421
377.041	4943
377.123	11150
377.205	9384
377.287	2166
377.369	4011
377.452	4004
377.534	3226
377.616	3162
377.698	3171
377.780	1666
377.862	3547
377.944	3198
378.026	2728
378.108	2716
378.190	3061
378.272	2681
378.354	1945
378.436	1641
378.518	7692
378.600	18646
378.682	17151
378.764	40971
378.846	25139
378.928	8296
379.010	9492
379.091	5334
379.173	3692
379.255	2477
379.337	5839
379.419	24684
379.501	56564
379.583	18799
379.664	5712
379.746	15520
379.828	38959
379.910	52318
379.991	39540
380.073	6918
380.155	4844
380.237	2949
380.318	2878
380.400	3432
380.482	7491
380.564	9560
380.645	8226
380.727	8412
380.809	5014
380.890	3244
380.972	2721
381.053	3260
381.135	5336
381.217	15993
381.298	37720
381.380	15653
381.461	25153
381.543	114981
381.624	111207
381.706	17607
381.787	8381
381.869	11766
381.951	69087
382.032	224824
382.113	105739
382.195	15687
382.276	11017
382.358	36341
382.439	99637
382.521	124802
382.602	185887
382.684	70797
382.765	113006
382.846	75823
382.928	58579
383.009	29043
383.090	30529
383.172	102870
383.253	130083
383.334	75484
383.416	136091
383.497	53883
383.578	17659
383.659	29490
383.741	107235
383.822	225102
383.903	100152
383.984	77111
384.066	143642
384.147	72331
384.228	14781
384.309	9936
384.390	7499
384.471	5319
384.553	6605
384.634	9297
384.715	9281
384.796	4938
384.877	10169
384.958	38638
385.039	37069
385.120	11274
385.201	6880
385.282	8687
385.363	8344
385.444	7492
385.525	22303
385.606	80794
385.687	55859
385.768	13827
385.849	21645
385.930	113902
386.011	170069
386.092	36603
386.173	8205
386.254	6471
386.335	7522
386.416	10609
386.496	26421
386.577	34226
386.658	13379
386.739	8634
386.820	8926
386.901	6650
386.981	7391
387.062	5863
387.143	13385
387.224	41821
387.304	31627
387.385	13183
387.466	8820
387.547	9445
387.627	8654
387.708	24546
387.789	87301
387.869	91357
387.950	23140
388.031	6419
388.111	5480
388.192	15075
388.273	18363
388.353	9583
388.434	8157
388.514	27048
388.595	112783
388.676	105770
388.756	38166
388.837	32420
388.917	17076
388.998	5281
389.078	7061
389.159	6203
389.239	4276
389.320	7727
389.400	6166
389.480	21083
389.561	46275
389.641	18028
389.722	8311
389.802	10753
389.883	25522
389.963	60822
390.043	29703
390.124	9784
390.204	17769
390.284	42536
390.365	28699
390.445	61216
390.525	183559
390.605	143560
390.686	27571
390.766	9438
390.846	6258
390.927	4154
391.007	4440
391.087	6295
391.167	6112
391.247	4430
391.328	9755
391.408	12997
391.488	8935
391.568	4515
391.648	8123
391.728	8908
391.808	9423
391.888	10191
391.969	30172
392.049	37102
392.129	18822
392.209	28000
392.289	57586
392.369	29160
392.449	26104
392.529	15548
392.609	16711
392.689	26528
392.769	65977
392.849	48572
392.929	49639
393.009	96043
393.089	76037
393.169	105260
393.248	387504
393.328	1274759
393.408	1210569
393.488	300184
393.568	81743
393.648	41587
393.728	27035
393.807	21874
393.887	21022
393.967	18543
394.047	20921
394.127	26909
394.206	55387
394.286	230947
394.366	815292
394.446	711903
394.525	148420
394.605	40608
394.685	30544
394.764	46389
394.844	67454
394.924	40598
395.003	16992
395.083	13637
395.163	12928
395.242	12027
395.322	12603
395.402	10587
395.481	16078
395.561	38412
395.640	76962
395.720	70431
395.799	98614
395.879	70282
395.958	85237
396.038	334023
396.117	1056368
396.197	965001
396.276	246810
396.356	77943
396.435	51684
396.515	39266
396.594	47269
396.673	97459
396.753	414030
396.832	1132512
396.912	695689
396.991	136586
397.070	42479
397.150	24594
397.229	20068
397.308	31658
397.388	41610
397.467	19010
397.546	10309
397.625	7665
397.705	10685
397.784	8734
397.863	7189
397.942	5965
398.022	8740
398.101	31800
398.180	65812
398.259	24237
398.338	7989
398.417	5812
398.497	5693
398.576	5282
398.655	3475
398.734	4489
398.813	6696
398.892	32636
398.971	75373
399.050	24612
399.129	3247
399.208	3407
399.287	4030
399.366	2274
399.445	3422
399.524	2512
399.603	2999
399.682	6961
399.761	30987
399.840	89436
399.919	49158
399.998	6658
400.077	2388
400.156	2287
400.235	5621
400.313	2668
400.392	5448
400.471	22217
400.550	28293
400.629	6938
400.708	4901
400.786	5829
400.865	14516
400.944	11283
401.023	6395
401.102	2140
401.180	2438
401.259	2281
401.338	3900
401.416	3692
401.495	3586
401.574	3892
401.652	3340
401.731	4436
401.810	2929
401.888	918
401.967	1496
402.046	1605
402.124	4250
402.203	5571
402.281	3270
402.360	6375
402.438	17581
402.517	8825
402.596	3843
402.674	3319
402.753	2835
402.831	2609
402.910	3170
402.988	11495
403.066	27085
403.145	11607
403.223	11704
403.302	20913
403.380	13627
403.459	12203
403.537	5064
403.615	3535
403.694	273
403.772	1609
403.850	2057
403.929	1492
404.007	2520
404.085	4266
404.164	3767
404.242	2356
404.320	9043
404.398	22181
404.477	42981
404.555	154435
404.633	106670
404.711	20063
404.789	6817
404.868	1408
404.946	1542
405.024	1913
405.102	2005
405.180	1262
405.258	1448
405.336	2179
405.415	2663
405.493	5502
405.571	4219
405.649	1706
405.727	2004
405.805	5306
405.883	3906
405.961	4441
406.039	3962
406.117	2431
406.195	7482
406.273	35095
406.351	110748
406.429	50211
406.507	8357
406.585	3345
406.663	3876
406.740	4237
406.818	3342
406.896	1913
406.974	3308
407.052	11401
407.130	66254
407.208	72647
407.285	13071
407.363	2144
407.441	3131
407.519	2362
407.596	4919
407.674	21788
407.752	74389
407.830	52888
407.907	10826
407.985	3244
408.063	3350
408.141	3432
408.218	5237
408.296	3564
408.373	1842
408.451	2937
408.529	3054
408.606	1424
408.684	1968
408.762	1570
408.839	1452
408.917	1008
408.994	1665
409.072	913
409.149	2827
409.227	4724
409.304	5780
409.382	6628
409.459	7584
409.537	9856
409.614	8371
409.692	5590
409.769	6995
409.846	10859
409.924	12714
410.001	7341
410.079	5731
410.156	5901
410.233	5773
410.311	4497
410.388	3178
410.465	2111
410.543	2409
410.620	2167
410.697	3108
410.775	3004
410.852	1512
410.929	3458
411.006	3990
411.083	2516
411.161	3753
411.238	4643
411.315	2502
411.392	2061
411.469	3666
411.547	1677
411.624	1051
411.701	863
411.778	3727
411.855	5466
411.932	2837
412.009	881
412.086	1856
412.163	2517
412.240	3249
412.317	3518
412.394	2946
412.471	1482
412.548	1440
412.625	973
412.702	3425
412.779	4269
412.856	3352
412.933	810
413.010	2255
413.087	4885
413.164	19996
413.241	20526
413.318	4131
413.395	4024
413.471	4085
413.548	1266
413.625	2621
413.702	1751
413.779	2327
413.855	897
413.932	1459
414.009	-347
414.086	1278
414.162	1816
414.239	5293
414.316	21428
414.393	38480
414.469	9516
414.546	1310
414.623	712
414.699	2101
414.776	1496
414.853	1353
414.929	1882
415.006	1873
415.082	2253
415.159	1618
415.236	1618
415.312	2570
415.389	3605
415.465	4710
415.542	2023
415.618	1591
415.695	3277
415.771	2516
415.848	2018
415.924	1227
416.000	1267
416.077	2391
416.153	724
416.230	9
416.306	1111
416.383	1320
416.459	1593
416.535	-38
416.612	1142
416.688	1638
416.764	805
416.841	873
416.917	920
416.993	1386
417.069	1626
417.146	4089
417.222	5736
417.298	1931
417.374	704
417.451	2032
417.527	2042
417.603	2171
417.679	1800
417.755	1232
417.831	340
417.908	699
417.984	225
418.060	785
418.136	4761
418.212	4170
418.288	2205
418.364	1740
418.440	706
418.516	3576
418.592	5363
418.668	8622
418.744	10660
418.820	7926
418.896	2237
418.972	756
419.048	1190
419.124	5405
419.200	2792
419.276	1696
419.352	937
419.428	1725
419.504	1104
419.579	1928
419.655	1250
419.731	2414
419.807	7597
419.883	12736
419.959	8051
420.034	3212
420.110	7797
420.186	26288
420.262	15250
420.337	3965
420.413	2567
420.489	2650
420.565	2054
420.640	1403
420.716	2761
420.792	1657
420.867	2315
420.943	2035
421.019	3523
421.094	3172
421.170	2671
421.245	2174
421.321	3456
421.397	4037
421.472	14346
421.548	39169
421.623	20622
421.699	5854
421.774	6584
421.850	6158
421.925	9293
422.001	9115
422.076	9564
422.152	12283
422.227	16668
422.302	23913
422.378	35790
422.453	72962
422.529	204669
422.604	590209
422.679	863085
422.755	468180
422.830	141693
422.905	58172
422.981	32095
423.056	21357
423.131	16173
423.207	12600
423.282	10540
423.357	13405
423.432	8854
423.508	9649
423.583	13772
423.658	9594
423.733	5929
423.808	5517
423.883	7482
423.959	6936
424.034	6146
424.109	5501
424.184	4607
424.259	3162
424.334	2000
424.409	2256
424.484	1497
424.559	2562
424.634	1658
424.709	2215
424.784	3880
424.859	2856
424.934	4854
425.009	18417
425.084	26115
425.159	7702
425.234	2190
425.309	819
425.384	717
425.459	1144
425.534	1793
425.609	1858
425.683	1332
425.758	1040
425.833	1218
425.908	2743
425.983	11212
426.058	28194
426.132	9476
426.207	3273
426.282	5403
426.357	3653
426.431	673
426.506	1985
426.581	1286
426.655	2124
426.730	456
426.805	1597
426.879	1954
426.954	2333
427.029	5838
427.103	37217
427.178	82985
427.253	28638
427.327	4039
427.402	3898
427.476	4913
427.551	2530
427.625	2139
427.700	2659
427.774	582
427.849	2982
427.923	960
427.998	1552
428.072	3133
428.147	10281
428.221	60402
428.296	160570
428.370	61088
428.444	7954
428.519	7859
428.593	13974
428.667	11240
428.742	14768
428.816	22033
428.890	106999
428.965	123387
429.039	28852
429.113	14904
429.188	4626
429.262	2486
429.336	5135
429.410	13679
429.485	8982
429.559	11266
429.633	7635
429.707	4024
429.781	19886
429.855	106679
429.930	117588
430.004	49652
430.078	70207
430.152	87120
430.226	248941
430.300	186685
430.374	24386
430.448	9924
430.522	30662
430.596	67254
430.670	50004
430.744	164212
430.818	163734
430.892	25361
430.966	4328
431.040	3004
431.114	1161
431.188	1094
431.262	1765
431.336	1717
431.410	7683
431.484	15231
431.557	8223
431.631	2491
431.705	6009
431.779	41765
431.853	149818
431.927	72147
432.000	8583
432.074	2572
432.148	2978
432.222	2845
432.295	1317
432.369	1039
432.443	5843
432.516	40770
432.590	85657
432.664	24177
432.737	2271
432.811	589
432.885	272
432.958	965
433.032	688
433.106	303
433.179	335
433.253	295
433.326	763
433.400	289
433.473	734
433.547	-97
433.620	1139
433.694	2299
433.767	2758
433.841	-433
433.914	1130
433.988	46
434.061	421
434.134	652
434.208	385
434.281	-175
434.355	-246
434.428	-19
434.501	326
434.575	783
434.648	-58
434.721	-372
434.795	313
434.868	-120
434.941	31
435.014	-23
435.088	-228
435.161	667
435.234	2201
435.307	2874
435.381	1156
435.454	1915
435.527	4726
435.600	4423
435.673	3679
435.746	2507
435.819	2280
435.892	1217
435.966	393
436.039	1037
436.112	1662
436.185	352
436.258	36
436.331	-799
436.404	299
436.477	-259
436.550	22
436.623	353
436.696	425
436.769	867
436.842	267
436.915	1357
436.987	1062
437.060	-211
437.133	439
437.206	536
437.279	175
437.352	36
437.425	1138
437.498	1397
437.570	3851
437.643	1402
437.716	454
437.789	184
437.861	1160
437.934	2054
438.007	612
438.080	498
438.152	2118
438.225	7597
438.298	61143
438.370	141232
438.443	39953
438.516	5231
438.588	1434
438.661	-457
438.734	939
438.806	1233
438.879	995
438.951	594
439.024	639
439.096	-293
439.169	706
439.241	505
439.314	284
439.386	2104
439.459	2943
439.531	2725
439.604	819
439.676	69
439.749	163
439.821	-210
439.893	-220
439.966	439
440.038	571
440.110	1271
440.183	455
440.255	661
440.327	3401
440.400	20702
440.472	72887
440.544	34606
440.617	3937
440.689	1777
440.761	1945
440.833	2109
440.905	1584
440.978	1263
441.050	113
441.122	714
441.194	704
441.266	613
441.338	399
441.411	2720
441.483	19174
441.555	20421
441.627	4156
441.699	2954
441.771	2433
441.843	515
441.915	741
441.987	644
442.059	797
442.131	1318
442.203	2508
442.275	4037
442.347	5322
442.419	11839
442.491	73092
442.563	134785
442.635	39819
442.706	17903
442.778	9038
442.850	2107
442.922	1624
442.994	2469
443.066	3962
443.137	3095
443.209	3889
443.281	6949
443.353	19593
443.425	95776
443.496	293366
443.568	216532
443.640	60479
443.711	10398
443.783	3925
443.855	2345
443.926	2815
443.998	1836
444.070	2340
444.141	1566
444.213	2879
444.285	3738
444.356	3042
444.428	2725
444.499	924
444.571	408
444.642	1070
444.714	1502
444.785	2775
444.857	4870
444.928	10381
445.000	4918
445.071	7868
445.143	7802
445.214	7228
445.285	15885
445.357	50288
445.428	218597
445.500	408656
445.571	200582
445.642	92144
445.714	29606
445.785	18568
445.856	4983
445.928	4331
445.999	1767
446.070	2147
446.141	2229
446.213	3100
446.284	1475
446.355	2576
446.426	1205
446.497	1048
446.569	3240
446.640	4169
446.711	1302
446.782	829
446.853	1658
446.924	2025
446.995	772
447.066	2072
447.138	2955
447.209	1402
447.280	-543
447.351	53
447.422	-530
447.493	1764
447.564	1146
447.635	1699
447.706	239
447.777	468
447.847	303
447.918	-4
447.989	952
448.060	2140
448.131	6771
448.202	3667
448.273	1729
448.344	906
448.414	382
448.485	696
448.556	-16
448.627	163
448.698	103
448.768	-377
448.839	-26
448.910	2549
448.981	2161
449.051	480
449.122	422
449.193	-56
449.263	494
449.334	1097
449.405	1513
449.475	4608
449.546	2985
449.616	4746
449.687	3138
449.758	1934
449.828	400
449.899	556
449.969	274
450.040	322
450.110	1761
450.181	1708
450.251	188
450.322	654
450.392	978
450.463	1415
450.533	449
450.604	693
450.674	856
450.744	1562
450.815	183
450.885	1062
450.955	756
451.026	141
451.096	-253
451.166	1174
451.237	4215
451.307	10058
451.377	2845
451.447	791
451.518	-571
451.588	803
451.658	1054
451.728	3183
451.799	12311
451.869	9570
451.939	1539
452.009	-186
452.079	-96
452.149	854
452.219	3196
452.289	14018
452.360	6129
452.430	1313
452.500	627
452.570	1951
452.640	4680
452.710	15631
452.780	16745
452.850	9670
452.920	5834
452.990	2129
453.060	1348
453.129	1703
453.199	3366
453.269	20595
453.339	29721
453.409	38899
453.479	54253
453.549	67124
453.619	65119
453.688	16948
453.758	3501
453.828	1595
453.898	800
453.968	728
454.037	274
454.087	621
454.107	732
454.168	585
454.177	527
454.247	847
454.249	861
454.316	496
454.330	689
454.386	1354
454.411	3762
454.456	7201
454.492	7191
454.525	7062
454.574	3319
454.595	1717
454.655	1346
454.665	1318
454.734	2284
454.736	2424
454.804	5616
454.817	7322
454.873	12665
454.898	12199
454.943	10443
454.979	6826
455.013	3971
455.060	2309
455.082	1972
455.141	3921
455.152	4187
455.221	12825
455.222	13040
455.291	16691
455.303	16989
455.360	17544
455.384	22881
455.430	30208
455.465	22845
455.499	15853
455.546	13877
455.569	12469
455.627	6586
455.638	5659
455.707	1796
455.708	1822
455.777	1444
455.789	1563
455.846	1813
455.869	1657
455.916	1340
455.950	1393
455.985	1318
456.031	1759
456.054	1959
456.112	1246
456.124	1103
456.193	655
456.193	627
456.262	1975
456.274	2228
456.332	3125
456.355	3119
456.401	2704
456.436	2165
456.470	1518
456.516	1008
456.540	859
456.597	1478
456.609	1595
456.678	1725
456.678	1703
456.747	1836
456.759	1772
456.817	1360
456.840	1287
456.886	935
456.920	1204
456.955	1658
457.001	1958
457.024	2150
457.082	2681
457.093	2738
457.162	3066
457.163	3100
457.232	3739
457.243	3691
457.301	3174
457.324	2754
457.370	2034
457.405	2216
457.439	2582
457.485	2952
457.508	3201
457.566	4155
457.577	4283
457.646	4524
457.647	4570
457.715	8417
457.727	9174
457.784	16942
457.808	22408
457.853	29826
457.889	33990
457.922	30476
457.969	19305
457.991	19408
458.050	25632
458.060	27560
458.129	48729
458.130	49329
458.198	47942
458.211	44393
458.267	21678
458.292	14333
458.336	10861
458.372	9603
458.405	12978
458.453	19151
458.474	26102
458.533	50483
458.543	53095
458.611	83441
458.614	84038
458.680	46336
458.694	37027
458.749	16381
458.775	10518
458.818	7822
458.855	6155
458.887	5389
458.936	4805
458.955	4621
459.016	4462
459.024	4462
459.093	4497
459.097	4487
459.162	4261
459.177	4288
459.230	4511
459.257	4968
459.299	5034
459.338	4930
459.368	5290
459.418	5686
459.437	5345
459.499	4172
459.505	4164
459.574	4253
459.579	4281
459.643	3882
459.659	3731
459.711	3773
459.740	3979
459.780	4449
459.820	4893
459.849	5066
459.900	5618
459.917	5654
459.981	5306
459.986	5225
460.054	4572
460.061	4495
460.123	4567
460.141	4755
460.191	6093
460.222	6714
460.260	7020
460.302	7589
460.328	7279
460.382	6441
460.397	6546
460.462	6932
460.465	7107
460.534	11866
460.543	12533
460.602	43321
460.623	54974
460.671	92587
460.703	126373
460.739	123123
460.783	101689
460.808	76912
460.864	13061
460.876	9918
460.944	5661
460.945	5636
461.013	5847
461.024	5837
461.081	5314
461.104	5450
461.150	5916
461.184	5728
461.218	5510
461.264	5505
461.286	5733
461.345	6060
461.355	5999
461.423	6366
461.425	6358
461.491	6651
461.505	6811
461.559	10588
461.585	12372
461.628	21572
461.665	30358
461.696	34336
461.745	41809
461.764	35687
461.825	10572
461.832	9982
461.901	6426
461.905	6281
461.969	6878
461.985	7009
462.037	6556
462.065	6328
462.105	7105
462.145	7953
462.173	11002
462.225	16418
462.241	18284
462.305	27301
462.310	26653
462.378	15248
462.385	13797
462.446	8706
462.465	7504
462.514	7772
462.545	7706
462.582	7481
462.625	7589
462.650	7603
462.705	7267
462.718	7441
462.785	8766
462.786	8817
462.854	11197
462.865	11671
462.922	14817
462.945	15998
462.990	12228
463.025	8829
463.058	7860
463.104	6985
463.126	7078
463.184	7251
463.194	7398
463.262	8213
463.264	8252
463.330	9279
463.344	9412
463.398	10543
463.424	11177
463.466	10008
463.504	8856
463.533	9169
463.583	9374
463.601	9365
463.663	9804
463.669	10052
463.737	12543
463.743	12779
463.805	18357
463.823	19899
463.873	30122
463.903	36685
463.940	40512
463.982	44816
464.008	36234
464.062	16416
464.076	15161
464.142	9463
464.144	9450
464.211	8830
464.221	8807
464.279	9807
464.301	10115
464.347	11704
464.381	12918
464.414	12927
464.461	12887
464.482	13575
464.540	15528
464.550	15022
464.617	10610
464.620	10467
464.685	12116
464.699	12381
464.753	15077
464.779	16459
464.820	18989
464.859	21343
464.888	20865
464.938	19720
464.956	19915
465.018	20717
465.023	20473
465.091	16649
465.098	16225
465.158	16364
465.177	16497
465.226	16659
465.257	16520
465.293	17017
465.336	17679
465.361	18825
465.416	21178
465.428	22054
465.495	26797
465.496	26936
465.563	41508
465.575	44044
465.631	56434
465.654	61551
465.698	42515
465.734	26145
465.765	23673
465.813	20201
465.833	20418
465.893	21144
465.900	21237
465.968	21698
465.972	21687
466.035	21761
466.052	21759
466.102	23527
466.131	24426
466.170	24352
466.210	24138
466.237	25170
466.290	27219
466.304	27564
466.369	28677
466.372	28806
466.439	31076
466.449	31339
466.506	33491
466.528	34204
466.573	39714
466.607	43788
466.641	55208
466.687	70897
466.708	78638
466.766	99729
466.775	94397
466.842	52559
466.845	50469
466.909	42324
466.925	40313
466.977	39632
467.004	39165
467.044	39337
467.083	39356
467.111	40448
467.163	42271
467.178	43298
467.242	47126
467.245	46925
467.312	40737
467.321	39831
467.379	40612
467.400	40771
467.446	41099
467.480	41179
467.559	38335
467.638	32254
467.717	31827
467.796	31145
467.875	32087
467.955	32129
468.034	38306
468.113	73224
468.192	110787
468.271	45036
468.350	31988
468.429	33138
468.508	34152
468.588	29494
468.667	30416
468.746	38024
468.825	35401
468.904	23510
468.983	23691
469.062	31885
469.141	39152
469.220	21594
469.299	20357
469.378	22649
469.456	27304
469.535	24937
469.614	23901
469.693	23869
469.772	27477
469.851	34378
469.930	28956
470.009	20041
470.088	19630
470.166	19684
470.245	21330
470.324	21855
470.403	20792
470.482	19393
470.560	18183
470.639	19081
470.718	22405
470.797	19075
470.875	22510
470.954	31936
471.033	38918
471.111	18910
471.190	17812
471.269	15205
471.347	17422
471.426	17776
471.505	19278
471.583	21596
471.662	21325
471.740	18321
471.819	19098
471.898	17617
471.976	19035
472.055	17268
472.133	18638
472.212	23956
472.290	25240
472.369	18284
472.447	16590
472.526	15203
472.604	16839
472.683	15658
472.761	17011
472.839	17093
472.918	15864
472.996	15530
473.075	17704
473.153	18483
473.231	16769
473.310	17391
473.388	18381
473.466	17198
473.545	19126
473.623	22451
473.701	22484
473.780	17389
473.858	20171
473.936	24664
474.014	19170
474.093	18065
474.171	24958
474.249	33792
474.327	25697
474.405	15663
474.484	16524
474.562	15399
474.640	16624
474.718	18286
474.796	23327
474.874	21972
474.952	20073
475.030	19594
475.108	22440
475.187	27952
475.265	28797
475.343	26163
475.421	25484
475.499	19558
475.577	19058
475.655	20719
475.733	35881
475.811	62751
475.889	59362
475.966	45299
476.044	16236
476.122	15368
476.200	17724
476.278	17377
476.356	13705
476.434	14579
476.512	14872
476.590	16683
476.667	16953
476.745	13252
476.823	14820
476.901	14276
476.979	15259
477.056	15182
477.134	17016
477.212	19896
477.290	15897
477.367	12606
477.445	13707
477.523	12326
477.601	12351
477.678	11589
477.756	15719
477.834	17049
477.911	12913
477.989	12736
478.066	12473
478.144	13704
478.222	14357
478.299	14995
478.377	17284
478.454	13479
478.532	13319
478.609	12156
478.687	13205
478.764	11425
478.842	13062
478.919	13200
478.997	13537
479.074	11223
479.152	13557
479.229	17714
479.307	14009
479.384	9819
479.461	11679
479.539	11605
479.616	14796
479.694	11868
479.771	13026
479.848	13814
479.926	18305
480.003	20921
480.080	11840
480.157	10781
480.235	10360
480.312	10755
480.389	12514
480.467	19293
480.544	28038
480.621	16948
480.698	12892
480.775	13570
480.853	15479
480.930	13596
481.007	13362
481.084	15765
481.161	20883
481.238	18075
481.315	11719
481.392	11998
481.470	14893
481.547	17659
481.624	14343
481.701	11492
481.778	12320
481.855	13285
481.932	20179
482.009	33684
482.086	26641
482.163	14354
482.240	14861
482.317	18089
482.393	19137
482.470	14033
482.547	13847
482.624	12029
482.701	11936
482.778	13651
482.855	12579
482.932	10410
483.009	10402
483.085	13158
483.162	17220
483.239	15995
483.316	12477
483.393	13190
483.469	12141
483.546	14331
483.623	16201
483.699	13019
483.776	13586
483.853	16150
483.930	21829
484.006	48045
484.083	91739
484.160	53895
484.236	74488
484.313	61795
484.389	45619
484.466	39601
484.543	39486
484.619	38975
484.696	41591
484.772	40456
484.849	42070
484.925	34988
485.002	35199
485.078	35549
485.155	36436
485.231	32241
485.308	32245
485.384	34199
485.461	38193
485.537	57938
485.614	74480
485.690	35350
485.766	30639
485.843	30985
485.919	36063
485.995	40059
486.072	29672
486.148	27648
486.224	28331
486.301	29007
486.377	32098
486.453	30723
486.530	32459
486.606	43902
486.682	50145
486.758	53640
486.835	63476
486.911	47949
486.987	71940
487.063	69672
487.139	73876
487.215	61710
487.292	41455
487.368	35604
487.444	39925
487.520	44382
487.596	53615
487.672	74473
487.748	180453
487.824	326164
487.900	162446
487.976	56636
488.052	41224
488.128	39945
488.204	35520
488.280	32937
488.356	39402
488.432	61712
488.508	103642
488.584	44181
488.660	28086
488.736	28853
488.812	27631
488.888	34171
488.964	38831
489.039	59025
489.115	94579
489.191	71148
489.267	30823
489.343	27747
489.418	25673
489.494	24408
489.570	23621
489.646	25980
489.722	26358
489.797	26464
489.873	34202
489.949	71974
490.024	74585
490.100	25275
490.176	24313
490.251	25302
490.327	31646
490.403	23616
490.478	22596
490.554	19894
490.629	22582
490.705	20209
490.781	22522
490.856	21206
490.932	25168
491.007	23351
491.083	25369
491.158	22832
491.234	27348
491.309	53106
491.385	65110
491.460	25044
491.536	24258
491.611	22295
491.686	23015
491.762	25618
491.837	40753
491.913	66324
491.988	84523
492.063	116602
492.139	49334
492.214	33341
492.289	19092
492.365	15364
492.440	21696
492.515	20199
492.590	21365
492.666	17002
492.741	21353
492.816	34263
492.891	22483
492.967	17888
493.042	15264
493.117	18235
493.192	18666
493.267	24882
493.342	71219
493.418	118791
493.493	32596
493.568	15568
493.643	15549
493.718	18422
493.793	26032
493.868	28311
493.943	18828
494.018	16655
494.093	15241
494.168	15426
494.243	14461
494.318	13075
494.393	13872
494.468	14197
494.543	13703
494.618	15354
494.693	14311
494.768	14259
494.842	17156
494.917	12349
494.992	15384
495.067	14406
495.142	13228
495.217	15442
495.292	15786
495.366	17273
495.441	20682
495.516	23871
495.591	28164
495.665	64684
495.740	171872
495.815	102253
495.890	25968
495.964	19293
496.039	22522
496.114	22029
496.188	26218
496.263	28477
496.338	22372
496.412	24787
496.487	28772
496.561	26895
496.636	31147
496.710	29313
496.785	30963
496.860	35727
496.934	32306
497.009	31742
497.083	33872
497.158	36212
497.232	40895
497.307	49069
497.381	51207
497.455	57064
497.530	72252
497.604	65292
497.679	69017
497.753	92542
497.827	122847
497.902	128914
497.976	138333
498.050	185096
498.125	526669
498.199	683984
498.273	184650
498.348	150106
498.422	134330
498.496	120817
498.570	108827
498.645	95396
498.719	88775
498.793	83671
498.867	94839
498.941	106278
499.016	190775
499.090	571882
499.164	280949
499.238	50862
499.312	39645
499.386	41925
499.460	40863
499.534	35918
499.609	39261
499.683	51978
499.757	52055
499.831	77112
499.905	322808
499.979	399610
500.053	63190
500.127	51024
500.201	35219
500.275	26399
500.349	26384
500.422	27121
500.496	34577
500.570	58218
500.644	152798
500.718	376152
500.792	111257
500.866	25096
500.940	30167
501.013	26547
501.087	23893
501.161	36074
501.235	46656
501.309	87706
501.382	277767
501.456	313168
501.530	59822
501.603	98032
501.677	48228
501.751	18353
501.825	20827
501.898	33844
501.972	112234
502.046	90327
502.119	23836
502.193	41875
502.266	125825
502.340	74294
502.413	47425
502.487	110703
502.561	68761
502.634	24525
502.708	16943
502.781	15070
502.855	13741
502.928	11138
503.002	12733
503.075	10953
503.149	13658
503.222	14294
503.295	17174
503.369	19704
503.442	24037
503.516	67067
503.589	215231
503.662	166659
503.736	47478
503.809	95198
503.882	94474
503.956	114063
504.029	137142
504.102	100025
504.175	158441
504.249	79033
504.322	35376
504.395	25384
504.468	17112
504.542	15708
504.615	13415
504.688	12355
504.761	9724
504.834	13634
504.907	13989
504.980	21075
505.053	14105
505.127	12204
505.200	18279
505.273	18861
505.346	13375
505.419	9684
505.492	9939
505.565	8546
505.638	8722
505.711	8892
505.784	8548
505.857	7662
505.930	9661
506.003	7972
506.076	11645
506.149	13623
506.221	19121
506.294	15796
506.367	34340
506.440	147786
506.513	102198
506.586	20712
506.659	13159
506.731	8576
506.804	10160
506.877	14651
506.950	13477
507.022	8510
507.095	11252
507.168	16446
507.241	10492
507.313	8332
507.386	8286
507.459	10411
507.531	9715
507.604	7863
507.677	9435
507.749	6957
507.822	12505
507.894	20634
507.967	30331
508.040	18818
508.112	15972
508.185	14273
508.257	12801
508.330	16317
508.402	14014
508.475	13397
508.547	14661
508.620	14261
508.692	21869
508.765	15766
508.837	12090
508.909	10987
508.982	11614
509.054	11922
509.127	11425
509.199	9230
509.271	10166
509.344	9453
509.416	10558
509.488	9930
509.560	11046
509.633	10350
509.705	11078
509.777	11103
509.849	15085
509.922	11746
509.994	11729
510.066	10839
510.138	13460
510.210	26368
510.283	26504
510.355	21112
510.427	17981
510.499	19757
510.571	23070
510.643	16667
510.715	20350
510.787	19191
510.859	16710
510.931	17311
511.003	19556
511.076	19513
511.148	14871
511.219	14869
511.291	20430
511.363	27920
511.435	14657
511.507	13367
511.579	13782
511.651	13679
511.723	13414
511.795	12420
511.867	13099
511.939	15749
512.010	28953
512.082	28664
512.154	13664
512.226	15281
512.298	19797
512.369	30756
512.441	24957
512.513	21590
512.585	18543
512.656	17444
512.728	18730
512.800	15282
512.871	15469
512.943	15888
513.015	15116
513.086	15042
513.158	15176
513.230	15615
513.301	19929
513.373	22003
513.444	16240
513.516	13276
513.588	13571
513.659	14880
513.731	17427
513.802	14623
513.874	23661
513.945	39861
514.016	22708
514.088	13594
514.159	15847
514.231	17474
514.302	27226
514.374	23180
514.445	21171
514.516	35263
514.588	32990
514.659	21304
514.730	35090
514.802	34148
514.873	37715
514.944	48156
515.016	35715
515.087	30756
515.158	32906
515.229	46485
515.301	47389
515.372	77823
515.443	58219
515.514	36843
515.585	25857
515.656	21510
515.728	18436
515.799	16623
515.870	17540
515.941	15584
516.012	16631
516.083	20534
516.154	21850
516.225	21922
516.296	22619
516.367	18943
516.438	19331
516.509	22417
516.580	26795
516.651	49080
516.722	185218
516.793	133431
516.864	30485
516.935	28754
517.006	31006
517.077	36481
517.148	64546
517.219	158534
517.289	351215
517.360	188523
517.431	80656
517.502	19905
517.573	19300
517.643	17701
517.714	20568
517.785	21648
517.856	20121
517.926	23616
517.997	24599
518.068	28535
518.138	35876
518.209	42166
518.280	108603
518.350	470797
518.421	285701
518.492	43977
518.562	33327
518.633	36291
518.703	43276
518.774	71213
518.845	168834
518.915	205078
518.986	77360
519.056	40227
519.127	45779
519.197	59840
519.268	151347
519.338	130723
519.408	29880
519.479	25713
519.549	22015
519.620	16229
519.690	13560
519.760	13694
519.831	13974
519.901	13372
519.971	12671
520.042	12791
520.112	16428
520.182	15109
520.253	17689
520.323	13529
520.393	13661
520.463	15731
520.534	11595
520.604	20202
520.674	16607
520.744	16723
520.814	22030
520.885	24975
520.955	42554
521.025	187285
521.095	102830
521.165	17206
521.235	15663
521.305	13130
521.375	12135
521.445	12653
521.515	15027
521.585	15710
521.655	17014
521.725	15119
521.795	18238
521.865	14308
521.935	18576
522.005	18455
522.075	11820
522.145	13194
522.215	14450
522.285	19523
522.355	24808
522.424	46607
522.494	47877
522.564	23092
522.634	26315
522.704	77183
522.774	43434
522.843	13693
522.913	13119
522.983	14259
523.053	12121
523.122	12488
523.192	13837
523.262	36849
523.331	50994
523.401	15733
523.471	10311
523.540	9846
523.610	9114
523.680	8839
523.749	10595
523.819	12416
523.888	14384
523.958	8800
524.027	10462
524.097	10257
524.166	9860
524.236	9161
524.305	11990
524.375	9585
524.444	8876
524.514	10714
524.583	10330
524.653	12554
524.722	15560
524.791	10389
524.861	12486
524.930	9389
524.999	10134
525.069	13479
525.138	12387
525.207	14513
525.277	12013
525.346	11621
525.415	11423
525.484	11854
525.554	14486
525.623	16954
525.692	17622
525.761	18282
525.830	21467
525.900	27162
525.969	40321
526.038	66729
526.107	112887
526.176	377723
526.245	401758
526.314	121394
526.383	178116
526.452	306738
526.522	406301
526.591	576874
526.660	124302
526.729	66666
526.797	66454
526.867	94311
526.935	318248
527.004	889564
527.073	778133
527.142	87424
527.211	30570
527.280	21267
527.349	19589
527.418	11831
527.487	12221
527.555	9565
527.624	9143
527.693	8429
527.762	10763
527.831	7910
527.899	9173
527.968	9003
528.037	8093
528.106	8857
528.174	16462
528.243	14676
528.312	18512
528.380	26398
528.449	11198
528.518	8493
528.586	5666
528.655	7343
528.723	6764
528.792	5819
528.861	6625
528.929	6782
528.998	7684
529.066	6227
529.135	7704
529.203	6327
529.272	7002
529.340	8146
529.409	8816
529.477	7213
529.545	9075
529.614	12435
529.682	10909
529.751	15502
529.819	14155
529.887	11723
529.956	8528
530.024	9764
530.092	6990
530.161	9610
530.229	13207
530.297	9692
530.365	9448
530.434	7611
530.502	7139
530.570	6673
530.638	5862
530.707	7868
530.775	10215
530.843	7741
530.911	7773
530.979	7744
531.047	8199
531.115	8288
531.183	8876
531.252	8166
531.320	8566
531.388	6869
531.456	8910
531.524	6568
531.592	8199
531.660	10253
531.728	7669
531.796	6939
531.864	8498
531.932	7713
532.000	7969
532.067	7562
532.135	9899
532.203	10568
532.271	9856
532.339	14712
532.407	33073
532.475	28542
532.542	15364
532.610	13546
532.678	16554
532.746	46832
532.814	163318
532.881	54668
532.949	13128
533.017	10091
533.084	8616
533.152	8820
533.220	8143
533.287	8479
533.355	9509
533.423	7921
533.490	7590
533.558	8239
533.625	9514
533.693	9996
533.761	9854
533.828	10140
533.896	8755
533.963	14369
534.031	18220
534.098	22500
534.166	15526
534.233	9869
534.300	11382
534.368	11175
534.435	11104
534.503	11282
534.570	13204
534.637	14845
534.705	18372
534.772	21348
534.840	32669
534.907	141227
534.974	279555
535.041	45423
535.109	18347
535.176	11375
535.243	10627
535.310	9401
535.378	9681
535.445	8666
535.512	8226
535.579	7714
535.646	8749
535.714	8388
535.781	11874
535.848	10642
535.915	10655
535.982	10061
536.049	10475
536.116	10238
536.183	9526
536.250	8955
536.317	9752
536.384	10802
536.451	14511
536.518	15025
536.585	11468
536.652	14335
536.719	16942
536.786	14353
536.853	12766
536.920	17166
536.987	23497
537.053	21408
537.120	65311
537.187	82043
537.254	13836
537.321	9224
537.388	10675
537.454	7770
537.521	8867
537.588	8280
537.654	11535
537.721	12661
537.788	12810
537.855	10145
537.921	9692
537.988	10088
538.055	10376
538.121	8875
538.188	9859
538.254	12248
538.321	22153
538.388	17919
538.454	12054
538.521	11359
538.587	9637
538.654	9475
538.720	9288
538.787	9468
538.853	10086
538.920	12131
538.986	12379
539.053	10330
539.119	10895
539.185	10557
539.252	11408
539.318	14835
539.385	15467
539.451	12965
539.517	13337
539.583	13802
539.650	21135
539.716	59081
539.782	25382
539.849	10577
539.915	10720
539.981	9739
540.047	11924
540.114	11552
540.180	11285
540.246	10662
540.312	13893
540.378	21852
540.444	24757
540.510	20879
540.576	63284
540.643	31337
540.709	10262
540.775	10091
540.841	10458
540.907	12790
540.973	19162
541.039	15954
541.105	18346
541.171	12491
541.237	11106
541.303	12307
541.369	13331
541.435	12932
541.500	18951
541.566	15225
541.632	10358
541.698	9611
541.764	9903
541.830	8616
541.896	8409
541.961	9205
542.027	9952
542.093	10613
542.159	11803
542.224	11346
542.290	16247
542.356	19801
542.421	24745
542.487	14267
542.553	11986
542.618	13806
542.684	12542
542.750	10978
542.815	12294
542.881	16561
542.947	49906
543.012	50927
543.078	12406
543.143	9983
543.209	11712
543.274	10907
543.340	12128
543.405	20023
543.471	36220
543.536	15359
543.602	11616
543.667	9553
543.732	11422
543.798	10043
543.863	11767
543.928	9367
543.994	9035
544.059	9568
544.124	9963
544.190	9901
544.255	11464
544.320	11070
544.386	10294
544.451	13344
544.516	15377
544.581	15274
544.646	30259
544.712	60770
544.777	19943
544.842	13182
544.907	13449
544.972	11616
545.037	12241
545.102	12698
545.168	11735
545.233	12972
545.298	14832
545.363	16386
545.428	17150
545.493	22578
545.558	44930
545.623	26557
545.688	13764
545.753	13370
545.818	13607
545.883	13677
545.947	12865
546.012	14715
546.077	15883
546.142	14818
546.207	14155
546.272	16526
546.337	17349
546.401	16496
546.466	16665
546.531	15274
546.596	18541
546.661	17544
546.725	17424
546.790	16004
546.855	16458
546.919	17111
546.984	19972
547.049	20404
547.113	25036
547.178	23213
547.243	26248
547.307	30114
547.372	34085
547.436	36623
547.501	33168
547.565	34292
547.630	34090
547.695	34208
547.759	35671
547.823	36632
547.888	32631
547.952	33276
548.017	34075
548.081	39016
548.146	43154
548.210	40668
548.274	36332
548.339	35694
548.403	33788
548.468	30649
548.532	30409
548.596	31976
548.660	31762
548.725	33283
548.789	38804
548.853	41154
548.917	35660
548.982	38416
549.046	39817
549.110	29317
549.174	29533
549.238	31279
549.303	33515
549.367	34386
549.431	34023
549.495	32808
549.559	32300
549.623	35816
549.687	41138
549.751	43337
549.815	46198
549.879	47518
549.943	43621
550.007	45903
550.071	47199
550.135	45865
550.199	42218
550.263	40625
550.327	41175
550.391	46243
550.455	44705
550.519	44132
550.582	46899
550.646	53437
550.710	59192
550.774	55040
550.838	54430
550.901	55934
550.965	60332
551.029	64322
551.093	73196
551.156	83750
551.220	116674
551.284	144497
551.347	96768
551.411	94216
551.475	106965
551.538	63167
551.602	54075
551.666	48597
551.729	44794
551.793	44476
551.856	44690
551.920	42134
551.983	43120
552.047	41365
552.110	42166
552.174	42992
552.237	43775
552.301	40765
552.364	38254
552.428	37573
552.491	38496
552.554	39955
552.618	39628
552.681	40568
552.745	41740
552.808	43293
552.871	49326
552.934	45432
552.998	41299
553.061	40073
553.124	39853
553.187	37156
553.251	40811
553.314	41275
553.377	41470
553.440	47654
553.503	75038
553.567	124369
553.630	54430
553.693	41356
553.756	40712
553.819	37831
553.882	37161
553.945	36320
554.008	37171
554.071	35189
554.134	37779
554.197	34550
554.260	34424
554.323	35941
554.386	35418
554.449	35916
554.512	38049
554.575	33890
554.638	35460
554.701	34157
554.764	34546
554.827	32550
554.889	31325
554.952	29616
555.015	28536
555.078	28775
555.141	31327
555.203	28978
555.266	29547
555.329	29561
555.391	28728
555.454	28501
555.517	28863
555.580	28078
555.642	27125
555.705	25335
555.768	27248
555.830	25943
555.893	25538
555.955	23891
556.018	23886
556.080	23039
556.143	25006
556.206	22745
556.268	25100
556.330	24973
556.393	24252
556.455	22555
556.518	27009
556.580	29443
556.643	22566
556.705	20765
556.767	20790
556.830	21421
556.892	21898
556.955	24415
557.017	23466
557.079	20295
557.142	20186
557.204	19599
557.266	29951
557.328	29696
557.391	17959
557.453	17592
557.515	18651
557.577	19854
557.639	21693
557.701	20088
557.764	20363
557.826	20756
557.888	25886
557.950	26414
558.012	30379
558.074	37639
558.136	80597
558.198	266576
558.260	135015
558.322	36120
558.384	35815
558.446	41366
558.508	50247
558.570	63244
558.632	81820
558.694	112343
558.756	148404
558.818	394768
558.880	1337761
558.942	609596
559.003	292031
559.065	194060
559.127	63535
559.189	59258
559.251	64464
559.312	85300
559.374	185923
559.436	760900
559.498	579797
559.559	84222
559.621	61638
559.683	61852
559.744	94393
559.806	288618
559.868	646245
559.929	162814
559.991	59074
560.052	75049
560.114	233016
560.176	206771
560.237	116678
560.299	258901
560.360	78225
560.422	21568
560.483	17839
560.545	14688
560.606	14990
560.667	14018
560.729	12933
560.790	12681
560.852	13023
560.913	12552
560.974	12050
561.036	11280
561.097	13029
561.158	11793
561.220	12497
561.281	11210
561.342	12776
561.403	12961
561.465	14652
561.526	24218
561.587	39967
561.648	16410
561.709	12594
561.771	11569
561.832	11218
561.893	10856
561.954	11780
562.015	10290
562.076	11203
562.137	10252
562.198	10243
562.259	10980
562.320	11197
562.381	11244
562.442	13705
562.503	14200
562.564	10915
562.625	9264
562.686	10929
562.747	10269
562.808	11018
562.869	10223
562.930	12944
562.991	13543
563.051	12496
563.112	10767
563.173	10966
563.234	10485
563.294	11407
563.355	10787
563.416	11045
563.477	11009
563.537	11277
563.598	11776
563.659	11655
563.720	11484
563.780	10579
563.841	11726
563.901	12727
563.962	10854
564.023	11869
564.083	11323
564.144	11814
564.204	11189
564.265	12533
564.325	13682
564.386	22935
564.446	26308
564.507	13347
564.567	11574
564.628	11736
564.688	11792
564.749	12058
564.809	13233
564.869	16072
564.930	12668
564.990	13138
565.050	10980
565.111	12829
565.171	12462
565.231	12493
565.292	13364
565.352	12449
565.412	12765
565.472	13478
565.532	14295
565.593	15142
565.653	13539
565.713	14950
565.773	15596
565.833	17273
565.893	20306
565.953	17512
566.013	16608
566.074	18490
566.134	21340
566.194	27986
566.254	31527
566.314	25681
566.374	22481
566.434	23909
566.494	24437
566.554	25971
566.614	26868
566.673	28963
566.733	29749
566.793	33546
566.853	34591
566.913	37327
566.973	38380
567.033	38529
567.092	35829
567.152	35770
567.212	36207
567.272	39228
567.331	42254
567.391	45514
567.451	47937
567.511	53118
567.570	53428
567.630	44931
567.690	41860
567.749	44086
567.809	47451
567.868	54830
567.928	62670
567.988	76252
568.047	92195
568.107	114086
568.166	155775
568.226	230078
568.285	338723
568.345	339464
568.404	283991
568.464	244824
568.523	222303
568.582	218555
568.642	234557
568.701	275447
568.761	372904
568.820	558234
568.879	631853
568.939	518866
568.998	397419
569.057	306370
569.116	240889
569.176	192044
569.235	155191
569.294	130799
569.353	108164
569.413	93588
569.472	79884
569.531	69383
569.590	62004
569.649	55453
569.708	49462
569.767	45701
569.827	41454
569.886	38872
569.945	33416
570.004	32200
570.063	30856
570.122	28403
570.181	27293
570.240	27316
570.299	25530
570.358	23497
570.417	22026
570.475	21053
570.534	20556
570.593	20314
570.652	19621
570.711	18507
570.770	17656
570.829	19145
570.887	17693
570.946	18505
571.005	15638
571.064	15567
571.122	15586
571.181	15364
571.240	15104
571.299	14448
571.357	14173
571.416	14451
571.475	14774
571.533	17178
571.592	14326
571.650	14588
571.709	13017
571.768	13795
571.826	13648
571.885	13384
571.943	11217
572.002	11513
572.060	11363
572.119	12488
572.177	10681
572.236	9979
572.294	10362
572.352	10904
572.411	10386
572.469	10800
572.528	10204
572.586	10546
572.644	10042
572.703	11523
572.761	9589
572.819	9967
572.877	9168
572.936	8814
572.994	9630
573.052	10307
573.110	9437
573.169	10287
573.227	9183
573.285	10379
573.343	9962
573.401	9225
573.459	9425
573.517	10410
573.576	10021
573.634	10153
573.692	8982
573.750	9806
573.808	9353
573.866	10968
573.924	11247
573.982	12243
574.040	9736
574.098	9213
574.155	8668
574.213	9367
574.271	8542
574.329	9677
574.387	9516
574.445	8413
574.503	6977
574.560	7490
574.618	8274
574.676	8994
574.734	6807
574.792	8036
574.849	7897
574.907	8100
574.965	7731
575.022	7979
575.080	7097
575.138	7730
575.195	7268
575.253	8866
575.311	8449
575.368	8672
575.426	6620
575.483	9219
575.541	8008
575.598	8455
575.656	7544
575.713	9111
575.771	7917
575.828	9158
575.886	8330
575.943	8959
576.001	8386
576.058	8988
576.115	8934
576.173	10525
576.230	9804
576.287	11180
576.345	10624
576.402	8779
576.459	8726
576.517	9779
576.574	9044
576.631	10096
576.688	9547
576.746	8460
576.803	7959
576.860	8983
576.917	8840
576.974	8479
577.031	8829
577.089	8480
577.146	8354
577.203	8830
577.260	9119
577.317	9382
577.374	10248
577.431	9673
577.488	8299
577.545	8718
577.602	7938
577.659	8411
577.716	8809
577.773	9159
577.830	8714
577.886	9272
577.943	8989
578.000	9154
578.057	8756
578.114	9668
578.171	9701
578.227	11768
578.284	8755
578.341	9822
578.398	8146
578.454	9189
578.511	10346
578.568	11220
578.625	9401
578.681	9112
578.738	8622
578.794	9804
578.851	8904
578.908	9412
578.964	8604
579.021	9107
579.077	8156
579.134	9541
579.190	7685
579.247	8938
579.303	7917
579.360	8087
579.416	8732
579.473	8984
579.529	9056
579.586	8447
579.642	8895
579.698	9164
579.755	10587
579.811	10248
579.867	9085
579.924	9272
579.980	9569
580.036	9609
580.093	9647
580.149	10860
580.205	12379
580.261	10799
580.317	10573
580.374	10825
580.430	11783
580.486	11958
580.542	10921
580.598	10662
580.619	10530
580.654	10314
580.692	10374
580.710	10427
580.765	9636
580.767	9624
580.823	11120
580.838	10783
580.879	9946
580.911	10162
580.935	10337
580.984	9530
580.991	9439
581.047	11038
581.057	10732
581.103	9384
581.130	10224
581.159	11134
581.203	10649
581.215	10531
581.270	11259
581.276	11210
581.326	10916
581.349	10847
581.382	10745
581.422	10152
581.438	9928
581.494	10302
581.494	10290
581.550	10036
581.567	10238
581.606	10687
581.640	10151
581.661	9830
581.713	11108
581.717	11220
581.773	10773
581.786	10815
581.829	10974
581.859	10832
581.885	10765
581.932	10933
581.940	10946
581.996	10548
582.004	10626
582.052	11219
582.077	10595
582.107	9910
582.150	10924
582.163	11225
582.219	10825
582.223	10890
582.274	11774
582.296	11251
582.330	10412
582.368	11551
582.386	12056
582.441	10795
582.441	10798
582.497	10834
582.514	10958
582.552	11317
582.587	11906
582.608	12226
582.659	12037
582.663	12017
582.719	12621
582.732	12215
582.774	11076
582.805	11335
582.830	11540
582.877	11938
582.885	12024
582.941	13209
582.950	13084
582.996	12430
583.023	12834
583.052	13282
583.095	12575
583.107	12371
583.162	13107
583.168	13071
583.218	12659
583.240	12400
583.273	12126
583.313	12474
583.328	12630
583.384	12910
583.385	12889
583.439	11918
583.458	12031
583.494	12517
583.531	12628
583.549	12654
583.603	12486
583.605	12474
583.660	12751
583.676	12860
583.715	13203
583.748	13001
583.770	12921
583.820	13714
583.825	13750
583.881	12951
583.893	12950
583.936	13382
583.965	13780
583.991	13868
584.038	13583
584.046	13594
584.101	13269
584.110	13391
584.156	13572
584.183	13627
584.211	13896
584.255	14120
584.266	14111
584.321	13487
584.328	13560
584.376	14166
584.400	14019
584.431	13807
584.472	14027
584.486	14126
584.541	14192
584.545	14264
584.596	15028
584.617	14872
584.651	14851
584.689	15487
584.706	15632
584.761	16077
584.762	16088
584.816	16125
584.834	16362
584.871	16907
584.906	17288
584.926	17403
584.978	16941
584.980	16912
585.035	18672
585.051	18805
585.090	19029
585.123	20065
585.145	20836
585.195	21666
585.200	21720
585.254	23362
585.267	24033
585.309	26272
585.340	28418
585.364	29928
585.412	30652
585.419	30713
585.473	33717
585.484	34552
585.528	38466
585.556	43870
585.583	51166
585.628	73267
585.637	80094
585.692	153397
585.700	174144
585.747	276959
585.772	242104
585.801	178466
585.845	77360
585.856	57396
585.910	34645
585.917	33339
585.965	28613
585.989	27694
586.019	26895
586.061	25842
586.074	25447
586.128	25763
586.133	25793
586.183	25621
586.205	25824
586.237	26033
586.277	26412
586.292	26464
586.346	26703
586.349	26751
586.401	27120
586.421	27829
586.455	28918
586.493	29542
586.509	29826
586.564	32280
586.565	32476
586.618	39214
586.637	40086
586.672	40045
586.709	36489
586.727	34736
586.781	35752
586.781	35685
586.835	34611
586.853	34620
586.889	34561
586.925	35137
586.944	35485
586.996	37567
586.998	37539
587.052	38695
587.068	39024
587.106	39550
587.140	40725
587.161	41165
587.212	42320
587.215	42304
587.269	44723
587.284	45443
587.323	46731
587.356	48073
587.377	48864
587.427	51627
587.431	51705
587.485	54178
587.499	55261
587.539	57616
587.571	59540
587.593	60704
587.643	65139
587.648	65440
587.702	69910
587.715	71414
587.755	74854
587.786	78627
587.810	81293
587.858	87285
587.864	87742
587.917	96013
587.930	98334
587.971	105802
588.001	112638
588.025	117273
588.073	127910
588.079	129016
588.133	144970
588.145	149560
588.187	163772
588.217	175748
588.241	186001
588.288	211201
588.295	214145
588.348	247233
588.360	256306
588.402	287448
588.431	313673
588.456	335890
588.503	388219
588.510	394834
588.564	468032
588.575	487864
588.617	567468
588.646	635905
588.671	702854
588.718	856679
588.725	884417
588.778	1151866
588.789	1212063
588.832	1532302
588.861	1725708
588.886	1888760
588.932	2037704
588.939	2013324
588.993	1760752
589.004	1783772
589.047	1869104
589.075	1904185
589.100	1791000
589.147	1379705
589.154	1337809
589.207	1027128
589.218	977043
589.261	869736
589.290	829026
589.314	824091
589.361	861888
589.368	876984
589.421	1076380
589.433	1128842
589.475	1443379
589.504	1637639
589.528	1746503
589.576	1809038
589.582	1772863
589.635	1658488
589.647	1629513
589.689	1340712
589.718	1041847
589.742	879115
589.790	587240
589.795	563608
589.849	411878
589.861	384319
589.902	317027
589.932	278930
589.955	252756
590.004	209141
590.009	204312
590.062	171378
590.075	165470
590.115	147165
590.146	135923
590.168	127972
590.218	114425
590.222	112679
590.275	100987
590.289	98597
590.328	90888
590.360	86471
590.381	82862
590.431	76333
590.435	75453
590.488	68861
590.503	67656
590.541	63829
590.574	61229
590.594	58883
590.645	54970
590.647	54510
590.700	51094
590.716	50535
590.753	47634
590.787	45660
590.806	44542
590.859	42949
590.859	42648
590.912	40333
590.930	40000
590.965	38973
591.001	38403
591.018	37279
591.071	34669
591.072	34864
591.124	33336
591.143	33024
591.177	31874
591.214	31342
591.230	30837
591.283	29582
591.285	29722
591.336	28973
591.356	28806
591.389	28151
591.427	27876
591.442	27123
591.495	24857
591.498	24850
591.547	24652
591.569	24865
591.600	23841
591.640	22699
591.653	22625
591.706	23123
591.711	23305
591.759	22284
591.782	22055
591.811	22066
591.853	22384
591.864	22070
591.917	21067
591.924	21043
591.969	20448
591.995	20400
592.022	19991
592.066	19508
592.075	19415
592.127	19740
592.137	19921
592.180	20234
592.208	20588
592.233	19673
592.279	18178
592.285	17944
592.338	17019
592.350	16932
592.390	16815
592.421	16910
592.443	16625
592.491	16340
592.495	16257
592.548	16612
592.562	16806
592.600	16629
592.633	16692
592.653	16368
592.704	15694
592.705	15776
592.775	15592
592.846	15624
592.916	15389
592.987	15548
593.058	15092
593.128	14930
593.199	14850
593.270	14038
593.341	14536
593.411	14786
593.482	14019
593.553	15181
593.623	13648
593.694	14743
593.764	14945
593.835	14385
593.906	14299
593.976	14419
594.047	13823
594.117	15706
594.188	15922
594.258	14985
594.329	13679
594.399	14557
594.470	14475
594.540	15354
594.611	13858
594.681	14273
594.751	14944
594.822	16356
594.892	15718
594.963	15690
595.033	15209
595.103	15697
595.174	16264
595.244	18020
595.314	19768
595.384	17229
595.455	16126
595.525	16958
595.595	16662
595.665	17345
595.736	16211
595.806	16682
595.876	16323
595.946	17171
596.016	16840
596.087	18139
596.157	17543
596.227	17570
596.297	17424
596.367	19236
596.437	19991
596.507	21274
596.577	24049
596.647	21253
596.717	21072
596.787	20725
596.857	20517
596.927	22339
596.997	20674
597.067	21090
597.137	22383
597.207	22237
597.277	22201
597.347	21392
597.417	20414
597.487	20346
597.557	21396
597.626	20552
597.696	21658
597.766	22270
597.836	23587
597.906	20679
597.975	18905
598.045	18968
598.115	19987
598.185	19850
598.254	23266
598.324	25498
598.394	25692
598.464	25583
598.533	24365
598.603	22581
598.672	22684
598.742	23469
598.812	23545
598.881	22659
598.951	22767
599.020	23317
599.090	23318
599.159	24014
599.229	24148
599.299	23150
599.368	22345
599.437	22633
599.507	21459
599.576	21175
599.646	20862
599.715	20733
599.785	20028
599.854	20363
599.924	20456
599.993	19815
600.062	19395
600.132	19635
600.201	20269
600.270	24846
600.340	24962
600.409	25309
600.478	24448
600.547	25826
600.617	23553
600.686	18637
600.755	17773
600.824	17364
600.894	16271
600.963	16187
601.032	15693
601.101	15690
601.170	14931
601.239	14142
601.308	14431
601.378	14791
601.447	14817
601.516	15059
601.585	14906
601.654	14739
601.723	15066
601.792	15207
601.861	15681
601.930	17102
601.999	16800
602.068	15772
602.137	16634
602.206	16675
602.275	17135
602.343	17887
602.412	18646
602.481	17358
602.550	17609
602.619	17295
602.688	18256
602.756	17315
602.825	17931
602.894	18354
602.963	18285
603.032	19302
603.100	18217
603.169	18464
603.238	18923
603.307	19427
603.375	19290
603.444	19256
603.513	19601
603.581	19035
603.650	19826
603.719	19483
603.787	20103
603.856	21523
603.924	21345
603.993	22207
604.061	22198
604.130	23039
604.198	24138
604.267	23478
604.335	25176
604.404	24146
604.472	25292
604.541	25549
604.609	25353
604.678	26585
604.746	26141
604.815	26930
604.883	26668
604.951	27733
605.020	26940
605.088	28685
605.156	28412
605.225	27530
605.293	28860
605.361	28675
605.429	29044
605.498	30082
605.566	30223
605.634	31800
605.702	32693
605.771	32916
605.839	33317
605.907	33266
605.975	31532
606.043	32061
606.111	30871
606.180	30763
606.248	30410
606.316	30949
606.384	30331
606.452	32068
606.520	32946
606.588	33467
606.656	31329
606.724	31450
606.792	28969
606.860	27275
606.928	24058
606.996	23432
607.064	22038
607.132	23484
607.200	24363
607.267	25379
607.335	25489
607.403	26973
607.471	25650
607.539	25394
607.607	25839
607.674	22917
607.742	22407
607.810	23078
607.878	22390
607.946	22724
608.013	23323
608.081	24132
608.149	24125
608.216	25286
608.284	26820
608.352	26388
608.419	25818
608.487	26675
608.555	24827
608.622	25948
608.690	26105
608.757	30829
608.825	30405
608.893	29040
608.960	28521
609.028	27741
609.095	29430
609.163	27125
609.230	24303
609.298	22485
609.365	22555
609.432	25313
609.500	27069
609.567	29738
609.635	34853
609.702	38143
609.769	35360
609.837	30097
609.904	24234
609.971	25081
610.039	29377
610.106	38636
610.173	72874
610.241	178108
610.308	123365
610.375	36439
610.442	26852
610.509	24518
610.577	24708
610.644	24268
610.711	25276
610.778	26571
610.845	27070
610.912	28710
610.980	30988
611.047	31019
611.114	30452
611.181	28722
611.248	29478
611.315	30094
611.382	30337
611.449	31831
611.516	32354
611.583	33384
611.650	32179
611.717	32833
611.784	33801
611.851	36119
611.918	41466
611.984	50599
612.051	75295
612.118	157586
612.185	415156
612.252	326473
612.319	63172
612.386	44554
612.452	40207
612.519	37239
612.586	37780
612.653	37942
612.719	38395
612.786	36492
612.853	33889
612.919	32711
612.986	34292
613.053	31397
613.120	29076
613.186	27539
613.253	29833
613.319	28138
613.386	28569
613.453	29844
613.519	29864
613.586	30430
613.652	34359
613.719	31448
613.785	32250
613.852	30852
613.918	28990
613.985	30117
614.051	33448
614.118	41509
614.184	43552
614.250	31330
614.317	29537
614.383	29328
614.449	29434
614.516	30724
614.582	30809
614.648	29505
614.715	29966
614.781	28288
614.847	27340
614.914	28387
614.980	27628
615.046	27581
615.112	27951
615.179	29030
615.245	31362
615.311	36627
615.377	49160
615.443	57495
615.509	37698
615.575	35475
615.642	33391
615.708	33236
615.774	36666
615.840	42724
615.906	53006
615.972	76233
616.038	137579
616.104	248435
616.170	533340
616.236	565645
616.302	103897
616.368	62009
616.434	44694
616.500	40265
616.565	42092
616.631	54226
616.697	44591
616.763	44266
616.829	62796
616.895	118547
616.961	124419
617.026	50909
617.092	32416
617.158	30062
617.224	29163
617.289	27519
617.355	25778
617.421	24733
617.487	25805
617.552	24037
617.618	22321
617.684	23272
617.749	24364
617.815	23047
617.880	21679
617.946	22146
618.012	21241
618.077	22370
618.143	21618
618.208	21232
618.274	22582
618.339	23872
618.405	20025
618.470	19747
618.536	19551
618.601	20005
618.667	18286
618.732	17199
618.798	16618
618.863	17464
618.928	16244
618.994	17081
619.059	17348
619.124	19679
619.190	17971
619.255	17096
619.320	16377
619.386	16734
619.451	15274
619.516	17011
619.581	16818
619.647	16637
619.712	16060
619.777	15534
619.842	15075
619.907	15949
619.972	16429
620.038	16206
620.103	15057
620.168	16324
620.233	16553
620.298	15878
620.363	15863
620.428	16183
620.493	16116
620.558	16893
620.623	16118
620.688	17422
620.753	16316
620.818	17143
620.883	16812
620.948	17336
621.013	17058
621.078	16501
621.143	16319
621.207	18352
621.272	17208
621.337	16733
621.402	16161
621.467	17401
621.532	17448
621.596	17265
621.661	16133
621.726	16885
621.791	15523
621.855	16244
621.920	16192
621.985	16814
622.049	18005
622.114	16844
622.179	16483
622.243	17133
622.308	17342
622.373	19176
622.437	18517
622.502	17063
622.566	15743
622.631	16102
622.695	16719
622.760	16826
622.824	16737
622.889	16673
622.953	16999
623.018	20710
623.082	21470
623.147	18817
623.211	17174
623.276	17531
623.340	16659
623.404	17719
623.469	16543
623.533	16228
623.597	15555
623.662	15860
623.726	14490
623.790	14101
623.854	13586
623.919	13619
623.983	13507
624.047	13755
624.111	14842
624.176	15161
624.240	14531
624.304	16340
624.368	14849
624.432	14571
624.496	14983
624.560	16888
624.625	16640
624.689	16515
624.753	16278
624.817	16493
624.881	14268
624.945	14265
625.009	13846
625.073	14153
625.137	13276
625.201	15062
625.265	16520
625.329	14983
625.393	14112
625.456	15141
625.520	15219
625.584	15520
625.648	16974
625.712	20020
625.776	27872
625.839	32038
625.903	19383
625.967	12557
626.031	16057
626.095	21754
626.158	15178
626.222	11347
626.286	10761
626.349	9453
626.413	8243
626.477	10487
626.540	8329
626.604	9208
626.668	8873
626.731	9639
626.795	8986
626.858	9381
626.922	8070
626.986	8268
627.049	7475
627.113	9203
627.176	9326
627.240	8894
627.303	9207
627.366	8823
627.430	8919
627.493	8941
627.557	8235
627.620	9318
627.684	8773
627.747	9273
627.810	7750
627.874	8222
627.937	6444
628.000	8987
628.064	7592
628.127	6702
628.190	7142
628.253	7390
628.317	6255
628.380	6138
628.443	6236
628.506	6181
628.569	5900
628.632	5061
628.696	5604
628.759	4883
628.822	5065
628.885	4720
628.948	5358
629.011	5165
629.074	4152
629.137	4542
629.200	4208
629.263	5889
629.326	3701
629.389	5055
629.452	5298
629.515	4828
629.578	4903
629.641	5352
629.704	4995
629.767	4892
629.830	5032
629.892	5050
629.955	4432
630.018	5665
630.081	5481
630.144	6193
630.207	4152
630.269	5196
630.332	4703
630.395	4800
630.458	3802
630.520	3330
630.583	4633
630.646	3851
630.708	3991
630.771	3713
630.834	4589
630.896	4163
630.959	4740
631.021	4038
631.084	4135
631.146	4491
631.209	5528
631.272	4677
631.334	5556
631.397	4019
631.459	4005
631.522	4881
631.584	4311
631.646	5889
631.709	5544
631.771	6836
631.834	5512
631.896	5283
631.958	4381
632.021	4627
632.083	3677
632.145	4766
632.208	3526
632.270	5210
632.332	3423
632.395	3997
632.457	5326
632.519	3421
632.581	4724
632.643	3036
632.706	4551
632.768	3809
632.830	4476
632.892	4313
632.954	4504
633.016	3714
633.078	4323
633.141	3649
633.203	3415
633.265	5057
633.327	3185
633.389	4291
633.451	4520
633.513	5319
633.575	5401
633.637	4027
633.698	4945
633.760	4803
633.822	4410
633.884	4512
633.946	4331
634.008	5338
634.070	4636
634.132	5445
634.193	6292
634.255	5516
634.317	5997
634.379	7258
634.441	6160
634.502	5239
634.564	4847
634.626	5836
634.687	5356
634.749	4734
634.811	4331
634.873	3206
634.934	3714
634.996	4569
635.057	3586
635.119	3260
635.181	4065
635.242	4657
635.304	2398
635.365	5120
635.427	3532
635.488	3018
635.550	3698
635.611	4138
635.673	2124
635.734	5062
635.796	4214
635.857	5226
635.918	4549
635.980	7200
636.041	6405
636.102	7629
636.164	6863
636.225	7590
636.286	4964
636.348	5392
636.409	4906
636.470	3850
636.531	4386
636.593	4243
636.654	3600
636.715	4017
636.776	2555
636.838	3488
636.899	3896
636.960	3444
637.021	2834
637.082	2926
637.143	3526
637.204	2026
637.265	2043
637.326	4220
637.387	3213
637.448	2430
637.509	2979
637.570	2565
637.631	3337
637.692	1857
637.753	2276
637.814	3302
637.875	2364
637.936	3443
637.997	2768
638.058	2765
638.119	3318
638.179	2916
638.240	2451
638.301	3055
638.362	1898
638.423	2040
638.483	2544
638.544	2124
638.605	2921
638.666	1796
638.726	2657
638.787	3493
638.848	1889
638.908	2504
638.969	2057
639.030	2492
639.090	927
639.151	2677
639.211	3121
639.272	3665
639.332	4492
639.393	3837
639.453	2285
639.514	3258
639.574	3126
639.635	1625
639.695	1860
639.756	1741
639.816	1893
639.877	2260
639.937	4891
639.997	5980
640.058	2215
640.118	1136
640.178	2781
640.239	2379
640.299	2098
640.359	2035
640.420	1381
640.480	2674
640.540	2999
640.600	3366
640.661	2139
640.721	2018
640.781	4886
640.841	2300
640.901	2983
640.961	2952
641.021	2084
641.082	2425
641.142	3612
641.202	3380
641.262	1238
641.322	2127
641.382	1629
641.442	1865
641.502	2061
641.562	1926
641.622	1736
641.682	3146
641.742	2146
641.802	2504
641.861	2310
641.921	2233
641.981	2347
642.041	2415
642.101	2114
642.161	1653
642.221	1449
642.280	1538
642.340	1042
642.400	1028
642.460	2810
642.519	1640
642.579	1489
642.639	2301
642.698	51
642.758	3561
642.818	1586
642.877	1247
642.937	2451
642.997	2161
643.056	2730
643.116	1810
643.175	3170
643.235	2833
643.294	2531
643.354	3113
643.414	3955
643.473	5850
643.532	6714
643.592	11534
643.651	17341
643.711	33237
643.770	62804
643.830	143658
643.889	389353
643.948	138679
644.008	14095
644.067	6660
644.126	4707
644.186	3704
644.245	3274
644.304	1801
644.363	3973
644.423	1819
644.482	2177
644.541	2981
644.600	861
644.659	3971
644.719	3278
644.778	6731
644.837	13035
644.896	25715
644.955	69705
645.014	33975
645.073	4376
645.132	2905
645.191	3934
645.250	1881
645.309	2465
645.368	3325
645.427	4496
645.486	5405
645.545	12872
645.604	4118
645.663	2365
645.722	2441
645.781	3274
645.840	4586
645.898	6106
645.957	10114
646.016	14839
646.075	28964
646.134	55702
646.192	135645
646.251	285550
646.310	57676
646.369	9223
646.427	5640
646.486	3311
646.545	3509
646.603	2656
646.662	2957
646.721	2635
646.779	2014
646.838	1663
646.896	4234
646.955	5210
647.014	7797
647.072	12806
647.131	39579
647.189	29471
647.248	3152
647.306	2663
647.365	2500
647.423	-386
647.481	2404
647.540	-196
647.598	2074
647.657	542
647.715	1870
647.773	891
647.832	2242
647.890	50
647.948	870
648.007	2174
648.065	906
648.123	158
648.181	2689
648.240	1436
648.298	832
648.356	550
648.414	1945
648.472	1228
648.531	1896
648.589	1394
648.647	1313
648.705	870
648.763	533
648.821	2054
648.879	1082
648.937	2490
648.995	2974
649.053	4083
649.111	7346
649.169	11480
649.227	20035
649.285	38302
649.343	125052
649.401	94644
649.459	12363
649.516	7500
649.574	3506
649.632	7159
649.690	10481
649.748	5052
649.806	3588
649.863	10437
649.921	26527
649.979	27024
650.037	4483
650.094	779
650.152	1202
650.210	995
650.268	1768
650.325	1477
650.383	1406
650.440	336
650.498	1618
650.556	1128
650.613	478
650.671	681
650.728	351
650.786	842
650.843	938
650.901	-866
650.958	1045
651.016	150
651.073	581
651.131	-338
651.188	-557
651.246	210
651.303	62
651.360	674
651.418	372
651.475	-84
651.532	235
651.590	333
651.647	-293
651.704	-252
651.762	583
651.819	726
651.876	-194
651.933	393
651.990	829
652.048	-1002
652.105	335
652.162	781
652.219	657
652.276	766
652.333	1069
652.390	-741
652.448	429
652.505	625
652.562	540
652.619	-665
652.676	1076
652.733	1354
652.790	287
652.847	-821
652.904	411
652.961	-253
653.017	-332
653.074	607
653.131	506
653.188	-376
653.245	-511
653.302	20
653.359	466
653.415	546
653.472	481
653.529	869
653.586	-420
653.642	-44
653.699	903
653.756	-54
653.813	271
653.869	-112
653.926	-271
653.983	-608
654.039	774
654.096	-521
654.152	1465
654.209	-936
654.266	593
654.322	-826
654.379	1221
654.435	1586
654.492	820
654.548	188
654.605	1466
654.661	1361
654.717	99
654.774	755
654.830	171
654.887	-417
654.943	6
655.000	318
655.056	1013
655.112	413
655.168	-737
655.225	707
655.281	898
655.337	106
655.394	1047
655.450	460
655.506	538
655.562	345
655.618	2069
655.675	-89
655.731	814
655.787	-699
655.843	1894
655.899	-233
655.955	777
656.011	553
656.067	509
656.123	692
656.179	1741
656.235	1836
656.291	42
656.347	1373
656.403	641
656.459	438
656.515	445
656.571	555
656.627	1062
656.683	82
656.739	1712
656.795	-704
656.850	759
656.906	273
656.962	585
657.018	-844
657.074	37
657.129	-143
657.185	1918
657.241	2713
657.297	1984
657.352	1179
657.408	-398
657.464	1653
657.519	542
657.575	38
657.630	689
657.686	316
657.742	-280
657.797	368
657.853	440
657.908	737
657.964	-463
658.019	-750
658.075	125
658.130	389
658.186	-1327
658.241	209
658.297	-354
658.352	-632
658.407	44
658.463	-600
658.518	595
658.573	-225
658.629	-361
658.684	-55
658.739	833
658.795	-942
658.850	130
658.905	-130
658.960	-326
659.016	-277
659.071	694
659.126	-651
659.181	-747
659.236	1348
659.291	1680
659.346	-484
659.401	459
659.457	1034
659.512	209
659.567	377
659.622	547
659.677	-486
659.732	-1081
659.787	413
659.842	-143
659.897	346
659.952	436
660.007	-561
660.061	-239
660.116	-1183
660.171	-680
660.226	-359
660.281	944
660.336	-257
660.391	796
660.445	-212
660.500	319
660.555	-221
660.610	-55
660.664	28
660.719	695
660.774	1016
660.828	447
660.883	13
660.938	84
660.992	-704
661.047	-221
661.101	101
661.156	-21
661.211	-252
661.265	-11
661.320	-985
661.374	931
661.429	-428
661.483	1087
661.538	-1027
661.592	-353
661.647	-48
661.701	758
661.755	53
661.810	125
661.864	-1011
661.919	-442
661.973	359
662.027	515
662.081	-920
662.136	166
662.190	-85
662.244	-58
662.299	-415
662.353	765
662.407	-253
662.461	-400
662.515	404
662.569	-667
662.624	347
662.678	-740
662.732	-128
662.786	349
662.840	-65
662.894	63
662.948	-254
663.002	-77
663.056	-55
663.110	-617
663.164	-966
663.218	408
663.272	98
663.326	11
663.380	620
663.434	38
663.488	-1255
663.542	534
663.595	-629
663.649	-395
663.703	-209
663.757	-280
663.811	-955
663.864	-776
663.918	973
663.972	272
664.026	351
664.079	441
664.133	-71
664.187	122
664.240	-744
664.294	173
664.348	435
664.401	-649
664.455	21
664.508	-307
664.562	266
664.615	560
664.669	-736
664.722	364
664.776	-775
664.829	494
664.883	143
664.936	-1021
664.990	-618
665.043	571
665.097	-329
665.150	709
665.203	-141
665.257	216
665.310	-701
665.363	-49
665.417	-9
665.470	-462
665.523	-199
665.576	925
665.630	346
665.683	-620
665.736	-621
665.789	727
665.842	-501
665.895	-194
665.949	-5
666.002	-158
666.055	429
666.108	-12
666.161	-246
666.214	568
666.267	-116
666.320	837
666.373	50
666.426	-419
666.479	-458
666.532	-24
666.585	17
666.638	259
666.691	-618
666.744	1516
666.796	-64
666.849	-121
666.902	608
666.955	-335
667.008	225
667.060	655
667.113	-494
667.166	85
667.219	181
667.271	141
667.324	-250
667.377	501
667.430	-36
667.482	-333
667.535	940
667.587	409
667.640	781
667.693	714
667.745	260
667.798	1353
667.850	-252
667.903	327
667.955	103
668.008	-221
668.060	244
668.113	161
668.165	298
668.218	-689
668.270	-525
668.322	-326
668.375	-24
668.427	395
668.479	-527
668.532	-30
668.584	-727
668.636	-31
668.689	517
668.741	-173
668.793	170
668.845	-174
668.898	165
668.950	-186
669.002	-834
669.054	-405
669.106	-304
669.158	-33
669.211	295
669.263	-424
669.315	589
669.367	611
669.419	116
669.471	1146
669.523	867
669.575	2830
669.627	1535
669.679	548
669.731	874
669.783	1270
669.835	1317
669.886	1278
669.938	487
669.990	421
670.042	276
670.094	-368
670.146	1012
670.197	694
670.249	450
670.301	401
670.353	1028
670.404	1706
670.456	1530
670.508	2502
670.560	5322
670.611	8601
670.663	13748
670.715	34948
670.766	80079
670.818	42691
670.869	5124
670.921	2397
670.972	709
671.024	1026
671.075	731
671.127	314
671.178	250
671.230	821
671.281	357
671.333	606
671.384	336
671.436	677
671.487	1138
671.538	2510
671.590	3503
671.641	5894
671.692	10118
671.744	24435
671.795	23802
671.846	7760
671.897	2796
671.949	2501
672.000	1326
672.051	880
672.102	1828
672.153	458
672.204	596
672.256	303
672.307	478
672.358	786
672.409	-15
672.460	414
672.511	-45
672.562	276
672.613	-170
672.664	230
672.715	-392
672.766	172
672.817	-74
672.868	-324
672.919	584
672.970	302
673.021	367
673.071	17
673.122	284
673.173	438
673.224	-663
673.275	-116
673.326	-486
673.376	-463
673.427	-38
673.478	-708
673.528	262
673.579	-120
673.630	-425
673.680	125
673.731	-206
673.782	-173
673.832	102
673.883	-20
673.934	-924
673.984	-364
674.035	-152
674.085	450
674.136	227
674.186	309
674.237	494
674.287	277
674.338	554
674.388	114
674.438	-1336
674.489	314
674.539	-638
674.589	-18
674.640	369
674.690	-298
674.740	-207
674.791	593
674.841	-176
674.891	-90
674.942	-247
674.992	-216
675.042	-331
675.092	286
675.142	-158
675.193	144
675.243	-291
675.293	549
675.343	82
675.393	-278
675.443	-197
675.493	-32
675.543	-859
675.593	88
675.643	350
675.693	-680
675.743	991
675.793	18
675.843	-797
675.893	446
675.943	60
675.993	-459
676.043	-892
676.093	374
676.142	-95
676.192	-439
676.242	-46
676.292	-401
676.341	-743
676.391	423
676.441	30
676.491	-145
676.540	-544
676.590	-468
676.640	-489
676.689	-73
676.739	-246
676.789	-581
676.838	-485
676.888	-110
676.937	-935
676.987	337
677.037	-896
677.086	-150
677.136	408
677.185	-1080
677.235	-560
677.284	409
677.333	-642
677.383	44
677.432	-674
677.482	-91
677.531	-121
677.580	-198
677.630	-193
677.679	-752
677.728	-372
677.778	615
677.827	-96
677.876	308
677.925	-698
677.975	-476
678.024	-954
678.073	-518
678.122	-562
678.171	-175
678.220	-657
678.269	264
678.319	-190
678.368	-507
678.417	-136
678.466	-58
678.515	-363
678.564	-65
678.613	-575
678.662	102
678.711	-48
678.760	11
678.809	-462
678.857	-384
678.906	430
678.955	-282
679.004	925
679.053	-696
679.102	-54
679.151	580
679.199	-658
679.248	-1247
679.297	-11
679.346	88
679.394	-365
679.443	-322
679.492	-716
679.540	-84
679.589	-418
679.638	-611
679.686	-787
679.735	439
679.784	-531
679.832	798
679.881	-100
679.929	-820
679.978	-945
680.026	-664
680.075	125
680.123	-446
680.172	-1078
680.220	-233
680.268	-838
680.317	-827
680.365	-1037
680.414	-948
680.462	-222
680.510	577
680.559	-296
680.607	9
680.655	-294
680.703	-47
680.752	-545
680.800	-289
680.848	-478
680.896	-331
680.945	-1097
680.993	-563
681.041	-485
681.089	-166
681.137	-479
681.185	781
681.233	-510
681.258	-487
681.281	-468
681.329	-523
681.377	-341
681.380	-367
681.425	-906
681.473	501
681.502	54
681.521	-269
681.569	344
681.617	-77
681.624	-177
681.665	-849
681.713	-471
681.745	-56
681.761	137
681.809	-518
681.857	-316
681.867	-364
681.904	-537
681.952	-60
681.989	-392
682.000	-498
682.048	-83
682.096	-843
682.111	-696
682.143	-402
682.191	-616
682.233	444
682.239	603
682.286	-411
682.334	108
682.354	-171
682.382	-573
682.430	-675
682.476	-598
682.477	-601
682.525	-126
682.572	-605
682.598	-751
682.620	-879
682.667	-125
682.715	-487
682.720	-433
682.763	20
682.810	-489
682.841	-431
682.857	-421
682.905	-148
682.952	-105
682.963	-107
683.000	-61
683.047	-645
683.085	170
683.095	375
683.142	-111
683.190	-175
683.206	-284
683.237	-467
683.284	-131
683.328	-178
683.332	-187
683.379	-177
683.426	-567
683.449	-561
683.473	-553
683.521	-935
683.568	142
683.571	74
683.615	-872
683.662	423
683.693	99
683.709	-82
683.757	-663
683.804	-279
683.814	-212
683.851	-64
683.898	-573
683.936	-357
683.945	-277
683.992	-366
684.039	477
684.057	92
684.086	-577
684.133	-35
684.179	-494
684.180	-511
684.227	-124
684.274	6
684.300	551
684.321	944
684.368	-536
684.415	-427
684.422	-549
684.462	-1239
684.509	-43
684.543	-234
684.556	-311
684.603	-81
684.649	-118
684.665	-120
684.696	-105
684.743	117
684.786	-107
684.790	-129
684.837	13
684.883	78
684.908	93
684.930	55
684.977	379
685.023	-61
685.029	-88
685.070	-254
685.117	59
685.150	-34
685.164	-54
685.210	-72
685.257	500
685.272	339
685.303	-86
685.350	1
685.393	-720
685.396	-771
685.443	401
685.490	205
685.514	231
685.536	259
685.583	109
685.629	511
685.636	463
685.675	59
685.722	693
685.757	348
685.768	244
685.815	423
685.861	334
685.878	361
685.908	425
685.954	-178
686.000	770
686.000	784
686.047	-221
686.093	599
686.121	719
686.139	808
686.185	457
686.232	-366
686.242	-156
686.278	569
686.324	-138
686.363	100
686.370	159
686.416	228
686.463	949
686.484	831
686.509	566
686.555	-124
686.601	204
686.606	229
686.647	564
686.693	42
686.727	116
686.739	131
686.785	-68
686.831	719
686.848	683
686.877	673
686.923	507
686.969	433
686.969	432
687.015	284
687.061	203
687.090	395
687.107	474
687.153	245
687.199	-119
687.211	-68
687.245	214
687.291	517
687.332	396
687.336	369
687.382	577
687.428	562
687.453	485
687.474	420
687.520	325
687.565	948
687.574	677
687.611	-258
687.657	609
687.695	596
687.702	573
687.748	722
687.794	540
687.816	799
687.839	990
687.885	337
687.931	192
687.937	157
687.976	49
688.022	-273
688.058	-85
688.067	-7
688.113	173
688.158	-144
688.179	250
688.204	688
688.249	90
688.295	639
688.300	620
688.340	453
688.386	685
688.421	632
688.431	600
688.477	486
688.522	43
688.542	300
688.567	766
688.613	457
688.658	702
688.663	753
688.703	898
688.749	560
688.784	782
688.794	885
688.839	850
688.884	648
688.905	871
688.930	1052
688.975	198
689.020	784
689.026	723
689.065	486
689.110	793
689.146	737
689.155	702
689.201	735
689.246	606
689.267	775
689.291	976
689.336	587
689.381	806
689.388	752
689.426	471
689.471	504
689.509	571
689.516	600
689.561	424
689.606	930
689.630	937
689.651	867
689.696	720
689.741	606
689.750	557
689.785	486
689.830	727
689.871	564
689.875	553
689.920	811
689.965	675
689.992	779
690.010	882
690.054	777
690.099	960
690.112	1006
690.144	908
690.189	375
690.233	319
690.233	323
690.278	620
690.323	805
690.354	1022
690.367	1065
690.412	815
690.457	997
690.474	935
690.501	883
690.546	751
690.590	724
690.595	714
690.635	633
690.680	816
690.716	570
690.724	529
690.769	655
690.813	1396
690.836	1049
690.857	760
690.902	961
690.946	959
690.957	1045
690.991	1650
691.035	1714
691.077	3170
691.080	3222
691.124	2270
691.168	2495
691.198	2073
691.213	1825
691.257	1840
691.301	1371
691.318	1261
691.346	1144
691.390	1012
691.434	826
691.439	820
691.478	1005
691.522	1226
691.559	820
691.567	725
691.611	957
691.655	702
691.680	744
691.699	879
691.743	644
691.787	1143
691.800	1028
691.831	706
691.875	1198
691.919	935
691.921	939
691.964	1273
692.008	1085
692.041	1434
692.052	1504
692.096	1016
692.139	1200
692.162	1104
692.183	1038
692.227	1347
692.271	1021
692.282	960
692.315	893
692.359	997
692.402	1078
692.403	1083
692.447	1420
692.490	1377
692.523	1372
692.534	1291
692.578	1103
692.622	699
692.643	777
692.666	1032
692.709	976
692.753	989
692.763	1001
692.797	980
692.840	1336
692.884	1083
692.884	1087
692.928	1171
692.971	1411
693.004	1708
693.015	1738
693.059	1753
693.102	1552
693.124	1414
693.146	1319
693.189	1413
693.233	1346
693.245	1341
693.276	1419
693.320	1671
693.363	1607
693.365	1592
693.407	1192
693.450	1281
693.485	1360
693.493	1409
693.537	1266
693.580	1134
693.605	1276
693.624	1478
693.667	1972
693.710	2055
693.725	2125
693.753	2504
693.797	3183
693.840	4208
693.845	4261
693.883	4120
693.926	3955
693.966	3762
693.970	3680
694.013	2652
694.056	1994
694.086	1349
694.099	1293
694.142	1138
694.185	1106
694.206	1067
694.229	1253
694.272	1510
694.315	2115
694.326	2148
694.358	1942
694.401	1733
694.444	1747
694.446	1736
694.487	1687
694.530	1514
694.566	1474
694.573	1496
694.616	1240
694.659	1695
694.686	1632
694.702	1531
694.745	1446
694.787	1107
694.806	1006
694.830	1024
694.873	1358
694.916	1435
694.926	1389
694.959	1224
695.002	1359
695.044	1217
695.046	1211
695.087	1443
695.130	1787
695.166	1893
695.172	1885
695.215	1828
695.258	1884
695.286	1816
695.301	1715
695.343	1482
695.386	952
695.406	961
695.428	1230
695.471	1265
695.514	1528
695.526	1579
695.556	1784
695.599	2236
695.641	2334
695.646	2371
695.684	2161
695.726	1693
695.766	1287
695.769	1299
695.811	1444
695.854	1679
695.886	1602
695.896	1569
695.938	1698
695.981	1702
696.005	1731
696.023	1732
696.065	1721
696.108	1674
696.125	1618
696.150	1634
696.192	1696
696.235	1797
696.245	1821
696.277	1825
696.319	1691
696.361	1694
696.365	1681
696.404	1888
696.446	2122
696.485	2349
696.488	2350
696.530	2177
696.572	2013
696.604	1994
696.614	2016
696.656	1872
696.698	1917
696.724	1825
696.740	1786
696.783	1704
696.825	1687
696.844	1723
696.867	1756
696.909	1521
696.951	1525
696.964	1479
696.992	1557
697.034	1688
697.076	1872
697.083	1880
697.118	1970
697.160	2127
697.202	2278
697.203	2270
697.244	1950
697.286	1827
697.323	1606
697.327	1610
697.369	1527
697.411	1465
697.442	1498
697.453	1576
697.494	1746
697.536	1929
697.562	2094
697.578	2101
697.620	1952
697.661	1895
697.682	1835
697.703	1805
697.744	1748
697.786	1789
697.801	1741
697.828	1799
697.869	1949
697.911	2062
697.921	2096
697.952	2279
697.994	2449
698.035	2621
698.040	2636
698.077	2301
698.118	1905
698.160	1423
698.160	1412
698.201	1423
698.243	1364
698.279	1346
698.284	1398
698.325	1785
698.367	2231
698.399	2494
698.408	2509
698.449	2606
698.491	2651
698.518	2675
698.532	2551
698.573	2159
698.614	1771
698.638	1518
698.656	1646
698.697	1978
698.738	2264
698.757	2400
698.779	2315
698.820	2118
698.862	1947
698.877	1874
698.903	1972
698.944	2107
698.985	2253
698.996	2287
699.026	2368
699.067	2470
699.116	2585
699.235	2534
699.354	2281
699.474	2374
699.593	2315
699.713	2317
699.832	2278
699.951	2894
700.070	2621
700.190	2329
700.309	2207
700.428	1917
700.547	1358
700.667	2322
700.786	2112
700.905	2354
701.024	1491
701.143	1577
701.262	2563
701.381	2652
701.500	1933
701.619	2525
701.738	1277
701.857	2885
701.976	1508
702.095	2099
702.214	2218
702.333	2244
702.452	1761
702.571	1959
702.690	1971
702.809	1867
702.928	1856
703.047	2878
703.165	1110
703.284	2157
703.403	1914
703.522	2004
703.640	2094
703.759	2549
703.878	2606
703.997	2135
704.115	1227
704.234	2584
704.353	1986
704.471	1262
704.590	1660
704.708	2140
704.827	1434
704.946	2182
705.064	1285
705.183	2285
705.301	1664
705.420	2872
705.538	2030
705.656	2353
705.775	1882
705.893	3405
706.012	3205
706.130	2858
706.249	1930
706.367	2525
706.485	2281
706.604	1235
706.722	1843
706.840	1782
706.958	2660
707.077	2041
707.195	1321
707.313	2396
707.431	1343
707.549	1946
707.668	690
707.786	2153
707.904	1073
708.022	1501
708.140	1108
708.258	2627
708.376	1655
708.494	1541
708.612	991
708.730	3074
708.848	1984
708.966	2326
709.084	2102
709.202	2135
709.320	1647
709.438	1709
709.556	2422
709.674	2822
709.791	2008
709.909	1872
710.027	1293
710.145	2701
710.263	3097
710.380	2498
710.498	1616
710.616	1959
710.733	1498
710.851	2534
710.969	2303
711.086	2053
711.204	2031
711.322	2785
711.439	1396
711.557	2011
711.674	1855
711.792	1451
711.909	2060
712.027	2209
712.144	1992
712.262	1893
712.379	1726
712.497	2940
712.614	3080
712.732	2971
712.849	2210
712.966	2261
713.084	2498
713.201	1638
713.318	2149
713.436	2152
713.553	1671
713.670	1987
713.787	2652
713.905	2412
714.022	1762
714.139	2288
714.256	3021
714.373	3775
714.490	6886
714.608	17726
714.725	82554
714.842	96133
714.959	6676
715.076	2992
715.193	2150
715.310	2703
715.427	2341
715.544	2449
715.661	1154
715.778	2368
715.895	1411
716.011	1652
716.128	1770
716.245	1974
716.362	2301
716.479	2551
716.596	1820
716.713	2638
716.829	1288
716.946	1997
717.063	1039
717.180	1129
717.296	2048
717.413	1647
717.530	2249
717.646	2164
717.763	1910
717.880	1513
717.996	1582
718.113	1479
718.229	1076
718.346	1041
718.462	999
718.579	1598
718.695	2525
718.812	2799
718.928	2128
719.045	2125
719.161	1303
719.277	2525
719.394	1230
719.510	1879
719.626	1060
719.743	2219
719.859	2560
719.975	5998
720.092	21615
720.208	50116
720.324	7454
720.440	2218
720.557	1571
720.673	2369
720.789	2632
720.905	5167
721.021	2567
721.137	1614
721.253	1561
721.369	1610
721.486	2075
721.602	2900
721.718	397
721.834	1837
721.950	1244
722.066	1714
722.181	866
722.297	1401
722.413	1104
722.529	810
722.645	1627
722.761	1148
722.877	345
722.993	1061
723.108	1128
723.224	579
723.340	949
723.456	1406
723.571	825
723.687	1494
723.803	1305
723.918	955
724.034	406
724.150	1463
724.265	1244
724.381	1208
724.497	2277
724.612	589
724.728	240
724.843	835
724.959	1115
725.074	2210
725.190	2227
725.305	1250
725.421	960
725.536	638
725.651	335
725.767	1104
725.882	1119
725.997	1148
726.113	1287
726.228	437
726.343	374
726.459	1122
726.574	577
726.689	1028
726.804	502
726.920	950
727.035	83
727.150	803
727.265	273
727.380	1258
727.495	765
727.610	1018
727.725	931
727.841	1105
727.956	1267
728.071	2075
728.186	-314
728.301	1272
728.416	556
728.531	473
728.645	-144
728.760	1194
728.875	597
728.990	199
729.105	247
729.220	420
729.335	-251
729.449	1099
729.564	206
729.679	883
729.794	266
729.908	361
730.023	-435
730.138	841
730.253	742
730.367	748
730.482	272
730.596	510
730.711	448
730.826	1485
730.940	1088
731.055	1227
731.169	-103
731.284	1328
731.398	753
731.513	857
731.627	718
731.742	601
731.856	653
731.970	272
732.085	1437
732.199	1604
732.313	2218
732.428	7353
732.542	25747
732.656	16493
732.771	2698
732.885	797
732.999	1118
733.113	1288
733.227	749
733.342	717
733.456	885
733.570	703
733.684	2013
733.798	862
733.912	131
734.026	658
734.140	237
734.254	1160
734.368	1603
734.482	2414
734.596	891
734.710	1379
734.824	1015
734.938	812
735.052	312
735.166	1089
735.280	720
735.393	996
735.507	-30
735.621	714
735.735	1469
735.849	775
735.962	-274
736.076	1474
736.190	981
736.303	495
736.417	1343
736.531	873
736.644	1086
736.758	849
736.872	368
736.985	721
737.099	128
737.212	866
737.326	254
737.439	1117
737.553	334
737.666	810
737.780	-127
737.893	924
738.007	86
738.120	314
738.233	168
738.347	271
738.460	441
738.573	-85
738.687	-185
738.800	1425
738.913	310
739.026	638
739.140	-246
739.253	88
739.366	664
739.479	-321
739.592	0
739.705	614
739.818	-160
739.932	347
740.045	359
740.158	1224
740.271	53
740.384	1010
740.497	99
740.610	625
740.723	481
740.836	517
740.949	474
741.062	985
741.174	1211
741.287	30
741.400	350
741.513	541
741.626	658
741.739	988
741.851	15
741.964	543
742.077	-365
742.189	-96
742.302	606
742.415	411
742.527	-234
742.640	728
742.753	-119
742.865	613
742.978	-602
743.090	814
743.203	-72
743.316	1214
743.428	72
743.541	788
743.653	-247
743.766	60
743.878	234
743.990	92
744.103	435
744.215	1194
744.327	35
744.440	541
744.552	1162
744.664	391
744.777	236
744.889	-872
745.001	-363
745.113	286
745.226	-227
745.338	1205
745.450	-229
745.562	483
745.674	-38
745.786	814
745.898	-31
746.010	-558
746.122	-486
746.234	-42
746.347	75
746.459	-77
746.570	272
746.682	362
746.794	898
746.906	1090
747.018	331
747.130	564
747.242	272
747.354	570
747.466	1081
747.577	120
747.689	806
747.801	-36
747.913	248
748.024	552
748.136	2
748.248	99
748.359	-219
748.471	324
748.583	-25
748.694	379
748.806	896
748.918	-755
749.029	395
749.141	865
749.252	1054
749.364	-608
749.475	526
749.587	388
749.698	-39
749.809	183
749.921	6
750.032	640
750.144	133
750.255	-319
750.366	801
750.478	44
750.589	99
750.700	755
750.811	-112
750.923	516
751.034	-109
751.145	952
751.256	-593
751.367	218
751.479	-175
751.590	-411
751.701	-124
751.812	-199
751.923	-136
752.034	1144
752.145	-220
752.256	-323
752.367	-371
752.478	-815
752.589	-607
752.700	5
752.811	-118
752.922	-225
753.032	-543
753.143	134
753.254	-173
753.365	397
753.476	-335
753.586	188
753.697	-774
753.808	451
753.919	282
754.029	428
754.140	-85
754.251	-546
754.361	100
754.472	226
754.582	-764
754.693	-203
754.804	-784
754.914	-127
755.025	-1267
755.135	-736
755.246	-274
755.356	-550
755.466	153
755.577	198
755.687	-229
755.798	392
755.908	-640
756.018	571
756.129	-404
756.239	576
756.349	-531
756.460	-334
756.570	-327
756.680	-718
756.790	-497
756.900	203
757.011	-233
757.121	341
757.231	7
757.341	-705
757.451	-493
757.561	106
757.671	-580
757.781	-873
757.891	122
758.001	60
758.111	280
758.221	-17
758.331	-317
758.441	-404
758.551	3
758.661	328
758.771	-683
758.880	-664
758.990	-484
759.100	401
759.210	-918
759.320	116
759.429	-96
759.539	190
759.649	-543
759.758	-4
759.868	-797
759.978	-393
760.087	-554
760.197	570
760.307	-39
760.416	798
760.526	-1056
760.635	695
760.745	-16
760.854	-170
760.964	117
761.073	89
761.182	-20
761.292	-53
761.401	-229
761.511	32
761.620	-689
761.729	898
761.839	-398
761.948	548
762.057	-614
762.166	-368
762.276	-842
762.385	656
762.494	-591
762.603	73
762.712	11
762.822	-884
762.931	-335
763.040	-532
763.149	-415
763.258	168
763.367	-75
763.476	-1037
763.585	331
763.694	192
763.803	-209
763.912	1108
764.021	-33
764.130	741
764.238	7
764.347	293
764.456	-1049
764.565	608
764.674	-537
764.783	70
764.891	-516
765.000	825
765.109	526
765.217	757
765.326	375
765.435	1283
765.543	1090
765.652	2363
765.761	2584
765.869	5074
765.978	8030
766.086	14129
766.195	30967
766.303	88355
766.412	273812
766.520	268846
766.629	55430
766.737	17412
766.846	8805
766.954	6025
767.062	4385
767.171	2541
767.279	2713
767.387	2800
767.496	1703
767.604	1763
767.712	609
767.820	627
767.928	370
768.037	1134
768.145	1022
768.253	1194
768.361	306
768.469	173
768.577	240
768.685	399
768.793	-292
768.901	1135
769.009	910
769.117	2094
769.225	2032
769.333	2709
769.441	6348
769.549	12824
769.657	30519
769.765	106307
769.873	257507
769.981	89990
770.088	13026
770.196	6380
770.304	3912
770.412	3165
770.519	1212
770.627	1354
770.735	531
770.842	779
770.950	291
771.058	651
771.165	384
771.273	905
771.380	122
771.488	772
771.595	258
771.703	103
771.810	769
771.918	-120
772.025	17
772.133	735
772.240	-8
772.348	1493
772.455	-116
772.562	9
772.670	435
772.777	499
772.884	637
772.991	142
773.099	123
773.206	-301
773.313	96
773.420	952
773.528	180
773.635	114
773.742	514
773.849	86
773.956	228
774.063	-113
774.170	430
774.277	810
774.384	-469
774.491	218
774.598	-47
774.705	-974
774.812	78
774.919	125
775.026	-301
775.133	533
775.239	-49
775.346	917
775.453	-283
775.560	-166
775.667	-143
775.773	-237
775.880	214
775.987	-436
776.093	881
776.200	-156
776.307	-107
776.413	747
776.520	-1243
776.627	334
776.733	-161
776.840	-210
776.946	694
777.053	1365
777.159	2691
777.266	1020
777.372	2048
777.478	1611
777.585	225
777.691	-738
777.798	-959
777.904	293
778.010	-405
778.117	462
778.223	35
778.329	-177
778.435	-423
778.542	374
778.648	-616
778.754	-344
778.860	-1350
778.966	-607
779.072	-403
779.178	317
779.284	-777
779.391	-1170
779.497	-1578
779.603	242
779.708	-822
779.815	530
779.920	1192
780.026	4482
780.132	-225
780.238	-214
780.344	-510
780.450	323
780.556	-971
780.661	-204
780.767	40
780.873	1
780.979	128
781.085	-541
781.190	-365
781.296	-647
781.402	-10
781.507	-887
781.613	-1115
781.719	459
781.824	-240
781.930	-141
782.035	-971
782.141	162
782.246	-113
782.352	-258
782.457	-790
782.563	-288
782.668	-681
782.773	-508
782.879	-1092
782.984	108
783.090	-354
783.195	-10
783.300	-165
783.405	-65
783.511	-297
783.616	317
783.721	-912
783.826	-1080
783.932	-523
784.037	401
784.142	-152
784.247	-470
784.352	-791
784.457	-336
784.562	-329
784.667	-495
784.772	-1217
784.877	-79
784.982	-570
785.087	-1002
785.192	-315
785.297	-897
785.402	-1451
785.507	-664
785.611	-28
785.716	-735
785.821	-408
785.926	-1040
786.031	-1108
786.135	-9
786.240	-335
786.345	-811
786.450	-521
786.554	-527
786.659	-1061
786.763	-892
786.868	-862
786.973	-278
787.077	-1380
787.182	-982
787.286	-432
787.391	-391
787.495	-1291
787.600	67
787.704	-1176
787.809	-753
787.913	-120
788.017	-678
788.122	-867
788.226	-46
788.330	-1800
788.435	-477
788.539	-724
788.643	-767
788.747	-1351
788.852	-1172
788.956	-937
789.060	233
789.164	-494
789.268	-1429
789.372	-747
789.476	-964
789.580	-619
789.684	281
789.788	-1292
789.892	-159
789.996	-866
790.100	-86
790.204	-630
790.308	-378
790.412	-1119
790.516	-904
790.620	-1383
790.724	180
790.828	-1331
790.931	-1129
791.035	-451
791.139	-390
791.242	-1671
791.346	292
791.450	-897
791.554	-1412
791.657	-967
791.761	1008
791.864	-1625
791.968	-352
792.072	-783
792.175	-852
792.279	-1590
792.382	-752
792.486	-1124
792.589	-732
792.693	-846
792.796	-582
792.899	-312
793.003	43
793.106	-1478
793.209	-816
793.313	312
793.416	-1205
793.519	-337
793.623	-383
793.726	-524
793.829	-951
793.932	-614
794.035	-1219
794.138	-826
794.242	-437
794.345	-362
794.448	-873
794.551	-915
794.654	1087
794.757	1883
794.860	24
794.963	-951
795.066	-1230
795.169	-401
795.272	-1549
795.375	-603
795.477	-1200
795.580	192
795.683	-1181
795.786	-872
795.889	-645
795.991	86
796.094	274
796.197	-1504
796.300	-831
796.402	-886
796.505	-1091
796.608	-1290
796.710	-291
796.813	-1199
796.915	-1085
797.018	-515
797.120	-5
797.223	-2077
797.326	-631
797.428	-1980
797.530	-88
797.633	-922
797.735	-567
797.838	-1358
797.940	-6
798.042	-757
798.145	-935
798.247	-126
798.349	-1324
798.452	-1124
798.554	-827
798.656	-1541
798.758	65
798.860	-1068
798.962	-1431
799.065	-2069
799.167	-1259
799.269	-799
799.371	-160
799.473	-111
799.575	-1018
799.677	-1054
799.779	-189
799.881	-1536
799.983	493
800.085	-625
800.187	-692
800.289	-1265
800.390	-455
800.492	-1463
800.594	241
800.696	-2144
800.798	-561
800.899	-1654
801.001	-431
801.103	-496
801.205	-1098
801.306	-573
801.408	-1065
801.509	-1705
801.611	-491
801.713	-1117
801.814	-841
801.916	-1341
802.017	-1164
802.119	-1173
802.220	-767
802.322	-2051
802.423	854
802.525	-1955
802.626	-826
802.727	-1110
802.829	-560
802.930	-2838
803.031	266
803.133	-2322
803.234	-1479
803.335	-1398
803.436	-1442
803.538	-177
803.639	-1101
803.740	-954
803.841	-1236
803.942	-897
804.043	-686
804.144	-1531
804.245	-699
804.346	-1843
804.447	-1100
804.548	-870
804.649	-189
804.750	-1523
804.851	-897
804.952	-1529
805.053	-579
805.154	-1423
805.255	-424
805.355	-1033
805.456	-775
805.557	-2397
805.658	-1320
805.758	-963
805.859	-1159
805.960	-1759
806.061	-1033
806.161	-1113
806.262	-564
806.362	-1436
806.463	-1398
806.564	-1004
806.664	-585
806.765	-1122
806.865	-638
806.966	-1424
807.066	-1105
807.166	-149
807.267	-382
807.367	-1103
807.468	-565
807.568	-2267
807.668	-400
807.769	-736
807.869	-1069
807.969	-685
808.069	-304
808.170	-1122
808.270	-866
808.370	-667
808.470	-837
808.570	-1532
808.670	-1031
808.770	-719
808.870	-1207
808.970	-1045
809.070	-92
809.170	-1046
809.271	433
809.370	-888
809.470	-298
809.570	-1069
809.670	-1036
809.770	-848
809.870	-823
809.970	-1068
810.070	-448
810.169	-350
810.269	-2488
810.369	-374
810.469	-739
810.568	-1686
810.668	-1203
810.768	-1231
810.867	-1026
810.967	-815
811.066	-947
811.166	-1261
811.265	-489
811.365	-1832
811.464	-1152
811.564	-1377
811.663	-446
811.763	-2255
811.862	-140
811.962	-993
812.061	-1252
812.160	-1401
812.260	-680
812.359	-1078
812.458	-1274
812.557	-535
812.657	-671
812.756	-787
812.855	-649
812.954	-1121
813.053	-316
813.153	-1055
813.252	-1062
813.351	-502
813.450	-860
813.549	-1306
813.648	-679
813.747	-1261
813.846	-1324
813.945	-1162
814.044	-1129
814.143	-1008
814.242	205
814.341	-1132
814.439	-491
814.538	-211
814.637	-343
814.736	-548
814.835	-443
814.933	-1338
815.032	-352
815.131	-1049
815.229	-475
815.328	15
815.427	-39
815.525	11
815.624	-639
815.722	-687
815.821	-719
815.919	-648
816.018	-1134
816.116	-46
816.215	-200
816.313	-175
816.412	159
816.510	-348
816.609	885
816.707	717
816.805	415
816.904	-370
817.002	1518
817.100	1152
817.198	2044
817.296	1011
817.395	1663
817.493	1916
817.591	2776
817.689	4505
817.787	6726
817.885	12049
817.983	23678
818.081	50126
818.179	114937
818.277	258732
818.375	212010
818.473	58042
818.571	23799
818.669	15479
818.767	13754
818.865	14045
818.963	17737
819.061	26110
819.158	46973
819.256	95658
819.354	206958
819.452	398742
819.549	256971
819.647	76077
819.745	34849
819.842	19905
819.940	14676
820.038	9068
820.135	7531
820.233	5773
820.330	4706
820.428	3043
820.525	3556
820.623	2224
820.720	1369
820.818	1500
820.915	2064
821.012	1671
821.110	864
821.207	1561
821.304	976
821.402	786
821.499	1606
821.596	1274
821.693	953
821.791	1234
821.888	897
821.985	767
822.082	-227
822.179	540
822.276	668
822.373	328
822.470	-58
822.567	-787
822.664	-379
822.761	-435
822.858	-876
822.955	327
823.052	-144
823.149	-861
823.246	-530
823.343	-1200
823.440	249
823.536	-655
823.633	-525
823.730	-567
823.827	-487
823.923	-1073
824.020	985
824.117	259
824.213	-1077
824.310	154
824.407	79
824.503	-594
824.600	620
824.696	-646
824.793	-405
824.889	-1426
824.986	-239
825.082	-1635
825.179	333
825.275	-936
825.371	-301
825.468	-389
825.564	-818
825.660	-724
825.757	-195
825.853	-171
825.949	-1124
826.045	-593
826.142	-1342
826.238	-481
826.334	-86
826.430	-346
826.526	-440
826.622	-1166
826.718	-1204
826.814	-1206
826.910	79
827.006	-1199
827.102	-581
827.198	-329
827.294	-477
827.390	-924
827.486	-112
827.582	-2127
827.678	-724
827.774	-362
827.869	-2334
827.965	-208
828.061	-1668
828.157	-1511
828.252	-45
828.348	-1420
828.444	45
828.539	-1575
828.635	-733
828.731	-571
828.826	-1568
828.922	-823
829.017	-1171
829.113	-828
829.208	-907
829.304	-1973
829.399	-54
829.495	-1470
829.590	-551
829.685	-1467
829.781	-536
829.876	-825
829.971	-515
830.066	-1047
830.162	-930
830.257	-1342
830.352	-1387
830.447	-719
830.543	-326
830.638	-1579
830.733	-357
830.828	-1393
830.923	97
831.018	-1603
831.113	-214
831.208	-1585
831.303	-1170
831.398	-1149
831.493	-234
831.588	-1164
831.683	-1340
831.778	-1714
831.873	-146
831.967	17
832.062	-1506
832.157	-1374
832.252	339
832.346	-1966
832.441	-156
832.536	-912
832.631	-26
832.725	-483
832.820	-362
832.914	-1164
833.009	-964
833.104	-1135
833.198	-775
833.293	-1771
833.387	243
833.482	-872
833.576	-1121
833.670	-767
833.765	-897
833.859	-1551
833.954	-912
834.048	-1434
834.142	-674
834.237	-1629
834.331	-774
834.425	-1041
834.519	-1336
834.613	-706
834.708	-1874
834.802	-1348
834.896	-942
834.990	-1705
835.084	-401
835.178	-1600
835.272	-1151
835.366	-1630
835.460	-576
835.554	-920
835.648	-570
835.742	-1249
835.836	-1585
835.930	-1881
836.024	-583
836.117	-72
836.211	-487
836.305	-656
836.399	-492
836.493	-1970
836.586	-25
836.680	-1643
836.774	-849
836.867	-727
836.961	-1686
837.055	-1208
837.148	-1429
837.242	-793
837.335	-1640
837.429	-1142
837.522	-460
837.616	-2052
837.709	-160
837.803	-1366
837.896	-579
837.989	-1562
838.083	-222
838.176	-1204
838.269	-444
838.363	-440
838.456	-440
838.549	-504
838.642	-593
838.735	-336
838.829	-581
838.922	-1295
839.015	119
839.108	-1120
839.201	54
839.294	-1550
839.387	-1072
839.480	-2164
839.573	-291
839.666	-1471
839.759	-440
839.852	-1669
839.945	-1111
840.038	-1539
840.131	-1356
840.223	-1202
840.316	-524
840.409	-2013
840.502	-1550
840.594	-1311
840.687	-997
840.780	-887
840.873	-1241
840.965	-1477
841.058	-319
841.150	-534
841.243	-1529
841.336	-510
841.428	-1586
841.521	-1325
841.613	-1941
841.706	-788
841.798	-1138
841.890	-809
841.983	-874
842.075	-760
842.167	-805
842.260	-1226
842.352	-225
842.444	-1178
842.537	-428
842.629	278
842.721	-582
842.813	-1836
842.905	-2172
842.997	-857
843.090	-866
843.182	-1198
843.274	-500
843.366	1212
843.458	3130
843.550	1805
843.642	-835
843.734	-691
843.826	-1549
843.918	-1171
844.009	-622
844.101	-1505
844.193	-1246
844.285	-1515
844.377	-619
844.469	-906
844.560	-272
844.652	-1186
844.744	-396
844.835	-1149
844.927	-142
845.019	-1398
845.110	-714
845.202	-909
845.293	-949
845.385	-1449
845.476	-1096
845.568	10
845.659	-1183
845.751	-652
845.842	-1302
845.934	-1551
846.025	-1551
846.116	-1575
846.208	-1701
846.299	-1944
846.390	-746
846.482	-1645
846.573	-1155
846.664	-756
846.755	-854
846.846	-926
846.937	-1442
847.029	-1599
847.120	-1187
847.211	-1246
847.302	-257
847.393	-1914
847.484	-865
847.575	-1864
847.666	-1508
847.757	-1719
847.847	-1330
847.938	-833
848.029	-519
848.120	-1790
848.211	-670
848.302	-1596
848.392	-1151
848.483	-1095
848.574	-1573
848.664	-1417
848.755	-1135
848.846	-1382
848.936	-888
849.027	-790
849.118	-1587
849.208	-1965
849.299	-888
849.389	-492
849.480	1285
849.570	3006
849.661	6736
849.751	12209
849.841	4044
849.932	-1046
850.022	-860
850.112	-581
850.203	-963
850.293	-1440
850.383	-1871
850.474	-1340
850.564	-1233
850.654	-963
850.744	-1154
850.834	-1776
850.924	-1389
851.014	-1490
851.104	-795
851.194	-1118
851.284	-916
851.374	-1078
851.464	-840
851.554	-1365
851.644	-1440
851.734	-1547
851.824	-764
851.914	-1593
852.004	-1439
852.094	-1146
852.183	-1261
852.273	3
852.363	-954
852.452	-738
852.542	-913
852.632	-1457
852.721	-1010
852.811	-1560
852.901	-850
852.990	-1535
853.080	-211
853.169	-1328
853.259	-850
853.348	-1330
853.438	-1410
853.527	-660
853.617	332
853.706	2800
853.795	6369
853.885	13994
853.974	30588
854.063	54745
854.152	93360
854.242	34085
854.331	3110
854.420	696
854.509	-860
854.598	-318
854.687	372
854.777	-274
854.866	-1133
854.955	-1024
855.044	-759
855.133	-905
855.222	-713
855.311	-1778
855.400	-418
855.488	-1061
855.577	-1014
855.666	-1143
855.755	-585
855.844	-1379
855.933	-1114
856.021	-1601
856.110	-592
856.199	-2404
856.288	-1703
856.376	-1597
856.465	-1679
856.554	-163
856.642	-1372
856.731	-1639
856.819	-83
856.908	-1737
856.996	-959
857.085	-1645
857.173	-1409
857.262	-1968
857.350	-1139
857.438	-1169
857.527	-708
857.615	-1832
857.703	-894
857.792	-1176
857.880	-1067
857.968	-1857
858.056	-1725
858.145	-1425
858.233	-1812
858.321	-2244
858.409	-1077
858.497	-1847
858.585	-1671
858.673	-1225
858.761	-1728
858.849	-1550
858.937	-898
859.025	-1327
859.113	-838
859.201	-2698
859.289	-214
859.377	-1229
859.465	-1272
859.552	-1830
859.640	-1465
859.728	-1455
859.816	-1509
859.903	-1692
859.991	-1651
860.079	-1399
860.166	-1009
860.254	-1334
860.342	-674
860.429	-1432
860.517	-2315
860.604	-1537
860.692	-1257
860.779	-1608
860.867	-1757
860.954	-1628
861.042	-964
861.129	-1501
861.216	-1241
861.304	-1666
861.391	-1284
861.478	-1857
861.565	-426
861.653	-1052
861.740	-1131
861.827	-1704
861.914	-926
862.001	-2021
862.089	-341
862.176	-1698
862.263	-1239
862.350	-1718
862.437	-1849
862.524	-1436
862.611	-1255
862.698	-1472
862.785	-378
862.871	-1472
862.958	-1694
863.045	-1517
863.132	-1205
863.219	-2169
863.306	-1757
863.392	-841
863.479	-1344
863.566	-1463
863.652	-1288
863.739	-1619
863.826	-708
863.912	-1525
863.999	-1157
864.086	-1349
864.172	-1590
864.259	-1202
864.345	-971
864.432	-1812
864.518	-1253
864.604	-1930
864.691	-1332
864.777	-1412
864.863	-796
864.950	-656
865.036	-1421
865.122	-706
865.209	-450
865.295	-639
865.381	-495
865.467	-949
865.553	333
865.639	630
865.726	2733
865.812	7064
865.898	14546
865.984	20718
866.070	42469
866.156	48562
866.242	11406
866.328	1021
866.414	-425
866.499	-330
866.585	14
866.671	-272
866.757	-528
866.843	-667
866.928	-957
867.014	-1331
867.100	-436
867.186	-799
867.271	-1127
867.357	-868
867.442	-1128
867.528	-536
867.614	-246
867.699	-1186
867.785	-388
867.870	-1112
867.956	-697
868.041	131
868.127	126
868.212	181
868.297	-17
868.383	-761
868.468	-1153
868.553	-618
868.639	-874
868.724	366
868.809	1153
868.894	-810
868.979	-1371
869.065	-953
869.150	-2048
869.235	-955
869.320	-963
869.405	-1092
869.490	-1638
869.575	-1523
869.660	-72
869.745	-1113
869.830	-771
869.915	-1590
870.000	-1250
870.085	-1543
870.169	-730
870.254	-824
870.339	-734
870.424	-1284
870.509	-981
870.593	-1470
870.678	-887
870.763	-2193
870.847	-343
870.932	-1621
871.016	-984
871.101	-1245
871.186	-500
871.270	-943
871.355	-1551
871.439	-1391
871.523	-1572
871.608	-1434
871.692	-1140
871.777	-1569
871.861	-361
871.945	-2019
872.030	-570
872.114	-1507
872.198	-1091
872.282	-1333
872.367	-1231
872.451	-1235
872.535	-839
872.619	-1179
872.703	-1303
872.787	-1059
872.871	-1237
872.955	-1475
873.039	-933
873.123	-2104
873.207	-966
873.291	-826
873.375	-1007
873.459	-1624
873.543	-2089
873.627	-888
873.711	-1239
873.794	-1548
873.878	-897
873.962	-1559
874.045	-1252
874.129	-1788
874.137	-1754
874.213	-1411
874.245	-1340
874.296	-1230
874.352	-1240
874.380	-1248
874.460	-1773
874.464	-1795
874.547	-949
874.568	-1199
874.631	-1954
874.676	-1484
874.714	-1080
874.784	-1523
874.798	-1615
874.881	-318
874.892	-580
874.965	-2389
874.999	-1764
875.048	-924
875.107	-1461
875.131	-1660
875.215	-39
875.215	-40
875.298	-1087
875.323	-1116
875.381	-1136
875.430	-1043
875.465	-960
875.538	-1108
875.548	-1135
875.631	-676
875.646	-788
875.714	-1385
875.753	-1304
875.798	-1142
875.861	-753
875.881	-647
875.964	-1338
875.968	-1299
876.047	-566
876.076	-508
876.130	-446
876.183	-446
876.213	-465
876.291	-786
876.296	-798
876.379	-877
876.398	-1076
876.462	-1831
876.506	-1540
876.545	-1243
876.613	-973
876.628	-897
876.711	-707
876.721	-641
876.794	-176
876.828	-184
876.877	-308
876.935	-937
876.960	-1136
877.043	-392
877.043	-391
877.125	139
877.150	77
877.208	-124
877.258	-273
877.291	-296
877.365	-150
877.374	-144
877.456	-314
877.472	-262
877.539	-29
877.579	-77
877.622	-147
877.687	-326
877.704	-377
877.787	-529
877.794	-516
877.869	-215
877.901	-75
877.952	-3
878.008	42
878.034	101
878.115	-226
878.117	-225
878.199	59
878.222	45
878.282	-205
878.329	359
878.364	762
878.437	-382
878.447	-523
878.529	-380
878.544	-391
878.611	-555
878.651	-559
878.694	-424
878.758	-398
878.776	-416
878.858	-186
878.865	-187
878.941	-348
878.972	-373
879.023	-243
879.078	-327
879.105	-375
879.185	101
879.187	111
879.269	74
879.292	-126
879.351	-517
879.399	-402
879.433	-404
879.506	243
879.516	355
879.598	-52
879.613	-143
879.680	-624
879.720	-673
879.762	-524
879.827	208
879.844	262
879.926	-227
879.933	-224
880.007	242
880.040	-89
880.089	-575
880.147	-317
880.171	-252
880.253	-98
880.254	-100
880.335	432
880.360	503
880.417	936
880.467	1436
880.499	1692
880.574	2085
880.580	2044
880.662	1507
880.680	1089
880.744	-216
880.787	-143
880.825	119
880.893	-290
880.907	-362
880.989	-21
881.000	-110
881.070	-568
881.106	-346
881.152	-103
881.213	-493
881.233	-552
881.315	351
881.319	339
881.396	326
881.426	497
881.478	386
881.532	38
881.559	11
881.639	181
881.641	188
881.722	-324
881.745	-169
881.803	596
881.852	773
881.885	517
881.958	434
881.966	489
882.047	138
882.064	165
882.129	239
882.171	211
882.210	290
882.277	664
882.291	704
882.372	254
882.383	311
882.454	1044
882.489	924
882.535	290
882.596	153
882.616	288
882.697	142
882.702	156
882.778	397
882.808	358
882.859	304
882.914	581
882.940	597
883.020	-118
883.021	-114
883.102	150
883.127	151
883.183	344
883.233	549
883.264	486
883.339	486
883.345	465
883.426	-132
883.445	-201
883.507	246
883.551	286
883.587	121
883.657	144
883.668	264
883.749	1296
883.763	1305
883.830	347
883.869	139
883.910	305
883.975	309
883.991	317
884.072	861
884.081	853
884.152	1046
884.187	1154
884.233	1052
884.292	920
884.314	819
884.394	492
884.398	465
884.475	33
884.504	-106
884.555	213
884.610	517
884.636	606
884.716	829
884.716	836
884.797	818
884.821	823
884.877	855
884.927	537
884.958	317
885.033	556
885.038	569
885.118	114
885.139	69
885.199	460
885.244	466
885.279	450
885.350	874
885.359	913
885.439	1155
885.456	1150
885.520	1019
885.561	842
885.600	687
885.667	617
885.680	629
885.760	669
885.773	641
885.840	655
885.878	731
885.920	637
885.984	435
886.000	458
886.080	311
886.089	314
886.160	779
886.195	879
886.240	670
886.300	719
886.320	841
886.400	1086
886.406	1094
886.480	964
886.511	836
886.560	911
886.616	1175
886.640	1103
886.720	598
886.722	581
886.800	1011
886.827	1095
886.879	1043
886.932	1152
886.959	1325
887.038	1534
887.039	1538
887.119	1119
887.143	963
887.198	922
887.248	909
887.278	863
887.354	445
887.358	478
887.437	1201
887.459	1370
887.517	1104
887.564	927
887.596	862
887.669	512
887.676	531
887.755	831
887.774	853
887.835	760
887.880	808
887.914	951
887.985	1014
887.994	1075
888.073	1760
888.090	1845
888.153	1235
888.195	863
888.232	820
888.300	681
888.311	719
888.391	987
888.405	1004
888.470	897
888.510	937
888.549	1122
888.615	1308
888.628	1236
888.708	721
888.720	630
888.787	872
888.825	1040
888.866	962
888.930	766
888.945	822
889.024	1111
889.035	1144
889.103	1165
889.140	1138
889.182	1292
889.245	1525
889.261	1482
889.340	1237
889.349	1197
889.419	939
889.454	822
889.498	1021
889.559	1263
889.577	1335
889.656	1634
889.664	1655
889.735	1754
889.768	1792
889.814	1677
889.873	1506
889.978	1291
890.083	1052
890.187	1568
890.292	1730
890.397	1021
890.501	1251
890.606	1347
890.710	1689
890.815	1984
890.919	1387
891.024	1210
891.128	1662
891.233	1583
891.337	1720
891.442	1838
891.546	1266
891.650	780
891.755	859
891.859	1407
891.963	1203
892.068	2285
892.172	1268
892.276	897
892.380	1803
892.484	1757
892.589	2096
892.693	1504
892.797	1308
892.901	1488
893.005	1625
893.109	1654
893.213	939
893.317	1090
893.421	727
893.525	1157
893.629	1795
893.733	1401
893.837	1404
893.941	1073
894.045	1474
894.148	592
894.252	2386
894.356	1743
894.460	1310
894.564	987
894.667	1261
894.771	296
894.875	940
894.978	868
895.082	1356
895.186	1067
895.289	1258
895.393	1161
895.496	1016
895.600	708
895.703	448
895.807	809
895.910	914
896.014	1101
896.117	140
896.221	1217
896.324	676
896.427	1011
896.531	322
896.634	1200
896.737	1077
896.840	560
896.944	1059
897.047	867
897.150	1162
897.253	346
897.356	1185
897.460	690
897.563	1031
897.666	538
897.769	-80
897.872	763
897.975	216
898.078	862
898.181	1435
898.284	702
898.387	756
898.490	506
898.593	1242
898.695	374
898.798	1272
898.901	927
899.004	997
899.107	431
899.209	1376
899.312	1343
899.415	805
899.518	1182
899.620	1113
899.723	1875
899.826	1556
899.928	2110
900.031	1253
900.133	1437
900.236	967
900.338	-287
900.441	1505
900.543	903
900.646	833
900.748	150
900.851	1129
900.953	991
901.055	35
901.158	1096
901.260	972
901.362	834
901.465	614
901.567	1063
901.669	579
901.771	-155
901.873	837
901.976	579
902.078	1165
902.180	462
902.282	601
902.384	1274
902.486	930
902.588	887
902.690	651
902.792	871
902.894	1463
902.996	556
903.098	817
903.200	717
903.302	1296
903.404	748
903.505	942
903.607	766
903.709	713
903.811	1188
903.913	524
904.014	418
904.116	103
904.218	625
904.319	669
904.421	1012
904.523	689
904.624	648
904.726	459
904.827	607
904.929	208
905.030	522
905.132	1081
905.233	1394
905.335	265
905.436	915
905.537	147
905.639	568
905.740	854
905.841	363
905.943	966
906.044	461
906.145	537
906.247	-280
906.348	290
906.449	978
906.550	568
906.651	-204
906.752	999
906.854	1208
906.955	150
907.056	623
907.157	951
907.258	1192
907.359	-613
907.460	417
907.561	378
907.662	-85
907.762	852
907.863	228
907.964	914
908.065	905
908.166	749
908.267	290
908.367	485
908.468	613
908.569	1170
908.670	650
908.770	1507
908.871	929
908.971	2322
909.072	967
909.173	727
909.273	183
909.374	1036
909.474	707
909.575	87
909.675	719
909.776	775
909.876	1179
909.977	712
910.077	743
910.177	686
910.278	472
910.378	-364
910.478	389
910.579	1259
910.679	359
910.779	467
910.879	556
910.980	263
911.080	910
911.180	427
911.280	107
911.380	349
911.480	1358
911.580	316
911.680	1605
911.780	629
911.880	314
911.980	1011
912.080	353
912.180	630
912.280	653
912.380	974
912.480	309
912.580	-32
912.679	898
912.779	832
912.879	882
912.979	917
913.078	658
913.178	1017
913.278	640
913.377	124
913.477	337
913.577	576
913.676	826
913.776	568
913.875	529
913.975	-48
914.074	1007
914.174	885
914.273	-139
914.373	713
914.472	601
914.572	252
914.671	238
914.770	860
914.870	407
914.969	362
915.068	61
915.167	102
915.267	295
915.366	352
915.465	1050
915.564	673
915.663	683
915.763	131
915.862	953
915.961	642
916.060	198
916.159	263
916.258	820
916.357	159
916.456	-74
916.555	611
916.654	-81
916.752	438
916.851	-296
916.950	-88
917.049	198
917.148	235
917.247	408
917.345	300
917.444	710
917.543	914
917.642	623
917.740	-79
917.839	522
917.937	924
918.036	1481
918.135	234
918.233	108
918.332	649
918.430	-5
918.529	510
918.627	576
918.726	876
918.824	219
918.923	859
919.021	336
919.119	452
919.218	-43
919.316	162
919.414	731
919.512	683
919.611	1308
919.709	307
919.807	376
919.905	258
920.003	291
920.102	-432
920.200	571
920.298	371
920.396	1133
920.494	445
920.592	-150
920.690	333
920.788	538
920.886	368
920.984	1184
921.082	1470
921.180	1397
921.277	1218
921.375	825
921.473	773
921.571	1116
921.669	1117
921.766	-141
921.864	2031
921.962	482
922.060	1251
922.157	1423
922.255	1113
922.352	1214
922.450	1163
922.548	902
922.645	1251
922.743	1752
922.840	2573
922.938	3222
923.035	2577
923.133	2290
923.230	2929
923.327	2978
923.425	3099
923.522	2764
923.619	2557
923.717	2447
923.814	2239
923.911	2567
924.008	3046
924.106	2674
924.203	1593
924.300	2047
924.397	2308
924.494	1956
924.591	3083
924.688	1882
924.786	3018
924.883	2334
924.979	1704
925.077	1842
925.173	2070
925.270	2358
925.367	2192
925.464	1806
925.561	2954
925.658	2346
925.755	2352
925.852	2789
925.948	2714
926.045	2423
926.142	2678
926.239	2370
926.335	2091
926.432	2144
926.529	2023
926.625	3126
926.722	1709
926.818	1903
926.915	2163
927.011	2042
927.108	2475
927.204	2107
927.301	1411
927.397	665
927.494	2621
927.590	677
927.687	1703
927.783	1961
927.879	1595
927.976	1602
928.072	1561
928.168	1994
928.264	2196
928.361	2027
928.457	1581
928.553	925
928.649	1380
928.745	2056
928.841	1854
928.937	2325
929.033	1406
929.129	1146
929.225	1287
929.321	2337
929.417	894
929.513	1609
929.609	1033
929.705	1381
929.801	2371
929.897	1201
929.993	1035
930.089	1902
930.184	2045
930.280	1386
930.376	1927
930.471	1619
930.567	1006
930.663	2112
930.758	1598
930.854	1418
930.950	1368
931.045	1324
931.141	1373
931.236	2341
931.332	2001
931.427	1250
931.523	1927
931.618	1775
931.714	1021
931.809	1148
931.905	2065
932.000	941
932.095	1089
932.191	1444
932.286	1407
932.381	1740
932.476	1410
932.572	1153
932.667	1489
932.762	1920
932.857	1780
932.952	1079
933.047	1333
933.142	701
933.237	866
933.332	2230
933.427	1584
933.522	1042
933.617	1461
933.712	547
933.807	2036
933.902	1398
933.997	1697
934.092	823
934.187	808
934.282	1524
934.376	1683
934.471	1666
934.566	811
934.661	999
934.755	1234
934.850	2085
934.945	1726
935.039	987
935.134	1568
935.228	1666
935.323	1684
935.417	1112
935.512	1050
935.606	471
935.701	1204
935.795	656
935.890	771
935.984	744
936.079	471
936.173	1468
936.267	791
936.362	864
936.456	1141
936.550	2047
936.644	1390
936.738	1165
936.833	93
936.927	861
937.021	608
937.115	1254
937.209	-244
937.303	1187
937.397	94
937.491	1025
937.585	2317
937.679	888
937.773	341
937.867	767
937.961	1295
938.055	557
938.149	1276
938.243	1422
938.337	736
938.430	208
938.524	1190
938.618	593
938.712	413
938.805	1191
938.899	393
938.993	750
939.086	640
939.180	690
939.274	668
939.367	450
939.461	943
939.554	192
939.648	1853
939.741	855
939.835	809
939.928	1779
940.022	1064
940.115	563
940.208	664
940.302	1072
940.395	1414
940.488	579
940.582	957
940.675	50
940.768	396
940.861	252
940.954	739
941.048	100
941.141	212
941.234	658
941.327	1723
941.420	2341
941.513	1038
941.606	521
941.699	244
941.792	371
941.885	682
941.978	383
942.071	-40
942.164	-205
942.257	-62
942.349	77
942.442	456
942.535	100
942.628	418
942.721	1039
942.813	-430
942.906	1098
942.999	182
943.091	-59
943.184	727
943.277	216
943.369	-174
943.462	-308
943.554	731
943.647	507
943.739	552
943.832	110
943.924	-736
944.017	664
944.109	-674
944.201	606
944.294	-140
944.386	228
944.478	-60
944.571	-163
944.663	220
944.755	782
944.847	575
944.940	-215
945.032	-538
945.124	-312
945.216	582
945.308	-21
945.400	1014
945.492	20
945.584	-104
945.676	666
945.768	593
945.860	1324
945.952	966
946.044	807
946.136	181
946.228	155
946.320	-509
946.412	-15
946.503	347
946.595	928
946.687	265
946.779	805
946.870	167
946.962	-294
947.054	187
947.145	400
947.237	242
947.329	308
947.420	-523
947.512	93
947.603	444
947.695	-609
947.786	174
947.878	-297
947.969	-261
948.061	401
948.152	-240
948.243	-548
948.335	-131
948.426	-205
948.517	285
948.609	-178
948.700	-205
948.791	425
948.882	310
948.973	-270
949.065	-51
949.156	432
949.247	-779
949.338	-206
949.429	-748
949.520	124
949.611	-9
949.702	427
949.793	-224
949.884	-1468
949.975	-859
950.066	-560
950.157	-432
950.247	-614
950.338	-641
950.429	-362
950.520	-164
950.611	184
950.701	-133
950.792	455
950.883	129
950.973	-198
951.064	-189
951.155	-409
951.245	-290
951.336	146
951.427	-381
951.517	386
951.608	-80
951.698	-210
951.788	-99
951.879	-562
951.969	-867
952.060	-815
952.150	-343
952.240	-340
952.331	-1322
952.421	-249
952.511	-543
952.602	-214
952.692	-920
952.782	-834
952.872	-650
952.962	40
953.052	-713
953.143	-1859
953.233	415
953.323	-288
953.413	-273
953.503	-63
953.593	71
953.683	-450
953.773	-1274
953.863	-675
953.953	-420
954.042	141
954.132	-734
954.222	-262
954.312	-242
954.402	-261
954.492	-220
954.581	149
954.671	-152
954.761	68
954.850	519
954.940	-659
955.030	-724
955.119	-1020
955.209	-592
955.298	-790
955.388	-1399
955.477	181
955.567	-994
955.656	-382
955.746	-156
955.835	-473
955.925	-973
956.014	-642
956.103	-526
956.193	-293
956.282	-102
956.371	34
956.461	-543
956.550	-750
956.639	-66
956.728	-495
956.817	-297
956.906	-70
956.995	-233
957.085	-1234
957.174	-446
957.263	-235
957.352	6
957.441	-762
957.530	-781
957.619	-336
957.708	-750
957.796	-194
957.885	-646
957.974	-1033
958.063	-930
958.152	-1755
958.241	-779
958.329	-1095
958.418	-1069
958.507	-1001
958.596	677
958.684	-847
958.773	-144
958.861	-971
958.950	-115
959.039	-280
959.127	-737
959.216	211
959.304	-623
959.393	-869
959.481	-449
959.570	49
959.658	-437
959.746	-824
959.835	883
959.923	1502
960.011	291
960.100	196
960.188	-285
960.276	-132
960.365	-1363
960.453	-999
960.541	-1147
960.629	-571
960.717	-1280
960.805	-1231
960.893	-373
960.981	-1361
961.069	-155
961.158	131
961.245	-368
961.333	-809
961.421	-277
961.509	-257
961.597	-177
961.685	-702
961.773	-1357
961.861	-518
961.949	-222
962.036	-672
962.124	-304
962.212	-240
962.299	-1618
962.387	-1417
962.475	120
962.562	-1307
962.650	-724
962.738	-857
962.825	-607
962.913	278
963.000	-381
963.088	-1355
963.175	-36
963.263	-475
963.350	-337
963.438	-520
963.525	287
963.612	1104
963.700	3903
963.787	10116
963.874	5837
963.962	-998
964.049	-263
964.136	-313
964.223	-2195
964.310	248
964.398	-853
964.485	-834
964.572	-388
964.659	1378
964.746	1301
964.833	-255
964.920	-1379
965.007	-505
965.094	-353
965.181	-699
965.268	-1165
965.355	-911
965.441	-665
965.528	-1002
965.615	-562
965.702	-978
965.789	-476
965.875	-524
965.962	-992
966.049	-1457
966.136	-160
966.222	-542
966.309	-725
966.395	-712
966.482	-375
966.569	-1346
966.655	-682
966.742	-132
966.828	-880
966.915	-621
967.001	-1193
967.087	-475
967.174	-189
967.260	-633
967.347	669
967.433	3206
967.519	6216
967.605	2152
967.692	-11
967.778	-851
967.864	-1107
967.950	-726
968.036	-1309
968.123	-523
968.209	-819
968.295	-1345
968.381	-64
968.467	-260
968.553	-2087
968.639	1136
968.725	-391
968.811	818
968.897	1304
968.983	-486
969.069	-1559
969.154	-517
969.240	-685
969.326	-1082
969.412	-370
969.497	-758
969.583	-884
969.669	-448
969.755	-368
969.840	-328
969.926	17
970.012	-347
970.097	1068
970.183	-31
970.268	316
970.354	514
970.439	1405
970.525	3809
970.610	990
970.696	-118
970.781	-333
970.866	-826
970.952	-436
971.037	-470
971.122	-412
971.208	-836
971.293	-778
971.378	-1706
971.463	-383
971.549	-331
971.634	-995
971.719	-431
971.804	-194
971.889	26
971.974	-589
972.059	-385
972.144	2
972.229	-1099
972.314	-321
972.399	-482
972.484	-383
972.569	118
972.654	-333
972.739	2071
972.824	1141
972.908	-320
972.993	-587
973.078	-1469
973.163	-141
973.247	-867
973.332	-1302
973.417	246
973.501	-616
973.586	-629
973.671	-464
973.755	-604
973.840	-625
973.924	-302
974.009	-597
974.093	-711
974.178	923
974.262	403
974.346	367
974.431	-150
974.515	-982
974.600	-597
974.684	-748
974.768	-1356
974.852	-547
974.937	-1095
975.021	-1046
975.105	-105
975.189	-1320
975.273	-808
975.358	-298
975.442	-1086
975.526	-25
975.610	-825
975.694	-647
975.778	229
975.862	-364
975.946	-2353
976.030	920
976.114	-891
976.198	-905
976.281	-640
976.365	192
976.449	-253
976.533	-823
976.617	-927
976.700	-671
976.784	-1066
976.868	-899
976.951	-1
977.035	18
977.119	-821
977.202	-522
977.286	-1131
977.369	-330
977.453	788
977.536	-1078
977.620	-1071
977.703	-818
977.787	-609
977.870	-476
977.953	-400
978.037	-1671
978.120	299
978.203	-168
978.287	1637
978.370	714
978.453	-788
978.536	-739
978.620	620
978.703	163
978.786	57
978.869	-527
978.952	-1677
979.035	990
979.118	-380
979.201	-1142
979.284	-1097
979.367	-814
979.450	360
979.533	-1123
979.616	-1162
979.699	-1668
979.782	-567
979.865	-959
979.948	-1268
980.030	-1169
980.113	-1115
980.196	-1824
980.279	-879
980.361	-1269
980.444	-587
980.526	-250
980.609	-2019
980.692	-756
980.774	-717
980.857	-1160
980.939	416
981.022	-960
981.104	-1272
981.187	-985
981.269	-429
981.352	-1261
981.434	-1037
981.516	-1131
981.599	-167
981.681	-452
981.763	-311
981.846	-653
981.928	-2027
982.010	-669
982.092	-1841
982.174	-1333
982.256	-1146
982.339	-852
982.421	-411
982.503	-758
982.585	-1512
982.667	-556
982.749	-895
982.831	-486
982.913	-1601
982.995	100
983.077	-1158
983.158	-212
983.240	-1633
983.322	-59
983.404	-137
983.486	-882
983.568	-599
983.649	47
983.731	-140
983.813	-1311
983.894	-673
983.976	-1319
984.058	-1132
984.139	-678
984.221	-1345
984.302	-231
984.384	-1601
984.465	-1218
984.547	-470
984.628	-1267
984.710	-1152
984.791	-1214
984.872	-1257
984.954	-890
985.035	-230
985.116	-1772
985.198	-228
985.279	54
985.360	-27
985.441	-1013
985.522	-347
985.604	-495
985.685	-1867
985.766	638
985.847	-44
985.928	-1712
986.009	-389
986.090	-318
986.171	-222
986.252	-498
986.333	-386
986.414	-1295
986.495	-545
986.576	-405
986.656	-837
986.737	-487
986.818	-1093
986.899	-680
986.980	-809
987.060	-415
987.141	-864
987.222	-790
987.302	-940
987.383	-945
987.464	-719
987.544	-88
987.625	-260
987.705	-358
987.786	-800
987.866	-1295
987.947	-1089
988.027	-1080
988.108	-659
988.188	192
988.268	-1946
988.349	-1152
988.429	389
988.509	-847
988.589	-713
988.670	-1426
988.750	-315
988.830	-1277
988.910	-541
988.990	-428
989.070	-1866
989.151	-780
989.231	-1760
989.311	-417
989.391	-430
989.471	-1456
989.551	-1195
989.631	-674
989.711	-540
989.791	-1415
989.870	-1137
989.950	-376
990.030	-995
990.110	-756
990.190	-1380
990.269	-1460
990.349	-1274
990.429	-1128
990.509	-513
990.588	-1563
990.668	-906
990.747	-486
990.827	-726
990.907	-362
990.986	-1315
991.066	-188
991.145	-1667
991.225	-673
991.304	-1663
991.383	-865
991.463	-375
991.542	-415
991.622	-554
991.701	-1241
991.780	-1301
991.859	-908
991.939	-677
992.018	-556
992.097	-869
992.176	-1225
992.256	-1306
992.335	-1614
992.414	-927
992.493	-716
992.572	-1134
992.651	-207
992.730	-1246
992.809	-857
992.888	-1718
992.967	-1139
993.046	-716
993.125	-889
993.203	-1449
993.282	-1227
993.361	-1370
993.440	-445
993.519	-1929
993.597	-831
993.676	-1337
993.755	-428
993.834	-1388
993.912	-1789
993.991	-857
994.069	-1464
994.148	-403
994.226	-1441
994.305	-621
994.384	-941
994.462	-545
994.540	-1288
994.619	-1778
994.697	-1170
994.776	-1618
994.854	-1412
994.932	-1233
995.011	-288
995.089	-1888
995.167	-1589
995.245	-953
995.324	-1942
995.402	-1379
995.480	-1632
995.558	-1462
995.636	-1601
995.714	-1246
995.792	217
995.870	-1097
995.948	-1219
996.026	-1024
996.104	-1359
996.182	-97
996.260	-664
996.338	-1440
996.416	-1934
996.494	-1867
996.572	-937
996.649	-998
996.727	-1297
996.805	-1093
996.883	-1401
996.960	-1866
997.038	-341
997.116	-887
997.193	-2010
997.271	-967
997.348	-1193
997.426	-1377
997.504	-1782
997.581	-1129
997.658	-1062
997.736	-1638
997.813	-1657
997.891	-769
997.968	-1119
998.046	-1064
998.123	-1540
998.200	-1072
998.277	-2078
998.355	-1333
998.432	-1639
998.509	-1713
998.586	-562
998.663	-714
998.741	-1491
998.818	-1623
998.895	-1509
998.972	171
999.049	-1339
999.126	-2096
999.203	-1444
999.280	-1233
999.357	-2296
999.434	-2065
999.511	-1115
999.587	-1054
999.664	-1678
999.741	-1646
999.818	-700
999.895	-948
999.971	-2095
1000.048	-1604
1000.125	-866
1000.202	-1978
1000.278	-1074
1000.355	-1036
1000.431	-1397
1000.508	-2112
1000.584	-624
1000.661	-787
1000.738	-1715
1000.814	-1840
1000.890	-1038
1000.967	-1831
1001.043	-189
1001.120	-2206
1001.196	-645
1001.272	-807
1001.349	-1898
1001.425	-1496
1001.501	-1611
1001.577	-2513
1001.654	-1722
1001.730	-1607
1001.806	-1813
1001.882	-1780
1001.958	-1321
1002.034	-1057
1002.110	-1788
1002.186	-2569
1002.262	-1939
1002.338	-3333
1002.414	-590
1002.490	-1547
1002.566	-1384
1002.642	-1725
1002.718	-768
1002.794	-1875
1002.870	-1977
1002.945	-1881
1003.021	-1153
1003.097	-2026
1003.173	-1499
1003.248	-1802
1003.324	-1217
1003.400	-1771
1003.475	-1525
1003.551	-2043
1003.626	-1497
1003.702	-1877
1003.777	-1155
1003.853	-759
1003.928	-2051
1004.004	-1510
1004.079	-1242
1004.155	-1855
1004.230	-2214
1004.305	-1324
1004.381	-1730
1004.456	-1602
1004.531	-1587
1004.607	-2080
1004.682	-1631
1004.757	-1036
1004.832	-1895
1004.907	-2042
1004.982	-1302
1005.057	-1623
1005.133	-1142
1005.208	-2347
1005.283	-1109
1005.358	-663
1005.433	-1773
1005.508	-1445
1005.583	-2083
1005.657	-1556
1005.732	-1282
1005.807	-2351
1005.882	-1861
1005.957	-1763
1006.032	-1332
1006.106	-1775
1006.181	-1500
1006.256	-1693
1006.331	-1586
1006.405	-2120
1006.480	-1476
1006.554	-1658
1006.629	-1977
1006.704	-2381
1006.778	-1025
1006.853	-886
1006.927	-1717
1007.002	-1676
1007.076	-1671
1007.150	-1799
1007.225	-2227
1007.299	-1488
1007.373	-1870
1007.448	-1399
1007.522	-1028
1007.596	-1452
1007.671	-1894
1007.745	-1891
1007.819	-2550
1007.893	-1878
1007.967	-1004
1008.041	-2349
1008.115	-568
1008.190	-2183
1008.264	-2008
1008.338	-2714
1008.412	-1530
1008.486	-1942
1008.560	-1597
1008.633	-1870
1008.707	-2090
1008.781	-1895
1008.855	-1420
1008.929	-1860
1009.003	-1708
1009.076	-1345
1009.150	-1631
1009.224	-1321
1009.298	-1476
1009.371	-1826
1009.445	-1303
1009.519	-2181
1009.592	-2386
1009.666	-1852
1009.739	-1535
1009.813	-2182
1009.886	-634
1009.960	-3047
1010.033	-1980
1010.107	-1673
1010.180	-1884
1010.253	-1047
1010.327	-2857
1010.400	-2003
1010.473	-1177
1010.547	-1259
1010.620	-1980
1010.693	-1358
1010.766	-2512
1010.840	-938
1010.913	-1504
1010.986	-2686
1011.059	-1935
1011.132	-1710
1011.205	-2403
1011.278	-2102
1011.351	-1673
1011.424	-2075
1011.497	-1651
1011.570	-3085
1011.643	-1901
1011.716	-2030
1011.789	-1684
1011.862	-1970
1011.934	-1157
1012.007	-2556
1012.080	-1357
1012.153	-2411
1012.225	-1166
1012.298	-2850
1012.371	-1686
1012.443	-1187
1012.516	-2439
1012.588	-887
1012.661	-1584
1012.733	-1631
1012.806	-960
1012.879	-2152
1012.951	-1826
1013.023	-1367
1013.096	-1396
1013.168	-2287
1013.241	-845
1013.313	-1730
1013.385	-2222
1013.458	-1464
1013.530	-1894
1013.602	-2073
1013.674	-1088
1013.746	-2345
1013.819	-1649
1013.891	-1458
1013.963	-2330
1014.035	-1712
1014.107	-1064
1014.179	-2088
1014.251	-2184
1014.323	-2023
1014.395	-2042
1014.467	-1187
1014.539	-1700
1014.611	-2104
1014.683	-1327
1014.754	-1460
1014.826	-1635
1014.898	-1607
1014.970	-2476
1015.042	-1202
1015.113	-2373
1015.185	-2070
1015.257	-2365
1015.328	-1454
1015.400	-2041
1015.471	-2779
1015.543	-2808
1015.615	-1756
1015.686	-1947
1015.757	-2119
1015.829	-2083
1015.901	-1680
1015.972	-1575
1016.043	-2126
1016.115	-2072
1016.186	-1513
1016.257	-1651
1016.328	-2177
1016.400	-1510
1016.471	-2593
1016.542	-2161
1016.613	-1906
1016.685	-1945
1016.756	-1251
1016.827	-2628
1016.898	-2090
1016.969	-976
1017.040	-2249
1017.111	-2613
1017.182	-2136
1017.253	-2059
1017.324	-2062
1017.395	-2070
1017.466	-2090
1017.537	-1395
1017.608	-2302
1017.678	-2705
1017.749	-1839
1017.820	-2260
1017.891	-1570
1017.961	-2370
1018.032	-1879
1018.103	-843
1018.173	-2113
1018.244	-2329
1018.315	-2773
1018.385	-1593
1018.456	-1818
1018.526	-2560
1018.597	-1824
1018.667	-1896
1018.738	-2219
1018.808	-1719
1018.878	-2240
1018.949	-1465
1019.019	-1790
1019.089	-1998
1019.160	-2275
1019.230	-3018
1019.300	-2369
1019.371	-3385
1019.441	-1812
1019.511	-1884
1019.581	-2292
1019.651	-1938
1019.721	-2234
1019.791	-2193
1019.861	-1927
1019.931	-1235
1020.001	-2334
1020.071	-1786
1020.141	-2430
1020.211	-2367
1020.281	-1822
1020.351	-2488
1020.421	-1073
1020.491	-2055
1020.560	-2604
1020.630	-1831
1020.700	-1847
1020.770	-2349
1020.839	-2722
1020.909	-1541
1020.979	-2049
1021.048	-1956
1021.118	-2184
1021.187	-2375
1021.257	-2213
1021.326	-790
1021.396	-2386
1021.465	-2564
1021.535	-2122
1021.604	-2058
1021.674	-2438
1021.743	-2880
1021.812	-2641
1021.882	-2987
1021.951	-2653
1022.020	-2200
1022.089	-2119
1022.159	-2055
1022.228	-2505
1022.297	-2218
1022.366	-2352
1022.435	-2437
1022.504	-1939
1022.573	-1865
1022.642	-1878
1022.711	-2157
1022.781	-2188
1022.849	-1731
1022.918	-2824
1022.987	-2518
1023.056	-2845
1023.125	-2467
1023.194	-2595
1023.263	-2389
1023.331	-2572
1023.400	-2486
1023.469	-2458
1023.538	-1558
1023.606	-2465
1023.675	-2615
1023.744	-2612
1023.812	-2170
1023.881	-2070
1023.949	-2149
1024.018	-2416
1024.086	-2284
1024.155	-2044
1024.223	-2379
1024.292	-1400
1024.360	-1718
1024.429	-2140
1024.497	-2371
1024.565	-2289
1024.634	-2066
1024.702	-2244
1024.770	-2303
1024.838	-3060
1024.907	-1768
1024.975	-2328
1025.043	-1987
1025.111	-2842
1025.179	-1780
1025.247	-2167
1025.315	-1488
1025.383	-2044
1025.451	-1922
1025.519	-2243
1025.587	-2599
1025.655	-1996
1025.723	-2276
1025.791	-1989
1025.859	-1893
1025.927	-1710
1025.995	-1716
1026.062	-2552
1026.130	-1929
1026.198	-2654
1026.266	-2651
1026.333	-1443
1026.401	-1179
1026.469	-2356
1026.536	-1664
1026.604	-2253
1026.671	-1867
1026.739	-1883
1026.806	-2605
1026.874	-2665
1026.941	-2716
1027.009	-2170
1027.076	-2496
1027.144	-1441
1027.211	-2990
1027.278	-2745
1027.345	-1658
1027.413	-2321
1027.480	-2370
1027.547	-2108
1027.614	-2336
1027.682	-1375
1027.749	-2372
1027.816	-2779
1027.883	-1940
1027.950	-2188
1028.017	-1938
1028.084	-2123
1028.151	-2448
1028.218	-1988
1028.285	-1943
1028.352	-2079
1028.419	-2164
1028.486	-2146
1028.553	-2816
1028.619	-1952
1028.686	-1929
1028.753	-2208
1028.820	-2184
1028.886	-2472
1028.953	-2806
1029.020	-2351
1029.086	-1896
1029.153	-2538
1029.220	-2829
1029.286	-2170
1029.353	-1998
1029.419	-2299
1029.486	-1970
1029.552	-2374
1029.619	-1959
1029.685	-2685
1029.751	-2203
1029.818	-1588
1029.884	-2109
1029.951	-1076
1030.017	-2620
1030.083	-2183
1030.149	-1794
1030.216	-2067
1030.282	-1971
1030.348	-2774
1030.414	-1837
1030.480	-2354
1030.546	-1769
1030.612	-2291
1030.678	-2369
1030.744	-2763
1030.810	-2019
1030.876	-1761
1030.942	-2327
1031.008	-2961
1031.074	-2355
1031.140	-2140
1031.206	-1476
1031.272	-2116
1031.337	-1747
1031.403	-1842
1031.469	-1967
1031.534	-2355
1031.600	-2677
1031.666	-2980
1031.731	-2143
1031.797	-1199
1031.863	-1637
1031.928	-2250
1031.994	-2044
1032.059	-1915
1032.125	-1788
1032.190	-2507
1032.256	-2837
1032.321	-3107
1032.386	-2559
1032.452	-2433
1032.517	-1963
1032.582	-1260
1032.647	-1596
1032.713	-2730
1032.778	-1996
1032.843	-1765
1032.908	-2326
1032.974	-1637
1033.039	-2506
1033.104	-2020
1033.169	-3169
1033.234	-2747
1033.299	-1540
1033.364	-1838
1033.429	-2222
1033.494	-2551
1033.559	-2227
1033.624	-2138
1033.688	-1471
1033.753	-1962
1033.818	-745
1033.883	-1943
1033.948	-773
1034.013	-1780
1034.077	-1214
1034.142	-1908
1034.207	-1413
1034.271	-196
1034.336	149
1034.400	550
1034.465	0
1034.530	-1113
1034.594	-1265
1034.658	-1880
1034.723	-1961
1034.787	-1444
1034.852	-2222
1034.916	-1532
1034.981	-2214
1035.045	-2205
1035.109	-1893
1035.173	-1910
1035.238	-2010
1035.302	-1909
1035.366	-2540
1035.430	-1346
1035.495	-2324
1035.559	-2060
1035.623	-2226
1035.687	-1555
1035.751	-2286
1035.815	-2016
1035.879	-1577
1035.943	-2501
1036.007	-2472
1036.071	-2413
1036.135	-2103
1036.198	-2206
1036.262	-2529
1036.326	-1658
1036.390	-1311
1036.454	-1184
1036.517	-1914
1036.581	-2151
1036.645	-1810
1036.709	-1281
1036.772	-2391
1036.836	-1427
1036.900	-1080
1036.963	-2369
1037.026	-2045
1037.090	-2258
1037.154	-1223
1037.217	-1933
1037.280	-1873
1037.344	-1130
1037.407	-2087
1037.471	-1743
1037.534	-1547
1037.597	-2067
1037.661	-2271
1037.724	-1864
1037.787	-1728
1037.850	-1668
1037.913	-1633
1037.977	-1189
1038.040	-2037
1038.103	-2020
1038.166	-1985
1038.229	-1016
1038.292	-1630
1038.355	-1343
1038.418	-1683
1038.481	-937
1038.544	-1639
1038.607	-1957
1038.670	-1570
1038.732	-2114
1038.795	-1619
1038.858	-1853
1038.921	-2244
1038.984	-1647
1039.046	-1473
1039.109	-1992
1039.172	-2204
1039.234	-2264
1039.297	-2328
1039.360	-1756
1039.422	-2076
1039.485	-1216
1039.547	-2593
1039.610	-1496
1039.672	-2037
1039.734	-1043
1039.797	-1702
1039.859	-1672
1039.922	-2085
1039.984	-1279
1040.046	-1756
1040.109	-1772
1040.171	-2419
1040.233	-1940
1040.295	-2123
1040.358	-2473
1040.420	-2223
1040.482	-1553
1040.544	-1612
1040.606	-1834
1040.668	-1205
1040.730	-1997
1040.792	-1663
1040.854	-1871
1040.916	-2828
1040.978	-2593
1041.040	-708
1041.102	-1055
1041.164	-1575
1041.225	-1824
1041.287	-1535
1041.349	-1576
1041.411	-1781
1041.472	-2186
1041.534	-2049
1041.596	-1927
1041.657	-1984
1041.719	-1557
1041.781	-2076
1041.842	-1043
1041.904	-1208
1041.965	-1740
1042.027	-1791
1042.088	-782
1042.150	-2120
1042.211	-1873
1042.272	-1634
1042.334	-1457
1042.395	-1994
1042.456	-1854
1042.518	-1091
1042.579	-1117
1042.640	-2281
1042.701	-1866
1042.763	-2154
1042.824	-1538
1042.885	-2368
1042.946	-1771
1043.007	-1767
1043.068	-2361
1043.129	-1188
1043.190	-2678
1043.251	-1202
1043.312	-1407
1043.373	-1213
1043.434	-1979
1043.495	-2345
1043.556	-1583
1043.616	-2981
1043.677	-1674
1043.738	-2372
1043.799	-1881
1043.859	-2633
1043.920	-1884
1043.981	-2050
1044.041	-1518
1044.102	-1472
1044.162	-1840
1044.223	-2177
1044.284	-2064
1044.344	-1734
1044.405	-1768
1044.465	-1350
1044.525	-2532
1044.586	-1844
1044.646	-2042
1044.707	-1684
1044.767	-1674
1044.827	-1837
1044.887	-2239
1044.948	-1251
1045.008	-1428
1045.068	-2054
1045.128	-1801
1045.188	-2166
1045.249	-1517
1045.309	-1572
1045.369	-2258
1045.429	-1777
1045.489	-1351
1045.549	-1832
1045.609	-2613
1045.669	-1533
1045.729	-1880
1045.789	-2039
1045.848	-1521
1045.908	-2199
1045.968	-1195
1046.028	-1531
1046.088	-1749
1046.147	-2246
1046.207	-1558
1046.267	-1320
1046.326	-1618
1046.386	-1954
1046.446	-991
1046.505	-1497
1046.565	-1542
1046.624	-420
1046.684	-727
1046.743	-1511
1046.803	-1600
1046.862	-65
1046.922	0
