'Start Wavelength	183.907
'End Wavelength	1046.922
'Gate Delay	5.000
'Gate Width (ms)	1.050
'Laser Output Level	0.000
'X Position	0.000
'Y Position	0.000
'Z Position	0.000
'Grid Point Number	1.000
'Shot Number	100.000
183.907	740.000
183.977	750.000
184.047	1407
184.116	848
184.186	1373
184.256	599
184.325	1096
184.395	847
184.465	1030
184.534	1135
184.604	745
184.674	282
184.743	891
184.813	997
184.883	352
184.952	541
185.022	1053
185.092	816
185.161	748
185.231	713
185.301	843
185.370	690
185.440	769
185.509	247
185.579	305
185.649	424
185.718	1441
185.788	1216
185.857	908
185.927	584
185.996	277
186.066	725
186.136	676
186.205	232
186.275	1324
186.344	692
186.414	728
186.483	988
186.553	2688
186.622	3742
186.692	1623
186.761	972
186.831	853
186.900	1276
186.970	326
187.039	1428
187.109	2185
187.178	993
187.248	1564
187.317	877
187.387	536
187.456	921
187.526	2057
187.595	1709
187.664	394
187.734	1645
187.803	2041
187.873	1116
187.942	2224
188.012	1072
188.081	1424
188.150	1202
188.220	3407
188.289	2696
188.358	2201
188.428	1929
188.497	798
188.567	2103
188.636	1539
188.705	1483
188.775	1696
188.844	1076
188.913	1841
188.983	1377
189.052	1634
189.121	1429
189.191	1893
189.260	1770
189.329	2930
189.399	1370
189.468	1747
189.537	1589
189.606	1442
189.676	2500
189.745	1735
189.814	2606
189.883	1467
189.953	1688
190.022	2934
190.091	8632
190.161	10608
190.230	3593
190.299	1741
190.368	1259
190.437	1286
190.507	2363
190.576	1500
190.645	1318
190.714	920
190.783	1210
190.853	1803
190.922	1705
190.991	1941
191.060	897
191.129	658
191.198	1823
191.268	1082
191.337	1570
191.406	1943
191.475	769
191.544	1126
191.613	1139
191.682	1756
191.752	927
191.821	1657
191.890	1245
191.959	1169
192.028	1442
192.097	1501
192.166	1168
192.235	1557
192.304	1614
192.373	1091
192.442	445
192.511	1801
192.580	1336
192.650	1193
192.719	496
192.788	1835
192.857	2270
192.926	2082
192.995	1115
193.064	2048
193.133	3286
193.202	4029
193.271	2763
193.340	2802
193.409	3829
193.478	4140
193.547	4649
193.615	6176
193.684	5887
193.753	4253
193.822	2791
193.891	1303
193.960	1774
194.029	2575
194.098	2569
194.167	1820
194.236	1793
194.305	1429
194.374	1397
194.443	1468
194.512	2662
194.580	1858
194.649	3030
194.718	3716
194.787	1825
194.856	1424
194.925	2036
194.994	3329
195.062	2057
195.131	3251
195.200	4205
195.269	5372
195.338	2929
195.407	2414
195.475	2869
195.544	3832
195.613	3540
195.682	2810
195.751	4530
195.819	4900
195.888	3655
195.957	4257
196.026	4627
196.094	4149
196.163	5066
196.232	4780
196.301	3291
196.369	3820
196.438	2766
196.507	2786
196.576	2099
196.644	1163
196.713	1512
196.782	1853
196.850	1956
196.919	2841
196.988	2541
197.056	1521
197.125	2786
197.194	3217
197.262	1710
197.331	1454
197.400	2161
197.468	1897
197.537	1981
197.606	2612
197.674	4925
197.743	12101
197.812	5170
197.880	11042
197.949	7204
198.017	10367
198.086	6101
198.155	3221
198.223	4278
198.292	12774
198.360	5233
198.429	4577
198.497	3056
198.566	7943
198.635	12013
198.703	4754
198.772	4299
198.840	14514
198.909	13566
198.977	4061
199.046	3131
199.114	3643
199.183	3708
199.251	2578
199.320	2812
199.388	1487
199.457	2183
199.525	3503
199.594	2805
199.662	1863
199.731	2769
199.799	3035
199.867	3510
199.936	4083
200.004	2620
200.073	3396
200.141	2864
200.210	2070
200.278	1872
200.346	2877
200.415	4428
200.483	5142
200.552	2801
200.620	2911
200.688	2587
200.757	2931
200.825	2919
200.893	3007
200.962	3381
201.030	1531
201.098	1672
201.167	3606
201.235	2958
201.303	2662
201.372	3833
201.440	3032
201.508	4119
201.577	3962
201.645	4001
201.713	2998
201.781	3570
201.850	4507
201.918	3498
201.986	3014
202.055	2812
202.123	2651
202.191	2697
202.259	2100
202.327	1766
202.396	2536
202.464	3516
202.532	6408
202.600	21929
202.669	11641
202.737	3739
202.805	3204
202.873	2689
202.941	3456
203.009	2793
203.078	1947
203.146	3577
203.214	2803
203.282	2540
203.350	2916
203.418	3330
203.487	3390
203.555	3019
203.623	3009
203.691	3289
203.759	2548
203.827	2055
203.895	3475
203.963	4400
204.031	3154
204.099	3689
204.168	2455
204.236	2811
204.304	3511
204.372	3560
204.440	3835
204.508	2577
204.576	2756
204.644	2777
204.712	2746
204.780	3179
204.848	3731
204.916	2603
204.984	3152
205.052	2779
205.120	3773
205.188	3791
205.256	2521
205.324	2970
205.392	3000
205.460	3368
205.528	3519
205.596	2892
205.664	2861
205.732	4327
205.799	14986
205.867	21927
205.935	6418
206.003	3876
206.071	3838
206.139	3966
206.207	3827
206.275	2559
206.343	3132
206.411	2957
206.478	3433
206.546	3100
206.614	3788
206.682	3089
206.750	2680
206.818	6515
206.885	5621
206.953	2955
207.021	3485
207.089	3842
207.157	2943
207.225	3420
207.292	2926
207.360	3522
207.428	3331
207.496	3096
207.563	2869
207.631	2764
207.699	2365
207.767	3391
207.834	3194
207.902	4074
207.970	2938
208.038	3322
208.105	3841
208.173	4582
208.241	6308
208.309	5301
208.376	5590
208.444	11343
208.512	7086
208.579	4189
208.647	5898
208.715	6175
208.782	4252
208.850	4503
208.918	3695
208.985	3792
209.053	4719
209.120	4323
209.188	4281
209.256	3880
209.323	4728
209.391	7749
209.459	5697
209.526	4172
209.594	3777
209.661	3886
209.729	4200
209.796	3956
209.864	5040
209.932	4277
209.999	5343
210.067	5291
210.134	5811
210.202	5875
210.269	8935
210.337	8955
210.404	5256
210.472	4508
210.539	4416
210.607	5390
210.674	7771
210.742	5355
210.809	4989
210.877	6762
210.944	7921
211.012	5896
211.079	7406
211.146	4939
211.214	5616
211.281	10875
211.349	8780
211.416	5351
211.484	6603
211.551	5731
211.618	4228
211.686	4882
211.753	4140
211.821	5720
211.888	4391
211.955	5515
212.023	5019
212.090	6008
212.157	6045
212.225	6917
212.292	13313
212.359	28269
212.427	70532
212.494	29457
212.561	10798
212.629	8240
212.696	6802
212.763	7095
212.831	5761
212.898	5685
212.965	4532
213.032	5261
213.100	6581
213.167	6821
213.234	7117
213.301	6220
213.369	4833
213.436	5249
213.503	5229
213.570	6131
213.638	5692
213.705	4910
213.772	4393
213.839	7580
213.906	7827
213.973	8150
214.041	5321
214.108	4602
214.175	5627
214.242	5147
214.309	4961
214.376	5167
214.444	6647
214.511	7288
214.578	5988
214.645	5697
214.712	7088
214.779	7237
214.846	5698
214.913	6928
214.980	7931
215.048	8894
215.115	10583
215.182	8789
215.249	8010
215.316	7254
215.383	5341
215.450	5941
215.517	5929
215.584	5463
215.651	6951
215.718	6248
215.785	8763
215.852	8600
215.919	8728
215.986	9085
216.053	6323
216.120	5794
216.187	7682
216.254	7377
216.321	7723
216.388	7936
216.455	8946
216.522	7640
216.589	10661
216.656	21122
216.722	18068
216.789	9861
216.856	8898
216.923	7269
216.990	8453
217.057	7782
217.124	10616
217.191	9443
217.258	11158
217.324	12395
217.391	10562
217.458	8808
217.525	7355
217.592	7272
217.659	7087
217.725	9566
217.792	16117
217.859	13638
217.926	6407
217.993	6727
218.059	5761
218.126	5668
218.193	5856
218.260	4776
218.327	5656
218.393	6219
218.460	5406
218.527	4936
218.594	8343
218.660	18076
218.727	17194
218.794	7969
218.860	6139
218.927	5926
218.994	6026
219.061	5682
219.127	10013
219.194	16321
219.261	7803
219.327	5631
219.394	5921
219.461	4614
219.527	5739
219.594	12207
219.661	8191
219.727	5141
219.794	6524
219.860	6111
219.927	7192
219.994	12078
220.060	23388
220.127	15448
220.193	9818
220.260	7604
220.326	10023
220.393	13032
220.460	16833
220.526	11397
220.593	8903
220.659	9349
220.726	11891
220.792	33554
220.859	24210
220.925	23139
220.992	27624
221.058	37250
221.125	43265
221.191	32840
221.258	12631
221.324	9332
221.391	9543
221.457	7040
221.524	7619
221.590	11796
221.657	45086
221.723	28884
221.789	28025
221.856	22922
221.922	13005
221.989	8558
222.055	8203
222.121	7286
222.188	10732
222.254	9605
222.321	7001
222.387	5590
222.453	5262
222.520	5100
222.586	5328
222.652	5274
222.719	4641
222.785	5829
222.851	4999
222.918	5031
222.984	5905
223.050	5391
223.116	5568
223.183	6063
223.249	4715
223.315	3692
223.382	5105
223.448	4501
223.514	3769
223.580	3703
223.647	4120
223.713	4090
223.779	4965
223.845	4888
223.911	5043
223.978	4411
224.044	4962
224.110	4950
224.176	4533
224.242	4901
224.309	3577
224.375	4724
224.441	5330
224.507	3830
224.573	5389
224.639	4160
224.705	4178
224.772	4210
224.838	4742
224.904	7198
224.970	4681
225.036	5002
225.102	7509
225.168	6105
225.234	5906
225.300	5794
225.366	5309
225.432	4372
225.499	4456
225.565	6897
225.631	6494
225.697	6135
225.763	6671
225.829	7501
225.895	9989
225.961	16613
226.027	14429
226.093	11108
226.159	10782
226.225	14085
226.291	30912
226.357	43974
226.423	26111
226.489	17794
226.554	12547
226.620	11412
226.686	16364
226.752	23095
226.818	29130
226.884	67042
226.950	53362
227.016	21664
227.082	15934
227.148	13213
227.214	15034
227.279	11501
227.345	9740
227.411	10122
227.477	14172
227.543	31749
227.609	32715
227.674	15778
227.740	10954
227.806	10386
227.872	8516
227.938	9272
228.003	13999
228.069	7069
228.135	5846
228.201	5718
228.267	6998
228.332	9532
228.398	14937
228.464	9564
228.530	5414
228.595	5599
228.661	7124
228.727	15357
228.792	10859
228.858	7014
228.924	8495
228.990	10713
229.055	10685
229.121	12412
229.187	7729
229.252	9689
229.318	6824
229.384	8532
229.449	11211
229.515	5747
229.581	3736
229.646	7475
229.712	10625
229.777	25588
229.843	26203
229.909	16132
229.974	15516
230.040	13754
230.105	10924
230.171	13265
230.236	14010
230.302	21830
230.368	19816
230.433	10478
230.499	10321
230.564	9235
230.630	7898
230.695	7232
230.761	7122
230.826	6733
230.892	14686
230.957	8513
231.023	6112
231.088	7878
231.154	7938
231.219	8406
231.284	14468
231.350	13451
231.415	6926
231.481	6413
231.546	5510
231.612	6447
231.677	6370
231.742	5696
231.808	7475
231.873	5836
231.939	5319
232.004	15731
232.069	16196
232.135	7735
232.200	7007
232.265	6211
232.331	5574
232.396	5395
232.461	5391
232.527	5352
232.592	6517
232.657	7724
232.723	18742
232.788	13321
232.853	7194
232.918	6561
232.984	6515
233.049	6657
233.114	17567
233.179	16072
233.245	22962
233.310	27622
233.375	9445
233.440	8028
233.506	7530
233.571	6650
233.636	7162
233.701	7937
233.766	19531
233.832	24114
233.897	10754
233.962	12130
234.027	13474
234.092	11157
234.157	10000
234.222	11374
234.288	19608
234.353	58509
234.418	51362
234.483	27021
234.548	18194
234.613	15023
234.678	13523
234.743	17007
234.808	60333
234.873	36116
234.938	15852
235.004	12653
235.069	12008
235.134	10055
235.199	9775
235.264	8688
235.329	8343
235.394	8605
235.459	14790
235.524	14177
235.589	9988
235.654	9108
235.719	7347
235.784	8951
235.849	13340
235.913	30931
235.978	37065
236.043	39883
236.108	14584
236.173	15579
236.238	14934
236.303	9319
236.368	10653
236.433	20780
236.498	36904
236.563	17983
236.627	29714
236.692	95260
236.757	69830
236.822	33760
236.887	32482
236.952	21010
237.017	18845
237.081	19348
237.146	23850
237.211	37301
237.276	96078
237.341	167816
237.405	79148
237.470	35477
237.535	31201
237.600	17514
237.664	14893
237.729	13331
237.794	14864
237.859	23956
237.923	27989
237.988	16610
238.053	27662
238.118	30216
238.182	79389
238.247	62748
238.312	37116
238.376	23236
238.441	20627
238.506	16704
238.570	10244
238.635	10666
238.700	9634
238.764	11242
238.829	34333
238.893	41507
238.958	19373
239.023	18318
239.087	12474
239.152	14216
239.216	10686
239.281	10509
239.346	9064
239.410	10390
239.475	16342
239.539	75153
239.604	56501
239.668	17560
239.733	14942
239.797	23617
239.862	58459
239.926	70012
239.991	27550
240.055	14443
240.120	12696
240.184	11912
240.249	12571
240.313	10307
240.378	13415
240.442	46521
240.507	68331
240.571	22155
240.635	38496
240.700	43341
240.764	17064
240.829	12036
240.893	9123
240.957	11935
241.022	42823
241.086	71650
241.151	34751
241.215	14938
241.279	21221
241.344	41226
241.408	18841
241.472	13288
241.537	13642
241.601	12424
241.665	10262
241.730	10997
241.794	12165
241.858	10742
241.922	11456
241.987	11360
242.051	10523
242.115	10108
242.179	10467
242.244	9414
242.308	11660
242.372	12705
242.436	16675
242.501	12227
242.565	10486
242.629	9623
242.693	10407
242.757	9507
242.822	11771
242.886	12143
242.950	13148
243.014	15765
243.078	15252
243.142	16185
243.206	13255
243.271	15834
243.335	14977
243.399	22103
243.463	88409
243.527	199394
243.591	64047
243.655	30335
243.719	18930
243.783	20070
243.847	31015
243.911	38517
243.975	52585
244.040	34850
244.104	16926
244.168	13485
244.232	26614
244.296	34424
244.360	33927
244.424	22870
244.488	19021
244.552	17259
244.615	13494
244.679	12382
244.743	19086
244.807	18884
244.871	12273
244.935	11785
244.999	11082
245.063	12668
245.127	15740
245.191	25265
245.255	23440
245.319	20997
245.383	20825
245.446	14893
245.510	13327
245.574	14602
245.638	14734
245.702	17282
245.766	39946
245.829	23100
245.893	19969
245.957	15050
246.021	16900
246.085	17997
246.149	25173
246.212	57112
246.276	85663
246.340	36629
246.404	24960
246.467	27367
246.531	42637
246.595	23493
246.659	22760
246.722	21983
246.786	26768
246.850	29495
246.913	36374
246.977	18087
247.041	18039
247.104	21097
247.168	19770
247.232	54320
247.295	114997
247.359	52022
247.423	25676
247.486	46420
247.550	27303
247.614	23264
247.677	30216
247.741	20258
247.804	17728
247.868	22284
247.932	52232
247.995	103323
248.059	38757
248.122	21696
248.186	27559
248.249	50623
248.313	186603
248.376	173939
248.440	113290
248.503	43587
248.567	34453
248.630	53125
248.694	66282
248.757	85202
248.821	188476
248.884	98355
248.948	102991
249.011	140134
249.075	221148
249.138	173793
249.202	65674
249.265	46172
249.328	62720
249.392	40873
249.455	30059
249.519	25152
249.582	34006
249.645	50710
249.709	35963
249.772	26440
249.835	26349
249.899	33022
249.962	25906
250.025	24477
250.089	71299
250.152	88251
250.215	43103
250.279	32165
250.342	33175
250.405	31296
250.468	27745
250.532	37186
250.595	57664
250.658	212422
250.721	305287
250.785	111041
250.848	59227
250.911	39646
250.974	34447
251.038	55515
251.101	108169
251.164	57322
251.227	55745
251.290	48277
251.354	72730
251.417	283040
251.480	253337
251.543	187811
251.606	497314
251.669	340680
251.732	138384
251.795	152727
251.859	151344
251.922	320623
251.985	170218
252.048	66389
252.111	54635
252.174	54459
252.237	103361
252.300	217713
252.363	225070
252.426	403374
252.489	168613
252.552	91107
252.615	67092
252.678	68652
252.741	166454
252.804	205515
252.867	407784
252.930	250037
252.993	136588
253.056	79217
253.119	59237
253.182	47941
253.245	77744
253.308	59399
253.371	66341
253.434	57371
253.497	53476
253.559	102241
253.622	69538
253.685	93606
253.748	88307
253.811	45599
253.874	64470
253.937	57093
254.000	41592
254.062	75041
254.125	108539
254.188	86563
254.251	76012
254.314	44601
254.376	79645
254.439	79237
254.502	67444
254.565	80623
254.628	126733
254.690	75806
254.753	44888
254.816	38293
254.878	44455
254.941	84560
255.004	79179
255.067	37726
255.129	39422
255.192	22683
255.255	22646
255.317	26834
255.380	19511
255.443	16427
255.505	17916
255.568	17125
255.631	17829
255.693	18578
255.756	15132
255.819	15327
255.881	15153
255.944	13292
256.006	15198
256.069	15882
256.132	15333
256.194	24542
256.257	71613
256.319	50572
256.382	45762
256.444	22159
256.507	18326
256.569	15562
256.632	17760
256.694	33040
256.757	54486
256.819	131387
256.882	55334
256.944	28020
257.007	25880
257.069	33242
257.132	20777
257.194	17180
257.257	19291
257.319	18878
257.381	18883
257.444	44955
257.506	173095
257.569	185396
257.631	143545
257.693	70163
257.756	37198
257.818	38016
257.880	22708
257.943	20086
258.005	18027
258.067	15522
258.130	16092
258.192	23347
258.254	55914
258.317	30800
258.379	21805
258.441	65000
258.503	53317
258.566	81872
258.628	94001
258.690	26379
258.753	26929
258.815	46160
258.877	27739
258.939	18139
259.001	16272
259.064	16340
259.126	25816
259.188	34495
259.250	23663
259.312	33976
259.375	96961
259.437	53004
259.499	22326
259.561	20726
259.623	20856
259.685	18588
259.747	22194
259.809	76884
259.872	132669
259.934	200091
259.996	142673
260.058	40490
260.120	24295
260.182	19177
260.244	17776
260.306	15422
260.368	16964
260.430	17211
260.492	29787
260.554	73051
260.616	67839
260.678	110174
260.740	134664
260.802	37179
260.864	29296
260.926	25179
260.988	23748
261.050	22996
261.112	37838
261.174	119920
261.236	97027
261.298	34227
261.359	67025
261.421	86309
261.483	27854
261.545	22656
261.607	17012
261.669	18529
261.731	45545
261.793	98039
261.854	41811
261.916	26041
261.978	19940
262.040	23503
262.102	21329
262.164	42772
262.225	30822
262.287	20927
262.349	53649
262.411	37994
262.472	21699
262.534	48852
262.596	92059
262.658	28215
262.719	20919
262.781	31242
262.843	90337
262.904	36797
262.966	28755
263.028	35955
263.090	164001
263.151	337745
263.213	101486
263.275	54032
263.336	29395
263.398	22212
263.459	17494
263.521	19892
263.583	47039
263.644	29544
263.706	15349
263.767	13312
263.829	12586
263.891	10939
263.952	10713
264.014	10238
264.075	14631
264.137	25803
264.198	20484
264.260	10722
264.321	11275
264.383	31066
264.444	47280
264.506	15954
264.567	14681
264.629	18197
264.690	28504
264.752	19064
264.813	14740
264.875	11775
264.936	12167
264.998	11270
265.059	11263
265.120	11481
265.182	17942
265.243	60608
265.305	53639
265.366	17694
265.427	12526
265.489	13358
265.550	11060
265.611	16063
265.673	15398
265.734	11502
265.795	9964
265.857	10049
265.918	11981
265.979	21521
266.040	105256
266.102	76449
266.163	27865
266.224	26699
266.286	16857
266.347	13358
266.408	14488
266.469	18640
266.530	13380
266.592	12735
266.653	32710
266.714	50592
266.775	17872
266.836	12845
266.898	11858
266.959	17967
267.020	13292
267.081	11758
267.142	10653
267.203	10819
267.264	11151
267.326	14243
267.387	11549
267.448	10764
267.509	12488
267.570	11505
267.631	10010
267.692	9929
267.753	11237
267.814	11689
267.875	29358
267.936	58705
267.997	22472
268.058	21700
268.119	15533
268.180	16525
268.241	12634
268.302	11609
268.363	11863
268.424	14616
268.485	15566
268.546	10851
268.607	9021
268.668	9210
268.729	10036
268.790	11809
268.851	14189
268.912	39440
268.972	45128
269.033	24321
269.094	12596
269.155	11461
269.216	11611
269.277	15372
269.338	12037
269.398	12038
269.459	16654
269.520	21255
269.581	29160
269.642	33548
269.702	24060
269.763	16684
269.824	14537
269.885	20096
269.945	29305
270.006	13736
270.067	10951
270.128	10938
270.188	11795
270.249	12712
270.310	10023
270.370	11340
270.431	13470
270.492	10731
270.553	14516
270.613	33956
270.674	60916
270.734	26239
270.795	16312
270.856	27096
270.916	21212
270.977	14436
271.038	19103
271.098	19386
271.159	32369
271.219	30398
271.280	14909
271.340	13469
271.401	22131
271.462	55033
271.522	27415
271.583	17107
271.643	18563
271.704	16257
271.764	21480
271.825	50260
271.885	163200
271.946	200610
272.006	66053
272.066	101251
272.127	156902
272.187	50360
272.248	31035
272.308	35800
272.369	114111
272.429	57428
272.489	48427
272.550	44919
272.610	48065
272.671	36144
272.731	39951
272.791	67678
272.852	35570
272.912	29754
272.972	18524
273.033	20006
273.093	35781
273.153	28617
273.214	20271
273.274	25386
273.334	78907
273.394	148913
273.455	63654
273.515	63863
273.575	131822
273.635	55854
273.696	90771
273.756	159705
273.816	61391
273.876	40472
273.936	95605
273.997	144635
274.057	40880
274.117	32617
274.177	49922
274.237	192735
274.297	159796
274.358	129458
274.418	129959
274.478	89577
274.538	40037
274.598	41599
274.658	140490
274.718	168882
274.778	63106
274.838	36874
274.898	88839
274.958	239618
275.018	178876
275.078	101415
275.138	46423
275.198	29309
275.258	23904
275.318	33322
275.378	54852
275.438	51160
275.498	38295
275.558	109881
275.618	201951
275.678	109452
275.738	67108
275.798	44901
275.858	25369
275.918	19454
275.978	24329
276.038	22781
276.098	19801
276.157	42716
276.217	105227
276.277	46420
276.337	37240
276.397	23668
276.457	27589
276.517	19323
276.576	16521
276.636	17493
276.696	31301
276.756	70650
276.815	50511
276.875	26603
276.935	32651
276.995	25387
277.055	18685
277.114	20554
277.174	31745
277.234	84424
277.293	36572
277.353	25570
277.413	18635
277.472	22095
277.532	23824
277.592	26405
277.651	92214
277.711	145857
277.771	58721
277.830	181095
277.890	131443
277.950	118100
278.009	286532
278.069	103075
278.128	115024
278.188	149356
278.248	72175
278.307	174756
278.367	98060
278.426	39661
278.486	28254
278.545	22761
278.605	22272
278.664	21659
278.724	26185
278.783	68667
278.843	152468
278.902	48368
278.962	34513
279.021	39433
279.081	67960
279.140	61805
279.199	40250
279.259	36213
279.318	40381
279.378	55514
279.437	111480
279.496	362026
279.556	863484
279.615	660092
279.675	207654
279.734	126720
279.793	200028
279.853	273395
279.912	98671
279.971	59737
280.031	56250
280.090	102997
280.149	165919
280.208	156309
280.268	586844
280.327	560939
280.386	161604
280.445	114036
280.505	93201
280.564	51589
280.623	42710
280.682	59188
280.742	77673
280.801	31727
280.860	26026
280.919	22118
280.978	22678
281.037	21144
281.097	20308
281.156	20327
281.215	21073
281.274	28761
281.333	104501
281.392	71076
281.451	23830
281.510	19813
281.569	19015
281.628	17080
281.688	16475
281.747	19558
281.806	18408
281.865	14553
281.924	16436
281.983	15997
282.042	13260
282.101	13349
282.160	13842
282.219	12761
282.278	19499
282.337	57914
282.396	36856
282.454	19139
282.513	26683
282.572	82589
282.631	45246
282.690	20005
282.749	18085
282.808	20594
282.867	21255
282.926	21276
282.985	14404
283.043	12577
283.102	15854
283.161	20852
283.220	45270
283.279	88671
283.338	30701
283.396	20443
283.455	20419
283.514	21927
283.573	31398
283.631	23678
283.690	18131
283.749	17322
283.808	39715
283.866	42339
283.925	19599
283.984	18692
284.043	26820
284.101	28094
284.160	20972
284.219	22845
284.277	23448
284.336	38756
284.395	114346
284.453	89068
284.512	38819
284.570	48315
284.629	43825
284.688	39411
284.746	43758
284.805	50252
284.863	65295
284.922	77565
284.981	92874
285.039	134392
285.098	245043
285.156	547300
285.215	978089
285.273	933543
285.332	526243
285.390	288977
285.449	184596
285.507	130115
285.566	97424
285.624	73220
285.683	56323
285.741	46326
285.799	40515
285.858	38141
285.916	32839
285.975	26774
286.033	23971
286.091	21541
286.150	19930
286.208	20131
286.267	22034
286.325	24727
286.383	35928
286.442	28336
286.500	18371
286.558	16944
286.616	17003
286.675	23800
286.733	21431
286.791	21438
286.850	22773
286.908	28760
286.966	45232
287.024	21874
287.083	16587
287.141	15076
287.199	17147
287.257	25011
287.315	20630
287.374	23462
287.432	47904
287.490	30422
287.548	21599
287.606	17575
287.664	17635
287.723	23922
287.781	27580
287.839	19830
287.897	23415
287.955	29519
288.013	47851
288.071	113189
288.129	405729
288.187	950019
288.245	420592
288.303	142491
288.361	84507
288.419	62254
288.477	45383
288.535	35260
288.593	26424
288.651	20995
288.709	17965
288.767	16542
288.825	16961
288.883	12883
288.941	13273
288.999	14571
289.057	13299
289.115	11765
289.173	14263
289.231	14805
289.289	17089
289.346	14684
289.404	17552
289.462	29626
289.520	29485
289.578	15408
289.636	10560
289.694	9610
289.751	10008
289.809	10495
289.867	12322
289.925	15002
289.983	19281
290.040	11186
290.098	10148
290.156	14628
290.214	17029
290.271	12370
290.329	9852
290.387	9056
290.444	8972
290.502	7890
290.560	8658
290.617	9361
290.675	11471
290.733	11157
290.790	13819
290.848	10984
290.906	15656
290.963	12845
291.021	12702
291.078	11199
291.136	14502
291.194	35996
291.251	69306
291.309	22250
291.366	11932
291.424	12517
291.481	14283
291.539	15348
291.596	13772
291.654	9109
291.711	10174
291.769	15688
291.826	31714
291.884	19545
291.941	12381
291.999	13145
292.056	15828
292.114	16097
292.171	11611
292.228	13888
292.286	19026
292.343	33425
292.401	40495
292.458	26790
292.515	19059
292.573	21902
292.630	21064
292.687	23361
292.745	16735
292.802	19862
292.859	44193
292.917	97492
292.974	54902
293.031	21474
293.089	16163
293.146	13847
293.203	13095
293.260	12869
293.318	23329
293.375	19884
293.432	11584
293.489	11632
293.546	13735
293.604	26164
293.661	80327
293.718	165290
293.775	72976
293.832	40417
293.889	35640
293.947	46680
294.004	32267
294.061	26694
294.118	46694
294.175	72965
294.232	54538
294.289	28129
294.346	19593
294.403	18399
294.460	22071
294.517	17830
294.574	15696
294.631	13897
294.688	20701
294.745	52795
294.802	162677
294.859	125076
294.916	68199
294.973	53501
295.030	36820
295.087	29628
295.144	20990
295.201	18458
295.258	17850
295.315	25930
295.372	76038
295.429	131002
295.486	52902
295.542	27153
295.599	40592
295.656	56351
295.713	65590
295.770	107877
295.827	40637
295.883	23006
295.940	23513
295.997	39417
296.054	36862
296.111	20149
296.167	14764
296.224	10942
296.281	11752
296.338	11433
296.394	12567
296.451	20706
296.508	55988
296.564	94134
296.621	65606
296.678	144770
296.734	191962
296.791	67359
296.848	37588
296.904	42121
296.961	86853
297.018	135999
297.074	92290
297.131	36474
297.187	30850
297.244	50348
297.301	154538
297.357	247944
297.414	87337
297.470	35866
297.527	24901
297.583	22015
297.640	22749
297.696	18320
297.753	14787
297.809	12297
297.866	10888
297.922	12226
297.979	12600
298.035	16007
298.092	30736
298.148	80761
298.204	73436
298.261	41515
298.317	66225
298.374	169501
298.430	99065
298.486	55406
298.543	43846
298.599	32876
298.656	33105
298.712	56530
298.768	127321
298.824	85088
298.881	32567
298.937	20209
298.993	18822
299.050	25792
299.106	20870
299.162	18055
299.218	18243
299.275	16289
299.331	22680
299.387	47791
299.443	159321
299.500	163095
299.556	67630
299.612	34149
299.668	33328
299.724	46387
299.780	47473
299.837	29621
299.893	44559
299.949	134534
300.005	151707
300.061	131777
300.117	209337
300.173	100770
300.229	49786
300.285	56411
300.341	61279
300.397	31879
300.453	23963
300.510	19867
300.566	25235
300.622	34282
300.678	92772
300.734	150227
300.790	129057
300.845	157260
300.901	106675
300.957	140137
301.013	98706
301.069	42583
301.125	31950
301.181	34557
301.237	24266
301.293	17860
301.349	16217
301.405	14459
301.461	13167
301.516	15652
301.572	22739
301.628	38779
301.684	35632
301.740	50628
301.796	76732
301.851	56281
301.907	94913
301.963	102404
302.019	174813
302.074	433004
302.130	403178
302.186	173462
302.242	73450
302.297	50224
302.353	51291
302.409	88447
302.464	75125
302.520	67754
302.576	158360
302.631	169055
302.687	91631
302.743	40589
302.798	24902
302.854	21068
302.910	21324
302.965	26091
303.021	48615
303.076	46439
303.132	59963
303.187	66930
303.243	34908
303.299	20013
303.354	15692
303.410	14263
303.465	14042
303.521	14410
303.576	16837
303.632	24851
303.687	47243
303.743	135755
303.798	109657
303.853	43774
303.909	24933
303.964	23229
304.020	35509
304.075	52387
304.130	46357
304.186	82051
304.241	79637
304.297	63227
304.352	35040
304.358	33727
304.407	23080
304.449	23495
304.463	23653
304.518	23503
304.539	22567
304.573	21108
304.629	23430
304.630	23804
304.684	42019
304.720	83402
304.739	104114
304.794	154573
304.811	130749
304.850	73320
304.902	34434
304.905	31987
304.960	22684
304.992	20968
305.015	19826
305.071	18737
305.083	18098
305.126	15751
305.173	12381
305.181	11839
305.236	12060
305.264	12434
305.292	12926
305.347	19118
305.354	19072
305.402	18614
305.445	19729
305.457	20091
305.512	24343
305.535	25651
305.567	27499
305.622	29774
305.626	30809
305.678	54663
305.716	108541
305.733	128308
305.788	150362
305.807	131465
305.843	98916
305.897	131222
305.898	131532
305.953	129767
305.988	86018
306.008	61970
306.063	37092
306.078	33120
306.118	24984
306.168	18744
306.173	18210
306.228	15059
306.259	14211
306.283	13691
306.338	12210
306.349	12226
306.393	12413
306.440	13863
306.448	14147
306.503	15396
306.530	16809
306.558	21247
306.613	43009
306.620	46963
306.668	77384
306.711	117326
306.723	122768
306.778	98832
306.801	75168
306.833	47339
306.888	24983
306.892	24031
306.943	17265
306.982	15205
306.997	14686
307.052	14010
307.072	13921
307.107	14395
307.162	15425
307.163	15490
307.217	22696
307.253	25882
307.272	26419
307.327	29150
307.343	27908
307.381	25068
307.434	25707
307.436	26500
307.491	51049
307.524	77019
307.546	85676
307.600	95577
307.614	86163
307.655	51582
307.704	25872
307.710	24677
307.765	25746
307.795	30140
307.819	34901
307.874	50858
307.885	50790
307.929	40198
307.975	30959
307.984	31350
308.038	41826
308.065	53357
308.093	91760
308.148	195446
308.156	221823
308.202	347214
308.246	410725
308.257	404282
308.312	212237
308.336	154929
308.366	120864
308.421	83839
308.426	80195
308.475	50116
308.517	34583
308.530	31900
308.585	26926
308.607	25838
308.639	26007
308.694	28130
308.697	28481
308.748	45608
308.787	64382
308.803	64904
308.857	52684
308.877	46238
308.912	39866
308.967	37900
308.967	37949
309.021	55510
309.058	72345
309.076	91303
309.130	164974
309.148	194037
309.185	328633
309.238	562757
309.239	564144
309.293	640433
309.328	568538
309.348	483382
309.402	228163
309.418	168547
309.457	117552
309.508	78601
309.511	77871
309.566	82897
309.598	90236
309.620	110406
309.674	172357
309.688	188195
309.729	178201
309.778	144085
309.783	140421
309.837	97075
309.868	75983
309.892	86899
309.946	125002
309.959	137682
310.001	171908
310.049	197030
310.055	190475
310.109	110482
310.139	66707
310.163	52744
310.218	33783
310.229	30953
310.272	24428
310.319	18092
310.326	17438
310.381	14755
310.409	13333
310.435	12828
310.489	12028
310.499	12007
310.543	11724
310.589	11790
310.598	11773
310.652	11807
310.679	11676
310.706	10656
310.760	8679
310.769	8429
310.814	8138
310.859	7925
310.868	8007
310.923	8755
310.948	9159
310.977	10984
311.031	14716
311.038	15254
311.085	14091
311.128	12339
311.139	11958
311.193	10268
311.218	9473
311.247	8816
311.301	7909
311.308	7809
311.356	7389
311.398	7004
311.410	6935
311.464	6740
311.488	6659
311.518	7487
311.572	9134
311.578	9349
311.626	13330
311.668	16961
311.680	16495
311.734	13852
311.758	12725
311.788	13367
311.842	14702
311.847	14845
311.896	16046
311.937	17105
311.950	16964
312.004	16360
312.027	16060
312.058	14200
312.112	10930
312.117	10614
312.165	9227
312.207	8081
312.297	10378
312.386	8372
312.476	14618
312.566	31400
312.656	13849
312.745	7230
312.835	7963
312.925	9379
313.015	9328
313.104	9333
313.194	8140
313.284	9618
313.374	14230
313.463	12429
313.553	8320
313.643	8342
313.732	7415
313.822	6814
313.912	9520
314.001	11850
314.091	11385
314.180	13551
314.270	16662
314.360	17578
314.449	15986
314.539	9025
314.628	8888
314.718	10923
314.808	13552
314.897	10703
314.987	11361
315.076	17251
315.166	20936
315.255	18189
315.345	17662
315.434	17816
315.524	17363
315.613	25305
315.703	39933
315.792	88005
315.881	350363
315.971	127868
316.060	41872
316.150	41256
316.239	38063
316.328	16864
316.418	11658
316.507	12990
316.597	18409
316.686	16198
316.775	20992
316.865	39620
316.954	13811
317.043	10446
317.133	12708
317.222	10487
317.311	11020
317.400	13863
317.490	22119
317.579	28400
317.668	29960
317.757	55455
317.847	159885
317.936	586556
318.025	201168
318.114	117108
318.203	59818
318.293	40713
318.382	65071
318.471	51356
318.560	54808
318.649	61627
318.738	21185
318.828	21592
318.917	21118
319.006	21445
319.095	51747
319.184	92421
319.273	75155
319.362	49110
319.451	19599
319.540	19929
319.629	44966
319.718	67865
319.807	26282
319.896	46529
319.985	118644
320.074	56388
320.163	15505
320.252	25136
320.341	17336
320.430	17135
320.519	33450
320.608	18723
320.697	13826
320.786	15875
320.875	25804
320.964	34569
321.053	53570
321.142	76482
321.230	77263
321.319	61252
321.408	117447
321.497	49821
321.586	49653
321.675	47207
321.764	44418
321.852	33132
321.941	68526
322.030	48943
322.119	52793
322.207	122715
322.296	65051
322.385	38441
322.474	61819
322.562	161266
322.651	78256
322.740	64704
322.829	80714
322.917	59816
323.006	45692
323.095	38587
323.183	25097
323.272	38949
323.361	67584
323.449	167051
323.538	65198
323.626	113535
323.715	76512
323.804	32094
323.892	102082
323.981	67880
324.069	21542
324.158	49222
324.246	51283
324.335	28095
324.424	45463
324.512	16540
324.601	24870
324.689	48688
324.778	79477
324.866	47763
324.954	14951
325.043	15670
325.131	27270
325.220	40178
325.308	48506
325.397	36261
325.485	25448
325.574	12496
325.662	11924
325.750	13667
325.839	11396
325.927	9155
326.015	13975
326.104	18185
326.192	26642
326.280	10264
326.369	11194
326.457	20572
326.545	35260
326.634	15392
326.722	8782
326.810	10866
326.898	10836
326.987	14884
327.075	35892
327.163	31046
327.251	16203
327.340	31988
327.428	39445
327.516	11901
327.604	13020
327.692	11428
327.781	12599
327.869	18142
327.957	15143
328.045	16768
328.133	8458
328.221	11136
328.309	11456
328.397	9649
328.485	15247
328.574	28851
328.662	83651
328.750	41291
328.838	14069
328.926	9275
329.014	8327
329.102	14963
329.190	29652
329.278	22721
329.366	6432
329.454	5561
329.542	5723
329.630	5742
329.718	7367
329.806	12487
329.893	7904
329.981	6760
330.069	10027
330.157	31968
330.245	64501
330.333	27588
330.421	12082
330.509	29214
330.597	100691
330.684	58521
330.772	15173
330.860	14001
330.948	15675
331.036	10223
331.123	5838
331.211	6139
331.299	8552
331.387	16320
331.475	28933
331.562	12405
331.650	7715
331.738	9457
331.825	11347
331.913	6596
332.001	6517
332.089	10345
332.176	19258
332.264	46188
332.352	38979
332.439	14236
332.527	9992
332.614	8316
332.702	11942
332.790	11245
332.877	26343
332.965	52085
333.052	22272
333.140	26089
333.228	58214
333.315	17093
333.403	12023
333.490	29680
333.578	40018
333.665	78069
333.753	34899
333.840	12136
333.928	14067
334.015	31625
334.103	50125
334.190	126632
334.278	39263
334.365	24287
334.452	21655
334.540	13706
334.627	15533
334.715	24670
334.802	48778
334.889	198940
334.977	223692
335.064	43469
335.151	19380
335.239	14192
335.326	21087
335.413	64099
335.501	70558
335.588	17467
335.675	13484
335.762	15333
335.850	22103
335.937	29021
336.024	68120
336.111	218282
336.199	115543
336.286	30139
336.373	14990
336.460	11326
336.547	10011
336.635	13340
336.722	13015
336.809	10798
336.896	20475
336.983	45494
337.070	92685
337.157	118995
337.245	113767
337.332	85442
337.419	13391
337.506	8475
337.593	10964
337.680	26610
337.767	56919
337.854	26666
337.941	27966
338.028	39924
338.115	16205
338.202	15064
338.289	34993
338.376	118656
338.463	40475
338.550	39617
338.637	37026
338.724	21076
338.811	32352
338.898	9282
338.984	7642
339.071	8975
339.158	16124
339.245	44136
339.332	24933
339.419	25129
339.506	24081
339.593	7258
339.679	9807
339.766	8739
339.853	16125
339.940	34188
340.027	11446
340.113	12667
340.200	18826
340.287	12906
340.374	19016
340.460	30715
340.547	13885
340.634	31184
340.720	103396
340.807	55481
340.894	9895
340.980	10756
341.067	11105
341.154	12203
341.240	25289
341.327	48818
341.414	14802
341.500	15146
341.587	9825
341.674	11363
341.760	34088
341.847	37676
341.933	12558
342.020	5241
342.106	6515
342.193	14755
342.279	25190
342.366	21140
342.452	33154
342.539	20945
342.625	51662
342.712	108127
342.798	45454
342.885	17383
342.971	6433
343.058	6133
343.144	7910
343.230	8434
343.317	9242
343.403	8630
343.490	6646
343.576	6250
343.662	10223
343.749	12728
343.835	18586
343.921	44498
344.008	253532
344.094	495726
344.180	108526
344.267	45700
344.353	134970
344.439	119808
344.525	49687
344.612	19572
344.698	17044
344.784	12260
344.870	8811
344.957	11648
345.043	19152
345.129	16278
345.215	30392
345.301	17363
345.387	11037
345.474	6583
345.560	7444
345.646	9055
345.732	9061
345.818	11304
345.904	11507
345.990	14521
346.076	13399
346.162	18819
346.249	11849
346.335	9343
346.421	14778
346.507	69739
346.593	187785
346.679	42530
346.765	11050
346.851	12561
346.937	11707
347.023	8902
347.108	13157
347.194	11228
347.280	11270
347.366	20178
347.452	76804
347.538	242765
347.624	164923
347.710	109595
347.796	18637
347.882	10041
347.967	8112
348.053	9221
348.139	8551
348.225	8501
348.311	11346
348.397	8239
348.482	14155
348.568	14281
348.654	10438
348.740	20917
348.825	20434
348.911	28145
348.997	122059
349.083	200218
349.168	31507
349.254	12314
349.340	10397
349.425	9144
349.511	15662
349.597	17130
349.682	46117
349.768	126119
349.854	52150
349.939	9877
350.025	8723
350.110	7362
350.196	7864
350.282	7119
350.367	6163
350.453	14234
350.538	15954
350.624	14611
350.709	12638
350.795	8364
350.880	10185
350.966	10905
351.051	14969
351.137	12208
351.222	13598
351.308	47128
351.393	102103
351.479	25764
351.564	9604
351.649	10636
351.735	8107
351.820	7433
351.906	8989
351.991	16499
352.076	77466
352.162	95847
352.247	20942
352.332	15729
352.418	28518
352.503	43791
352.588	158381
352.673	115067
352.759	28565
352.844	14660
352.929	17798
353.014	23036
353.100	18160
353.185	35652
353.270	46884
353.355	38681
353.441	12067
353.526	15176
353.611	38084
353.696	42024
353.781	23164
353.866	11589
353.952	14174
354.037	40471
354.122	82678
354.207	71504
354.292	25290
354.377	11634
354.462	10399
354.547	17298
354.632	14273
354.717	23460
354.802	39592
354.887	14030
354.972	8507
355.057	7117
355.142	7339
355.227	13112
355.312	26272
355.397	61131
355.482	130844
355.567	61700
355.652	44039
355.737	54370
355.822	159031
355.907	111996
355.991	18346
356.076	11169
356.161	9246
356.246	10247
356.331	13982
356.416	48783
356.501	272752
356.585	251246
356.670	36421
356.755	24072
356.840	44360
356.924	218732
357.009	638902
357.094	220296
357.179	50034
357.263	35803
357.348	29569
357.433	27199
357.517	27009
357.602	23833
357.687	19678
357.771	26244
357.856	41587
357.941	40339
358.025	161471
358.110	600976
358.195	257668
358.279	39836
358.364	33574
358.448	121909
358.533	281479
358.617	201319
358.702	193651
358.787	67978
358.871	41143
358.956	31215
359.040	12825
359.125	10168
359.209	12188
359.294	19992
359.378	32371
359.462	31949
359.547	18244
359.631	11784
359.716	9153
359.800	9354
359.885	14398
359.969	13556
360.053	11336
360.138	10602
360.222	22153
360.306	39668
360.391	28042
360.475	41894
360.559	88853
360.644	106948
360.728	82531
360.812	162531
360.896	385070
360.981	141136
361.065	63354
361.149	21102
361.233	19428
361.318	19636
361.402	26895
361.486	18432
361.570	15223
361.654	22973
361.739	65777
361.823	276472
361.907	371293
361.991	66543
362.075	41778
362.159	83423
362.243	59411
362.327	69802
362.411	81376
362.495	37905
362.580	19512
362.664	15171
362.748	16603
362.832	23400
362.916	47368
363.000	159677
363.084	400019
363.168	464435
363.252	104954
363.336	36257
363.420	44552
363.503	96663
363.587	90220
363.671	28868
363.755	26025
363.839	36199
363.923	21635
364.007	44261
364.091	46803
364.175	57197
364.258	165698
364.342	198465
364.426	297569
364.510	148196
364.594	57515
364.677	87779
364.761	353840
364.845	225523
364.929	75412
365.013	57158
365.096	48550
365.180	55447
365.264	50054
365.347	132922
365.431	51730
365.515	20057
365.598	16293
365.682	12294
365.766	15764
365.849	15757
365.933	17269
366.017	16757
366.100	10500
366.184	7925
366.267	10575
366.351	10065
366.435	9125
366.518	8303
366.602	8827
366.685	12047
366.769	14564
366.852	19255
366.936	36960
367.019	25424
367.103	14153
367.186	16207
367.270	10512
367.353	9154
367.436	11856
367.520	10721
367.603	18058
367.687	29485
367.770	49528
367.853	32416
367.937	106712
368.020	149023
368.104	37393
368.187	38566
368.270	50723
368.353	40697
368.437	46659
368.520	83173
368.603	68280
368.687	125681
368.770	195968
368.853	47713
368.936	39333
369.020	29980
369.103	16161
369.186	12044
369.269	14290
369.352	33748
369.436	41899
369.519	26820
369.602	13626
369.685	14711
369.768	16734
369.851	12442
369.934	10214
370.018	16931
370.101	41485
370.184	27581
370.267	19378
370.350	38245
370.433	65170
370.516	200821
370.599	289044
370.682	113332
370.765	113727
370.848	144143
370.931	252983
371.014	78430
371.097	21241
371.180	14978
371.263	9470
371.346	8207
371.429	9497
371.511	12679
371.594	26007
371.677	32521
371.760	25956
371.843	43616
371.926	233256
372.009	473402
372.091	132982
372.174	110005
372.257	239986
372.340	83668
372.423	45892
372.505	38271
372.588	26489
372.671	92588
372.754	260208
372.836	111818
372.919	48999
373.002	68362
373.085	35185
373.167	43851
373.250	119820
373.332	245850
373.415	344907
373.498	663017
373.580	248666
373.663	454266
373.746	531906
373.828	105709
373.911	37323
373.993	37208
374.076	76237
374.159	66971
374.241	72262
374.324	213994
374.406	134208
374.489	224407
374.571	549520
374.654	202538
374.736	118930
374.819	351807
374.901	489356
374.983	475917
375.066	79855
375.148	29288
375.231	72891
375.313	110836
375.395	48061
375.478	19802
375.560	17588
375.643	28146
375.725	117438
375.807	437617
375.890	274503
375.972	89673
376.054	51537
376.136	66996
376.219	41152
376.301	139348
376.383	368523
376.465	127611
376.548	86018
376.630	117194
376.712	307817
376.794	124900
376.877	17405
376.959	11711
377.041	14133
377.123	16214
377.205	15834
377.287	9306
377.369	10893
377.452	12110
377.534	11273
377.616	11190
377.698	12156
377.780	9522
377.862	13593
377.944	12492
378.026	7564
378.108	9056
378.190	8990
378.272	8386
378.354	7177
378.436	7072
378.518	17029
378.600	44351
378.682	57278
378.764	151773
378.846	100296
378.928	31154
379.010	44118
379.091	21048
379.173	12294
379.255	12351
379.337	21640
379.419	84242
379.501	204997
379.583	71298
379.664	23414
379.746	61353
379.828	147743
379.910	200786
379.991	156855
380.073	27819
380.155	19116
380.237	14921
380.318	11912
380.400	14501
380.482	34249
380.564	52773
380.645	56658
380.727	47787
380.809	24492
380.890	19823
380.972	16805
381.053	15638
381.135	18921
381.217	60405
381.298	145785
381.380	67423
381.461	74751
381.543	327399
381.624	352706
381.706	63555
381.787	31379
381.869	37383
381.951	156811
382.032	534159
382.113	294606
382.195	61068
382.276	44771
382.358	120684
382.439	287098
382.521	323467
382.602	484048
382.684	220896
382.765	398119
382.846	445191
382.928	670855
383.009	351561
383.090	268932
383.172	963063
383.253	1348009
383.334	466333
383.416	452444
383.497	217193
383.578	110577
383.659	224246
383.741	849067
383.822	1970443
383.903	954742
383.984	361310
384.066	523303
384.147	295417
384.228	66585
384.309	52713
384.390	41175
384.471	30925
384.553	31769
384.634	42084
384.715	39816
384.796	23823
384.877	39650
384.958	144637
385.039	155803
385.120	52928
385.201	26014
385.282	27403
385.363	26219
385.444	29243
385.525	67225
385.606	224309
385.687	169809
385.768	37800
385.849	55207
385.930	250688
386.011	396706
386.092	96465
386.173	23873
386.254	17403
386.335	19841
386.416	26498
386.496	96868
386.577	132949
386.658	41995
386.739	26924
386.820	19667
386.901	16721
386.981	18804
387.062	19725
387.143	47652
387.224	152220
387.304	119335
387.385	44061
387.466	27947
387.547	30658
387.627	29897
387.708	72682
387.789	276053
387.869	304501
387.950	75082
388.031	16512
388.111	14279
388.192	23290
388.273	30866
388.353	22911
388.434	23918
388.514	65523
388.595	269979
388.676	312329
388.756	136663
388.837	134989
388.917	73380
388.998	18289
389.078	18097
389.159	16574
389.239	17548
389.320	28484
389.400	27395
389.480	61040
389.561	152254
389.641	65403
389.722	29207
389.802	44594
389.883	73981
389.963	183655
390.043	93451
390.124	27915
390.204	61843
390.284	168268
390.365	94739
390.445	86418
390.525	274093
390.605	258507
390.686	82812
390.766	33999
390.846	18449
390.927	15231
391.007	16650
391.087	19380
391.167	26314
391.247	19423
391.328	22943
391.408	25397
391.488	18540
391.568	14451
391.648	26289
391.728	33949
391.808	33016
391.888	40521
391.969	94969
392.049	131208
392.129	51885
392.209	80700
392.289	180648
392.369	84683
392.449	48869
392.529	44449
392.609	50327
392.689	77080
392.769	201724
392.849	160020
392.929	126558
393.009	269280
393.089	252014
393.169	329056
393.248	1010560
393.328	2686234
393.408	2669330
393.488	930104
393.568	293482
393.648	144481
393.728	91607
393.807	63765
393.887	51535
393.967	43942
394.047	44699
394.127	43163
394.206	57898
394.286	196988
394.366	744527
394.446	638852
394.525	115820
394.605	37054
394.685	36909
394.764	58531
394.844	90769
394.924	71331
395.003	35429
395.083	28566
395.163	26340
395.242	25721
395.322	24650
395.402	19191
395.481	24086
395.561	52756
395.640	126105
395.720	124120
395.799	112217
395.879	75577
395.958	63011
396.038	260102
396.117	972111
396.197	869079
396.276	186327
396.356	74286
396.435	69578
396.515	77836
396.594	123922
396.673	270521
396.753	995785
396.832	2468816
396.912	1801820
396.991	458741
397.070	141485
397.150	79528
397.229	57438
397.308	80563
397.388	110257
397.467	49531
397.546	27972
397.625	24777
397.705	30150
397.784	31004
397.863	19057
397.942	15323
398.022	16392
398.101	36208
398.180	77890
398.259	37780
398.338	19761
398.417	18688
398.497	13586
398.576	13611
398.655	11912
398.734	10003
398.813	11686
398.892	33229
398.971	82888
399.050	37473
399.129	9998
399.208	8878
399.287	9216
399.366	7337
399.445	8586
399.524	9113
399.603	10409
399.682	24152
399.761	51465
399.840	103648
399.919	63298
399.998	11653
400.077	7950
400.156	7579
400.235	10293
400.313	8103
400.392	17219
400.471	84064
400.550	119142
400.629	29764
400.708	13264
400.786	10396
400.865	18346
400.944	22881
401.023	15088
401.102	5808
401.180	6265
401.259	6446
401.338	9143
401.416	14499
401.495	12663
401.574	7642
401.652	8471
401.731	13079
401.810	14917
401.888	7420
401.967	7705
402.046	12750
402.124	14063
402.203	17042
402.281	11586
402.360	18408
402.438	25353
402.517	15015
402.596	8265
402.674	7774
402.753	6671
402.831	7433
402.910	13893
402.988	78021
403.066	222626
403.145	103991
403.223	76852
403.302	184432
403.380	129245
403.459	127163
403.537	43460
403.615	17236
403.694	7033
403.772	6702
403.850	6296
403.929	7562
404.007	9717
404.085	28034
404.164	32714
404.242	11518
404.320	11744
404.398	23710
404.477	96511
404.555	411147
404.633	310264
404.711	43553
404.789	13806
404.868	14849
404.946	9758
405.024	5999
405.102	5555
405.180	6484
405.258	5943
405.336	7378
405.415	8651
405.493	18259
405.571	19555
405.649	7768
405.727	6996
405.805	12267
405.883	13743
405.961	12222
406.039	9697
406.117	8607
406.195	21480
406.273	108952
406.351	342065
406.429	166231
406.507	21860
406.585	9932
406.663	13342
406.740	18076
406.818	14901
406.896	7873
406.974	10721
407.052	38834
407.130	209754
407.208	252801
407.285	46000
407.363	10674
407.441	9968
407.519	8459
407.596	11820
407.674	29807
407.752	57599
407.830	41521
407.907	21055
407.985	12812
408.063	7111
408.141	4828
408.218	11667
408.296	14770
408.373	15838
408.451	14771
408.529	13336
408.606	6224
408.684	5246
408.762	3642
408.839	4234
408.917	4835
408.994	5825
409.072	7317
409.149	8780
409.227	18108
409.304	21685
409.382	18100
409.459	23399
409.537	31058
409.614	25677
409.692	16894
409.769	20523
409.846	34954
409.924	37264
410.001	25916
410.079	16863
410.156	13153
410.233	11893
410.311	10169
410.388	9204
410.465	11509
410.543	11229
410.620	8048
410.697	11096
410.775	13474
410.852	8840
410.929	14696
411.006	17291
411.083	12407
411.161	23550
411.238	18952
411.315	9874
411.392	7574
411.469	13554
411.547	13208
411.624	8299
411.701	7688
411.778	12144
411.855	27930
411.932	14072
412.009	6313
412.086	5988
412.163	7767
412.240	8401
412.317	9865
412.394	8130
412.471	4584
412.548	5211
412.625	6075
412.702	8834
412.779	17450
412.856	10895
412.933	4012
413.010	4410
413.087	16579
413.164	79481
413.241	95353
413.318	23802
413.395	15333
413.471	23283
413.548	9414
413.625	6401
413.702	8728
413.779	5755
413.855	3412
413.932	3047
414.009	3620
414.086	4090
414.162	5302
414.239	14765
414.316	76978
414.393	159755
414.469	48254
414.546	6963
414.623	3999
414.699	5161
414.776	8919
414.853	5532
414.929	6198
415.006	5800
415.082	5219
415.159	5127
415.236	5203
415.312	6991
415.389	18800
415.465	25216
415.542	11820
415.618	8750
415.695	15084
415.771	11341
415.848	9390
415.924	6910
416.000	4231
416.077	3950
416.153	1990
416.230	2150
416.306	2545
416.383	3356
416.459	3919
416.535	3342
416.612	3110
416.688	4030
416.764	6368
416.841	4730
416.917	4864
416.993	4709
417.069	7450
417.146	10002
417.222	11650
417.298	8545
417.374	5565
417.451	6478
417.527	11213
417.603	13015
417.679	9559
417.755	7415
417.831	3901
417.908	3318
417.984	3992
418.060	5387
418.136	21940
418.212	27188
418.288	8635
418.364	4670
418.440	6541
418.516	10931
418.592	10513
418.668	31482
418.744	52083
418.820	34383
418.896	8618
418.972	4610
419.048	7624
419.124	23009
419.200	16547
419.276	5207
419.352	3348
419.428	4411
419.504	7241
419.579	11370
419.655	8388
419.731	9867
419.807	35369
419.883	62477
419.959	38231
420.034	11835
420.110	29952
420.186	106559
420.262	69150
420.337	14016
420.413	11213
420.489	7079
420.565	6107
420.640	5980
420.716	7432
420.792	5742
420.867	7024
420.943	8326
421.019	17120
421.094	12849
421.170	7047
421.245	5959
421.321	8552
421.397	9805
421.472	16938
421.548	33800
421.623	25223
421.699	15591
421.774	15980
421.850	16225
421.925	27028
422.001	24689
422.076	21729
422.152	28108
422.227	41990
422.302	50498
422.378	76550
422.453	145760
422.529	358915
422.604	880607
422.679	1264603
422.755	832218
422.830	304306
422.905	127700
422.981	72280
423.056	48647
423.131	34128
423.207	29023
423.282	29267
423.357	43772
423.432	29933
423.508	32485
423.583	60136
423.658	39106
423.733	16871
423.808	17135
423.883	21086
423.959	20880
424.034	18583
424.109	14241
424.184	9042
424.259	7894
424.334	6814
424.409	5752
424.484	7378
424.559	9126
424.634	9847
424.709	16636
424.784	16421
424.859	9394
424.934	18437
425.009	78505
425.084	114859
425.159	36463
425.234	6589
425.309	4566
425.384	8939
425.459	11416
425.534	5731
425.609	4572
425.683	4313
425.758	5332
425.833	6245
425.908	10302
425.983	50706
426.058	120995
426.132	44667
426.207	8609
426.282	8254
426.357	6377
426.431	4468
426.506	5138
426.581	5260
426.655	5947
426.730	5910
426.805	6707
426.879	6569
426.954	7162
427.029	22765
427.103	129326
427.178	287798
427.253	107444
427.327	13502
427.402	9184
427.476	14162
427.551	8206
427.625	5545
427.700	6629
427.774	3608
427.849	4950
427.923	4266
427.998	5233
428.072	7266
428.147	21821
428.221	115970
428.296	300200
428.370	129879
428.444	17964
428.519	11595
428.593	17235
428.667	14691
428.742	17694
428.816	37349
428.890	180040
428.965	245419
429.039	56745
429.113	22011
429.188	9541
429.262	6470
429.336	19394
429.410	54379
429.485	27788
429.559	15480
429.633	11532
429.707	9837
429.781	34166
429.855	183346
429.930	246795
430.004	84187
430.078	79121
430.152	125778
430.226	403851
430.300	346896
430.374	54552
430.448	16969
430.522	33624
430.596	76426
430.670	87523
430.744	356772
430.818	429465
430.892	81048
430.966	15316
431.040	7687
431.114	4593
431.188	3943
431.262	4000
431.336	4854
431.410	12315
431.484	30005
431.557	22091
431.631	7244
431.705	12034
431.779	71220
431.853	270729
431.927	153052
432.000	19525
432.074	7023
432.148	5931
432.222	5483
432.295	3409
432.369	4623
432.443	15582
432.516	120106
432.590	279253
432.664	88343
432.737	12054
432.811	4482
432.885	2924
432.958	2780
433.032	2851
433.106	1496
433.179	2380
433.253	2380
433.326	2172
433.400	786
433.473	1526
433.547	1797
433.620	4598
433.694	11821
433.767	9908
433.841	3017
433.914	2323
433.988	1175
434.061	3488
434.134	3046
434.208	1517
434.281	1714
434.355	2355
434.428	2696
434.501	1708
434.575	1361
434.648	2254
434.721	1743
434.795	2043
434.868	924
434.941	1431
435.014	1803
435.088	3709
435.161	7988
435.234	16187
435.307	17886
435.381	10244
435.454	10264
435.527	17557
435.600	16400
435.673	11824
435.746	7518
435.819	6557
435.892	4609
435.966	2772
436.039	2846
436.112	2527
436.185	1369
436.258	1157
436.331	904
436.404	1931
436.477	975
436.550	1199
436.623	1461
436.696	2434
436.769	3736
436.842	3047
436.915	3126
436.987	5921
437.060	3064
437.133	1090
437.206	1511
437.279	1959
437.352	2246
437.425	2580
437.498	5098
437.570	13197
437.643	10776
437.716	3103
437.789	3048
437.861	11666
437.934	28696
438.007	12273
438.080	3665
438.152	6098
438.225	21757
438.298	161004
438.370	399574
438.443	148713
438.516	30121
438.588	7604
438.661	2718
438.734	3581
438.806	5523
438.879	6012
438.951	8285
439.024	13736
439.096	5274
439.169	3116
439.241	2655
439.314	1694
439.386	3372
439.459	7199
439.531	13326
439.604	5786
439.676	1522
439.749	817
439.821	701
439.893	1892
439.966	3189
440.038	5121
440.110	6252
440.183	3671
440.255	3144
440.327	8703
440.400	59488
440.472	243979
440.544	140727
440.617	19312
440.689	11289
440.761	15870
440.833	23760
440.905	14027
440.978	2707
441.050	1747
441.122	2597
441.194	2801
441.266	2292
441.338	2900
441.411	12850
441.483	79977
441.555	99823
441.627	21389
441.699	6955
441.771	4779
441.843	2986
441.915	2712
441.987	3072
442.059	2690
442.131	4401
442.203	7673
442.275	9827
442.347	11086
442.419	25747
442.491	147535
442.563	303368
442.635	100570
442.706	35609
442.778	22967
442.850	8892
442.922	5672
442.994	7146
443.066	10030
443.137	8632
443.209	8950
443.281	15519
443.353	38347
443.425	173600
443.496	576578
443.568	493364
443.640	160285
443.711	31648
443.783	13292
443.855	7796
443.926	5744
443.998	5403
444.070	5833
444.141	7125
444.213	13628
444.285	15203
444.356	11400
444.428	8633
444.499	4230
444.571	3612
444.642	3903
444.714	6519
444.785	12565
444.857	10058
444.928	13988
445.000	9273
445.071	12546
445.143	17640
445.214	18758
445.285	29155
445.357	84749
445.428	374760
445.500	760777
445.571	450750
445.642	227960
445.714	68636
445.785	34302
445.856	17057
445.928	19766
445.999	15242
446.070	11656
446.141	12463
446.213	15843
446.284	8134
446.355	5032
446.426	3022
446.497	5238
446.569	6879
446.640	13943
446.711	13125
446.782	4700
446.853	5032
446.924	7272
446.995	6523
447.066	4627
447.138	4562
447.209	2991
447.280	1650
447.351	1287
447.422	1568
447.493	3193
447.564	6411
447.635	12826
447.706	4778
447.777	1514
447.847	1861
447.918	914
447.989	2844
448.060	5663
448.131	9830
448.202	13266
448.273	10928
448.344	4452
448.414	3132
448.485	2950
448.556	1758
448.627	1506
448.698	1629
448.768	319
448.839	1388
448.910	4218
448.981	5172
449.051	3280
449.122	1911
449.193	1103
449.263	466
449.334	982
449.405	5802
449.475	16245
449.546	7983
449.616	6095
449.687	4177
449.758	1299
449.828	1414
449.899	2447
449.969	997
450.040	1815
450.110	2457
450.181	3691
450.251	1948
450.322	1292
450.392	1673
450.463	998
450.533	442
450.604	519
450.674	744
450.744	2138
450.815	1415
450.885	1942
450.955	1330
451.026	1938
451.096	1852
451.166	2528
451.237	6569
451.307	10913
451.377	4030
451.447	1715
451.518	1893
451.588	332
451.658	1753
451.728	2651
451.799	12226
451.869	11368
451.939	1807
452.009	557
452.079	483
452.149	1733
452.219	3971
452.289	14267
452.360	8499
452.430	2805
452.500	4599
452.570	8032
452.640	13631
452.710	35537
452.780	36038
452.850	34534
452.920	30483
452.990	10077
453.060	5277
453.129	7151
453.199	7309
453.269	18963
453.339	33379
453.409	47846
453.479	53771
453.549	68722
453.619	67470
453.688	22339
453.758	4297
453.828	2767
453.898	1893
453.968	1617
454.037	1443
454.087	1159
454.107	1019
454.168	740
454.177	667
454.247	876
454.249	893
454.316	527
454.330	910
454.386	2322
454.411	4037
454.456	6548
454.492	7934
454.525	9064
454.574	4730
454.595	2869
454.655	1720
454.665	1542
454.734	2651
454.736	2818
454.804	6982
454.817	8526
454.873	13793
454.898	14276
454.943	14358
454.979	10463
455.013	7123
455.060	4965
455.082	4308
455.141	4852
455.152	4899
455.221	10729
455.222	10939
455.291	18446
455.303	18004
455.360	15040
455.384	17355
455.430	18684
455.465	14883
455.499	11544
455.546	12843
455.569	13171
455.627	9858
455.638	9279
455.707	3286
455.708	3310
455.777	1887
455.789	1831
455.846	1754
455.869	1765
455.916	1699
455.950	2012
455.985	2235
456.031	2063
456.054	1849
456.112	2796
456.124	3013
456.193	2010
456.193	1979
456.262	3015
456.274	3279
456.332	4202
456.355	4221
456.401	3797
456.436	3611
456.470	3248
456.516	2594
456.540	2389
456.597	2657
456.609	2688
456.678	3057
456.678	3029
456.747	2336
456.759	2216
456.817	1891
456.840	2135
456.886	2447
456.920	2576
456.955	2818
457.001	2965
457.024	3189
457.082	4582
457.093	4870
457.162	7427
457.163	7480
457.232	8544
457.243	8126
457.301	5292
457.324	4652
457.370	4201
457.405	4164
457.439	4400
457.485	5115
457.508	5347
457.566	5698
457.577	5991
457.646	8122
457.647	8203
457.715	18811
457.727	21224
457.784	40639
457.808	53824
457.853	71851
457.889	81368
457.922	73205
457.969	46055
457.991	47035
458.050	63078
458.060	67269
458.129	120333
458.130	121718
458.198	116665
458.211	107054
458.267	52035
458.292	32998
458.336	22670
458.372	20978
458.405	29285
458.453	44422
458.474	61088
458.533	119418
458.543	125260
458.611	203712
458.614	204888
458.680	111842
458.694	88292
458.749	38588
458.775	24578
458.818	15539
458.855	11648
458.887	9952
458.936	8487
458.955	8137
459.016	7686
459.024	7714
459.093	8122
459.097	8142
459.162	8431
459.177	8703
459.230	10406
459.257	11669
459.299	11841
459.338	10790
459.368	10580
459.418	12150
459.437	11734
459.499	8169
459.505	8075
459.574	7457
459.579	7512
459.643	6828
459.659	6538
459.711	7269
459.740	7768
459.780	7842
459.820	8171
459.849	7848
459.900	7317
459.917	7405
459.981	6941
459.986	6858
460.054	6436
460.061	6444
460.123	7969
460.141	8211
460.191	11297
460.222	13936
460.260	16062
460.302	18848
460.328	16569
460.382	9829
460.397	9492
460.462	8320
460.465	8401
460.534	11667
460.543	12031
460.602	28966
460.623	35571
460.671	58011
460.703	77312
460.739	74368
460.783	61656
460.808	46998
460.864	10765
460.876	9404
460.944	7028
460.945	7022
461.013	8749
461.024	9044
461.081	11173
461.104	12402
461.150	12381
461.184	11877
461.218	10708
461.264	8457
461.286	8412
461.345	9165
461.355	8945
461.423	7279
461.425	7230
461.491	6762
461.505	6802
461.559	9846
461.585	11140
461.628	17807
461.665	24333
461.696	27074
461.745	32792
461.764	29237
461.825	13047
461.832	12809
461.901	11610
461.905	11653
461.969	11079
461.985	10737
462.037	8697
462.065	7583
462.105	7521
462.145	7708
462.173	9924
462.225	13964
462.241	15294
462.305	21788
462.310	21456
462.378	15529
462.385	14689
462.446	12606
462.465	12186
462.514	11717
462.545	11505
462.582	10398
462.625	8979
462.650	8821
462.705	8358
462.718	8214
462.785	7971
462.786	8013
462.854	10104
462.865	10434
462.922	13634
462.945	15099
462.990	12680
463.025	10210
463.058	9044
463.104	7660
463.126	7795
463.184	8032
463.194	8226
463.262	9935
463.264	9994
463.330	9784
463.344	9615
463.398	10087
463.424	10288
463.466	9818
463.504	9738
463.533	10219
463.583	10852
463.601	11401
463.663	12823
463.669	13258
463.737	18730
463.743	19225
463.805	22857
463.823	23799
463.873	27494
463.903	29969
463.940	32486
463.982	35248
464.008	29404
464.062	15879
464.076	14877
464.142	9830
464.144	9826
464.211	10015
464.221	10042
464.279	12186
464.301	13087
464.347	14085
464.381	14762
464.414	14010
464.461	12919
464.482	13449
464.540	14925
464.550	14872
464.617	14000
464.620	13959
464.685	18552
464.699	19596
464.753	21261
464.779	21968
464.820	19044
464.859	15962
464.888	15099
464.938	13953
464.956	14281
465.018	15187
465.023	14986
465.091	12080
465.098	11760
465.158	12548
465.177	12828
465.226	12887
465.257	12802
465.293	14712
465.336	16976
465.361	19915
465.416	26590
465.428	27162
465.495	30125
465.496	30177
465.563	30490
465.575	30554
465.631	36442
465.654	39008
465.698	27421
465.734	17177
465.765	15320
465.813	12697
465.833	12557
465.893	12302
465.900	12386
465.968	12914
465.972	12933
466.035	12797
466.052	12720
466.102	13498
466.131	13899
466.170	14164
466.210	14420
466.237	14577
466.290	14737
466.304	14859
466.369	15197
466.372	15295
466.439	17397
466.449	17670
466.506	18862
466.528	19261
466.573	24441
466.607	28246
466.641	39212
466.687	54401
466.708	61112
466.766	79550
466.775	75314
466.842	42078
466.845	40416
466.909	27749
466.925	24696
466.977	22162
467.004	20789
467.044	20609
467.083	20373
467.111	21298
467.163	22918
467.178	23850
467.242	27495
467.245	27525
467.312	26968
467.321	26839
467.379	24852
467.400	24052
467.446	24312
467.480	24410
467.559	22262
467.638	19708
467.717	22356
467.796	29935
467.875	41523
467.955	30161
468.034	28569
468.113	52565
468.192	76625
468.271	38292
468.350	33166
468.429	43210
468.508	48704
468.588	34014
468.667	25962
468.746	24786
468.825	23720
468.904	19881
468.983	22243
469.062	31187
469.141	38550
469.220	20167
469.299	18584
469.378	18574
469.456	20287
469.535	20106
469.614	18808
469.693	19424
469.772	24205
469.851	29967
469.930	28197
470.009	24732
470.088	27244
470.166	34786
470.245	59995
470.324	82755
470.403	61915
470.482	38793
470.560	30029
470.639	32116
470.718	41104
470.797	29930
470.875	29578
470.954	38509
471.033	36172
471.111	17629
471.190	14977
471.269	14481
471.347	15599
471.426	16914
471.505	18008
471.583	18414
471.662	17508
471.740	16230
471.819	16506
471.898	14800
471.976	15850
472.055	15886
472.133	17944
472.212	21349
472.290	20477
472.369	14544
472.447	14642
472.526	13280
472.604	17383
472.683	23478
472.761	31241
472.839	23120
472.918	21325
472.996	16872
473.075	19177
473.153	18600
473.231	17292
473.310	21548
473.388	23727
473.466	20215
473.545	26937
473.623	48169
473.701	53885
473.780	22199
473.858	20439
473.936	23156
474.014	19468
474.093	23115
474.171	27500
474.249	29168
474.327	25888
474.405	19215
474.484	17972
474.562	21412
474.640	21186
474.718	18640
474.796	18894
474.874	17862
474.952	16791
475.030	15348
475.108	17810
475.187	20788
475.265	27554
475.343	56261
475.421	75417
475.499	22801
475.577	16519
475.655	18996
475.733	31550
475.811	50871
475.889	48829
475.966	38283
476.044	21038
476.122	38718
476.200	64373
476.278	49513
476.356	16862
476.434	18047
476.512	32251
476.590	57677
476.667	46418
476.745	16721
476.823	18813
476.901	16058
476.979	15147
477.056	14692
477.134	16286
477.212	19350
477.290	18815
477.367	14514
477.445	12766
477.523	12491
477.601	14772
477.678	13198
477.756	15470
477.834	17380
477.911	15615
477.989	14802
478.066	14941
478.144	17221
478.222	33219
478.299	80792
478.377	83398
478.454	17649
478.532	15099
478.609	18957
478.687	24003
478.764	14564
478.842	18739
478.919	25032
478.997	23764
479.074	13043
479.152	15187
479.229	17315
479.307	14327
479.384	11075
479.461	12130
479.539	11373
479.616	15456
479.694	14381
479.771	15188
479.848	15613
479.926	18998
480.003	23374
480.080	15286
480.157	13687
480.235	14290
480.312	14896
480.389	14693
480.467	19718
480.544	25369
480.621	16602
480.698	17133
480.775	19879
480.853	18686
480.930	14434
481.007	14961
481.084	16927
481.161	18516
481.238	16131
481.315	13112
481.392	12144
481.470	13950
481.547	13720
481.624	13246
481.701	13627
481.778	15968
481.855	15682
481.932	22063
482.009	32293
482.086	30755
482.163	24629
482.240	48540
482.317	114930
482.393	99574
482.470	24461
482.547	20483
482.624	18726
482.701	20719
482.778	19022
482.855	14863
482.932	15947
483.009	15650
483.085	20119
483.162	26556
483.239	28075
483.316	24393
483.393	21536
483.469	19989
483.546	19131
483.623	20035
483.699	15952
483.776	17702
483.853	19925
483.930	26104
484.006	42342
484.083	68334
484.160	40382
484.236	47450
484.313	42527
484.389	33821
484.466	31142
484.543	32318
484.619	35397
484.696	39645
484.772	34383
484.849	32614
484.925	27248
485.002	27855
485.078	28107
485.155	31619
485.231	26253
485.308	24150
485.384	25872
485.461	31496
485.537	46355
485.614	59819
485.690	30485
485.766	28112
485.843	34735
485.919	74605
485.995	96202
486.072	31582
486.148	23981
486.224	25432
486.301	26245
486.377	31730
486.453	34014
486.530	29808
486.606	32210
486.682	36415
486.758	42240
486.835	54664
486.911	47255
486.987	77166
487.063	156404
487.139	286952
487.215	196158
487.292	66914
487.368	40192
487.444	45852
487.520	66605
487.596	81285
487.672	127987
487.748	411926
487.824	769327
487.900	312609
487.976	84138
488.052	52904
488.128	59025
488.204	50894
488.280	34479
488.356	36012
488.432	53283
488.508	88203
488.584	50391
488.660	39585
488.736	37079
488.812	43954
488.888	59739
488.964	85305
489.039	247027
489.115	464003
489.191	293700
489.267	42862
489.343	27470
489.418	23506
489.494	21261
489.570	21053
489.646	23243
489.722	22800
489.797	23327
489.873	29563
489.949	57566
490.024	61416
490.100	24914
490.176	25203
490.251	41234
490.327	76025
490.403	37293
490.478	22462
490.554	19501
490.629	19885
490.705	20216
490.781	24791
490.856	24046
490.932	33296
491.007	40724
491.083	31939
491.158	24532
491.234	25232
491.309	44072
491.385	52570
491.460	24959
491.536	27865
491.611	31637
491.686	41188
491.762	60680
491.837	160288
491.913	297641
491.988	381306
492.063	621939
492.139	127213
492.214	37607
492.289	23429
492.365	25989
492.440	30217
492.515	27288
492.590	22693
492.666	19434
492.741	25884
492.816	33021
492.891	23143
492.967	20106
493.042	20291
493.117	19688
493.192	21082
493.267	29390
493.342	77160
493.418	112760
493.493	29162
493.568	17674
493.643	18535
493.718	22312
493.793	41953
493.868	71096
493.943	49817
494.018	24337
494.093	17559
494.168	17200
494.243	17931
494.318	15024
494.393	15805
494.468	15553
494.543	18934
494.618	28155
494.693	23537
494.768	16412
494.842	17303
494.917	16408
494.992	20373
495.067	18769
495.142	17955
495.217	22319
495.292	24620
495.366	30501
495.441	41770
495.516	56418
495.591	84258
495.665	324293
495.740	1006518
495.815	506566
495.890	48361
495.964	24138
496.039	23166
496.114	20547
496.188	23347
496.263	23681
496.338	19505
496.412	20821
496.487	26267
496.561	41132
496.636	49760
496.710	25505
496.785	27668
496.860	28457
496.934	23966
497.009	26745
497.083	23660
497.158	20223
497.232	24728
497.307	36642
497.381	28455
497.455	26053
497.530	34163
497.604	27347
497.679	27307
497.753	39847
497.827	57094
497.902	57310
497.976	58277
498.050	98691
498.125	387739
498.199	534880
498.273	144970
498.348	107695
498.422	78581
498.496	71066
498.570	71768
498.645	37528
498.719	31584
498.793	36556
498.867	52704
498.941	63313
499.016	132623
499.090	436472
499.164	222564
499.238	30159
499.312	26369
499.386	39683
499.460	34346
499.534	23764
499.609	28269
499.683	35734
499.757	36076
499.831	56104
499.905	242746
499.979	308857
500.053	55568
500.127	71361
500.201	94334
500.275	42570
500.349	32085
500.422	34681
500.496	61319
500.570	165060
500.644	221882
500.718	303105
500.792	103554
500.866	26431
500.940	27416
501.013	26484
501.087	28446
501.161	64984
501.235	83655
501.309	74061
501.382	204387
501.456	258098
501.530	78077
501.603	74374
501.677	43309
501.751	22084
501.825	30108
501.898	32701
501.972	82067
502.046	71486
502.119	28042
502.193	52766
502.266	106210
502.340	63491
502.413	38595
502.487	81270
502.561	56962
502.634	28269
502.708	35366
502.781	33141
502.855	24774
502.928	14904
503.002	15374
503.075	15300
503.149	16587
503.222	14722
503.295	16408
503.369	19502
503.442	23401
503.516	54805
503.589	158816
503.662	128865
503.736	45756
503.809	80894
503.882	89837
503.956	108730
504.029	152100
504.102	242757
504.175	405188
504.249	170439
504.322	59261
504.395	38584
504.468	26720
504.542	20551
504.615	17658
504.688	17063
504.761	17672
504.834	24605
504.907	35127
504.980	80650
505.053	33954
505.127	37136
505.200	42491
505.273	20387
505.346	16828
505.419	13073
505.492	13135
505.565	12205
505.638	12709
505.711	11177
505.784	12271
505.857	10446
505.930	12621
506.003	10559
506.076	13780
506.149	13807
506.221	18497
506.294	18460
506.367	31742
506.440	118112
506.513	103425
506.586	26301
506.659	18472
506.731	17966
506.804	24188
506.877	48160
506.950	24669
507.022	14097
507.095	15521
507.168	23196
507.241	22139
507.313	18681
507.386	24379
507.459	44728
507.531	28145
507.604	18205
507.677	16127
507.749	12873
507.822	22471
507.894	47313
507.967	47738
508.040	21390
508.112	18294
508.185	18118
508.257	17065
508.330	37666
508.402	20660
508.475	13257
508.547	15918
508.620	14512
508.692	22242
508.765	17084
508.837	12175
508.909	11553
508.982	13448
509.054	20724
509.127	18841
509.199	11223
509.271	10206
509.344	9825
509.416	10923
509.488	11171
509.560	12388
509.633	18604
509.705	28888
509.777	22007
509.849	39838
509.922	29733
509.994	12157
510.066	11901
510.138	11917
510.210	18847
510.283	18808
510.355	16449
510.427	16720
510.499	18820
510.571	22857
510.643	17282
510.715	39381
510.787	44204
510.859	18783
510.931	20869
511.003	37505
511.076	37222
511.148	14350
511.219	11886
511.291	16846
511.363	22138
511.435	12975
511.507	11236
511.579	11891
511.651	12778
511.723	11821
511.795	12493
511.867	12192
511.939	13857
512.010	25130
512.082	26235
512.154	18713
512.226	16783
512.298	22162
512.369	38394
512.441	32290
512.513	41435
512.585	29780
512.656	22908
512.728	28930
512.800	20184
512.871	17705
512.943	17943
513.015	17098
513.086	19823
513.158	26166
513.230	28316
513.301	52036
513.373	75273
513.444	33825
513.516	20827
513.588	20642
513.659	26670
513.731	43091
513.802	36216
513.874	74872
513.945	200492
514.016	66336
514.088	20312
514.159	26391
514.231	37439
514.302	43432
514.374	22857
514.445	18460
514.516	30010
514.588	28425
514.659	19227
514.730	30410
514.802	37291
514.873	30012
514.944	24728
515.016	23426
515.087	32792
515.158	30232
515.229	35348
515.301	25127
515.372	28399
515.443	22357
515.514	18320
515.585	18049
515.656	17861
515.728	18984
515.799	18054
515.870	22823
515.941	23339
516.012	24410
516.083	28443
516.154	38127
516.225	68928
516.296	67809
516.367	55881
516.438	66540
516.509	89841
516.580	122462
516.651	316775
516.722	1447487
516.793	917315
516.864	138656
516.935	116448
517.006	127020
517.077	173780
517.148	373061
517.219	1307185
517.289	2854489
517.360	587078
517.431	131831
517.502	51554
517.573	43141
517.643	37307
517.714	40623
517.785	46253
517.856	54053
517.926	71451
517.997	95045
518.068	133767
518.138	186384
518.209	261882
518.280	813189
518.350	3604729
518.421	2115746
518.492	235798
518.562	104058
518.633	88797
518.703	97606
518.774	159388
518.845	398708
518.915	500268
518.986	164289
519.056	87152
519.127	133926
519.197	180253
519.268	226630
519.338	120931
519.408	43539
519.479	78749
519.549	69827
519.620	35167
519.690	23374
519.760	21560
519.831	24499
519.901	28315
519.971	17017
520.042	18660
520.112	21113
520.182	31480
520.253	46235
520.323	19255
520.393	17994
520.463	27309
520.534	18484
520.604	29351
520.674	23051
520.744	20987
520.814	39975
520.885	56108
520.955	38145
521.025	131560
521.095	82421
521.165	19333
521.235	17260
521.305	15748
521.375	17013
521.445	22548
521.515	43538
521.585	48072
521.655	52247
521.725	35508
521.795	32922
521.865	17013
521.935	20413
522.005	18795
522.075	14858
522.145	16660
522.215	18563
522.285	24290
522.355	31251
522.424	49400
522.494	54065
522.564	44154
522.634	99310
522.704	394411
522.774	195321
522.843	31490
522.913	29117
522.983	45465
523.053	34625
523.122	30082
523.192	46958
523.262	206679
523.331	279459
523.401	41451
523.471	20106
523.540	22960
523.610	16064
523.680	13486
523.749	14361
523.819	15061
523.888	17036
523.958	13398
524.027	15010
524.097	15836
524.166	15289
524.236	25143
524.305	22338
524.375	14973
524.444	12925
524.514	14165
524.583	13082
524.653	15480
524.722	18982
524.791	13995
524.861	15630
524.930	15678
524.999	17926
525.069	31780
525.138	19512
525.207	19365
525.277	18096
525.346	19956
525.415	18523
525.484	19724
525.554	23688
525.623	24017
525.692	26448
525.761	32202
525.830	41699
525.900	54113
525.969	80995
526.038	138308
526.107	249188
526.176	837142
526.245	877186
526.314	270276
526.383	400571
526.452	679135
526.522	877930
526.591	1216257
526.660	359413
526.729	181392
526.797	157915
526.867	254493
526.935	1032491
527.004	2147859
527.073	1616597
527.142	179443
527.211	61433
527.280	48787
527.349	53425
527.418	25148
527.487	22054
527.555	18218
527.624	17334
527.693	13948
527.762	17325
527.831	15377
527.899	16334
527.968	16314
528.037	16647
528.106	24661
528.174	58847
528.243	41989
528.312	46813
528.380	98217
528.449	29334
528.518	15955
528.586	11521
528.655	11135
528.723	11075
528.792	10269
528.861	13495
528.929	10290
528.998	11340
529.066	9314
529.135	11457
529.203	9375
529.272	9722
529.340	11658
529.409	13531
529.477	11304
529.545	12713
529.614	15894
529.682	13458
529.751	16791
529.819	18693
529.887	16903
529.956	13036
530.024	14561
530.092	12611
530.161	19134
530.229	46407
530.297	25767
530.365	13153
530.434	11738
530.502	11308
530.570	11340
530.638	9674
530.707	15148
530.775	16877
530.843	10258
530.911	12267
530.979	10865
531.047	11466
531.115	11256
531.183	11141
531.252	10929
531.320	11866
531.388	10662
531.456	11712
531.524	10091
531.592	13727
531.660	16437
531.728	13001
531.796	11933
531.864	13900
531.932	13370
532.000	14918
532.067	16948
532.135	20143
532.203	23203
532.271	27568
532.339	48319
532.407	175008
532.475	129237
532.542	42443
532.610	43516
532.678	53403
532.746	189238
532.814	713617
532.881	231028
532.949	32928
533.017	21698
533.084	16286
533.152	13526
533.220	15047
533.287	21749
533.355	15852
533.423	13022
533.490	12978
533.558	12477
533.625	15740
533.693	15032
533.761	16301
533.828	16917
533.896	18454
533.963	45732
534.031	66925
534.098	91319
534.166	47589
534.233	17030
534.300	18572
534.368	20464
534.435	19287
534.503	20046
534.570	24503
534.637	28985
534.705	35486
534.772	41924
534.840	68649
534.907	315342
534.974	616478
535.041	92444
535.109	29687
535.176	19309
535.243	17729
535.310	20716
535.378	20431
535.445	14588
535.512	14011
535.579	15716
535.646	15278
535.714	14438
535.781	16632
535.848	17334
535.915	17004
535.982	14581
536.049	15900
536.116	16985
536.183	17391
536.250	18998
536.317	21687
536.384	28027
536.451	49899
536.518	59390
536.585	37528
536.652	41502
536.719	71974
536.786	66334
536.853	41087
536.920	54960
536.987	105188
537.053	93698
537.120	286555
537.187	357574
537.254	39845
537.321	23193
537.388	23631
537.454	17466
537.521	16795
537.588	16028
537.654	18829
537.721	20261
537.788	23925
537.855	17513
537.921	20810
537.988	21662
538.055	21386
538.121	20512
538.188	26397
538.254	45071
538.321	118032
538.388	80181
538.454	25985
538.521	20648
538.587	17722
538.654	17629
538.720	17228
538.787	16805
538.853	19278
538.920	24352
538.986	25905
539.053	19856
539.119	22278
539.185	24851
539.252	28098
539.318	59093
539.385	40346
539.451	26770
539.517	28670
539.583	30743
539.650	63756
539.716	240778
539.782	91573
539.849	27829
539.915	25525
539.981	28223
540.047	38972
540.114	32191
540.180	30579
540.246	32240
540.312	47674
540.378	105399
540.444	121501
540.510	82197
540.576	279077
540.643	120527
540.709	26225
540.775	22760
540.841	20334
540.907	24967
540.973	32944
541.039	45614
541.105	65325
541.171	31725
541.237	23885
541.303	25502
541.369	33020
541.435	45281
541.500	96534
541.566	70497
541.632	26245
541.698	19399
541.764	19038
541.830	17829
541.896	17880
541.961	18592
542.027	22529
542.093	23289
542.159	25489
542.224	28490
542.290	42980
542.356	86587
542.421	123759
542.487	48583
542.553	25953
542.618	25654
542.684	24902
542.750	26058
542.815	28268
542.881	47081
542.947	201745
543.012	215380
543.078	28589
543.143	22056
543.209	23422
543.274	24349
543.340	28230
543.405	64913
543.471	157473
543.536	38514
543.602	19178
543.667	17260
543.732	18286
543.798	15553
543.863	17744
543.928	15360
543.994	15531
544.059	15960
544.124	17686
544.190	18204
544.255	20617
544.320	22996
544.386	26200
544.451	38441
544.516	53693
544.581	43676
544.646	113983
544.712	255251
544.777	54095
544.842	22850
544.907	20527
544.972	19755
545.037	19804
545.102	20962
545.168	21657
545.233	24530
545.298	27777
545.363	30249
545.428	38769
545.493	69659
545.558	197143
545.623	95312
545.688	26638
545.753	22343
545.818	21041
545.883	21375
545.947	22530
546.012	22623
546.077	24997
546.142	25823
546.207	29428
546.272	43484
546.337	54069
546.401	33209
546.466	28645
546.531	25138
546.596	29995
546.661	34191
546.725	32306
546.790	29725
546.855	30434
546.919	31359
546.984	38345
547.049	39448
547.113	45860
547.178	46693
547.243	52524
547.307	60494
547.372	72220
547.436	73247
547.501	68635
547.565	75336
547.630	87346
547.695	86318
547.759	71907
547.823	69302
547.888	67166
547.952	68674
548.017	70845
548.081	79033
548.146	82961
548.210	79253
548.274	78696
548.339	79616
548.403	72115
548.468	67969
548.532	65582
548.596	67095
548.660	67205
548.725	74041
548.789	86468
548.853	85748
548.917	75096
548.982	74689
549.046	72674
549.110	59216
549.174	59866
549.238	66501
549.303	73913
549.367	78822
549.431	76162
549.495	70578
549.559	69314
549.623	77903
549.687	93764
549.751	108956
549.815	108595
549.879	104254
549.943	97469
550.007	102043
550.071	105747
550.135	110568
550.199	98150
550.263	87276
550.327	84758
550.391	89688
550.455	93641
550.519	97345
550.582	105702
550.646	132422
550.710	147404
550.774	121183
550.838	122460
550.901	124314
550.965	134757
551.029	140784
551.093	157751
551.156	180863
551.220	232291
551.284	309547
551.347	222108
551.411	165689
551.475	164856
551.538	132648
551.602	120450
551.666	111486
551.729	104267
551.793	99245
551.856	99408
551.920	96094
551.983	97311
552.047	93726
552.110	96772
552.174	95142
552.237	100231
552.301	93299
552.364	88809
552.428	85253
552.491	89498
552.554	95845
552.618	94662
552.681	100175
552.745	103018
552.808	136671
552.871	200060
552.934	142923
552.998	104224
553.061	95335
553.124	88740
553.187	84488
553.251	87627
553.314	88116
553.377	87627
553.440	92979
553.503	105349
553.567	121166
553.630	94676
553.693	90128
553.756	89900
553.819	89211
553.882	84090
553.945	83545
554.008	84854
554.071	83818
554.134	87576
554.197	81368
554.260	79760
554.323	83468
554.386	83288
554.449	85964
554.512	85568
554.575	81537
554.638	81939
554.701	81453
554.764	77630
554.827	76001
554.889	72914
554.952	70374
555.015	67316
555.078	67418
555.141	69747
555.203	68572
555.266	68853
555.329	69384
555.391	67908
555.454	70299
555.517	72492
555.580	64213
555.642	60715
555.705	57459
555.768	59415
555.830	58177
555.893	55399
555.955	53180
556.018	54104
556.080	53416
556.143	55178
556.206	55071
556.268	57574
556.330	58123
556.393	57708
556.455	53035
556.518	57620
556.580	63613
556.643	51662
556.705	48598
556.767	49185
556.830	49385
556.892	53693
556.955	85278
557.017	73083
557.079	48154
557.142	47265
557.204	55295
557.266	105969
557.328	107040
557.391	45542
557.453	39792
557.515	41361
557.577	51772
557.639	61155
557.701	44668
557.764	43270
557.826	47506
557.888	53400
557.950	55206
558.012	63464
558.074	81013
558.136	174111
558.198	588412
558.260	291808
558.322	75134
558.384	74009
558.446	86100
558.508	103836
558.570	134229
558.632	199568
558.694	311456
558.756	312684
558.818	788120
558.880	2524376
558.942	1123663
559.003	630060
559.065	413406
559.127	128471
559.189	119646
559.251	131203
559.312	173307
559.374	379121
559.436	1526920
559.498	1117816
559.559	171607
559.621	124670
559.683	126656
559.744	192806
559.806	606195
559.868	1324247
559.929	326401
559.991	123851
560.052	162913
560.114	515050
560.176	455017
560.237	260055
560.299	588624
560.360	172463
560.422	43257
560.483	33795
560.545	28319
560.606	26108
560.667	24485
560.729	23474
560.790	22428
560.852	22004
560.913	21767
560.974	22101
561.036	21373
561.097	23680
561.158	23884
561.220	24300
561.281	25208
561.342	27011
561.403	31619
561.465	43586
561.526	112315
561.587	203069
561.648	55601
561.709	25843
561.771	22349
561.832	21418
561.893	20337
561.954	19562
562.015	19265
562.076	19034
562.137	18729
562.198	18858
562.259	19130
562.320	19876
562.381	23940
562.442	41900
562.503	37094
562.564	20020
562.625	18227
562.686	18396
562.747	20706
562.808	20855
562.869	16465
562.930	17791
562.991	17418
563.051	17217
563.112	16067
563.173	16658
563.234	16189
563.294	16970
563.355	17464
563.416	20866
563.477	17700
563.537	16948
563.598	18205
563.659	18060
563.720	18077
563.780	20647
563.841	22459
563.901	18137
563.962	15522
564.023	16287
564.083	16227
564.144	17877
564.204	17374
564.265	15730
564.325	17406
564.386	24821
564.446	27345
564.507	15595
564.567	14309
564.628	16740
564.688	14477
564.749	15936
564.809	15411
564.869	19615
564.930	15780
564.990	16259
565.050	16376
565.111	15935
565.171	15830
565.231	15533
565.292	15276
565.352	14661
565.412	16477
565.472	16914
565.532	21496
565.593	19262
565.653	16826
565.713	17178
565.773	19992
565.833	28446
565.893	41947
565.953	22824
566.013	15973
566.074	17980
566.134	18908
566.194	25415
566.254	36243
566.314	25135
566.374	17130
566.434	15450
566.494	14738
566.554	17106
566.614	15780
566.673	16604
566.733	18399
566.793	18025
566.853	18864
566.913	17206
566.973	18033
567.033	19985
567.092	21703
567.152	21359
567.212	21924
567.272	17871
567.331	18972
567.391	18696
567.451	18971
567.511	22967
567.570	23672
567.630	20028
567.690	17782
567.749	17984
567.809	18526
567.868	21989
567.928	23503
567.988	24389
568.047	26848
568.107	30402
568.166	37473
568.226	52774
568.285	78815
568.345	69654
568.404	54810
568.464	48407
568.523	43724
568.582	45515
568.642	52360
568.701	59533
568.761	75727
568.820	122010
568.879	126739
568.939	94406
568.998	68510
569.057	54497
569.116	42869
569.176	36558
569.235	30610
569.294	27102
569.353	26086
569.413	23276
569.472	20859
569.531	19597
569.590	18634
569.649	18182
569.708	17505
569.767	18003
569.827	22077
569.886	23284
569.945	16188
570.004	18818
570.063	18099
570.122	19079
570.181	20159
570.240	17592
570.299	18221
570.358	22341
570.417	17352
570.475	16577
570.534	18110
570.593	20808
570.652	18937
570.711	20895
570.770	18216
570.829	21272
570.887	22711
570.946	28178
571.005	18279
571.064	16976
571.122	20618
571.181	22908
571.240	16816
571.299	14552
571.357	13944
571.416	14628
571.475	15350
571.533	17498
571.592	14647
571.650	16233
571.709	15195
571.768	18335
571.826	19670
571.885	15501
571.943	13481
572.002	13790
572.060	13147
572.119	12222
572.177	12107
572.236	10839
572.294	10864
572.352	14448
572.411	13181
572.469	12988
572.528	13179
572.586	13317
572.644	14017
572.703	22451
572.761	16647
572.819	12891
572.877	11396
572.936	11234
572.994	11312
573.052	11943
573.110	13822
573.169	15591
573.227	13219
573.285	11529
573.343	11037
573.401	12498
573.459	12798
573.517	12275
573.576	12723
573.634	13562
573.692	13935
573.750	14779
573.808	12240
573.866	12449
573.924	14164
573.982	14079
574.040	11829
574.098	12213
574.155	11356
574.213	11664
574.271	11238
574.329	15068
574.387	12291
574.445	10662
574.503	10563
574.560	9792
574.618	10107
574.676	11350
574.734	10838
574.792	10987
574.849	9744
574.907	10417
574.965	9723
575.022	9711
575.080	10245
575.138	11293
575.195	12170
575.253	12544
575.311	16995
575.368	12606
575.426	9526
575.483	10954
575.541	10428
575.598	9571
575.656	10106
575.713	11073
575.771	11574
575.828	11080
575.886	10816
575.943	11188
576.001	10209
576.058	10985
576.115	11473
576.173	12478
576.230	15887
576.287	24070
576.345	19247
576.402	11995
576.459	10774
576.517	11114
576.574	10479
576.631	10737
576.688	10037
576.746	8738
576.803	8869
576.860	9596
576.917	9671
576.974	9054
577.031	9736
577.089	9987
577.146	8758
577.203	8785
577.260	10356
577.317	10592
577.374	11168
577.431	11540
577.488	10963
577.545	10502
577.602	8248
577.659	9493
577.716	9281
577.773	9358
577.830	8809
577.886	9732
577.943	7994
578.000	10180
578.057	10311
578.114	9860
578.171	10590
578.227	11006
578.284	9987
578.341	9759
578.398	8631
578.454	10586
578.511	11782
578.568	12355
578.625	11200
578.681	9311
578.738	8890
578.794	8323
578.851	8851
578.908	9495
578.964	9382
579.021	9739
579.077	9949
579.134	10772
579.190	9353
579.247	9280
579.303	8326
579.360	10025
579.416	8777
579.473	8756
579.529	8918
579.586	9554
579.642	8606
579.698	9116
579.755	9510
579.811	10103
579.867	9879
579.924	9966
579.980	9148
580.036	9972
580.093	9291
580.149	9528
580.205	9064
580.261	10351
580.317	9239
580.374	10695
580.430	12067
580.486	11874
580.542	9967
580.598	11645
580.619	11300
580.654	10715
580.692	11197
580.710	11460
580.765	10233
580.767	10206
580.823	11307
580.838	10803
580.879	9483
580.911	10412
580.935	11117
580.984	9999
580.991	9858
581.047	10428
581.057	10335
581.103	9948
581.130	9529
581.159	9130
581.203	9199
581.215	9223
581.270	9604
581.276	9591
581.326	9523
581.349	9661
581.382	9893
581.422	9497
581.438	9341
581.494	9779
581.494	9780
581.550	10622
581.567	11076
581.606	11960
581.640	10983
581.661	10434
581.713	10398
581.717	10402
581.773	9245
581.786	9299
581.829	9485
581.859	9654
581.885	9845
581.932	9840
581.940	9827
581.996	9299
582.004	9377
582.052	9863
582.077	9336
582.107	8771
582.150	9364
582.163	9516
582.219	9883
582.223	9916
582.274	10501
582.296	10023
582.330	9245
582.368	9946
582.386	10244
582.441	8277
582.441	8277
582.497	9333
582.514	9478
582.552	9918
582.587	9740
582.608	9591
582.659	9551
582.663	9553
582.719	10029
582.732	9788
582.774	8985
582.805	9678
582.830	10344
582.877	9681
582.885	9547
582.941	9210
582.950	9290
582.996	9679
583.023	9950
583.052	10308
583.095	10351
583.107	10376
583.162	11173
583.168	11115
583.218	10431
583.240	10243
583.273	10062
583.313	9707
583.328	9530
583.384	9582
583.385	9578
583.439	9509
583.458	9728
583.494	10172
583.531	9948
583.549	9860
583.603	11043
583.605	11071
583.660	9465
583.676	9688
583.715	10427
583.748	10269
583.770	10164
583.820	10824
583.825	10876
583.881	10072
583.893	10049
583.936	9996
583.965	10144
583.991	10230
584.038	10085
584.046	10075
584.101	9657
584.110	9731
584.156	10159
584.183	10250
584.211	10164
584.255	9654
584.266	9598
584.321	10588
584.328	10567
584.376	10309
584.400	10116
584.431	9889
584.472	10153
584.486	10224
584.541	10498
584.545	10560
584.596	11401
584.617	11224
584.651	11230
584.689	12187
584.706	12452
584.761	11870
584.762	11878
584.816	12687
584.834	12685
584.871	12801
584.906	13738
584.926	14124
584.978	14056
584.980	14070
585.035	15993
585.051	16429
585.090	17454
585.123	19187
585.145	20538
585.195	22717
585.200	22889
585.254	27350
585.267	28338
585.309	31805
585.340	35444
585.364	38550
585.412	43783
585.419	44581
585.473	53035
585.484	55386
585.528	66953
585.556	80787
585.583	103460
585.628	166162
585.637	188287
585.692	403004
585.700	458176
585.747	726978
585.772	641813
585.801	445424
585.845	163680
585.856	115347
585.910	53621
585.917	48989
585.965	36289
585.989	31581
586.019	27189
586.061	23857
586.074	23026
586.128	21732
586.133	21687
586.183	22336
586.205	22812
586.237	22761
586.277	20763
586.292	19905
586.346	18776
586.349	18689
586.401	17331
586.421	17507
586.455	18492
586.493	19016
586.509	19412
586.564	21236
586.565	21348
586.618	28121
586.637	29809
586.672	29805
586.709	26494
586.727	25287
586.781	27544
586.781	27534
586.835	22069
586.853	20814
586.889	18935
586.925	17938
586.944	17646
586.996	17689
586.998	17691
587.052	17620
587.068	17846
587.106	18305
587.140	18030
587.161	18072
587.212	18921
587.215	18937
587.269	18869
587.284	18903
587.323	19277
587.356	19792
587.377	20001
587.427	20880
587.431	20964
587.485	21149
587.499	21414
587.539	21871
587.571	22275
587.593	22799
587.643	24153
587.648	24258
587.702	25142
587.715	25520
587.755	26633
587.786	27100
587.810	27335
587.858	27947
587.864	28130
587.917	31013
587.930	31658
587.971	33263
588.001	34188
588.025	35517
588.073	39181
588.079	39525
588.133	42584
588.145	43537
588.187	48050
588.217	51439
588.241	54354
588.288	60748
588.295	61864
588.348	73935
588.360	76835
588.402	86444
588.431	94076
588.456	101379
588.503	117548
588.510	119811
588.564	142677
588.575	148493
588.617	172731
588.646	192054
588.671	210276
588.718	253764
588.725	263426
588.778	362812
588.789	392074
588.832	594085
588.861	773921
588.886	1067682
588.932	1725347
588.939	1801239
588.993	2253590
589.004	2282429
589.047	1561171
589.075	1015742
589.100	738593
589.147	372773
589.154	349595
589.207	257995
589.218	245387
589.261	227844
589.290	224122
589.314	229722
589.361	255776
589.368	265278
589.421	371106
589.433	404112
589.475	687390
589.504	934963
589.528	1246418
589.576	1876202
589.582	1845121
589.635	1255060
589.647	1102898
589.689	562257
589.718	267614
589.742	201415
589.790	121879
589.795	116777
589.849	86202
589.861	80858
589.902	70796
589.932	64998
589.955	59218
590.004	47802
590.009	47014
590.062	41604
590.075	40474
590.115	37933
590.146	36265
590.168	35261
590.218	33560
590.222	33395
590.275	31954
590.289	31704
590.328	31192
590.360	30594
590.381	29984
590.431	29000
590.435	28912
590.488	27936
590.503	27671
590.541	27676
590.574	27876
590.594	27725
590.645	27335
590.647	27271
590.700	25558
590.716	25196
590.753	25411
590.787	25480
590.806	25375
590.859	25678
590.859	25672
590.912	25284
590.930	25318
590.965	25198
591.001	24937
591.018	25008
591.071	25488
591.072	25492
591.124	25121
591.143	24983
591.177	24911
591.214	24920
591.230	25268
591.283	26570
591.285	26614
591.336	28468
591.356	29344
591.389	30047
591.427	30468
591.442	29407
591.495	25275
591.498	24979
591.547	24102
591.569	23812
591.600	24496
591.640	25213
591.653	24997
591.706	24028
591.711	23941
591.759	23951
591.782	23880
591.811	25024
591.853	26731
591.864	26484
591.917	25083
591.924	24872
591.969	24511
591.995	24305
592.022	24593
592.066	25094
592.075	25247
592.127	26136
592.137	26292
592.180	27803
592.208	28790
592.233	27681
592.279	25421
592.285	25517
592.338	26409
592.350	26595
592.390	26296
592.421	26055
592.443	26108
592.491	26219
592.495	26223
592.548	26150
592.562	26123
592.600	26071
592.633	26015
592.653	26153
592.704	26359
592.705	26531
592.775	27643
592.846	28916
592.916	30250
592.987	33583
593.058	31971
593.128	27603
593.199	26421
593.270	27453
593.341	27141
593.411	29451
593.482	31581
593.553	29278
593.623	29735
593.694	29081
593.764	31077
593.835	29860
593.906	29441
593.976	29823
594.047	31127
594.117	33908
594.188	33974
594.258	31996
594.329	32375
594.399	33267
594.470	33872
594.540	34655
594.611	35068
594.681	33940
594.751	35791
594.822	39185
594.892	41759
594.963	40393
595.033	39395
595.103	39636
595.174	41529
595.244	45543
595.314	51506
595.384	44322
595.455	43037
595.525	45055
595.595	45846
595.665	46554
595.736	45706
595.806	45050
595.876	46496
595.946	45790
596.016	48091
596.087	49091
596.157	49654
596.227	47867
596.297	52209
596.367	54906
596.437	58186
596.507	62405
596.577	65073
596.647	60310
596.717	61207
596.787	63593
596.857	62661
596.927	63910
596.997	62765
597.067	63454
597.137	65193
597.207	65706
597.277	65580
597.347	63983
597.417	62995
597.487	63447
597.557	62952
597.626	65714
597.696	67125
597.766	66675
597.836	68021
597.906	60443
597.975	58274
598.045	57755
598.115	60328
598.185	63741
598.254	74077
598.324	79515
598.394	82958
598.464	81262
598.533	77647
598.603	72400
598.672	70708
598.742	71150
598.812	71647
598.881	70857
598.951	70802
599.020	71272
599.090	73596
599.159	76346
599.229	73135
599.299	69168
599.368	72876
599.437	71367
599.507	67516
599.576	64463
599.646	63412
599.715	62008
599.785	61711
599.854	62248
599.924	61850
599.993	60396
600.062	59785
600.132	62091
600.201	64875
600.270	76714
600.340	81442
600.409	77560
600.478	75703
600.547	78478
600.617	73810
600.686	59825
600.755	54804
600.824	54103
600.894	52999
600.963	49333
601.032	48075
601.101	47224
601.170	45366
601.239	45063
601.308	47523
601.378	47467
601.447	44637
601.516	44610
601.585	47512
601.654	53118
601.723	50166
601.792	46908
601.861	49682
601.930	53544
601.999	57138
602.068	53323
602.137	59587
602.206	60457
602.275	55855
602.343	61358
602.412	64731
602.481	55256
602.550	52915
602.619	55820
602.688	57660
602.756	56287
602.825	56102
602.894	56904
602.963	58463
603.032	59872
603.100	60818
603.169	58034
603.238	59079
603.307	60107
603.375	61087
603.444	61223
603.513	62863
603.581	63676
603.650	65924
603.719	62798
603.787	63607
603.856	67112
603.924	69353
603.993	71868
604.061	73142
604.130	76734
604.198	78849
604.267	78291
604.335	79089
604.404	82013
604.472	82233
604.541	83317
604.609	82819
604.678	83334
604.746	84260
604.815	87532
604.883	88370
604.951	87175
605.020	90165
605.088	90186
605.156	92478
605.225	94426
605.293	95944
605.361	95329
605.429	96522
605.498	99840
605.566	102553
605.634	106472
605.702	109692
605.771	113076
605.839	111894
605.907	111329
605.975	106023
606.043	102521
606.111	103149
606.180	102738
606.248	101326
606.316	100280
606.384	102207
606.452	107024
606.520	115462
606.588	111005
606.656	105808
606.724	105254
606.792	98729
606.860	89334
606.928	80549
606.996	77917
607.064	75283
607.132	77607
607.200	81981
607.267	85840
607.335	87493
607.403	90556
607.471	87354
607.539	83366
607.607	85179
607.674	75854
607.742	76024
607.810	78340
607.878	78162
607.946	76041
608.013	80993
608.081	81529
608.149	83545
608.216	84377
608.284	88545
608.352	86965
608.419	87130
608.487	87091
608.555	84890
608.622	85607
608.690	91037
608.757	99286
608.825	104791
608.893	99534
608.960	99363
609.028	96622
609.095	94238
609.163	90395
609.230	82913
609.298	73436
609.365	77919
609.432	83614
609.500	91446
609.567	101524
609.635	118291
609.702	125035
609.769	121569
609.837	100555
609.904	84276
609.971	87245
610.039	100164
610.106	136966
610.173	264541
610.241	648523
610.308	441895
610.375	122180
610.442	92498
610.509	85050
610.577	83189
610.644	83757
610.711	86138
610.778	89559
610.845	93183
610.912	98104
610.980	101721
611.047	102590
611.114	101948
611.181	99572
611.248	95582
611.315	102845
611.382	105506
611.449	107821
611.516	111808
611.583	110805
611.650	110755
611.717	112766
611.784	118628
611.851	125742
611.918	141936
611.984	174050
612.051	252466
612.118	526620
612.185	1365607
612.252	1074557
612.319	228785
612.386	157887
612.452	139985
612.519	130242
612.586	128059
612.653	127062
612.719	130671
612.786	126350
612.853	114607
612.919	111890
612.986	114610
613.053	107398
613.120	100919
613.186	96477
613.253	97598
613.319	96754
613.386	98105
613.453	100987
613.519	105059
613.586	110539
613.652	130092
613.719	118316
613.785	114698
613.852	102679
613.918	101287
613.985	99874
614.051	105875
614.118	108452
614.184	107532
614.250	100142
614.317	101264
614.383	100490
614.449	102765
614.516	102264
614.582	102176
614.648	100632
614.715	100559
614.781	98434
614.847	97233
614.914	97896
614.980	95332
615.046	93577
615.112	98758
615.179	98004
615.245	100918
615.311	97874
615.377	102332
615.443	104877
615.509	102721
615.575	107494
615.642	107501
615.708	112314
615.774	120125
615.840	131205
615.906	150726
615.972	194625
616.038	309707
616.104	658886
616.170	1650966
616.236	1745931
616.302	365468
616.368	223116
616.434	159097
616.500	137983
616.565	151301
616.631	200141
616.697	167554
616.763	161959
616.829	242301
616.895	465354
616.961	488566
617.026	201127
617.092	122251
617.158	106478
617.224	104354
617.289	95991
617.355	90629
617.421	88021
617.487	88547
617.552	82825
617.618	81760
617.684	81359
617.749	82491
617.815	78683
617.880	77417
617.946	77042
618.012	79250
618.077	80269
618.143	77286
618.208	76155
618.274	81895
618.339	84269
618.405	70430
618.470	67919
618.536	69532
618.601	67713
618.667	63478
618.732	60013
618.798	59978
618.863	59364
618.928	57079
618.994	60875
619.059	63270
619.124	77347
619.190	67539
619.255	57124
619.320	59353
619.386	58282
619.451	58024
619.516	56575
619.581	55803
619.647	56858
619.712	57847
619.777	54710
619.842	55046
619.907	57767
619.972	57970
620.038	58750
620.103	55966
620.168	54376
620.233	55902
620.298	55563
620.363	56239
620.428	58032
620.493	59923
620.558	60915
620.623	61595
620.688	60521
620.753	60601
620.818	61068
620.883	61845
620.948	61893
621.013	61542
621.078	59007
621.143	58717
621.207	62846
621.272	62153
621.337	61403
621.402	59225
621.467	61541
621.532	62584
621.596	60243
621.661	57315
621.726	55628
621.791	57252
621.855	58901
621.920	59925
621.985	57749
622.049	61072
622.114	58925
622.179	59821
622.243	60750
622.308	62033
622.373	64657
622.437	64513
622.502	59147
622.566	59449
622.631	57295
622.695	61785
622.760	59237
622.824	60612
622.889	61251
622.953	64614
623.018	82085
623.082	89021
623.147	66913
623.211	64726
623.276	64619
623.340	60292
623.404	57666
623.469	56712
623.533	57841
623.597	56831
623.662	55631
623.726	52635
623.790	48199
623.854	48302
623.919	48521
623.983	49665
624.047	50665
624.111	51901
624.176	52377
624.240	53980
624.304	58923
624.368	52788
624.432	52166
624.496	55357
624.560	61168
624.625	66606
624.689	58241
624.753	58704
624.817	55983
624.881	54838
624.945	49750
625.009	48086
625.073	49758
625.137	52743
625.201	62949
625.265	64332
625.329	51399
625.393	54917
625.456	53052
625.520	53691
625.584	56131
625.648	59570
625.712	64013
625.776	82188
625.839	88593
625.903	59335
625.967	44119
626.031	50925
626.095	67823
626.158	54295
626.222	39064
626.286	37224
626.349	34099
626.413	33680
626.477	35903
626.540	34200
626.604	31938
626.668	32233
626.731	31093
626.795	32263
626.858	32477
626.922	32121
626.986	31273
627.049	30659
627.113	32893
627.176	31422
627.240	29976
627.303	31039
627.366	30648
627.430	32331
627.493	30567
627.557	30581
627.620	31144
627.684	31886
627.747	32193
627.810	29377
627.874	27224
627.937	26140
628.000	27201
628.064	27255
628.127	23454
628.190	24580
628.253	24027
628.317	22657
628.380	22277
628.443	21505
628.506	21911
628.569	21198
628.632	19420
628.696	19367
628.759	19357
628.822	18870
628.885	17017
628.948	18332
629.011	18470
629.074	19272
629.137	17631
629.200	17134
629.263	19363
629.326	16672
629.389	16401
629.452	17076
629.515	15273
629.578	15920
629.641	17623
629.704	17182
629.767	17696
629.830	16547
629.892	15505
629.955	15848
630.018	17958
630.081	18915
630.144	26988
630.207	18603
630.269	18939
630.332	15932
630.395	15323
630.458	14996
630.520	14540
630.583	15621
630.646	14564
630.708	14992
630.771	13974
630.834	16186
630.896	15470
630.959	15390
631.021	14484
631.084	14484
631.146	15923
631.209	16349
631.272	15078
631.334	16463
631.397	16436
631.459	17261
631.522	19283
631.584	20312
631.646	21585
631.709	23187
631.771	27595
631.834	24242
631.896	19717
631.958	17459
632.021	17345
632.083	15897
632.145	16272
632.208	15867
632.270	17621
632.332	13157
632.395	13683
632.457	15553
632.519	14076
632.581	14842
632.643	13623
632.706	14533
632.768	13198
632.830	14594
632.892	14331
632.954	14395
633.016	15657
633.078	14151
633.141	13336
633.203	14740
633.265	14319
633.327	15021
633.389	14440
633.451	17175
633.513	19806
633.575	18671
633.637	21021
633.698	20322
633.760	16997
633.822	17787
633.884	17494
633.946	18328
634.008	18949
634.070	20468
634.132	21951
634.193	24746
634.255	28575
634.317	28618
634.379	28784
634.441	25725
634.502	22150
634.564	20474
634.626	21707
634.687	24362
634.749	18087
634.811	15723
634.873	14432
634.934	14786
634.996	15183
635.057	14463
635.119	14721
635.181	15341
635.242	16379
635.304	14704
635.365	16817
635.427	15255
635.488	16116
635.550	16210
635.611	16210
635.673	14790
635.734	17603
635.796	19043
635.857	22711
635.918	23521
635.980	27061
636.041	29781
636.102	31994
636.164	33707
636.225	32643
636.286	26018
636.348	24343
636.409	20448
636.470	16496
636.531	16441
636.593	15339
636.654	15158
636.715	13943
636.776	13553
636.838	12813
636.899	12754
636.960	13098
637.021	12937
637.082	14876
637.143	14332
637.204	11434
637.265	11557
637.326	12035
637.387	12317
637.448	11616
637.509	11819
637.570	11853
637.631	11959
637.692	10045
637.753	9556
637.814	10793
637.875	10679
637.936	11164
637.997	10751
638.058	11829
638.119	11809
638.179	10730
638.240	10376
638.301	10006
638.362	9757
638.423	9759
638.483	10189
638.544	8120
638.605	10054
638.666	8472
638.726	10778
638.787	10114
638.848	9225
638.908	8677
638.969	9276
639.030	9171
639.090	8814
639.151	8865
639.211	11299
639.272	14615
639.332	25085
639.393	17155
639.453	11038
639.514	12144
639.574	10344
639.635	8292
639.695	10304
639.756	8692
639.816	11652
639.877	13510
639.937	23116
639.997	35540
640.058	14321
640.118	8633
640.178	9016
640.239	8928
640.299	9407
640.359	8329
640.420	10984
640.480	11482
640.540	14795
640.600	14616
640.661	12931
640.721	11339
640.781	15758
640.841	10768
640.901	10376
640.961	10387
641.021	12345
641.082	15111
641.142	21785
641.202	14769
641.262	8397
641.322	9205
641.382	8402
641.442	8166
641.502	8413
641.562	9472
641.622	9261
641.682	10054
641.742	13093
641.802	11430
641.861	10617
641.921	10487
641.981	12280
642.041	11075
642.101	14055
642.161	10072
642.221	8214
642.280	7294
642.340	8354
642.400	7778
642.460	8711
642.519	7571
642.579	7733
642.639	8713
642.698	7056
642.758	10122
642.818	9117
642.877	8029
642.937	10064
642.997	11260
643.056	17306
643.116	11422
643.175	10988
643.235	9205
643.294	9867
643.354	11897
643.414	14033
643.473	17057
643.532	24184
643.592	36872
643.651	59819
643.711	106321
643.770	204422
643.830	472180
643.889	1238932
643.948	422533
644.008	51498
644.067	28062
644.126	19307
644.186	15064
644.245	12941
644.304	9934
644.363	12862
644.423	10043
644.482	10301
644.541	11012
644.600	11598
644.659	16178
644.719	19997
644.778	32255
644.837	53042
644.896	106790
644.955	277957
645.014	133286
645.073	21737
645.132	13552
645.191	13274
645.250	9770
645.309	12335
645.368	12029
645.427	17441
645.486	26055
645.545	56210
645.604	22014
645.663	11485
645.722	9645
645.781	14296
645.840	15403
645.898	21988
645.957	34934
646.016	54066
646.075	97210
646.134	191871
646.192	472278
646.251	938351
646.310	187489
646.369	34158
646.427	23194
646.486	16755
646.545	12202
646.603	11424
646.662	9828
646.721	9740
646.779	9327
646.838	10270
646.896	14622
646.955	20243
647.014	29822
647.072	55459
647.131	161423
647.189	116154
647.248	14509
647.306	9542
647.365	7615
647.423	5654
647.481	7159
647.540	5634
647.598	7059
647.657	6045
647.715	6672
647.773	5731
647.832	6315
647.890	4703
647.948	5010
648.007	5845
648.065	4298
648.123	4923
648.181	6939
648.240	5975
648.298	4657
648.356	4838
648.414	5681
648.472	6439
648.531	5693
648.589	4818
648.647	5100
648.705	5738
648.763	5040
648.821	6706
648.879	6392
648.937	8851
648.995	11095
649.053	15879
649.111	24809
649.169	43400
649.227	75364
649.285	148827
649.343	460158
649.401	333316
649.459	54637
649.516	33844
649.574	12785
649.632	14492
649.690	14249
649.748	15647
649.806	21456
649.863	39344
649.921	108864
649.979	107336
650.037	14701
650.094	5859
650.152	6281
650.210	5102
650.268	5380
650.325	4922
650.383	4101
650.440	3722
650.498	4236
650.556	3777
650.613	3285
650.671	3777
650.728	3027
650.786	4851
650.843	5796
650.901	3862
650.958	4076
651.016	3835
651.073	3791
651.131	3594
651.188	1394
651.246	4207
651.303	1984
651.360	3848
651.418	2626
651.475	3490
651.532	2748
651.590	4162
651.647	2390
651.704	3205
651.762	2869
651.819	3393
651.876	2378
651.933	3352
651.990	3053
652.048	1949
652.105	2144
652.162	2952
652.219	2646
652.276	2932
652.333	3946
652.390	1895
652.448	2698
652.505	2745
652.562	3053
652.619	3263
652.676	2666
652.733	3357
652.790	3159
652.847	1851
652.904	3419
652.961	2214
653.017	2302
653.074	4094
653.131	3564
653.188	2176
653.245	2311
653.302	3126
653.359	1815
653.415	3554
653.472	2268
653.529	3525
653.586	2097
653.642	2202
653.699	3333
653.756	2056
653.813	2273
653.869	3548
653.926	2456
653.983	2033
654.039	1943
654.096	2726
654.152	3181
654.209	2066
654.266	2808
654.322	1438
654.379	3179
654.435	3795
654.492	4032
654.548	4779
654.605	8474
654.661	6128
654.717	2661
654.774	2861
654.830	3034
654.887	3241
654.943	2407
655.000	2436
655.056	2074
655.112	3394
655.168	1503
655.225	2791
655.281	3474
655.337	3305
655.394	4511
655.450	4868
655.506	4033
655.562	4632
655.618	5782
655.675	2990
655.731	2855
655.787	2869
655.843	4594
655.899	3727
655.955	4737
656.011	4770
656.067	4203
656.123	6207
656.179	6427
656.235	8759
656.291	5456
656.347	6996
656.403	5782
656.459	4744
656.515	4327
656.571	5031
656.627	3789
656.683	3831
656.739	4089
656.795	3554
656.850	4731
656.906	6262
656.962	4722
657.018	3364
657.074	3131
657.129	4199
657.185	5175
657.241	11683
657.297	10057
657.352	3697
657.408	2096
657.464	3975
657.519	3160
657.575	1906
657.630	1280
657.686	2143
657.742	996
657.797	2262
657.853	958
657.908	3487
657.964	1775
658.019	2620
658.075	2111
658.130	2634
658.186	1605
658.241	1588
658.297	1504
658.352	1796
658.407	1730
658.463	1697
658.518	2029
658.573	2337
658.629	1464
658.684	1829
658.739	2334
658.795	1327
658.850	1720
658.905	1426
658.960	2081
659.016	1591
659.071	1818
659.126	2888
659.181	2904
659.236	6835
659.291	8763
659.346	4368
659.401	2660
659.457	3182
659.512	1297
659.567	3052
659.622	1189
659.677	1888
659.732	1354
659.787	1280
659.842	1250
659.897	3307
659.952	1768
660.007	1448
660.061	1504
660.116	1583
660.171	1159
660.226	1728
660.281	2197
660.336	1240
660.391	1788
660.445	1568
660.500	1850
660.555	2193
660.610	1146
660.664	2298
660.719	882
660.774	2067
660.828	786
660.883	2474
660.938	2583
660.992	836
661.047	1929
661.101	1844
661.156	1633
661.211	929
661.265	1522
661.320	1538
661.374	2468
661.429	945
661.483	1843
661.538	1014
661.592	667
661.647	1466
661.701	1501
661.755	1904
661.810	1691
661.864	827
661.919	1054
661.973	2094
662.027	1659
662.081	1563
662.136	1099
662.190	2575
662.244	2028
662.299	2690
662.353	1224
662.407	1211
662.461	1111
662.515	2076
662.569	1644
662.624	3198
662.678	798
662.732	893
662.786	1531
662.840	1532
662.894	1812
662.948	972
663.002	832
663.056	1931
663.110	459
663.164	1440
663.218	2183
663.272	2634
663.326	2736
663.380	2907
663.434	1966
663.488	1702
663.542	1092
663.595	1610
663.649	652
663.703	1313
663.757	1380
663.811	1378
663.864	1451
663.918	2386
663.972	2140
664.026	1413
664.079	420
664.133	2402
664.187	1499
664.240	1888
664.294	1034
664.348	1679
664.401	1617
664.455	1432
664.508	1059
664.562	2269
664.615	1565
664.669	919
664.722	2060
664.776	2013
664.829	1775
664.883	850
664.936	171
664.990	2005
665.043	1579
665.097	1189
665.150	2755
665.203	1337
665.257	1091
665.310	2661
665.363	1879
665.417	2257
665.470	1855
665.523	1813
665.576	1308
665.630	2467
665.683	1627
665.736	1897
665.789	2998
665.842	1591
665.895	1358
665.949	1463
666.002	1871
666.055	1753
666.108	2737
666.161	2691
666.214	2352
666.267	3073
666.320	3233
666.373	3225
666.426	2231
666.479	1907
666.532	2335
666.585	2649
666.638	3023
666.691	2281
666.744	3252
666.796	2095
666.849	2113
666.902	2428
666.955	2422
667.008	1471
667.060	1478
667.113	944
667.166	1323
667.219	2216
667.271	2187
667.324	2037
667.377	1800
667.430	2177
667.482	2263
667.535	2146
667.587	1939
667.640	3569
667.693	2979
667.745	6879
667.798	10319
667.850	3063
667.903	2866
667.955	1135
668.008	1623
668.060	2625
668.113	1286
668.165	2091
668.218	2205
668.270	1865
668.322	2375
668.375	1969
668.427	952
668.479	1451
668.532	2181
668.584	1653
668.636	2407
668.689	1783
668.741	1807
668.793	2223
668.845	1142
668.898	1717
668.950	1303
669.002	2291
669.054	1306
669.106	1407
669.158	1903
669.211	1498
669.263	1428
669.315	2291
669.367	1541
669.419	1216
669.471	2477
669.523	2161
669.575	3580
669.627	2385
669.679	2305
669.731	1802
669.783	2803
669.835	2319
669.886	2893
669.938	2873
669.990	2224
670.042	1709
670.094	2373
670.146	1686
670.197	2330
670.249	2785
670.301	3149
670.353	3529
670.404	4992
670.456	6119
670.508	7460
670.560	12759
670.611	18051
670.663	28677
670.715	62531
670.766	140927
670.818	74777
670.869	11093
670.921	4703
670.972	3803
671.024	2834
671.075	2675
671.127	3390
671.178	2687
671.230	2091
671.281	3473
671.333	4188
671.384	4253
671.436	4760
671.487	7490
671.538	9982
671.590	14443
671.641	22790
671.692	41296
671.744	93169
671.795	81588
671.846	26437
671.897	10909
671.949	6799
672.000	4801
672.051	3791
672.102	4627
672.153	2964
672.204	3171
672.256	2266
672.307	2906
672.358	2837
672.409	2218
672.460	1900
672.511	1873
672.562	1558
672.613	2141
672.664	1544
672.715	2248
672.766	1355
672.817	1763
672.868	1647
672.919	2087
672.970	1480
673.021	1575
673.071	1600
673.122	2381
673.173	2161
673.224	1619
673.275	1304
673.326	2073
673.376	1194
673.427	1485
673.478	1493
673.528	1893
673.579	1799
673.630	1631
673.680	1833
673.731	2316
673.782	1242
673.832	1295
673.883	1647
673.934	1240
673.984	1170
674.035	1689
674.085	1062
674.136	2587
674.186	1854
674.237	2556
674.287	2335
674.338	3386
674.388	1530
674.438	1377
674.489	2848
674.539	2478
674.589	2275
674.640	2124
674.690	1617
674.740	1675
674.791	1555
674.841	2202
674.891	1534
674.942	2741
674.992	1650
675.042	1717
675.092	754
675.142	1001
675.193	665
675.243	1266
675.293	1364
675.343	791
675.393	1265
675.443	1955
675.493	1337
675.543	1179
675.593	1199
675.643	995
675.693	1531
675.743	1525
675.793	1308
675.843	1113
675.893	1100
675.943	1048
675.993	1234
676.043	1363
676.093	1221
676.142	544
676.192	694
676.242	876
676.292	639
676.341	627
676.391	636
676.441	727
676.491	1368
676.540	718
676.590	791
676.640	1475
676.689	641
676.739	1283
676.789	817
676.838	503
676.888	1000
676.937	915
676.987	302
677.037	771
677.086	418
677.136	606
677.185	1138
677.235	981
677.284	-270
677.333	748
677.383	-164
677.432	8
677.482	433
677.531	1743
677.580	-284
677.630	157
677.679	-631
677.728	696
677.778	710
677.827	691
677.876	267
677.925	1337
677.975	452
678.024	1303
678.073	430
678.122	804
678.171	1552
678.220	975
678.269	1724
678.319	1616
678.368	1521
678.417	2335
678.466	1852
678.515	1103
678.564	94
678.613	982
678.662	-293
678.711	903
678.760	541
678.809	771
678.857	698
678.906	983
678.955	782
679.004	1528
679.053	-40
679.102	825
679.151	434
679.199	655
679.248	846
679.297	1762
679.346	181
679.394	1131
679.443	-83
679.492	526
679.540	-123
679.589	999
679.638	610
679.686	805
679.735	603
679.784	1264
679.832	1578
679.881	1003
679.929	826
679.978	797
680.026	290
680.075	1657
680.123	-238
680.172	1044
680.220	-21
680.268	236
680.317	612
680.365	629
680.414	-29
680.462	824
680.510	1066
680.559	754
680.607	-63
680.655	653
680.703	727
680.752	1177
680.800	1027
680.848	129
680.896	194
680.945	1391
680.993	1041
681.041	792
681.089	566
681.137	1124
681.185	546
681.233	307
681.258	154
681.281	-1
681.329	750
681.377	917
681.380	919
681.425	818
681.473	747
681.502	932
681.521	1037
681.569	1178
681.617	233
681.624	215
681.665	59
681.713	746
681.745	503
681.761	368
681.809	-130
681.857	1246
681.867	1199
681.904	1011
681.952	165
681.989	1165
682.000	1454
682.048	735
682.096	858
682.111	1033
682.143	1363
682.191	852
682.233	465
682.239	403
682.286	644
682.334	492
682.354	698
682.382	941
682.430	887
682.476	688
682.477	676
682.525	1120
682.572	575
682.598	699
682.620	823
682.667	649
682.715	2003
682.720	1925
682.763	1058
682.810	1616
682.841	1375
682.857	1230
682.905	1185
682.952	1367
682.963	1234
683.000	740
683.047	997
683.085	1869
683.095	2092
683.142	1362
683.190	1016
683.206	990
683.237	898
683.284	1007
683.328	582
683.332	546
683.379	1324
683.426	1408
683.449	1108
683.473	796
683.521	1486
683.568	1001
683.571	1022
683.615	1141
683.662	2484
683.693	1603
683.709	1109
683.757	1820
683.804	1501
683.814	1387
683.851	985
683.898	1888
683.936	1614
683.945	1544
683.992	1523
684.039	1722
684.057	1864
684.086	2096
684.133	2254
684.179	2295
684.180	2284
684.227	1933
684.274	2131
684.300	2479
684.321	2766
684.368	2372
684.415	1727
684.422	1776
684.462	1883
684.509	938
684.543	1572
684.556	1843
684.603	1521
684.649	1672
684.665	1655
684.696	1601
684.743	1771
684.786	2149
684.790	2178
684.837	1224
684.883	1444
684.908	1931
684.930	2399
684.977	2349
685.023	2618
685.029	2537
685.070	1718
685.117	1947
685.150	1639
685.164	1560
685.210	1788
685.257	2358
685.272	2435
685.303	2609
685.350	1926
685.393	2977
685.396	3065
685.443	3210
685.490	4530
685.514	3930
685.536	3208
685.583	3041
685.629	2616
685.636	2634
685.675	2817
685.722	2517
685.757	2648
685.768	2700
685.815	1995
685.861	2250
685.878	2397
685.908	2602
685.954	2712
686.000	2075
686.000	2065
686.047	3073
686.093	2446
686.121	2843
686.139	3065
686.185	2444
686.232	3095
686.242	2887
686.278	2102
686.324	2193
686.363	2195
686.370	2196
686.416	2283
686.463	2322
686.484	2385
686.509	2502
686.555	2344
686.601	1777
686.606	1836
686.647	2317
686.693	2233
686.727	2072
686.739	2006
686.785	1867
686.831	1612
686.848	1744
686.877	2075
686.923	2058
686.969	2803
686.969	2805
687.015	2535
687.061	2709
687.090	2434
687.107	2296
687.153	2929
687.199	2238
687.211	2246
687.245	2215
687.291	2934
687.332	2490
687.336	2461
687.382	2142
687.428	2822
687.453	2725
687.474	2554
687.520	2676
687.565	2329
687.574	2327
687.611	2415
687.657	2383
687.695	2589
687.702	2641
687.748	3129
687.794	2733
687.816	2953
687.839	3058
687.885	2806
687.931	2315
687.937	2351
687.976	2753
688.022	2800
688.058	3243
688.067	3313
688.113	2795
688.158	3140
688.179	2804
688.204	2495
688.249	2785
688.295	2953
688.300	2966
688.340	3078
688.386	3235
688.421	2965
688.431	2890
688.477	2913
688.522	3640
688.542	3517
688.567	3392
688.613	3151
688.658	2733
688.663	2841
688.703	3542
688.749	3124
688.784	3066
688.794	3058
688.839	2588
688.884	3023
688.905	2847
688.930	2744
688.975	3229
689.020	3311
689.026	3291
689.065	3004
689.110	2406
689.146	2926
689.155	3105
689.201	2534
689.246	3094
689.267	3182
689.291	3213
689.336	3226
689.381	3036
689.388	3019
689.426	3007
689.471	3272
689.509	2912
689.516	2824
689.561	3191
689.606	3132
689.630	2919
689.651	2841
689.696	3414
689.741	3349
689.750	3322
689.785	3274
689.830	3346
689.871	4008
689.875	4059
689.920	3162
689.965	3808
689.992	3293
690.010	2963
690.054	3461
690.099	3232
690.112	3262
690.144	3431
690.189	3084
690.233	3067
690.233	3074
690.278	3405
690.323	3579
690.354	3624
690.367	3601
690.412	4039
690.457	3648
690.474	3654
690.501	3515
690.546	3466
690.590	3335
690.595	3263
690.635	3039
690.680	3666
690.716	3489
690.724	3438
690.769	3346
690.813	3776
690.836	3700
690.857	3712
690.902	3702
690.946	3962
690.957	3964
690.991	3932
691.035	4297
691.077	4146
691.080	4139
691.124	4225
691.168	4123
691.198	4147
691.213	4124
691.257	3847
691.301	3653
691.318	3552
691.346	3489
691.390	3634
691.434	3584
691.439	3542
691.478	3521
691.522	3912
691.559	4103
691.567	4150
691.611	4578
691.655	4859
691.680	4765
691.699	4448
691.743	4181
691.787	3985
691.800	3880
691.831	3991
691.875	3874
691.919	4247
691.921	4239
691.964	4169
692.008	4100
692.041	4124
692.052	4191
692.096	4348
692.139	4473
692.162	4727
692.183	4681
692.227	4100
692.271	3995
692.282	3867
692.315	3926
692.359	4227
692.402	4329
692.403	4338
692.447	4509
692.490	4313
692.523	4333
692.534	4374
692.578	4845
692.622	4785
692.643	4798
692.666	4644
692.709	4384
692.753	3859
692.763	3941
692.797	4399
692.840	4285
692.884	4113
692.884	4122
692.928	4191
692.971	4258
693.004	4053
693.015	3985
693.059	4355
693.102	4399
693.124	4302
693.146	4315
693.189	4423
693.233	4666
693.245	4644
693.276	4385
693.320	4516
693.363	4239
693.365	4221
693.407	4422
693.450	4364
693.485	4840
693.493	4902
693.537	4591
693.580	4305
693.605	4417
693.624	4515
693.667	4524
693.710	4416
693.725	4325
693.753	4574
693.797	5058
693.840	5764
693.845	5800
693.883	5778
693.926	5829
693.966	5819
693.970	5789
694.013	5393
694.056	4785
694.086	4622
694.099	4700
694.142	4597
694.185	4613
694.206	4644
694.229	4817
694.272	4957
694.315	5336
694.326	5397
694.358	5743
694.401	6122
694.444	6528
694.446	6536
694.487	6512
694.530	6373
694.566	6114
694.573	6035
694.616	5868
694.659	5401
694.686	4974
694.702	5013
694.745	5430
694.787	5756
694.806	5755
694.830	5413
694.873	5012
694.916	4784
694.926	4703
694.959	5051
695.002	5423
695.044	5747
695.046	5747
695.087	5990
695.130	6425
695.166	6336
695.172	6282
695.215	6312
695.258	5954
695.286	5986
695.301	5962
695.343	5521
695.386	5199
695.406	4997
695.428	5205
695.471	5613
695.514	5994
695.526	6079
695.556	6089
695.599	6434
695.641	6392
695.646	6383
695.684	6191
695.726	5920
695.766	5559
695.769	5562
695.811	5514
695.854	5552
695.886	5491
695.896	5560
695.938	5523
695.981	5953
696.005	6042
696.023	5915
696.065	5633
696.108	5365
696.125	5223
696.150	5533
696.192	5979
696.235	6410
696.245	6537
696.277	6456
696.319	6201
696.361	5977
696.365	5950
696.404	6299
696.446	6550
696.485	6730
696.488	6741
696.530	6624
696.572	6617
696.604	6501
696.614	6485
696.656	6555
696.698	6445
696.724	6344
696.740	6263
696.783	6041
696.825	5916
696.844	5793
696.867	5860
696.909	6036
696.951	6088
696.964	6141
696.992	6320
697.034	6352
697.076	6575
697.083	6576
697.118	6954
697.160	7489
697.202	7845
697.203	7839
697.244	7176
697.286	6274
697.323	5566
697.327	5676
697.369	6419
697.411	7245
697.442	7843
697.453	7880
697.494	7956
697.536	8052
697.562	8049
697.578	8079
697.620	8135
697.661	8169
697.682	8191
697.703	8254
697.744	8250
697.786	8391
697.801	8394
697.828	8781
697.869	9292
697.911	9858
697.921	9962
697.952	9420
697.994	8709
698.035	8008
698.040	7890
698.077	7651
698.118	7500
698.160	7276
698.160	7254
698.201	7582
698.243	7874
698.279	8124
698.284	8146
698.325	8145
698.367	8150
698.399	8123
698.408	8143
698.449	8105
698.491	8121
698.518	8093
698.532	8126
698.573	8159
698.614	8204
698.638	8188
698.656	8216
698.697	8258
698.738	8289
698.757	8282
698.779	8339
698.820	8406
698.862	8465
698.877	8469
698.903	8553
698.944	8644
698.985	8732
698.996	8736
699.026	8680
699.067	8573
699.116	8426
699.235	7660
699.354	7673
699.474	7889
699.593	8217
699.713	8784
699.832	8852
699.951	9937
700.070	9490
700.190	7795
700.309	8721
700.428	8286
700.547	8078
700.667	8211
700.786	9063
700.905	8081
701.024	8342
701.143	7725
701.262	7193
701.381	7813
701.500	8121
701.619	10181
701.738	8539
701.857	7947
701.976	8169
702.095	7976
702.214	8454
702.333	9380
702.452	9254
702.571	7263
702.690	7429
702.809	7488
702.928	7755
703.047	7541
703.165	7392
703.284	7023
703.403	7522
703.522	7496
703.640	7948
703.759	8647
703.878	10259
703.997	6784
704.115	7919
704.234	7461
704.353	6981
704.471	6497
704.590	6179
704.708	5624
704.827	6612
704.946	5552
705.064	6921
705.183	6824
705.301	6742
705.420	7073
705.538	6919
705.656	6627
705.775	6403
705.893	6693
706.012	6658
706.130	5649
706.249	7098
706.367	6616
706.485	7072
706.604	6587
706.722	7503
706.840	8451
706.958	7410
707.077	6197
707.195	7355
707.313	7074
707.431	6166
707.549	6048
707.668	5882
707.786	5957
707.904	6463
708.022	5411
708.140	6132
708.258	6062
708.376	6693
708.494	5271
708.612	6818
708.730	6741
708.848	7448
708.966	7409
709.084	8652
709.202	6706
709.320	7158
709.438	5834
709.556	6804
709.674	5663
709.791	6137
709.909	6001
710.027	6190
710.145	5986
710.263	6853
710.380	6450
710.498	6712
710.616	5872
710.733	6222
710.851	5438
710.969	5949
711.086	5482
711.204	7181
711.322	5813
711.439	5556
711.557	6194
711.674	5108
711.792	6525
711.909	6394
712.027	5485
712.144	5943
712.262	6052
712.379	5134
712.497	6886
712.614	7174
712.732	6040
712.849	6809
712.966	7715
713.084	11421
713.201	7528
713.318	7731
713.436	7075
713.553	7202
713.670	6937
713.787	8020
713.905	7503
714.022	7445
714.139	7506
714.256	11046
714.373	14936
714.490	30949
714.608	81374
714.725	384191
714.842	465461
714.959	32508
715.076	11854
715.193	9835
715.310	8853
715.427	6914
715.544	7506
715.661	9336
715.778	7812
715.895	7551
716.011	7183
716.128	7733
716.245	6405
716.362	10948
716.479	9856
716.596	7511
716.713	6471
716.829	5860
716.946	6266
717.063	5364
717.180	5497
717.296	5946
717.413	6555
717.530	5627
717.646	6472
717.763	5467
717.880	5208
717.996	5617
718.113	6742
718.229	5834
718.346	5137
718.462	6420
718.579	8912
718.695	20118
718.812	12673
718.928	6424
719.045	5958
719.161	6011
719.277	4662
719.394	6273
719.510	5808
719.626	5970
719.743	7766
719.859	12477
719.975	24724
720.092	104747
720.208	264467
720.324	37137
720.440	8208
720.557	8260
720.673	14228
720.789	13889
720.905	14461
721.021	8289
721.137	4707
721.253	4740
721.369	4884
721.486	6231
721.602	6261
721.718	4267
721.834	4519
721.950	5310
722.066	5330
722.181	4487
722.297	5202
722.413	4776
722.529	4739
722.645	5394
722.761	4555
722.877	4820
722.993	5180
723.108	5836
723.224	5434
723.340	4722
723.456	4708
723.571	5284
723.687	4639
723.803	5162
723.918	4062
724.034	4595
724.150	4462
724.265	4878
724.381	6191
724.497	9034
724.612	3768
724.728	3811
724.843	3771
724.959	4703
725.074	6625
725.190	8359
725.305	4002
725.421	3760
725.536	3813
725.651	4746
725.767	4071
725.882	3819
725.997	3693
726.113	4691
726.228	3710
726.343	3253
726.459	3165
726.574	3635
726.689	2977
726.804	3827
726.920	4005
727.035	4007
727.150	3717
727.265	3903
727.380	3916
727.495	4632
727.610	4145
727.725	4059
727.841	3412
727.956	3812
728.071	4601
728.186	4449
728.301	3842
728.416	4587
728.531	3972
728.645	4433
728.760	5938
728.875	6909
728.990	5373
729.105	5792
729.220	5991
729.335	5389
729.449	4411
729.564	4041
729.679	3417
729.794	4105
729.908	4044
730.023	3902
730.138	3865
730.253	4220
730.367	3769
730.482	3156
730.596	3747
730.711	5098
730.826	4815
730.940	3941
731.055	4518
731.169	4318
731.284	3260
731.398	3862
731.513	4013
731.627	4127
731.742	5075
731.856	5449
731.970	5430
732.085	7185
732.199	9677
732.313	17063
732.428	43268
732.542	144454
732.656	96455
732.771	14915
732.885	7192
732.999	7300
733.113	6244
733.227	6514
733.342	5686
733.456	5475
733.570	5019
733.684	5854
733.798	5558
733.912	5845
734.026	4162
734.140	5264
734.254	4774
734.368	7165
734.482	5904
734.596	5417
734.710	4493
734.824	5172
734.938	4486
735.052	4708
735.166	4737
735.280	4890
735.393	4845
735.507	5124
735.621	5022
735.735	6585
735.849	5323
735.962	4780
736.076	4568
736.190	4515
736.303	4652
736.417	6073
736.531	4439
736.644	4659
736.758	4418
736.872	4638
736.985	4207
737.099	3958
737.212	3701
737.326	3979
737.439	4258
737.553	4490
737.666	4598
737.780	3655
737.893	3930
738.007	5040
738.120	4075
738.233	4267
738.347	3952
738.460	4093
738.573	4670
738.687	5349
738.800	5157
738.913	7622
739.026	4989
739.140	3714
739.253	3266
739.366	3580
739.479	2927
739.592	3421
739.705	3564
739.818	4625
739.932	3137
740.045	3886
740.158	3736
740.271	3252
740.384	3771
740.497	4503
740.610	5761
740.723	5064
740.836	5493
740.949	6523
741.062	8434
741.174	6474
741.287	4357
741.400	4291
741.513	4877
741.626	6734
741.739	4521
741.851	4296
741.964	4644
742.077	4316
742.189	5413
742.302	11011
742.415	11123
742.527	5799
742.640	4446
742.753	3556
742.865	3820
742.978	3816
743.090	3272
743.203	3670
743.316	3257
743.428	3209
743.541	3309
743.653	3262
743.766	3353
743.878	3430
743.990	4860
744.103	8650
744.215	17439
744.327	9204
744.440	6543
744.552	9764
744.664	5488
744.777	3334
744.889	3026
745.001	3613
745.113	2680
745.226	2632
745.338	2694
745.450	2991
745.562	2795
745.674	2989
745.786	2856
745.898	2376
746.010	3402
746.122	2770
746.234	3787
746.347	3456
746.459	3221
746.570	5202
746.682	6692
746.794	22345
746.906	15090
747.018	4218
747.130	3169
747.242	3246
747.354	2323
747.466	3822
747.577	2301
747.689	3339
747.801	3656
747.913	2672
748.024	2516
748.136	2528
748.248	2196
748.359	2982
748.471	2494
748.583	2595
748.694	1968
748.806	3365
748.918	2392
749.029	2758
749.141	3635
749.252	3825
749.364	4321
749.475	9927
749.587	5099
749.698	2937
749.809	2388
749.921	2812
750.032	2308
750.144	2557
750.255	2093
750.366	2702
750.478	1894
750.589	2727
750.700	2689
750.811	3317
750.923	4073
751.034	12614
751.145	12339
751.256	2802
751.367	2054
751.479	2995
751.590	1761
751.701	1826
751.812	1742
751.923	2681
752.034	2397
752.145	2221
752.256	2420
752.367	2486
752.478	1726
752.589	2662
752.700	1354
752.811	2977
752.922	1674
753.032	3563
753.143	3920
753.254	2230
753.365	2383
753.476	2380
753.586	2505
753.697	1980
753.808	1675
753.919	2313
754.029	1756
754.140	2261
754.251	1592
754.361	2201
754.472	1872
754.582	2216
754.693	2726
754.804	2926
754.914	2146
755.025	1803
755.135	2541
755.246	1372
755.356	2259
755.466	1904
755.577	1220
755.687	2159
755.798	1921
755.908	1893
756.018	2004
756.129	3276
756.239	1944
756.349	2003
756.460	2617
756.570	1835
756.680	2004
756.790	2854
756.900	2768
757.011	2331
757.121	1488
757.231	1911
757.341	2617
757.451	1658
757.561	1352
757.671	1643
757.781	1619
757.891	2574
758.001	1395
758.111	2695
758.221	1582
758.331	3430
758.441	3216
758.551	5308
758.661	4914
758.771	3314
758.880	1866
758.990	2890
759.100	1868
759.210	2098
759.320	2290
759.429	2562
759.539	2763
759.649	3174
759.758	2937
759.868	3943
759.978	3140
760.087	3607
760.197	3804
760.307	3491
760.416	2899
760.526	3747
760.635	3287
760.745	2818
760.854	3168
760.964	4595
761.073	3803
761.182	3963
761.292	3389
761.401	3017
761.511	1701
761.620	2565
761.729	2189
761.839	2301
761.948	2090
762.057	3511
762.166	1012
762.276	1695
762.385	2825
762.494	2327
762.603	2236
762.712	1444
762.822	1651
762.931	1830
763.040	897
763.149	1492
763.258	1784
763.367	2469
763.476	1922
763.585	1882
763.694	1783
763.803	1833
763.912	2241
764.021	2187
764.130	807
764.238	2011
764.347	2122
764.456	2365
764.565	2218
764.674	2156
764.783	1817
764.891	1264
765.000	2946
765.109	1860
765.217	2119
765.326	2927
765.435	2970
765.543	3756
765.652	2621
765.761	3831
765.869	5153
765.978	7287
766.086	12905
766.195	27292
766.303	80014
766.412	310851
766.520	248553
766.629	28389
766.737	9562
766.846	6711
766.954	4888
767.062	4607
767.171	3031
767.279	3967
767.387	1897
767.496	2882
767.604	2114
767.712	2638
767.820	2439
767.928	3126
768.037	2445
768.145	2902
768.253	2582
768.361	2031
768.469	1359
768.577	2280
768.685	2680
768.793	2225
768.901	1560
769.009	2872
769.117	2560
769.225	2955
769.333	4006
769.441	5580
769.549	11735
769.657	28218
769.765	104535
769.873	262790
769.981	57896
770.088	7332
770.196	5232
770.304	4135
770.412	3366
770.519	2708
770.627	2151
770.735	2427
770.842	2806
770.950	2835
771.058	3308
771.165	3639
771.273	2279
771.380	2909
771.488	3288
771.595	3438
771.703	2003
771.810	2579
771.918	2451
772.025	3673
772.133	3414
772.240	3152
772.348	3841
772.455	3536
772.562	3357
772.670	3398
772.777	3673
772.884	3243
772.991	3377
773.099	3776
773.206	2655
773.313	2589
773.420	3284
773.528	2468
773.635	3201
773.742	3516
773.849	2786
773.956	2982
774.063	2723
774.170	3392
774.277	3122
774.384	2305
774.491	2092
774.598	3796
774.705	3279
774.812	4417
774.919	3228
775.026	3108
775.133	2356
775.239	2953
775.346	2276
775.453	3256
775.560	2541
775.667	2707
775.773	1761
775.880	3502
775.987	2099
776.093	2711
776.200	2815
776.307	2284
776.413	2100
776.520	2377
776.627	3191
776.733	3359
776.840	2697
776.946	6703
777.053	12797
777.159	39198
777.266	30431
777.372	31762
777.478	32800
777.585	19412
777.691	4977
777.798	4109
777.904	3987
778.010	5480
778.117	4316
778.223	3406
778.329	2289
778.435	2429
778.542	3054
778.648	2738
778.754	1666
778.860	2449
778.966	2276
779.072	2554
779.178	1917
779.284	2121
779.391	2195
779.497	1526
779.603	3493
779.708	1346
779.815	2835
779.920	3262
780.026	4032
780.132	1790
780.238	1254
780.344	2368
780.450	2644
780.556	2310
780.661	1440
780.767	2228
780.873	2021
780.979	2850
781.085	1718
781.190	1768
781.296	1645
781.402	1845
781.507	1551
781.613	1742
781.719	1404
781.824	2102
781.930	1671
782.035	1176
782.141	1822
782.246	1634
782.352	919
782.457	1844
782.563	1347
782.668	2011
782.773	507
782.879	1485
782.984	2609
783.090	2743
783.195	4798
783.300	3887
783.405	973
783.511	1652
783.616	1638
783.721	1386
783.826	2064
783.932	1704
784.037	1642
784.142	1334
784.247	1108
784.352	1611
784.457	989
784.562	1186
784.667	1280
784.772	899
784.877	714
784.982	2495
785.087	1092
785.192	1257
785.297	1081
785.402	917
785.507	1864
785.611	1579
785.716	941
785.821	1449
785.926	1072
786.031	1126
786.135	1809
786.240	1187
786.345	381
786.450	845
786.554	643
786.659	1508
786.763	400
786.868	1011
786.973	916
787.077	779
787.182	1411
787.286	1160
787.391	920
787.495	556
787.600	891
787.704	1076
787.809	1616
787.913	1899
788.017	1151
788.122	1800
788.226	972
788.330	430
788.435	975
788.539	1484
788.643	1052
788.747	1465
788.852	417
788.956	1032
789.060	1004
789.164	703
789.268	-209
789.372	1246
789.476	1061
789.580	549
789.684	922
789.788	1760
789.892	1188
789.996	1025
790.100	275
790.204	1749
790.308	1874
790.412	1159
790.516	408
790.620	1366
790.724	1696
790.828	1001
790.931	759
791.035	1731
791.139	808
791.242	1021
791.346	1476
791.450	1565
791.554	1316
791.657	471
791.761	2011
791.864	2261
791.968	1609
792.072	1982
792.175	730
792.279	994
792.382	934
792.486	908
792.589	1764
792.693	1457
792.796	320
792.899	2197
793.003	1682
793.106	832
793.209	1088
793.313	1996
793.416	344
793.519	2641
793.623	3402
793.726	6038
793.829	2094
793.932	1426
794.035	905
794.138	2352
794.242	2115
794.345	1906
794.448	2328
794.551	3628
794.654	5561
794.757	3871
794.860	849
794.963	1152
795.066	635
795.169	1854
795.272	128
795.375	1357
795.477	378
795.580	1097
795.683	317
795.786	1132
795.889	57
795.991	1289
796.094	1814
796.197	271
796.300	1366
796.402	545
796.505	-314
796.608	1108
796.710	653
796.813	616
796.915	102
797.018	1486
797.120	906
797.223	-88
797.326	1683
797.428	1190
797.530	463
797.633	853
797.735	637
797.838	876
797.940	1431
798.042	259
798.145	321
798.247	1165
798.349	181
798.452	1611
798.554	544
798.656	746
798.758	956
798.860	1073
798.962	597
799.065	635
799.167	-649
799.269	1468
799.371	1279
799.473	2347
799.575	936
799.677	1357
799.779	2212
799.881	3011
799.983	1892
800.085	1218
800.187	157
800.289	631
800.390	816
800.492	585
800.594	907
800.696	929
800.798	148
800.899	860
801.001	500
801.103	28
801.205	690
801.306	396
801.408	-91
801.509	582
801.611	771
801.713	921
801.814	-293
801.916	-247
802.017	-16
802.119	102
802.220	788
802.322	-211
802.423	1433
802.525	328
802.626	253
802.727	601
802.829	521
802.930	-1074
803.031	1296
803.133	600
803.234	104
803.335	-77
803.436	49
803.538	123
803.639	-568
803.740	441
803.841	-126
803.942	487
804.043	588
804.144	-71
804.245	-348
804.346	440
804.447	202
804.548	1828
804.649	3116
804.750	193
804.851	91
804.952	445
805.053	42
805.154	-346
805.255	1084
805.355	-166
805.456	-501
805.557	-58
805.658	-152
805.758	186
805.859	914
805.960	535
806.061	-72
806.161	-100
806.262	-36
806.362	28
806.463	-198
806.564	389
806.664	30
806.765	199
806.865	-677
806.966	-258
807.066	-1018
807.166	528
807.267	330
807.367	432
807.468	660
807.568	-419
807.668	910
807.769	1209
807.869	53
807.969	-152
808.069	603
808.170	782
808.270	-947
808.370	943
808.470	1432
808.570	625
808.670	57
808.770	778
808.870	-837
808.970	78
809.070	-489
809.170	-471
809.271	490
809.370	546
809.470	213
809.570	549
809.670	-839
809.770	730
809.870	-45
809.970	528
810.070	375
810.169	201
810.269	-717
810.369	702
810.469	-722
810.568	-403
810.668	143
810.768	-203
810.867	-431
810.967	-83
811.066	-311
811.166	-1332
811.265	342
811.365	-343
811.464	-449
811.564	508
811.663	507
811.763	-872
811.862	316
811.962	850
812.061	-237
812.160	-8
812.260	-82
812.359	-119
812.458	-190
812.557	282
812.657	134
812.756	649
812.855	-26
812.954	-792
813.053	449
813.153	691
813.252	-133
813.351	528
813.450	44
813.549	179
813.648	-84
813.747	67
813.846	-125
813.945	394
814.044	257
814.143	374
814.242	140
814.341	-483
814.439	-105
814.538	1273
814.637	561
814.736	-57
814.835	148
814.933	310
815.032	375
815.131	1217
815.229	597
815.328	1786
815.427	400
815.525	1868
815.624	992
815.722	753
815.821	1497
815.919	438
816.018	769
816.116	1245
816.215	1103
816.313	1388
816.412	1235
816.510	1763
816.609	2304
816.707	2458
816.805	2009
816.904	2103
817.002	1896
817.100	2586
817.198	2637
817.296	2456
817.395	1776
817.493	2064
817.591	748
817.689	3236
817.787	1529
817.885	4818
817.983	7038
818.081	12751
818.179	33507
818.277	83607
818.375	61864
818.473	20720
818.571	8729
818.669	7133
818.767	8903
818.865	8118
818.963	5083
819.061	7540
819.158	13231
819.256	29882
819.354	70661
819.452	155901
819.549	82361
819.647	20098
819.745	7095
819.842	5979
819.940	3916
820.038	3659
820.135	3425
820.233	4291
820.330	1556
820.428	2442
820.525	2832
820.623	1742
820.720	1797
820.818	3154
820.915	2128
821.012	2780
821.110	2657
821.207	2214
821.304	1652
821.402	3688
821.499	6108
821.596	14189
821.693	12566
821.791	4436
821.888	3437
821.985	6973
822.082	5431
822.179	4551
822.276	6307
822.373	4826
822.470	1792
822.567	1462
822.664	1204
822.761	2015
822.858	500
822.955	2163
823.052	1403
823.149	620
823.246	1868
823.343	1541
823.440	967
823.536	966
823.633	595
823.730	768
823.827	1473
823.923	1139
824.020	1767
824.117	2706
824.213	5306
824.310	4703
824.407	1355
824.503	1564
824.600	790
824.696	494
824.793	2203
824.889	1936
824.986	1203
825.082	1940
825.179	1207
825.275	1091
825.371	530
825.468	1593
825.564	402
825.660	1559
825.757	1383
825.853	1788
825.949	94
826.045	869
826.142	184
826.238	534
826.334	1000
826.430	301
826.526	1580
826.622	595
826.718	584
826.814	872
826.910	110
827.006	307
827.102	276
827.198	918
827.294	1140
827.390	735
827.486	353
827.582	421
827.678	-428
827.774	860
827.869	-895
827.965	1485
828.061	4
828.157	279
828.252	653
828.348	295
828.444	624
828.539	-536
828.635	947
828.731	1640
828.826	-376
828.922	953
829.017	426
829.113	460
829.208	655
829.304	683
829.399	1182
829.495	686
829.590	676
829.685	284
829.781	578
829.876	1014
829.971	-333
830.066	42
830.162	591
830.257	643
830.352	407
830.447	1058
830.543	102
830.638	476
830.733	711
830.828	579
830.923	839
831.018	249
831.113	449
831.208	-315
831.303	619
831.398	-204
831.493	367
831.588	802
831.683	-710
831.778	703
831.873	319
831.967	1459
832.062	272
832.157	-165
832.252	1084
832.346	1027
832.441	1314
832.536	2240
832.631	5228
832.725	3540
832.820	598
832.914	-42
833.009	-18
833.104	797
833.198	1719
833.293	649
833.387	-95
833.482	100
833.576	-351
833.670	1236
833.765	253
833.859	1255
833.954	1026
834.048	924
834.142	-114
834.237	695
834.331	106
834.425	826
834.519	-1416
834.613	1017
834.708	-106
834.802	737
834.896	-477
834.990	123
835.084	591
835.178	-280
835.272	-696
835.366	506
835.460	717
835.554	506
835.648	275
835.742	-148
835.836	-264
835.930	-555
836.024	569
836.117	674
836.211	-132
836.305	300
836.399	315
836.493	-389
836.586	772
836.680	-770
836.774	-925
836.867	672
836.961	-171
837.055	-198
837.148	-471
837.242	206
837.335	-796
837.429	102
837.522	-514
837.616	-51
837.709	904
837.803	672
837.896	877
837.989	455
838.083	-80
838.176	609
838.269	106
838.363	532
838.456	198
838.549	954
838.642	2605
838.735	5628
838.829	1797
838.922	-53
839.015	-390
839.108	-308
839.201	-508
839.294	592
839.387	-225
839.480	-338
839.573	873
839.666	-42
839.759	-1171
839.852	-397
839.945	523
840.038	-164
840.131	-159
840.223	345
840.316	686
840.409	-159
840.502	-770
840.594	799
840.687	-1564
840.780	1037
840.873	-762
840.965	-39
841.058	-137
841.150	1154
841.243	-202
841.336	639
841.428	-412
841.521	131
841.613	-630
841.706	-502
841.798	-1572
841.890	-29
841.983	-472
842.075	114
842.167	-43
842.260	-113
842.352	779
842.444	967
842.537	698
842.629	1428
842.721	-288
842.813	168
842.905	-848
842.997	118
843.090	45
843.182	1075
843.274	1316
843.366	2711
843.458	3685
843.550	3026
843.642	108
843.734	-75
843.826	-6
843.918	780
844.009	1105
844.101	55
844.193	-91
844.285	1384
844.377	2276
844.469	4745
844.560	9674
844.652	11738
844.744	4260
844.835	1089
844.927	-401
845.019	855
845.110	358
845.202	312
845.293	-1003
845.385	-479
845.476	-191
845.568	1021
845.659	-396
845.751	165
845.842	-765
845.934	-489
846.025	-771
846.116	106
846.208	134
846.299	-520
846.390	-438
846.482	-215
846.573	-305
846.664	661
846.755	486
846.846	1136
846.937	-630
847.029	-340
847.120	-524
847.211	-366
847.302	391
847.393	-280
847.484	194
847.575	-381
847.666	-156
847.757	-45
847.847	147
847.938	654
848.029	-523
848.120	-334
848.211	-276
848.302	-330
848.392	-547
848.483	382
848.574	-886
848.664	182
848.755	-470
848.846	-46
848.936	-36
849.027	633
849.118	613
849.208	1627
849.299	3272
849.389	7941
849.480	16767
849.570	36541
849.661	64701
849.751	121070
849.841	51433
849.932	6029
850.022	1311
850.112	2238
850.203	659
850.293	958
850.383	68
850.474	-489
850.564	183
850.654	480
850.744	-555
850.834	139
850.924	-101
851.014	860
851.104	546
851.194	38
851.284	914
851.374	1533
851.464	783
851.554	-50
851.644	-177
851.734	748
851.824	-559
851.914	-267
852.004	1004
852.094	-480
852.183	-181
852.273	848
852.363	-607
852.452	283
852.542	750
852.632	435
852.721	597
852.811	235
852.901	1060
852.990	742
853.080	1822
853.169	1538
853.259	2343
853.348	2812
853.438	4338
853.527	6587
853.617	10867
853.706	22580
853.795	41900
853.885	93561
853.974	181955
854.063	318544
854.152	524515
854.242	238303
854.331	44784
854.420	15633
854.509	10317
854.598	7573
854.687	5371
854.777	4338
854.866	3012
854.955	3396
855.044	1568
855.133	1375
855.222	1734
855.311	1231
855.400	1515
855.488	1155
855.577	332
855.666	1417
855.755	600
855.844	375
855.933	-284
856.021	853
856.110	683
856.199	-213
856.288	647
856.376	281
856.465	-671
856.554	664
856.642	405
856.731	1606
856.819	186
856.908	-358
856.996	723
857.085	-202
857.173	35
857.262	-718
857.350	555
857.438	-566
857.527	-600
857.615	-273
857.703	-468
857.792	18
857.880	-416
857.968	-464
858.056	107
858.145	-656
858.233	-555
858.321	-15
858.409	463
858.497	-320
858.585	-801
858.673	-472
858.761	-473
858.849	-514
858.937	-250
859.025	-533
859.113	-612
859.201	818
859.289	1752
859.377	2142
859.465	635
859.552	-115
859.640	-329
859.728	389
859.816	-484
859.903	31
859.991	-894
860.079	-413
860.166	-124
860.254	-391
860.342	-176
860.429	-180
860.517	-345
860.604	230
860.692	-688
860.779	-220
860.867	-47
860.954	-683
861.042	-431
861.129	743
861.216	716
861.304	-87
861.391	-458
861.478	634
861.565	356
861.653	475
861.740	-902
861.827	-127
861.914	-570
862.001	-522
862.089	82
862.176	-212
862.263	-812
862.350	-163
862.437	-467
862.524	551
862.611	137
862.698	1982
862.785	2478
862.871	6048
862.958	1800
863.045	527
863.132	148
863.219	-431
863.306	-1674
863.392	-365
863.479	-138
863.566	-322
863.652	201
863.739	-18
863.826	-872
863.912	297
863.999	-880
864.086	567
864.172	-235
864.259	112
864.345	144
864.432	1024
864.518	-365
864.604	20
864.691	-334
864.777	320
864.863	1553
864.950	1894
865.036	1213
865.122	3120
865.209	3596
865.295	3864
865.381	4004
865.467	5835
865.553	8287
865.639	13363
865.726	22619
865.812	49253
865.898	94363
865.984	144606
866.070	262427
866.156	319419
866.242	98812
866.328	19810
866.414	8992
866.499	6971
866.585	4701
866.671	3680
866.757	3870
866.843	3205
866.928	1992
867.014	2134
867.100	2677
867.186	2160
867.271	1951
867.357	2892
867.442	2108
867.528	3004
867.614	2929
867.699	4899
867.785	6943
867.870	10126
867.956	15609
868.041	10271
868.127	6159
868.212	8486
868.297	9960
868.383	5632
868.468	4360
868.553	7051
868.639	5906
868.724	9729
868.809	8617
868.894	2727
868.979	1261
869.065	1679
869.150	122
869.235	1326
869.320	623
869.405	426
869.490	360
869.575	904
869.660	438
869.745	1422
869.830	301
869.915	1495
870.000	1368
870.085	2428
870.169	3062
870.254	3884
870.339	1515
870.424	-12
870.509	1511
870.593	1056
870.678	459
870.763	1436
870.847	1305
870.932	1997
871.016	3422
871.101	3744
871.186	1785
871.270	1689
871.355	-505
871.439	516
871.523	1343
871.608	1521
871.692	2016
871.777	3050
871.861	2539
871.945	2136
872.030	306
872.114	431
872.198	48
872.282	1163
872.367	256
872.451	456
872.535	272
872.619	570
872.703	86
872.787	1183
872.871	733
872.955	-180
873.039	-147
873.123	848
873.207	60
873.291	244
873.375	217
873.459	1121
873.543	-45
873.627	560
873.711	7
873.794	377
873.878	-457
873.962	221
874.045	165
874.129	552
874.137	511
874.213	106
874.245	422
874.296	928
874.352	117
874.380	-278
874.460	808
874.464	851
874.547	-482
874.568	-175
874.631	737
874.676	370
874.714	59
874.784	1123
874.798	1334
874.881	1184
874.892	1054
874.965	192
874.999	416
875.048	706
875.107	1550
875.131	1872
875.215	164
875.215	164
875.298	42
875.323	64
875.381	163
875.430	801
875.465	1212
875.538	624
875.548	544
875.631	164
875.646	136
875.714	-28
875.753	223
875.798	594
875.861	511
875.881	428
875.964	450
875.968	441
876.047	447
876.076	403
876.130	339
876.183	986
876.213	1356
876.291	1436
876.296	1427
876.379	596
876.398	596
876.462	633
876.506	372
876.545	215
876.613	775
876.628	893
876.711	-12
876.721	178
876.794	1586
876.828	1337
876.877	906
876.935	1164
876.960	1326
877.043	823
877.043	826
877.125	1642
877.150	1556
877.208	1304
877.258	1407
877.291	1415
877.365	1031
877.374	1022
877.456	1710
877.472	1706
877.539	1364
877.579	1326
877.622	1445
877.687	1365
877.704	1300
877.787	1145
877.794	1152
877.869	1371
877.901	1275
877.952	1117
878.008	1209
878.034	1168
878.115	715
878.117	713
878.199	28
878.222	284
878.282	1103
878.329	1379
878.364	1493
878.437	1081
878.447	996
878.529	965
878.544	913
878.611	815
878.651	882
878.694	987
878.758	1125
878.776	1212
878.858	1575
878.865	1591
878.941	1604
878.972	1556
879.023	1495
879.078	1502
879.105	1633
879.185	2185
879.187	2192
879.269	2528
879.292	2305
879.351	1525
879.399	1328
879.433	1288
879.506	1315
879.516	1344
879.598	1637
879.613	1470
879.680	638
879.720	1082
879.762	1733
879.827	1420
879.844	1281
879.926	1320
879.933	1372
880.007	1918
880.040	1852
880.089	1889
880.147	3063
880.171	3706
880.253	6665
880.254	6676
880.335	9398
880.360	10254
880.417	14730
880.467	21658
880.499	27110
880.574	36076
880.580	35418
880.662	15086
880.680	11823
880.744	5301
880.787	2553
880.825	2050
880.893	1557
880.907	1462
880.989	1585
881.000	1508
881.070	1562
881.106	1589
881.152	1277
881.213	1151
881.233	1244
881.315	1326
881.319	1324
881.396	1130
881.426	931
881.478	882
881.532	1616
881.559	1805
881.639	1376
881.641	1375
881.722	1354
881.745	1280
881.803	1439
881.852	1959
881.885	2064
881.958	1616
881.966	1585
882.047	2599
882.064	2449
882.129	2626
882.171	3089
882.210	3968
882.277	6188
882.291	6241
882.372	4805
882.383	4641
882.454	2684
882.489	1749
882.535	1616
882.596	1736
882.616	1814
882.697	1569
882.702	1593
882.778	1405
882.808	1219
882.859	1461
882.914	1425
882.940	1346
883.020	1465
883.021	1473
883.102	1230
883.127	1469
883.183	2174
883.233	2203
883.264	1811
883.339	1077
883.345	1051
883.426	565
883.445	555
883.507	1477
883.551	1903
883.587	1782
883.657	1967
883.668	2201
883.749	2894
883.763	3140
883.830	2256
883.869	1462
883.910	1206
883.975	936
883.991	981
884.072	1413
884.081	1426
884.152	1684
884.187	1937
884.233	2243
884.292	2326
884.314	2196
884.394	1574
884.398	1557
884.475	1259
884.504	1073
884.555	1257
884.610	1466
884.636	1733
884.716	2493
884.716	2501
884.797	2236
884.821	2068
884.877	1568
884.927	1458
884.958	1691
885.033	1555
885.038	1531
885.118	1456
885.139	1427
885.199	1523
885.244	1649
885.279	1791
885.350	1565
885.359	1611
885.439	2611
885.456	2715
885.520	2264
885.561	1956
885.600	1417
885.667	566
885.680	683
885.760	1546
885.773	1624
885.840	1489
885.878	1549
885.920	1450
885.984	1125
886.000	1322
886.080	2236
886.089	2343
886.160	2725
886.195	2868
886.240	2708
886.300	2427
886.320	2444
886.400	2518
886.406	2521
886.480	2273
886.511	2073
886.560	3104
886.616	4214
886.640	3858
886.720	2897
886.722	2856
886.800	2233
886.827	2073
886.879	2360
886.932	2560
886.959	2785
887.038	3464
887.039	3466
887.119	2477
887.143	2277
887.198	2550
887.248	2497
887.278	2331
887.354	2033
887.358	2047
887.437	2243
887.459	2261
887.517	2284
887.564	2263
887.596	2197
887.669	2023
887.676	2007
887.755	1725
887.774	1646
887.835	1653
887.880	1678
887.914	1783
887.985	1901
887.994	2010
888.073	2991
888.090	3170
888.153	2988
888.195	2776
888.232	2520
888.300	2221
888.311	2308
888.391	2780
888.405	2844
888.470	2237
888.510	1885
888.549	2180
888.615	2660
888.628	2641
888.708	2425
888.720	2393
888.787	2400
888.825	2312
888.866	2251
888.930	2282
888.945	2330
889.024	2458
889.035	2483
889.103	2756
889.140	2812
889.182	2821
889.245	2866
889.261	2851
889.340	2735
889.349	2711
889.419	2212
889.454	1960
889.498	1920
889.559	1850
889.577	2046
889.656	2874
889.664	2950
889.735	3223
889.768	3337
889.814	3089
889.873	2738
889.978	2995
890.083	2939
890.187	3307
890.292	2402
890.397	2975
890.501	2063
890.606	2445
890.710	1404
890.815	3399
890.919	3221
891.024	3591
891.128	3350
891.233	2821
891.337	2939
891.442	2561
891.546	2547
891.650	1714
891.755	2242
891.859	3675
891.963	3659
892.068	3123
892.172	2257
892.276	2301
892.380	2420
892.484	3030
892.589	4161
892.693	4763
892.797	3044
892.901	3012
893.005	1813
893.109	3659
893.213	2580
893.317	2706
893.421	1987
893.525	943
893.629	2224
893.733	2688
893.837	2670
893.941	1866
894.045	2159
894.148	1343
894.252	2321
894.356	3538
894.460	3590
894.564	2505
894.667	1697
894.771	1418
894.875	1542
894.978	2084
895.082	2738
895.186	2646
895.289	2896
895.393	2206
895.496	3454
895.600	2040
895.703	1640
895.807	2076
895.910	2322
896.014	2944
896.117	2079
896.221	2509
896.324	2471
896.427	2290
896.531	1967
896.634	2292
896.737	2575
896.840	2059
896.944	1851
897.047	2571
897.150	2049
897.253	1602
897.356	1974
897.460	2139
897.563	1738
897.666	2641
897.769	2160
897.872	1855
897.975	1146
898.078	2705
898.181	1684
898.284	1841
898.387	2469
898.490	3442
898.593	2243
898.695	1828
898.798	1694
898.901	2314
899.004	2269
899.107	1967
899.209	2801
899.312	2859
899.415	1684
899.518	2242
899.620	1851
899.723	2779
899.826	5892
899.928	8688
900.031	3149
900.133	2348
900.236	1911
900.338	1522
900.441	2061
900.543	1628
900.646	2136
900.748	2149
900.851	2618
900.953	2076
901.055	2012
901.158	3110
901.260	2465
901.362	2166
901.465	1745
901.567	1631
901.669	2485
901.771	2366
901.873	2042
901.976	2498
902.078	2054
902.180	2128
902.282	2022
902.384	1855
902.486	3065
902.588	2582
902.690	2105
902.792	1556
902.894	2058
902.996	2499
903.098	1706
903.200	2441
903.302	2075
903.404	1657
903.505	1885
903.607	1663
903.709	3115
903.811	2789
903.913	1559
904.014	1990
904.116	1441
904.218	1478
904.319	2818
904.421	3059
904.523	2260
904.624	2808
904.726	1695
904.827	1809
904.929	2272
905.030	2108
905.132	2064
905.233	2491
905.335	1124
905.436	1356
905.537	1344
905.639	2020
905.740	1796
905.841	1521
905.943	3130
906.044	2743
906.145	2168
906.247	2270
906.348	1820
906.449	1990
906.550	1924
906.651	2253
906.752	1608
906.854	1741
906.955	1772
907.056	1708
907.157	1986
907.258	1862
907.359	1613
907.460	1360
907.561	1454
907.662	1679
907.762	1537
907.863	2237
907.964	2478
908.065	2694
908.166	1550
908.267	2136
908.367	1465
908.468	2303
908.569	1561
908.670	3349
908.770	3414
908.871	4036
908.971	3554
909.072	2286
909.173	1805
909.273	2161
909.374	1945
909.474	1577
909.575	1849
909.675	2651
909.776	1728
909.876	2293
909.977	1235
910.077	2990
910.177	2253
910.278	2548
910.378	1611
910.478	2423
910.579	2575
910.679	1662
910.779	2673
910.879	1539
910.980	2155
911.080	2224
911.180	1001
911.280	1223
911.380	1175
911.480	1448
911.580	1683
911.680	2103
911.780	2612
911.880	3869
911.980	949
912.080	2097
912.180	1594
912.280	1869
912.380	1110
912.480	1242
912.580	1323
912.679	2187
912.779	1685
912.879	1642
912.979	1902
913.078	1149
913.178	647
913.278	1256
913.377	1148
913.477	1437
913.577	1123
913.676	2788
913.776	2348
913.875	1683
913.975	2030
914.074	1867
914.174	1318
914.273	1720
914.373	2549
914.472	1071
914.572	833
914.671	1853
914.770	1906
914.870	1902
914.969	1535
915.068	1408
915.167	1733
915.267	2143
915.366	2391
915.465	2147
915.564	1789
915.663	1987
915.763	1511
915.862	2445
915.961	1581
916.060	1291
916.159	1934
916.258	1322
916.357	1243
916.456	1629
916.555	1832
916.654	2028
916.752	1885
916.851	1297
916.950	1497
917.049	1222
917.148	1618
917.247	1697
917.345	1151
917.444	1195
917.543	1817
917.642	1893
917.740	1134
917.839	3023
917.937	2438
918.036	2743
918.135	1908
918.233	1583
918.332	1305
918.430	1720
918.529	1262
918.627	998
918.726	1976
918.824	2302
918.923	1600
919.021	1978
919.119	1245
919.218	1908
919.316	2185
919.414	2175
919.512	2507
919.611	1430
919.709	1790
919.807	1991
919.905	2857
920.003	1845
920.102	2047
920.200	2488
920.298	3061
920.396	2398
920.494	1664
920.592	1179
920.690	2251
920.788	2324
920.886	1894
920.984	3085
921.082	2158
921.180	3503
921.277	1989
921.375	2475
921.473	2857
921.571	3383
921.669	2405
921.766	3024
921.864	3949
921.962	2905
922.060	2425
922.157	3342
922.255	4026
922.352	2992
922.450	3466
922.548	4170
922.645	4034
922.743	4613
922.840	5683
922.938	7273
923.035	6203
923.133	6259
923.230	7550
923.327	8892
923.425	8316
923.522	8988
923.619	6786
923.717	6587
923.814	6204
923.911	6190
924.008	7840
924.106	6317
924.203	6173
924.300	6388
924.397	6057
924.494	6088
924.591	5594
924.688	5741
924.786	7004
924.883	5830
924.979	6901
925.077	6358
925.173	6214
925.270	6129
925.367	6891
925.464	7314
925.561	8151
925.658	8351
925.755	7426
925.852	8732
925.948	8572
926.045	7317
926.142	7253
926.239	7844
926.335	6885
926.432	7509
926.529	7246
926.625	7376
926.722	6840
926.818	5745
926.915	6268
927.011	6229
927.108	6208
927.204	6105
927.301	5678
927.397	6569
927.494	5951
927.590	5669
927.687	6138
927.783	6565
927.879	5394
927.976	5450
928.072	4757
928.168	5704
928.264	5979
928.361	5441
928.457	6108
928.553	5067
928.649	5466
928.745	5480
928.841	5559
928.937	4898
929.033	4824
929.129	5002
929.225	5873
929.321	4620
929.417	4509
929.513	6124
929.609	4586
929.705	4068
929.801	5557
929.897	4441
929.993	4985
930.089	5667
930.184	5012
930.280	5505
930.376	5645
930.471	4433
930.567	4434
930.663	4923
930.758	3661
930.854	4895
930.950	4800
931.045	3991
931.141	4878
931.236	5524
931.332	5005
931.427	4821
931.523	5455
931.618	5640
931.714	3654
931.809	4638
931.905	5321
932.000	3838
932.095	3889
932.191	4553
932.286	5339
932.381	4577
932.476	3260
932.572	4364
932.667	4035
932.762	4105
932.857	4486
932.952	5118
933.047	4499
933.142	3983
933.237	4909
933.332	5079
933.427	4518
933.522	4052
933.617	3941
933.712	5036
933.807	4661
933.902	5746
933.997	4907
934.092	4143
934.187	4257
934.282	4807
934.376	4331
934.471	4303
934.566	3979
934.661	4418
934.755	4176
934.850	4492
934.945	4632
935.039	3974
935.134	4196
935.228	4350
935.323	5435
935.417	3685
935.512	2609
935.606	3036
935.701	4286
935.795	4417
935.890	3883
935.984	3672
936.079	2567
936.173	4307
936.267	2925
936.362	2245
936.456	4880
936.550	4903
936.644	3640
936.738	2836
936.833	3077
936.927	3070
937.021	3250
937.115	4507
937.209	3538
937.303	4427
937.397	2803
937.491	3720
937.585	4175
937.679	3930
937.773	3183
937.867	2889
937.961	2329
938.055	4433
938.149	3452
938.243	3481
938.337	2499
938.430	2943
938.524	4229
938.618	4095
938.712	3993
938.805	3583
938.899	4206
938.993	4335
939.086	2070
939.180	3453
939.274	4318
939.367	4820
939.461	4546
939.554	2971
939.648	3126
939.741	3248
939.835	4813
939.928	4709
940.022	3981
940.115	4011
940.208	4935
940.302	5311
940.395	5288
940.488	3186
940.582	3026
940.675	2813
940.768	2844
940.861	3907
940.954	5067
941.048	3487
941.141	3663
941.234	4472
941.327	6917
941.420	8719
941.513	6433
941.606	4356
941.699	4146
941.792	4165
941.885	3624
941.978	3768
942.071	4009
942.164	2467
942.257	2592
942.349	3793
942.442	3897
942.535	2418
942.628	2371
942.721	2910
942.813	3280
942.906	3242
942.999	3248
943.091	2390
943.184	1948
943.277	3098
943.369	2434
943.462	1901
943.554	2899
943.647	2704
943.739	3195
943.832	3013
943.924	1536
944.017	3127
944.109	2278
944.201	2640
944.294	3204
944.386	2471
944.478	3470
944.571	2163
944.663	2666
944.755	2550
944.847	3340
944.940	3334
945.032	1918
945.124	2501
945.216	3048
945.308	3011
945.400	3676
945.492	2740
945.584	3207
945.676	3317
945.768	3092
945.860	4153
945.952	2888
946.044	2943
946.136	1993
946.228	2587
946.320	2943
946.412	2532
946.503	3352
946.595	3032
946.687	1845
946.779	1635
946.870	2633
946.962	2197
947.054	2170
947.145	2294
947.237	2402
947.329	2392
947.420	3065
947.512	2159
947.603	1994
947.695	1990
947.786	1948
947.878	1967
947.969	1285
948.061	2556
948.152	2244
948.243	2192
948.335	1552
948.426	1698
948.517	3153
948.609	2658
948.700	2229
948.791	1868
948.882	1975
948.973	1971
949.065	2343
949.156	2310
949.247	1803
949.338	1791
949.429	1777
949.520	1602
949.611	1778
949.702	2420
949.793	2443
949.884	1848
949.975	1419
950.066	1519
950.157	2147
950.247	3070
950.338	2040
950.429	2593
950.520	1587
950.611	2019
950.701	2257
950.792	2552
950.883	2729
950.973	2269
951.064	2499
951.155	2456
951.245	2352
951.336	2499
951.427	2789
951.517	3566
951.608	2493
951.698	1570
951.788	1529
951.879	1059
951.969	1477
952.060	1401
952.150	2529
952.240	2982
952.331	1065
952.421	2349
952.511	1577
952.602	1442
952.692	1334
952.782	1752
952.872	2174
952.962	2703
953.052	1393
953.143	2140
953.233	1473
953.323	1843
953.413	1239
953.503	1913
953.593	2054
953.683	1558
953.773	1537
953.863	1089
953.953	1759
954.042	2545
954.132	3180
954.222	2598
954.312	1136
954.402	1225
954.492	1821
954.581	3302
954.671	2025
954.761	2474
954.850	1992
954.940	462
955.030	967
955.119	1483
955.209	1362
955.298	2365
955.388	1995
955.477	2241
955.567	813
955.656	888
955.746	1262
955.835	1054
955.925	825
956.014	1137
956.103	2097
956.193	2776
956.282	2015
956.371	1646
956.461	1623
956.550	1935
956.639	1056
956.728	1588
956.817	1354
956.906	1980
956.995	2613
957.085	2362
957.174	2362
957.263	1757
957.352	1878
957.441	1952
957.530	1322
957.619	1422
957.708	601
957.796	1380
957.885	1935
957.974	786
958.063	1729
958.152	476
958.241	1114
958.329	1778
958.418	983
958.507	955
958.596	2366
958.684	1074
958.773	1657
958.861	1087
958.950	1723
959.039	1087
959.127	1798
959.216	2395
959.304	1508
959.393	2093
959.481	1133
959.570	2333
959.658	693
959.746	1585
959.835	1629
959.923	2856
960.011	1625
960.100	1910
960.188	2408
960.276	1288
960.365	805
960.453	1262
960.541	1030
960.629	1098
960.717	738
960.805	924
960.893	767
960.981	1753
961.069	2185
961.158	1981
961.245	2169
961.333	1966
961.421	750
961.509	888
961.597	1100
961.685	957
961.773	1066
961.861	1220
961.949	1594
962.036	868
962.124	1588
962.212	1368
962.299	1105
962.387	879
962.475	1608
962.562	1094
962.650	2418
962.738	1963
962.825	995
962.913	1152
963.000	905
963.088	1381
963.175	1524
963.263	1004
963.350	1451
963.438	1734
963.525	1254
963.612	1720
963.700	5100
963.787	8131
963.874	4287
963.962	1581
964.049	622
964.136	1195
964.223	605
964.310	870
964.398	1600
964.485	1142
964.572	1483
964.659	2446
964.746	1519
964.833	1067
964.920	868
965.007	823
965.094	1346
965.181	1150
965.268	1646
965.355	1053
965.441	772
965.528	882
965.615	1824
965.702	846
965.789	997
965.875	1294
965.962	985
966.049	451
966.136	2264
966.222	1785
966.309	2555
966.395	1556
966.482	1287
966.569	1169
966.655	1087
966.742	1529
966.828	1758
966.915	701
967.001	1145
967.087	1033
967.174	1553
967.260	2096
967.347	1714
967.433	3491
967.519	5827
967.605	2503
967.692	1357
967.778	1385
967.864	263
967.950	693
968.036	1062
968.123	1267
968.209	1428
968.295	1071
968.381	1884
968.467	857
968.553	679
968.639	2261
968.725	1297
968.811	3671
968.897	2594
968.983	1834
969.069	638
969.154	1378
969.240	1541
969.326	275
969.412	717
969.497	-122
969.583	504
969.669	1433
969.755	2016
969.840	1555
969.926	2693
970.012	3769
970.097	5483
970.183	4450
970.268	1887
970.354	2076
970.439	2542
970.525	4070
970.610	2076
970.696	2169
970.781	1279
970.866	1384
970.952	529
971.037	-11
971.122	839
971.208	1088
971.293	637
971.378	-406
971.463	313
971.549	717
971.634	1620
971.719	1874
971.804	1948
971.889	1296
971.974	978
972.059	870
972.144	842
972.229	626
972.314	202
972.399	1316
972.484	560
972.569	1132
972.654	143
972.739	2027
972.824	1844
972.908	721
972.993	131
973.078	606
973.163	486
973.247	1192
973.332	-1
973.417	1687
973.501	1146
973.586	1516
973.671	841
973.755	2497
973.840	2590
973.924	2497
974.009	2154
974.093	751
974.178	2242
974.262	1823
974.346	2452
974.431	1695
974.515	801
974.600	808
974.684	1630
974.768	1037
974.852	1332
974.937	383
975.021	887
975.105	1332
975.189	255
975.273	1450
975.358	628
975.442	66
975.526	1620
975.610	1038
975.694	280
975.778	1359
975.862	1069
975.946	-814
976.030	1781
976.114	588
976.198	503
976.281	834
976.365	1136
976.449	793
976.533	665
976.617	571
976.700	492
976.784	540
976.868	146
976.951	1295
977.035	1292
977.119	724
977.202	1228
977.286	1398
977.369	1364
977.453	2127
977.536	1128
977.620	754
977.703	1597
977.787	1119
977.870	978
977.953	1458
978.037	613
978.120	1840
978.203	1188
978.287	1605
978.370	1363
978.453	1596
978.536	795
978.620	2148
978.703	1793
978.786	428
978.869	-494
978.952	219
979.035	2079
979.118	551
979.201	1196
979.284	1032
979.367	618
979.450	999
979.533	778
979.616	790
979.699	564
979.782	548
979.865	902
979.948	423
980.030	574
980.113	1319
980.196	83
980.279	1109
980.361	496
980.444	606
980.526	857
980.609	1634
980.692	1542
980.774	891
980.857	729
980.939	2240
981.022	153
981.104	338
981.187	963
981.269	1006
981.352	1056
981.434	-51
981.516	413
981.599	1881
981.681	238
981.763	456
981.846	848
981.928	706
982.010	1286
982.092	578
982.174	1051
982.256	924
982.339	1036
982.421	85
982.503	1032
982.585	375
982.667	797
982.749	703
982.831	890
982.913	-174
982.995	1211
983.077	860
983.158	1562
983.240	33
983.322	1349
983.404	1622
983.486	1029
983.568	1922
983.649	215
983.731	1611
983.813	668
983.894	1081
983.976	657
984.058	1043
984.139	1052
984.221	689
984.302	1228
984.384	820
984.465	980
984.547	678
984.628	517
984.710	980
984.791	696
984.872	945
984.954	380
985.035	711
985.116	-471
985.198	1369
985.279	1914
985.360	502
985.441	801
985.522	1583
985.604	684
985.685	-1037
985.766	1238
985.847	2048
985.928	149
986.009	1181
986.090	489
986.171	2011
986.252	55
986.333	545
986.414	1147
986.495	545
986.576	286
986.656	1073
986.737	1314
986.818	808
986.899	198
986.980	1282
987.060	1497
987.141	1036
987.222	468
987.302	1250
987.383	1726
987.464	1129
987.544	1073
987.625	547
987.705	1614
987.786	1420
987.866	809
987.947	1037
988.027	1316
988.108	1205
988.188	656
988.268	1081
988.349	863
988.429	703
988.509	1135
988.589	1769
988.670	743
988.750	2313
988.830	47
988.910	1423
988.990	1610
989.070	970
989.151	382
989.231	234
989.311	1347
989.391	1432
989.471	1113
989.551	850
989.631	108
989.711	1650
989.791	146
989.870	221
989.950	1837
990.030	414
990.110	320
990.190	-2
990.269	196
990.349	379
990.429	-10
990.509	643
990.588	108
990.668	1043
990.747	-127
990.827	56
990.907	553
990.986	719
991.066	661
991.145	185
991.225	965
991.304	-492
991.383	864
991.463	238
991.542	1226
991.622	484
991.701	-499
991.780	391
991.859	935
991.939	-162
992.018	1694
992.097	472
992.176	776
992.256	234
992.335	61
992.414	708
992.493	-6
992.572	-389
992.651	940
992.730	53
992.809	-151
992.888	283
992.967	320
993.046	300
993.125	-91
993.203	228
993.282	604
993.361	147
993.440	183
993.519	260
993.597	-407
993.676	-18
993.755	635
993.834	-62
993.912	250
993.991	331
994.069	-245
994.148	503
994.226	-212
994.305	-175
994.384	-202
994.462	446
994.540	-130
994.619	146
994.697	-601
994.776	-434
994.854	188
994.932	-347
995.011	318
995.089	-33
995.167	-267
995.245	601
995.324	-574
995.402	56
995.480	-1033
995.558	762
995.636	-628
995.714	77
995.792	513
995.870	-784
995.948	-925
996.026	-479
996.104	-1159
996.182	327
996.260	-275
996.338	315
996.416	-1033
996.494	-227
996.572	338
996.649	223
996.727	-224
996.805	-274
996.883	-248
996.960	-1080
997.038	-547
997.116	272
997.193	-600
997.271	141
997.348	-14
997.426	-595
997.504	-1013
997.581	-437
997.658	600
997.736	-1209
997.813	-1381
997.891	259
997.968	-764
998.046	-413
998.123	-582
998.200	-233
998.277	-521
998.355	-401
998.432	-2347
998.509	95
998.586	339
998.663	399
998.741	-275
998.818	-1021
998.895	-1048
998.972	-1327
999.049	-774
999.126	-868
999.203	480
999.280	-532
999.357	-1069
999.434	-1051
999.511	106
999.587	-570
999.664	-859
999.741	41
999.818	55
999.895	-914
999.971	-862
1000.048	-1242
1000.125	692
1000.202	-781
1000.278	-84
1000.355	-469
1000.431	-588
1000.508	-1765
1000.584	147
1000.661	-369
1000.738	-1145
1000.814	-217
1000.890	-889
1000.967	-1207
1001.043	-1077
1001.120	-1860
1001.196	-1152
1001.272	-862
1001.349	-282
1001.425	116
1001.501	-951
1001.577	-1602
1001.654	-187
1001.730	-836
1001.806	-718
1001.882	-1774
1001.958	-536
1002.034	-478
1002.110	-827
1002.186	-964
1002.262	-1728
1002.338	-1812
1002.414	-246
1002.490	-257
1002.566	-1422
1002.642	-905
1002.718	-368
1002.794	-374
1002.870	-935
1002.945	-60
1003.021	-738
1003.097	-1185
1003.173	-961
1003.248	-363
1003.324	-1009
1003.400	-764
1003.475	-1344
1003.551	-1212
1003.626	-1022
1003.702	-829
1003.777	-1207
1003.853	-563
1003.928	-1386
1004.004	-600
1004.079	-530
1004.155	-500
1004.230	-1870
1004.305	164
1004.381	-1509
1004.456	-1021
1004.531	-1124
1004.607	-975
1004.682	-1076
1004.757	1
1004.832	-1063
1004.907	-1096
1004.982	-1194
1005.057	38
1005.133	-1215
1005.208	-1176
1005.283	-1922
1005.358	-1014
1005.433	-1217
1005.508	-1120
1005.583	-1321
1005.657	-1312
1005.732	119
1005.807	-909
1005.882	-728
1005.957	-277
1006.032	-451
1006.106	-390
1006.181	-1266
1006.256	-1053
1006.331	-1809
1006.405	-1524
1006.480	-1130
1006.554	-919
1006.629	-1073
1006.704	-1404
1006.778	-1271
1006.853	-537
1006.927	-1686
1007.002	-892
1007.076	-819
1007.150	-529
1007.225	-335
1007.299	-1052
1007.373	-1931
1007.448	-275
1007.522	-202
1007.596	-469
1007.671	-1446
1007.745	-655
1007.819	-1667
1007.893	-801
1007.967	-695
1008.041	-2299
1008.115	-415
1008.190	-1871
1008.264	-355
1008.338	-2007
1008.412	-1148
1008.486	-713
1008.560	-742
1008.633	-230
1008.707	-1692
1008.781	-608
1008.855	-821
1008.929	-948
1009.003	-2054
1009.076	-1967
1009.150	-1068
1009.224	-1579
1009.298	-161
1009.371	-1782
1009.445	-370
1009.519	-1076
1009.592	-1560
1009.666	-611
1009.739	-508
1009.813	-1497
1009.886	-616
1009.960	-2117
1010.033	-1117
1010.107	-1209
1010.180	-1463
1010.253	-1231
1010.327	-1171
1010.400	-1075
1010.473	-2495
1010.547	235
1010.620	-674
1010.693	-135
1010.766	-1014
1010.840	-1338
1010.913	-1422
1010.986	-1927
1011.059	-969
1011.132	-722
1011.205	-332
1011.278	-1112
1011.351	-1044
1011.424	-558
1011.497	-537
1011.570	-1738
1011.643	-1622
1011.716	-1972
1011.789	-1606
1011.862	-781
1011.934	-1014
1012.007	-2279
1012.080	-1220
1012.153	-585
1012.225	-1085
1012.298	-853
1012.371	-1523
1012.443	-643
1012.516	-1437
1012.588	-1182
1012.661	-1285
1012.733	-1343
1012.806	9
1012.879	-1770
1012.951	-1556
1013.023	-1301
1013.096	-1593
1013.168	-1683
1013.241	-1512
1013.313	-1264
1013.385	-1340
1013.458	-1530
1013.530	-1104
1013.602	-2058
1013.674	-911
1013.746	-1348
1013.819	-2250
1013.891	-2002
1013.963	-1330
1014.035	-715
1014.107	-400
1014.179	-1222
1014.251	-1374
1014.323	-1711
1014.395	-999
1014.467	-1360
1014.539	-1171
1014.611	-1823
1014.683	-1037
1014.754	-786
1014.826	-1717
1014.898	-1064
1014.970	-1721
1015.042	-171
1015.113	-1128
1015.185	-2135
1015.257	-2083
1015.328	-575
1015.400	-1744
1015.471	-1256
1015.543	-1704
1015.615	-534
1015.686	-1404
1015.757	-827
1015.829	-1203
1015.901	-1746
1015.972	-1917
1016.043	-1357
1016.115	-1182
1016.186	-1017
1016.257	-1471
1016.328	-1484
1016.400	-714
1016.471	-1258
1016.542	-883
1016.613	-1223
1016.685	-1078
1016.756	-1705
1016.827	-1104
1016.898	-1754
1016.969	-899
1017.040	-1586
1017.111	-1739
1017.182	-1277
1017.253	-1518
1017.324	-968
1017.395	-1723
1017.466	-1141
1017.537	-1150
1017.608	-2195
1017.678	-1096
1017.749	-2081
1017.820	-1400
1017.891	-1747
1017.961	-955
1018.032	-1132
1018.103	-1187
1018.173	-964
1018.244	-1130
1018.315	-967
1018.385	-501
1018.456	-1327
1018.526	-2234
1018.597	-1531
1018.667	-1343
1018.738	-2031
1018.808	-2248
1018.878	-1134
1018.949	-706
1019.019	-1760
1019.089	-1364
1019.160	-1527
1019.230	-1981
1019.300	-646
1019.371	-1841
1019.441	-1072
1019.511	-1320
1019.581	-1425
1019.651	-694
1019.721	-1440
1019.791	-1788
1019.861	-1375
1019.931	-867
1020.001	-1494
1020.071	-1273
1020.141	-2221
1020.211	-1728
1020.281	-1848
1020.351	-1213
1020.421	-1180
1020.491	-383
1020.560	-1315
1020.630	-1488
1020.700	-1378
1020.770	-1805
1020.839	-1097
1020.909	-914
1020.979	-1782
1021.048	-940
1021.118	-1015
1021.187	-1890
1021.257	-627
1021.326	-1441
1021.396	-1340
1021.465	-1081
1021.535	-811
1021.604	-2044
1021.674	-1447
1021.743	-1492
1021.812	-2222
1021.882	-1316
1021.951	-1217
1022.020	-1757
1022.089	-1007
1022.159	-2106
1022.228	-1376
1022.297	-2468
1022.366	-462
1022.435	-1228
1022.504	-1646
1022.573	-2207
1022.642	-1282
1022.711	-2222
1022.781	-1228
1022.849	-1624
1022.918	-1529
1022.987	-1414
1023.056	-829
1023.125	-1678
1023.194	-1505
1023.263	-1333
1023.331	-1809
1023.400	-1671
1023.469	-2244
1023.538	-1049
1023.606	-2648
1023.675	-1899
1023.744	-1648
1023.812	-1855
1023.881	-1141
1023.949	-1356
1024.018	-1541
1024.086	-1989
1024.155	-1117
1024.223	-2394
1024.292	-1560
1024.360	-1436
1024.429	-1610
1024.497	-1692
1024.565	-2000
1024.634	-1693
1024.702	-752
1024.770	-1562
1024.838	-1746
1024.907	-1080
1024.975	-1828
1025.043	-1806
1025.111	-1492
1025.179	-911
1025.247	-1402
1025.315	-1535
1025.383	-1359
1025.451	-1766
1025.519	-1679
1025.587	-2076
1025.655	-352
1025.723	-2141
1025.791	-1492
1025.859	-1083
1025.927	-389
1025.995	-1582
1026.062	-1267
1026.130	-2091
1026.198	-1583
1026.266	-1340
1026.333	-1244
1026.401	-958
1026.469	-1145
1026.536	-1818
1026.604	-1513
1026.671	-1727
1026.739	-1017
1026.806	-689
1026.874	-2193
1026.941	-1614
1027.009	-1577
1027.076	-1755
1027.144	-1413
1027.211	-1768
1027.278	-1839
1027.345	-1297
1027.413	-1105
1027.480	-1962
1027.547	-1237
1027.614	-1740
1027.682	-1336
1027.749	-1771
1027.816	-1388
1027.883	-1529
1027.950	-1032
1028.017	-2344
1028.084	-1528
1028.151	-1904
1028.218	-2216
1028.285	-1808
1028.352	-1235
1028.419	-1925
1028.486	-1853
1028.553	-884
1028.619	-2076
1028.686	-1787
1028.753	-1775
1028.820	-1660
1028.886	-2308
1028.953	-1643
1029.020	-2231
1029.086	-1873
1029.153	-1269
1029.220	-2756
1029.286	-1463
1029.353	-1501
1029.419	-1582
1029.486	-1724
1029.552	-1348
1029.619	-1660
1029.685	-1419
1029.751	-2050
1029.818	-1240
1029.884	-2377
1029.951	-714
1030.017	-2391
1030.083	-1854
1030.149	-1524
1030.216	-1576
1030.282	-1870
1030.348	-2468
1030.414	-1434
1030.480	-1736
1030.546	-1289
1030.612	-1737
1030.678	-2613
1030.744	-1355
1030.810	-2236
1030.876	-1413
1030.942	-1925
1031.008	-2282
1031.074	-1802
1031.140	-2030
1031.206	-1354
1031.272	-2349
1031.337	-1770
1031.403	-2113
1031.469	-2057
1031.534	-2190
1031.600	-1076
1031.666	-2438
1031.731	-2000
1031.797	-2001
1031.863	-1820
1031.928	-1049
1031.994	-2715
1032.059	-1338
1032.125	-2349
1032.190	-1381
1032.256	-1183
1032.321	-1693
1032.386	-1170
1032.452	-1717
1032.517	-1559
1032.582	-2158
1032.647	-1364
1032.713	-1338
1032.778	-1486
1032.843	-2532
1032.908	-2046
1032.974	-1465
1033.039	-2055
1033.104	-1336
1033.169	-1732
1033.234	-1554
1033.299	-254
1033.364	-860
1033.429	-832
1033.494	-585
1033.559	-2052
1033.624	-1127
1033.688	-1047
1033.753	-1771
1033.818	-1657
1033.883	-927
1033.948	-362
1034.013	-673
1034.077	205
1034.142	950
1034.207	1130
1034.271	2809
1034.336	4228
1034.400	3774
1034.465	2689
1034.530	1263
1034.594	-555
1034.658	-1202
1034.723	-2176
1034.787	-999
1034.852	-1784
1034.916	-1888
1034.981	-1748
1035.045	-2342
1035.109	-1860
1035.173	-2032
1035.238	-2296
1035.302	-1419
1035.366	-1671
1035.430	-1959
1035.495	-1762
1035.559	-1567
1035.623	-1071
1035.687	-2925
1035.751	-1890
1035.815	-1921
1035.879	-1350
1035.943	-1296
1036.007	-2449
1036.071	-1560
1036.135	-1921
1036.198	-1501
1036.262	-964
1036.326	-1289
1036.390	-1391
1036.454	-795
1036.517	-572
1036.581	13
1036.645	816
1036.709	1668
1036.772	-347
1036.836	-1532
1036.900	-1881
1036.963	-2089
1037.026	-1924
1037.090	-1424
1037.154	-1391
1037.217	-403
1037.280	-1603
1037.344	-1407
1037.407	-2316
1037.471	-1677
1037.534	-1969
1037.597	-2257
1037.661	-2106
1037.724	-873
1037.787	-1742
1037.850	-1582
1037.913	-1623
1037.977	-1775
1038.040	-1545
1038.103	-1905
1038.166	-2732
1038.229	-1377
1038.292	-1735
1038.355	-2139
1038.418	-1600
1038.481	-1196
1038.544	-2462
1038.607	-1046
1038.670	-1383
1038.732	-1717
1038.795	-2047
1038.858	-1733
1038.921	-1618
1038.984	-1040
1039.046	-2421
1039.109	-1615
1039.172	-2083
1039.234	-2601
1039.297	-1784
1039.360	-2498
1039.422	-2395
1039.485	-1259
1039.547	-1737
1039.610	-1663
1039.672	-2256
1039.734	-2196
1039.797	-1497
1039.859	-2054
1039.922	-1775
1039.984	-1279
1040.046	-1637
1040.109	-1734
1040.171	-2263
1040.233	-1425
1040.295	-1949
1040.358	-1740
1040.420	-1528
1040.482	-2272
1040.544	-2359
1040.606	-953
1040.668	-2301
1040.730	-1784
1040.792	-1472
1040.854	-2124
1040.916	-2403
1040.978	-1607
1041.040	-1381
1041.102	-1640
1041.164	-2342
1041.225	-1709
1041.287	-2023
1041.349	-2445
1041.411	-2313
1041.472	-1682
1041.534	-1418
1041.596	-2039
1041.657	-2321
1041.719	-1896
1041.781	-1849
1041.842	-2096
1041.904	-1665
1041.965	-2522
1042.027	-1253
1042.088	-1242
1042.150	-1635
1042.211	-1726
1042.272	-2367
1042.334	-1894
1042.395	-1327
1042.456	-1884
1042.518	-1927
1042.579	-1903
1042.640	-2135
1042.701	-1970
1042.763	-1684
1042.824	-1826
1042.885	-2105
1042.946	-1443
1043.007	-1899
1043.068	-2047
1043.129	-2086
1043.190	-1754
1043.251	-1265
1043.312	-2010
1043.373	-1887
1043.434	-1560
1043.495	-1747
1043.556	-2178
1043.616	-2159
1043.677	-1722
1043.738	-1841
1043.799	-2016
1043.859	-1961
1043.920	-1081
1043.981	-2235
1044.041	-2308
1044.102	-1817
1044.162	-1522
1044.223	-1947
1044.284	-1886
1044.344	-1721
1044.405	-1641
1044.465	-1859
1044.525	-1560
1044.586	-1416
1044.646	-1877
1044.707	-2053
1044.767	-1942
1044.827	-1553
1044.887	-1084
1044.948	-2297
1045.008	-1874
1045.068	-1521
1045.128	-1740
1045.188	-2055
1045.249	-1009
1045.309	-1597
1045.369	-676
1045.429	-1122
1045.489	-1094
1045.549	-497
1045.609	-1666
1045.669	-2101
1045.729	-625
1045.789	-1049
1045.848	-1174
1045.908	-913
1045.968	-287
1046.028	-1191
1046.088	-2119
1046.147	-1158
1046.207	-908
1046.267	-1767
1046.326	-1728
1046.386	-883
1046.446	-1616
1046.505	-651
1046.565	-591
1046.624	-523
1046.684	-778
1046.743	-1233
1046.803	-56
1046.862	-131
1046.922	0
